trialNumber,mychoice,otherchoice,stay,skip,pointsWon,otherScore,unobtained,choicepos,pos_1,otherscore,allowedkeyresp,trials_2.thisRepN,trials_2.thisTrialN,trials_2.thisN,trials_2.thisIndex,trials.thisRepN,trials.thisTrialN,trials.thisN,trials.thisIndex,image_2.started,image_2.stopped,key_resp_2.keys,key_resp_2.rt,key_resp_2.started,key_resp_2.stopped,key_resp_6.keys,key_resp_6.rt,key_resp_6.started,key_resp_6.stopped,text.started,text.stopped,left_3.started,left_3.stopped,middle_3.started,middle_3.stopped,right_3.started,right_3.stopped,otherleft_1.started,otherleft_1.stopped,othermiddle_1.started,othermiddle_1.stopped,otherright_1.started,otherright_1.stopped,text_2.started,text_2.stopped,left_4.started,left_4.stopped,right_4.started,right_4.stopped,middle_4.started,middle_4.stopped,ISI_3.started,ISI_3.stopped,mypick.started,mypick.stopped,otherpick.started,otherpick.stopped,residal.started,residal.stopped,otherleft_5.started,otherleft_5.stopped,othermiddle_5.started,othermiddle_5.stopped,otherright_5.started,otherright_5.stopped,left_5.started,left_5.stopped,right_5.started,right_5.stopped,middle_5.started,middle_5.stopped,ISI_5.started,ISI_5.stopped,mypick_1.started,mypick_1.stopped,otherpick_1.started,otherpick_1.stopped,residal_1.started,residal_1.stopped,otherleft_6.started,otherleft_6.stopped,othermiddle_6.started,othermiddle_6.stopped,otherright_6.started,otherright_6.stopped,text_3.started,text_3.stopped,rating,ratingrt,totalScore,othertotalScore,unobtainedScore,image_4.started,image_4.stopped,key_resp_3.keys,key_resp_3.rt,key_resp_3.started,key_resp_3.stopped,image_5.started,image_5.stopped,key_resp.keys,key_resp.rt,key_resp.started,key_resp.stopped,otherleft_3.started,otherleft_3.stopped,othermiddle_3.started,othermiddle_3.stopped,otherright_3.started,otherright_3.stopped,text_4.started,text_4.stopped,ISI_2.started,ISI_2.stopped,key_resp_4.keys,key_resp_4.rt,key_resp_4.started,key_resp_4.stopped,otherleft_4.started,otherleft_4.stopped,othermiddle_4.started,othermiddle_4.stopped,otherright_4.started,otherright_4.stopped,text_5.started,text_5.stopped,left.started,left.stopped,right.started,right.stopped,middle.started,middle.stopped,ISI.started,ISI.stopped,mypick_3.started,mypick_3.stopped,otherpick_3.started,otherpick_3.stopped,residal_3.started,residal_3.stopped,otherleft.started,otherleft.stopped,othermiddle.started,othermiddle.stopped,otherright.started,otherright.stopped,right_2.started,right_2.stopped,middle_2.started,middle_2.stopped,left_2.started,left_2.stopped,ISI_4.started,ISI_4.stopped,mypick_4.started,mypick_4.stopped,otherpick_4.started,otherpick_4.stopped,residal_4.started,residal_4.stopped,otherleft_2.started,otherleft_2.stopped,othermiddle_2.started,othermiddle_2.stopped,otherright_2.started,otherright_2.stopped,text_6.started,text_6.stopped,image_3.started,image_3.stopped,key_resp_9.keys,key_resp_9.rt,key_resp_9.started,key_resp_9.stopped,gender,age,participant,date,expName,psychopyVersion,frameRate,
,,,,,,,,,,,,,,,,,,,,33.9442943999893,None,space,6.547988099977374,33.9442943999893,None,,,,,,,,,,,,,,,,,,,,,,,,,,,,,,,,,,,,,,,,,,,,,,,,,,,,,,,,,,,,,,,,,,,,,,,,,,,,,,,,,,,,,,,,,,,,,,,,,,,,,,,,,,,,,,,,,,,,,,,,,,,,,,,,,,,,,,,,,,,,,,,,,,,,,,f,22,chenxuan,2022_Apr_03_1930,emotion,2021.1.4,59.368074327924305,
32,50,200,50,two,50,200,50,,,,,0,0,0,31,,,,,,,,,,,left,1.2926389999920502,40.612655200005975,None,40.612655200005975,None,41.94081380002899,None,41.94081380002899,None,41.94081380002899,None,43.917552200029604,44.417462500045076,43.917552200029604,44.417462500045076,43.917552200029604,44.417462500045076,41.94081380002899,None,44.45079326999839,None,44.45079326999839,None,44.45079326999839,None,0.0056464700610376894,None,44.45079326999839,None,44.45079326999839,None,44.45079326999839,None,44.45079326999839,None,44.45079326999839,None,44.45079326999839,None,44.46713430003729,None,44.46713430003729,None,44.46713430003729,None,0.012849139980971813,0.5128491399809718,44.46713430003729,None,44.46713430003729,None,44.46713430003729,None,44.46713430003729,None,44.46713430003729,None,44.46713430003729,None,46.45048699999461,46.45048699999461,-25.6,7.127,250,200,50,,,,,,,,,,,,,,,,,,,,,,,,,,,,,,,,,,,,,,,,,,,,,,,,,,,,,,,,,,,,,,,,,,,,,,,,,,,,,,,,,,,f,22,chenxuan,2022_Apr_03_1930,emotion,2021.1.4,59.368074327924305,
86,-200,0,-200,one,-200,0,-200,,,,,0,1,1,85,,,,,,,,,,,left,2.2434886999544688,53.6707974000019,None,53.6707974000019,None,55.93536430003587,None,55.93536430003587,None,55.93536430003587,None,57.91465720004635,58.4147515000077,57.91465720004635,58.4147515000077,57.91465720004635,58.4147515000077,55.93536430003587,None,58.448125670000444,None,58.448125670000444,None,58.448125670000444,None,0.007689669961109757,None,58.448125670000444,None,58.448125670000444,None,58.448125670000444,None,58.448125670000444,None,58.448125670000444,None,58.448125670000444,None,58.4623649000423,None,58.4623649000423,None,58.4623649000423,None,0.015520140004809946,0.51552014000481,58.4623649000423,None,58.4623649000423,None,58.4623649000423,None,58.4623649000423,None,58.4623649000423,None,58.4623649000423,None,60.4476757000084,60.4476757000084,-47.7,2.157,50,200,-150,,,,,,,,,,,,,,,,,,,,,,,,,,,,,,,,,,,,,,,,,,,,,,,,,,,,,,,,,,,,,,,,,,,,,,,,,,,,,,,,,,,f,22,chenxuan,2022_Apr_03_1930,emotion,2021.1.4,59.368074327924305,
33,50,50,200,two,50,50,200,,,,,0,2,2,32,,,,,,,,,,,down,2.4745820999960415,62.66224490001332,None,62.66224490001332,None,65.16813820000971,None,65.16813820000971,None,65.16813820000971,None,67.14604650001274,67.64608680002857,67.14604650001274,67.64608680002857,67.14604650001274,67.64608680002857,65.16813820000971,None,67.67948547003326,None,67.67948547003326,None,67.67948547003326,None,0.009615670016501099,None,67.67948547003326,None,67.67948547003326,None,67.67948547003326,None,67.67948547003326,None,67.67948547003326,None,67.67948547003326,None,67.69197270000586,None,67.69197270000586,None,67.69197270000586,None,4.04700986109674e-05,0.500040470098611,67.69197270000586,None,67.69197270000586,None,67.69197270000586,None,67.69197270000586,None,67.69197270000586,None,67.69197270000586,None,69.67906719999155,69.67906719999155,-18.3,3.009,100,250,50,,,,,,,,,,,,,,,,,,,,,,,,,,,,,,,,,,,,,,,,,,,,,,,,,,,,,,,,,,,,,,,,,,,,,,,,,,,,,,,,,,,f,22,chenxuan,2022_Apr_03_1930,emotion,2021.1.4,59.368074327924305,
41,200,50,200,one,200,50,200,,,,,0,3,3,40,,,,,,,,,,,right,3.1306760999723338,72.74376620003022,None,72.74376620003022,None,75.8998644000385,None,75.8998644000385,None,75.8998644000385,None,77.87741850002203,78.37718850001693,77.87741850002203,78.37718850001693,77.87741850002203,78.37718850001693,75.8998644000385,None,78.41083447004203,None,78.41083447004203,None,78.41083447004203,None,0.010896270105149597,None,78.41083447004203,None,78.41083447004203,None,78.41083447004203,None,78.41083447004203,None,78.41083447004203,None,78.41083447004203,None,78.42190100002335,None,78.42190100002335,None,78.42190100002335,None,0.0025746700703166425,0.5025746700703166,78.42190100002335,None,78.42190100002335,None,78.42190100002335,None,78.42190100002335,None,78.42190100002335,None,78.42190100002335,None,80.41040220001014,80.41040220001014,45.3,5.047,300,300,250,,,,,,,,,,,,,,,,,,,,,,,,,,,,,,,,,,,,,,,,,,,,,,,,,,,,,,,,,,,,,,,,,,,,,,,,,,,,,,,,,,,f,22,chenxuan,2022_Apr_03_1930,emotion,2021.1.4,59.368074327924305,
9,50,0,200,two,50,0,200,,,,,0,4,4,8,,,,,,,,,,,down,1.6684035999933258,85.51148829999147,None,85.51148829999147,None,87.2120533999987,None,87.2120533999987,None,87.2120533999987,None,89.19222970004193,89.69184230000246,89.19222970004193,89.69184230000246,89.19222970004193,89.69184230000246,87.2120533999987,None,89.72516177004437,None,89.72516177004437,None,89.72516177004437,None,0.011591470101848245,None,89.72516177004437,None,89.72516177004437,None,89.72516177004437,None,89.72516177004437,None,89.72516177004437,None,89.72516177004437,None,89.73483850003686,None,89.73483850003686,None,89.73483850003686,None,0.004336170095484704,0.5043361700954847,89.73483850003686,None,89.73483850003686,None,89.73483850003686,None,89.73483850003686,None,89.73483850003686,None,89.73483850003686,None,91.72470389999216,91.72470389999216,25.799999999999997,4.386,350,300,450,,,,,,,,,,,,,,,,,,,,,,,,,,,,,,,,,,,,,,,,,,,,,,,,,,,,,,,,,,,,,,,,,,,,,,,,,,,,,,,,,,,f,22,chenxuan,2022_Apr_03_1930,emotion,2021.1.4,59.368074327924305,
56,0,-200,-50,two,0,-200,-50,,,,,0,5,5,55,,,,,,,,,,,down,3.972072999982629,96.1631197000388,None,96.1631197000388,None,100.1604486000142,None,100.1604486000142,None,100.1604486000142,None,102.13924250000855,102.63905600004364,102.13924250000855,102.63905600004364,102.13924250000855,102.63905600004364,100.1604486000142,None,102.67259047003463,None,102.67259047003463,None,102.67259047003463,None,0.011551370087545365,None,102.67259047003463,None,102.67259047003463,None,102.67259047003463,None,102.67259047003463,None,102.67259047003463,None,102.67259047003463,None,102.68241579999449,None,102.68241579999449,None,102.68241579999449,None,0.004429069987963885,0.5044290699879639,102.68241579999449,None,102.68241579999449,None,102.68241579999449,None,102.68241579999449,None,102.68241579999449,None,102.68241579999449,None,104.67199200001778,104.67199200001778,49.7,4.876,350,100,400,,,,,,,,,,,,,,,,,,,,,,,,,,,,,,,,,,,,,,,,,,,,,,,,,,,,,,,,,,,,,,,,,,,,,,,,,,,,,,,,,,,f,22,chenxuan,2022_Apr_03_1930,emotion,2021.1.4,59.368074327924305,
73,-200,-50,-50,one,-200,-50,-50,,,,,0,6,6,72,,,,,,,,,,,right,1.519898500002455,109.6029014000087,None,109.6029014000087,None,111.13744990003761,None,111.13744990003761,None,111.13744990003761,None,113.12243670003954,None,113.12243670003954,None,113.12243670003954,None,111.13744990003761,None,113.63703987000045,None,113.63703987000045,None,113.63703987000045,None,0.009249169961549342,None,113.63703987000045,None,113.63703987000045,None,113.63703987000045,None,113.63703987000045,None,113.63703987000045,None,113.63703987000045,None,113.64938640000764,None,113.64938640000764,None,113.64938640000764,None,6.206997204571962e-05,0.5000620699720457,113.64938640000764,None,113.64938640000764,None,113.64938640000764,None,113.64938640000764,None,113.64938640000764,None,113.64938640000764,None,115.63677250000183,115.63677250000183,-26.2,3.396,150,50,350,,,,,,,,,,,,,,,,,,,,,,,,,,,,,,,,,,,,,,,,,,,,,,,,,,,,,,,,,,,,,,,,,,,,,,,,,,,,,,,,,,,f,22,chenxuan,2022_Apr_03_1930,emotion,2021.1.4,59.368074327924305,
65,0,-200,0,one,0,-200,0,,,,,0,7,7,64,,,,,,,,,,,left,2.7302559000090696,119.08959510002751,None,119.08959510002751,None,121.84199530002661,None,121.84199530002661,None,121.84199530002661,None,123.81847080000443,124.318459000031,123.81847080000443,124.318459000031,123.81847080000443,124.318459000031,121.84199530002661,None,124.35180507004262,None,124.35180507004262,None,124.35180507004262,None,0.005442070076242089,None,124.35180507004262,None,124.35180507004262,None,124.35180507004262,None,124.35180507004262,None,124.35180507004262,None,124.35180507004262,None,124.38196259998949,None,124.38196259998949,None,124.38196259998949,None,0.008373439952265471,0.5083734399522655,124.38196259998949,None,124.38196259998949,None,124.38196259998949,None,124.38196259998949,None,124.38196259998949,None,124.38196259998949,None,126.35117050004192,126.35117050004192,39.0,1.846,150,-150,350,,,,,,,,,,,,,,,,,,,,,,,,,,,,,,,,,,,,,,,,,,,,,,,,,,,,,,,,,,,,,,,,,,,,,,,,,,,,,,,,,,,f,22,chenxuan,2022_Apr_03_1930,emotion,2021.1.4,59.368074327924305,
15,50,0,0,one,50,0,0,,,,,0,8,8,14,,,,,,,,,,,down,1.7033756999881007,128.28301700000884,None,128.28301700000884,None,130.0064759000088,None,130.0064759000088,None,130.0064759000088,None,131.9835988000268,132.4833000000217,131.9835988000268,132.4833000000217,131.9835988000268,132.4833000000217,130.0064759000088,None,132.5167239700444,None,132.5167239700444,None,132.5167239700444,None,0.011342670011799783,None,132.5167239700444,None,132.5167239700444,None,132.5167239700444,None,132.5167239700444,None,132.5167239700444,None,132.5167239700444,None,132.52642639999976,None,132.52642639999976,None,132.52642639999976,None,0.004224770003929734,0.5042247700039297,132.52642639999976,None,132.52642639999976,None,132.52642639999976,None,132.52642639999976,None,132.52642639999976,None,132.52642639999976,None,134.5163947000401,134.5163947000401,35.099999999999994,1.944,200,-150,350,,,,,,,,,,,,,,,,,,,,,,,,,,,,,,,,,,,,,,,,,,,,,,,,,,,,,,,,,,,,,,,,,,,,,,,,,,,,,,,,,,,f,22,chenxuan,2022_Apr_03_1930,emotion,2021.1.4,59.368074327924305,
51,-50,0,-200,one,-50,0,-200,,,,,0,9,9,50,,,,,,,,,,,left,4.15410610003164,136.5332259000279,None,136.5332259000279,None,140.72331319999648,None,140.72331319999648,None,140.72331319999648,None,142.69811050000135,143.19799770001555,142.69811050000135,143.19799770001555,142.69811050000135,143.19799770001555,140.72331319999648,None,143.231302770006,None,143.231302770006,None,143.231302770006,None,0.011462970054708421,None,143.231302770006,None,143.231302770006,None,143.231302770006,None,143.231302770006,None,143.231302770006,None,143.231302770006,None,143.2402794000227,None,143.2402794000227,None,143.2402794000227,None,0.0043954699649475515,0.5043954699649476,143.2402794000227,None,143.2402794000227,None,143.2402794000227,None,143.2402794000227,None,143.2402794000227,None,143.2402794000227,None,145.23089549998986,145.23089549998986,-26.0,1.879,150,-150,150,,,,,,,,,,,,,,,,,,,,,,,,,,,,,,,,,,,,,,,,,,,,,,,,,,,,,,,,,,,,,,,,,,,,,,,,,,,,,,,,,,,f,22,chenxuan,2022_Apr_03_1930,emotion,2021.1.4,59.368074327924305,
70,0,0,-200,two,0,0,-200,,,,,0,10,10,69,,,,,,,,,,,left,2.098230900010094,147.1665033000172,None,147.1665033000172,None,149.28845650004223,None,149.28845650004223,None,149.28845650004223,None,151.2630962000112,151.76301230001263,151.2630962000112,151.76301230001263,151.2630962000112,151.76301230001263,149.28845650004223,None,151.79632777002408,None,151.79632777002408,None,151.79632777002408,None,0.01154586998745799,None,151.79632777002408,None,151.79632777002408,None,151.79632777002408,None,151.79632777002408,None,151.79632777002408,None,151.79632777002408,None,151.80702760000713,None,151.80702760000713,None,151.80702760000713,None,0.004216369998175651,0.5042163699981757,151.80702760000713,None,151.80702760000713,None,151.80702760000713,None,151.80702760000713,None,151.80702760000713,None,151.80702760000713,None,153.79598540003644,153.79598540003644,39.400000000000006,2.294,150,-150,-50,,,,,,,,,,,,,,,,,,,,,,,,,,,,,,,,,,,,,,,,,,,,,,,,,,,,,,,,,,,,,,,,,,,,,,,,,,,,,,,,,,,f,22,chenxuan,2022_Apr_03_1930,emotion,2021.1.4,59.368074327924305,
94,-200,-200,-50,two,-200,-200,-50,,,,,0,11,11,93,,,,,,,,,,,right,3.3412163999746554,156.14597950002644,None,156.14597950002644,None,159.51707280002302,None,159.51707280002302,None,159.51707280002302,None,161.49441869999282,161.99433429999044,161.49441869999282,161.99433429999044,161.49441869999282,161.99433429999044,159.51707280002302,None,162.0276140700211,None,162.0276140700211,None,162.0276140700211,None,0.011445769981946796,None,162.0276140700211,None,162.0276140700211,None,162.0276140700211,None,162.0276140700211,None,162.0276140700211,None,162.0276140700211,None,162.03688289999263,None,162.03688289999263,None,162.03688289999263,None,0.004114369978196919,0.5041143699781969,162.03688289999263,None,162.03688289999263,None,162.03688289999263,None,162.03688289999263,None,162.03688289999263,None,162.03688289999263,None,164.02722839999478,164.02722839999478,-25.3,8.003,-50,-350,-100,,,,,,,,,,,,,,,,,,,,,,,,,,,,,,,,,,,,,,,,,,,,,,,,,,,,,,,,,,,,,,,,,,,,,,,,,,,,,,,,,,,f,22,chenxuan,2022_Apr_03_1930,emotion,2021.1.4,59.368074327924305,
53,-200,-50,0,one,-200,-50,0,,,,,0,12,12,52,,,,,,,,,,,down,1.4959727000095882,172.0905053000315,None,172.0905053000315,None,173.6187567000161,None,173.6187567000161,None,173.6187567000161,None,175.5915939999977,176.09153050003806,175.5915939999977,176.09153050003806,175.5915939999977,176.09153050003806,173.6187567000161,None,176.12453976998805,None,176.12453976998805,None,176.12453976998805,None,0.01132967002922669,None,176.12453976998805,None,176.12453976998805,None,176.12453976998805,None,176.12453976998805,None,176.12453976998805,None,176.12453976998805,None,176.1333336000098,None,176.1333336000098,None,176.1333336000098,None,0.0036004699650220573,0.5036004699650221,176.1333336000098,None,176.1333336000098,None,176.1333336000098,None,176.1333336000098,None,176.1333336000098,None,176.1333336000098,None,178.12449930002913,178.12449930002913,-37.3,1.909,-250,-400,-100,,,,,,,,,,,,,,,,,,,,,,,,,,,,,,,,,,,,,,,,,,,,,,,,,,,,,,,,,,,,,,,,,,,,,,,,,,,,,,,,,,,f,22,chenxuan,2022_Apr_03_1930,emotion,2021.1.4,59.368074327924305,
26,50,200,50,one,50,200,50,,,,,0,13,13,25,,,,,,,,,,,down,0.7569748000241816,180.08518570003798,None,180.08518570003798,None,180.86127470002975,None,180.86127470002975,None,180.86127470002975,None,182.84073729999363,183.34009440004593,182.84073729999363,183.34009440004593,182.84073729999363,183.34009440004593,180.86127470002975,None,183.37341257001972,None,183.37341257001972,None,183.37341257001972,None,0.011571670067496598,None,183.37341257001972,None,183.37341257001972,None,183.37341257001972,None,183.37341257001972,None,183.37341257001972,None,183.37341257001972,None,183.38268850004533,None,183.38268850004533,None,183.38268850004533,None,0.004354770062491298,0.5043547700624913,183.38268850004533,None,183.38268850004533,None,183.38268850004533,None,183.38268850004533,None,183.38268850004533,None,183.38268850004533,None,185.37304700003006,185.37304700003006,5.399999999999999,3.458,-200,-200,-50,,,,,,,,,,,,,,,,,,,,,,,,,,,,,,,,,,,,,,,,,,,,,,,,,,,,,,,,,,,,,,,,,,,,,,,,,,,,,,,,,,,f,22,chenxuan,2022_Apr_03_1930,emotion,2021.1.4,59.368074327924305,
54,-200,0,-50,one,-200,0,-50,,,,,0,14,14,53,,,,,,,,,,,right,0.7123346999869682,188.88347400003113,None,188.88347400003113,None,189.62699439999415,None,189.62699439999415,None,189.62699439999415,None,191.60512429999653,192.10505230003037,191.60512429999653,192.10505230003037,191.60512429999653,192.10505230003037,189.62699439999415,None,192.13833477002336,None,192.13833477002336,None,192.13833477002336,None,0.011641170072834939,None,192.13833477002336,None,192.13833477002336,None,192.13833477002336,None,192.13833477002336,None,192.13833477002336,None,192.13833477002336,None,192.14804800000275,None,192.14804800000275,None,192.14804800000275,None,0.0045315700699575245,0.5045315700699575,192.14804800000275,None,192.14804800000275,None,192.14804800000275,None,192.14804800000275,None,192.14804800000275,None,192.14804800000275,None,194.1379336999962,194.1379336999962,-42.2,1.44,-400,-200,-100,,,,,,,,,,,,,,,,,,,,,,,,,,,,,,,,,,,,,,,,,,,,,,,,,,,,,,,,,,,,,,,,,,,,,,,,,,,,,,,,,,,f,22,chenxuan,2022_Apr_03_1930,emotion,2021.1.4,59.368074327924305,
69,-50,0,0,two,-50,0,0,,,,,0,15,15,68,,,,,,,,,,,left,0.8742228000191972,195.62921660003485,None,195.62921660003485,None,196.52848660002928,None,196.52848660002928,None,196.52848660002928,None,198.50378640001873,199.00366240000585,198.50378640001873,199.00366240000585,198.50378640001873,199.00366240000585,196.52848660002928,None,199.036742170027,None,199.036742170027,None,199.036742170027,None,0.011539870058186352,None,199.036742170027,None,199.036742170027,None,199.036742170027,None,199.036742170027,None,199.036742170027,None,199.036742170027,None,199.04553910001414,None,199.04553910001414,None,199.04553910001414,None,0.00416906998725608,0.5041690699872561,199.04553910001414,None,199.04553910001414,None,199.04553910001414,None,199.04553910001414,None,199.04553910001414,None,199.04553910001414,None,201.0365388999926,201.0365388999926,-37.7,3.038,-450,-200,-100,,,,,,,,,,,,,,,,,,,,,,,,,,,,,,,,,,,,,,,,,,,,,,,,,,,,,,,,,,,,,,,,,,,,,,,,,,,,,,,,,,,f,22,chenxuan,2022_Apr_03_1930,emotion,2021.1.4,59.368074327924305,
37,200,200,0,one,200,200,0,,,,,0,16,16,36,,,,,,,,,,,down,1.0004271999932826,204.1350254000281,None,204.1350254000281,None,205.1584739999962,None,205.1584739999962,None,205.1584739999962,None,207.13540560001275,207.63528430002043,207.13540560001275,207.63528430002043,207.13540560001275,207.63528430002043,205.1584739999962,None,207.66864667003975,None,207.66864667003975,None,207.66864667003975,None,0.011556070006918162,None,207.66864667003975,None,207.66864667003975,None,207.66864667003975,None,207.66864667003975,None,207.66864667003975,None,207.66864667003975,None,207.67807000002358,None,207.67807000002358,None,207.67807000002358,None,0.004442370089236647,0.5044423700892366,207.67807000002358,None,207.67807000002358,None,207.67807000002358,None,207.67807000002358,None,207.67807000002358,None,207.67807000002358,None,209.67095790000167,209.67095790000167,35.0,2.1,-250,0,-100,,,,,,,,,,,,,,,,,,,,,,,,,,,,,,,,,,,,,,,,,,,,,,,,,,,,,,,,,,,,,,,,,,,,,,,,,,,,,,,,,,,f,22,chenxuan,2022_Apr_03_1930,emotion,2021.1.4,59.368074327924305,
28,0,50,50,one,0,50,50,,,,,0,17,17,27,,,,,,,,,,,down,1.3914583000005223,211.85902189998887,None,211.85902189998887,None,213.2719201000291,None,213.2719201000291,None,213.2719201000291,None,215.25045980000868,215.75013240001863,215.25045980000868,215.75013240001863,215.25045980000868,215.75013240001863,213.2719201000291,None,215.78363287004177,None,215.78363287004177,None,215.78363287004177,None,0.011658670089673251,None,215.78363287004177,None,215.78363287004177,None,215.78363287004177,None,215.78363287004177,None,215.78363287004177,None,215.78363287004177,None,215.79221210000105,None,215.79221210000105,None,215.79221210000105,None,0.004144270089454949,0.504144270089455,215.79221210000105,None,215.79221210000105,None,215.79221210000105,None,215.79221210000105,None,215.79221210000105,None,215.79221210000105,None,217.78325860004406,217.78325860004406,-16.200000000000003,1.754,-250,50,-50,,,,,,,,,,,,,,,,,,,,,,,,,,,,,,,,,,,,,,,,,,,,,,,,,,,,,,,,,,,,,,,,,,,,,,,,,,,,,,,,,,,f,22,chenxuan,2022_Apr_03_1930,emotion,2021.1.4,59.368074327924305,
49,0,-50,-200,one,0,-50,-200,,,,,0,18,18,48,,,,,,,,,,,right,4.095435599971097,219.59796410001582,None,219.59796410001582,None,223.71910520002712,None,223.71910520002712,None,223.71910520002712,None,225.69891510001617,226.19830400001956,225.69891510001617,226.19830400001956,225.69891510001617,226.19830400001956,223.71910520002712,None,226.23137036999688,None,226.23137036999688,None,226.23137036999688,None,0.011501870001666248,None,226.23137036999688,None,226.23137036999688,None,226.23137036999688,None,226.23137036999688,None,226.23137036999688,None,226.23137036999688,None,226.24055670003872,None,226.24055670003872,None,226.24055670003872,None,0.004157569957897067,0.5041575699578971,226.24055670003872,None,226.24055670003872,None,226.24055670003872,None,226.24055670003872,None,226.24055670003872,None,226.24055670003872,None,228.23125640000217,228.23125640000217,39.900000000000006,1.886,-250,0,-250,,,,,,,,,,,,,,,,,,,,,,,,,,,,,,,,,,,,,,,,,,,,,,,,,,,,,,,,,,,,,,,,,,,,,,,,,,,,,,,,,,,f,22,chenxuan,2022_Apr_03_1930,emotion,2021.1.4,59.368074327924305,
89,-200,-50,-200,one,-200,-50,-200,,,,,0,19,19,88,,,,,,,,,,,right,0.785829400003422,230.1792901000008,None,230.1792901000008,None,230.9807734999922,None,230.9807734999922,None,230.9807734999922,None,232.9636875000433,233.46347190003144,232.9636875000433,233.46347190003144,232.9636875000433,233.46347190003144,230.9807734999922,None,233.48012877003057,None,233.48012877003057,None,233.48012877003057,None,0.00930726999649778,None,233.48012877003057,None,233.48012877003057,None,233.48012877003057,None,233.48012877003057,None,233.48012877003057,None,233.48012877003057,None,233.49241810000967,None,233.49241810000967,None,233.49241810000967,None,0.00024407007731497288,0.500244070077315,233.49241810000967,None,233.49241810000967,None,233.49241810000967,None,233.49241810000967,None,233.49241810000967,None,233.49241810000967,None,235.47973070002627,235.47973070002627,-29.1,3.801,-450,-50,-450,,,,,,,,,,,,,,,,,,,,,,,,,,,,,,,,,,,,,,,,,,,,,,,,,,,,,,,,,,,,,,,,,,,,,,,,,,,,,,,,,,,f,22,chenxuan,2022_Apr_03_1930,emotion,2021.1.4,59.368074327924305,
21,50,0,0,two,50,0,0,,,,,0,20,20,20,,,,,,,,,,,down,1.117712199978996,239.33163210004568,None,239.33163210004568,None,240.48776370001724,None,240.48776370001724,None,240.48776370001724,None,242.4617383000441,242.9615424000076,242.4617383000441,242.9615424000076,242.4617383000441,242.9615424000076,240.48776370001724,None,242.9948908700375,None,242.9948908700375,None,242.9948908700375,None,0.000175770022906363,None,242.9948908700375,None,242.9948908700375,None,242.9948908700375,None,242.9948908700375,None,242.9948908700375,None,242.9948908700375,None,243.0141474000411,None,243.0141474000411,None,243.0141474000411,None,0.009452940023038536,0.5094529400230385,243.0141474000411,None,243.0141474000411,None,243.0141474000411,None,243.0141474000411,None,243.0141474000411,None,243.0141474000411,None,244.99463810003363,244.99463810003363,33.2,1.521,-400,-50,-450,,,,,,,,,,,,,,,,,,,,,,,,,,,,,,,,,,,,,,,,,,,,,,,,,,,,,,,,,,,,,,,,,,,,,,,,,,,,,,,,,,,f,22,chenxuan,2022_Apr_03_1930,emotion,2021.1.4,59.368074327924305,
90,-50,-200,-200,one,-50,-200,-200,,,,,0,21,21,89,,,,,,,,,,,right,1.1028724999632686,246.59281880001072,None,246.59281880001072,None,247.7151982000214,None,247.7151982000214,None,247.7151982000214,None,249.69369480002206,250.19429890002357,249.69369480002206,250.19429890002357,249.69369480002206,250.19429890002357,247.7151982000214,None,250.22667467003922,None,250.22667467003922,None,250.22667467003922,None,0.011020670062862337,None,250.22667467003922,None,250.22667467003922,None,250.22667467003922,None,250.22667467003922,None,250.22667467003922,None,250.22667467003922,None,250.23700740002096,None,250.23700740002096,None,250.23700740002096,None,0.0032340700272470713,0.5032340700272471,250.23700740002096,None,250.23700740002096,None,250.23700740002096,None,250.23700740002096,None,250.23700740002096,None,250.23700740002096,None,252.22656760003883,252.22656760003883,32.5,2.889,-450,-250,-650,,,,,,,,,,,,,,,,,,,,,,,,,,,,,,,,,,,,,,,,,,,,,,,,,,,,,,,,,,,,,,,,,,,,,,,,,,,,,,,,,,,f,22,chenxuan,2022_Apr_03_1930,emotion,2021.1.4,59.368074327924305,
22,0,0,200,two,0,0,200,,,,,0,22,22,21,,,,,,,,,,,right,1.5730875000008382,255.1908715000027,None,255.1908715000027,None,256.79560559999663,None,256.79560559999663,None,256.79560559999663,None,258.7751973000122,259.2751448000199,258.7751973000122,259.2751448000199,258.7751973000122,259.2751448000199,256.79560559999663,None,259.30842607000375,None,259.30842607000375,None,259.30842607000375,None,0.010996870056260377,None,259.30842607000375,None,259.30842607000375,None,259.30842607000375,None,259.30842607000375,None,259.30842607000375,None,259.30842607000375,None,259.3175328000216,None,259.3175328000216,None,259.3175328000216,None,0.004386969958432019,0.504386969958432,259.3175328000216,None,259.3175328000216,None,259.3175328000216,None,259.3175328000216,None,259.3175328000216,None,259.3175328000216,None,261.30807640001876,261.30807640001876,-45.7,2.198,-450,-250,-450,,,,,,,,,,,,,,,,,,,,,,,,,,,,,,,,,,,,,,,,,,,,,,,,,,,,,,,,,,,,,,,,,,,,,,,,,,,,,,,,,,,f,22,chenxuan,2022_Apr_03_1930,emotion,2021.1.4,59.368074327924305,
85,-200,-200,0,one,-200,-200,0,,,,,0,23,23,84,,,,,,,,,,,down,1.0943430000334047,263.56216870003846,None,263.56216870003846,None,264.6743834000081,None,264.6743834000081,None,264.6743834000081,None,266.6570471000159,267.15659580001375,266.6570471000159,267.15659580001375,266.6570471000159,267.15659580001375,264.6743834000081,None,267.19051617003277,None,267.19051617003277,None,267.19051617003277,None,0.008613670070189983,None,267.19051617003277,None,267.19051617003277,None,267.19051617003277,None,267.19051617003277,None,267.19051617003277,None,267.19051617003277,None,267.2034217999899,None,267.2034217999899,None,267.2034217999899,None,0.01663224003277719,0.5166322400327772,267.2034217999899,None,267.2034217999899,None,267.2034217999899,None,267.2034217999899,None,267.2034217999899,None,267.2034217999899,None,269.1731759000104,269.1731759000104,-38.4,1.385,-650,-450,-450,,,,,,,,,,,,,,,,,,,,,,,,,,,,,,,,,,,,,,,,,,,,,,,,,,,,,,,,,,,,,,,,,,,,,,,,,,,,,,,,,,,f,22,chenxuan,2022_Apr_03_1930,emotion,2021.1.4,59.368074327924305,
82,0,-50,-50,two,0,-50,-50,,,,,0,24,24,81,,,,,,,,,,,left,0.7127043000073172,270.6394234999898,None,270.6394234999898,None,271.37285760004306,None,271.37285760004306,None,271.37285760004306,None,273.3556868000305,273.8555832999991,273.3556868000305,273.8555832999991,273.3556868000305,273.8555832999991,271.37285760004306,None,273.87224016999824,None,273.87224016999824,None,273.87224016999824,None,0.00942726997891441,None,273.87224016999824,None,273.87224016999824,None,273.87224016999824,None,273.87224016999824,None,273.87224016999824,None,273.87224016999824,None,273.88245350000216,None,273.88245350000216,None,273.88245350000216,None,0.002583370020147413,0.5025833700201474,273.88245350000216,None,273.88245350000216,None,273.88245350000216,None,273.88245350000216,None,273.88245350000216,None,273.88245350000216,None,275.8716195000452,275.8716195000452,34.400000000000006,1.828,-650,-500,-500,,,,,,,,,,,,,,,,,,,,,,,,,,,,,,,,,,,,,,,,,,,,,,,,,,,,,,,,,,,,,,,,,,,,,,,,,,,,,,,,,,,f,22,chenxuan,2022_Apr_03_1930,emotion,2021.1.4,59.368074327924305,
68,0,-50,0,two,0,-50,0,,,,,0,25,25,67,,,,,,,,,,,down,2.2794170000124723,277.75482640002156,None,277.75482640002156,None,280.0541809000424,None,280.0541809000424,None,280.0541809000424,None,282.03724090004107,282.5370736999903,282.03724090004107,282.5370736999903,282.03724090004107,282.5370736999903,280.0541809000424,None,282.5537305699894,None,282.5537305699894,None,282.5537305699894,None,0.009756970044691116,None,282.5537305699894,None,282.5537305699894,None,282.5537305699894,None,282.5537305699894,None,282.5537305699894,None,282.5537305699894,None,282.5759103000164,None,282.5759103000164,None,282.5759103000164,None,0.0031968699768185616,0.5031968699768186,282.5759103000164,None,282.5759103000164,None,282.5759103000164,None,282.5759103000164,None,282.5759103000164,None,282.5759103000164,None,284.55337899998995,284.55337899998995,31.099999999999994,1.275,-650,-550,-500,,,,,,,,,,,,,,,,,,,,,,,,,,,,,,,,,,,,,,,,,,,,,,,,,,,,,,,,,,,,,,,,,,,,,,,,,,,,,,,,,,,f,22,chenxuan,2022_Apr_03_1930,emotion,2021.1.4,59.368074327924305,
19,0,0,50,two,0,0,50,,,,,0,26,26,18,,,,,,,,,,,down,1.6611385999713093,285.90164689999074,None,285.90164689999074,None,287.594129300036,None,287.594129300036,None,287.594129300036,None,289.5691366000101,290.0689708000282,289.5691366000101,290.0689708000282,289.5691366000101,290.0689708000282,287.594129300036,None,290.1187957400223,None,290.1187957400223,None,290.1187957400223,None,0.01613604003796354,None,290.1187957400223,None,290.1187957400223,None,290.1187957400223,None,290.1187957400223,None,290.1187957400223,None,290.1187957400223,None,290.1225392000051,None,290.1225392000051,None,290.1225392000051,None,0.009284340019803494,0.5092843400198035,290.1225392000051,None,290.1225392000051,None,290.1225392000051,None,290.1225392000051,None,290.1225392000051,None,290.1225392000051,None,292.1019435999915,292.1019435999915,-9.0,3.994,-650,-550,-450,,,,,,,,,,,,,,,,,,,,,,,,,,,,,,,,,,,,,,,,,,,,,,,,,,,,,,,,,,,,,,,,,,,,,,,,,,,,,,,,,,,f,22,chenxuan,2022_Apr_03_1930,emotion,2021.1.4,59.368074327924305,
23,0,200,0,two,0,200,0,,,,,0,27,27,22,,,,,,,,,,,left,1.2944910999503918,296.1676177000045,None,296.1676177000045,None,297.48411070002476,None,297.48411070002476,None,297.48411070002476,None,299.47030380001524,None,299.47030380001524,None,299.47030380001524,None,297.48411070002476,None,299.9837654700153,None,299.9837654700153,None,299.9837654700153,None,0.009821870073210448,None,299.9837654700153,None,299.9837654700153,None,299.9837654700153,None,299.9837654700153,None,299.9837654700153,None,299.9837654700153,None,299.99865660001524,None,299.99865660001524,None,299.99865660001524,None,0.014709739945828915,0.5147097399458289,299.99865660001524,None,299.99865660001524,None,299.99865660001524,None,299.99865660001524,None,299.99865660001524,None,299.99865660001524,None,301.98338839999633,301.98338839999633,-17.200000000000003,1.749,-650,-350,-450,,,,,,,,,,,,,,,,,,,,,,,,,,,,,,,,,,,,,,,,,,,,,,,,,,,,,,,,,,,,,,,,,,,,,,,,,,,,,,,,,,,f,22,chenxuan,2022_Apr_03_1930,emotion,2021.1.4,59.368074327924305,
12,200,0,50,two,200,0,50,,,,,0,28,28,11,,,,,,,,,,,right,1.8668424999923445,303.7863876000047,None,303.7863876000047,None,305.68768979999004,None,305.68768979999004,None,305.68768979999004,None,307.6655577000347,308.1655354000395,307.6655577000347,308.1655354000395,307.6655577000347,308.1655354000395,305.68768979999004,None,308.19875926999373,None,308.19875926999373,None,308.19875926999373,None,0.0102346699568443,None,308.19875926999373,None,308.19875926999373,None,308.19875926999373,None,308.19875926999373,None,308.19875926999373,None,308.19875926999373,None,308.20908570004394,None,308.20908570004394,None,308.20908570004394,None,0.0026257699937559664,0.502625769993756,308.20908570004394,None,308.20908570004394,None,308.20908570004394,None,308.20908570004394,None,308.20908570004394,None,308.20908570004394,None,310.1984372000443,310.1984372000443,44.7,1.879,-450,-350,-400,,,,,,,,,,,,,,,,,,,,,,,,,,,,,,,,,,,,,,,,,,,,,,,,,,,,,,,,,,,,,,,,,,,,,,,,,,,,,,,,,,,f,22,chenxuan,2022_Apr_03_1930,emotion,2021.1.4,59.368074327924305,
71,0,-200,0,two,0,-200,0,,,,,0,29,29,70,,,,,,,,,,,down,1.9105272999731824,312.13195420004195,None,312.13195420004195,None,314.0684365000343,None,314.0684365000343,None,314.0684365000343,None,316.0473011000431,316.54699669999536,316.0473011000431,316.54699669999536,316.0473011000431,316.54699669999536,314.0684365000343,None,316.58047086999284,None,316.58047086999284,None,316.58047086999284,None,0.011818369966931641,None,316.58047086999284,None,316.58047086999284,None,316.58047086999284,None,316.58047086999284,None,316.58047086999284,None,316.58047086999284,None,316.5902345000068,None,316.5902345000068,None,316.5902345000068,None,0.004745869955513626,0.5047458699555136,316.5902345000068,None,316.5902345000068,None,316.5902345000068,None,316.5902345000068,None,316.5902345000068,None,316.5902345000068,None,318.58001880004304,318.58001880004304,34.5,1.524,-450,-550,-400,,,,,,,,,,,,,,,,,,,,,,,,,,,,,,,,,,,,,,,,,,,,,,,,,,,,,,,,,,,,,,,,,,,,,,,,,,,,,,,,,,,f,22,chenxuan,2022_Apr_03_1930,emotion,2021.1.4,59.368074327924305,
67,0,0,-50,two,0,0,-50,,,,,0,30,30,66,,,,,,,,,,,down,2.3055776999681257,320.22273090004455,None,320.22273090004455,None,322.5499003000441,None,322.5499003000441,None,322.5499003000441,None,324.5289054000168,325.0287890000036,324.5289054000168,325.0287890000036,324.5289054000168,325.0287890000036,322.5499003000441,None,325.06225087002383,None,325.06225087002383,None,325.06225087002383,None,0.01181127002928406,None,325.06225087002383,None,325.06225087002383,None,325.06225087002383,None,325.06225087002383,None,325.06225087002383,None,325.06225087002383,None,325.0706134000211,None,325.0706134000211,None,325.0706134000211,None,0.005321969976648688,0.5053219699766487,325.0706134000211,None,325.0706134000211,None,325.0706134000211,None,325.0706134000211,None,325.0706134000211,None,325.0706134000211,None,327.0617011000286,327.0617011000286,29.700000000000003,1.653,-450,-550,-450,,,,,,,,,,,,,,,,,,,,,,,,,,,,,,,,,,,,,,,,,,,,,,,,,,,,,,,,,,,,,,,,,,,,,,,,,,,,,,,,,,,f,22,chenxuan,2022_Apr_03_1930,emotion,2021.1.4,59.368074327924305,
25,200,50,50,one,200,50,50,,,,,0,31,31,24,,,,,,,,,,,right,1.054444599954877,328.7766367000295,None,328.7766367000295,None,329.8502223000396,None,329.8502223000396,None,329.8502223000396,None,331.8275561000337,332.3274166000192,331.8275561000337,332.3274166000192,331.8275561000337,332.3274166000192,329.8502223000396,None,332.3607131700031,None,332.3607131700031,None,332.3607131700031,None,0.011571770010050386,None,332.3607131700031,None,332.3607131700031,None,332.3607131700031,None,332.3607131700031,None,332.3607131700031,None,332.3607131700031,None,332.3695782000432,None,332.3695782000432,None,332.3695782000432,None,0.004424869955983013,0.504424869955983,332.3695782000432,None,332.3695782000432,None,332.3695782000432,None,332.3695782000432,None,332.3695782000432,None,332.3695782000432,None,334.36033480003243,334.36033480003243,36.5,1.352,-250,-500,-400,,,,,,,,,,,,,,,,,,,,,,,,,,,,,,,,,,,,,,,,,,,,,,,,,,,,,,,,,,,,,,,,,,,,,,,,,,,,,,,,,,,f,22,chenxuan,2022_Apr_03_1930,emotion,2021.1.4,59.368074327924305,
10,50,200,0,two,50,200,0,,,,,0,32,32,9,,,,,,,,,,,left,1.1209051000187173,335.76601449999725,None,335.76601449999725,None,336.91350610001246,None,336.91350610001246,None,336.91350610001246,None,338.8924813999911,339.39229520002846,338.8924813999911,339.39229520002846,338.8924813999911,339.39229520002846,336.91350610001246,None,339.4256002700189,None,339.4256002700189,None,339.4256002700189,None,0.011460169975180179,None,339.4256002700189,None,339.4256002700189,None,339.4256002700189,None,339.4256002700189,None,339.4256002700189,None,339.4256002700189,None,339.4350881000282,None,339.4350881000282,None,339.4350881000282,None,0.004156470065936446,0.5041564700659364,339.4350881000282,None,339.4350881000282,None,339.4350881000282,None,339.4350881000282,None,339.4350881000282,None,339.4350881000282,None,341.42554460000247,341.42554460000247,10.100000000000001,1.259,-200,-300,-400,,,,,,,,,,,,,,,,,,,,,,,,,,,,,,,,,,,,,,,,,,,,,,,,,,,,,,,,,,,,,,,,,,,,,,,,,,,,,,,,,,,f,22,chenxuan,2022_Apr_03_1930,emotion,2021.1.4,59.368074327924305,
6,200,0,50,one,200,0,50,,,,,0,33,33,5,,,,,,,,,,,right,2.4703919000457972,342.7417956000427,None,342.7417956000427,None,345.2491596000036,None,345.2491596000036,None,345.2491596000036,None,347.2275764000369,347.74112399999285,347.2275764000369,347.74112399999285,347.2275764000369,347.74112399999285,345.2491596000036,None,347.75778086999196,None,347.75778086999196,None,347.75778086999196,None,0.011120969953481108,None,347.75778086999196,None,347.75778086999196,None,347.75778086999196,None,347.75778086999196,None,347.75778086999196,None,347.75778086999196,None,347.7703190000029,None,347.7703190000029,None,347.7703190000029,None,0.00021916994592174888,0.5002191699459217,347.7703190000029,None,347.7703190000029,None,347.7703190000029,None,347.7703190000029,None,347.7703190000029,None,347.7703190000029,None,349.75738030002685,349.75738030002685,42.0,2.128,0,-300,-350,,,,,,,,,,,,,,,,,,,,,,,,,,,,,,,,,,,,,,,,,,,,,,,,,,,,,,,,,,,,,,,,,,,,,,,,,,,,,,,,,,,f,22,chenxuan,2022_Apr_03_1930,emotion,2021.1.4,59.368074327924305,
79,-200,-50,-50,two,-200,-50,-50,,,,,0,34,34,78,,,,,,,,,,,down,0.9403657999937423,351.94098650000524,None,351.94098650000524,None,352.9064922000398,None,352.9064922000398,None,352.9064922000398,None,354.88959199999226,355.3893989000353,354.88959199999226,355.3893989000353,354.88959199999226,355.3893989000353,352.9064922000398,None,355.4060557700344,None,355.4060557700344,None,355.4060557700344,None,0.008780170057434589,None,355.4060557700344,None,355.4060557700344,None,355.4060557700344,None,355.4060557700344,None,355.4060557700344,None,355.4060557700344,None,355.4195012000273,None,355.4195012000273,None,355.4195012000273,None,0.016302739968523383,0.5163027399685234,355.4195012000273,None,355.4195012000273,None,355.4195012000273,None,355.4195012000273,None,355.4195012000273,None,355.4195012000273,None,357.38917989999754,357.38917989999754,-33.7,1.48,-200,-350,-400,,,,,,,,,,,,,,,,,,,,,,,,,,,,,,,,,,,,,,,,,,,,,,,,,,,,,,,,,,,,,,,,,,,,,,,,,,,,,,,,,,,f,22,chenxuan,2022_Apr_03_1930,emotion,2021.1.4,59.368074327924305,
46,200,200,50,two,200,200,50,,,,,0,35,35,45,,,,,,,,,,,right,0.9431976999621838,358.95368760003475,None,358.95368760003475,None,359.92173130001174,None,359.92173130001174,None,359.92173130001174,None,361.90473940002266,362.40469100000337,361.90473940002266,362.40469100000337,361.90473940002266,362.40469100000337,359.92173130001174,None,362.4213478700025,None,362.4213478700025,None,362.4213478700025,None,0.009380869974847883,None,362.4213478700025,None,362.4213478700025,None,362.4213478700025,None,362.4213478700025,None,362.4213478700025,None,362.4213478700025,None,362.4341981000034,None,362.4341981000034,None,362.4341981000034,None,0.016611939994618297,0.5166119399946183,362.4341981000034,None,362.4341981000034,None,362.4341981000034,None,362.4341981000034,None,362.4341981000034,None,362.4341981000034,None,364.4044322000118,364.4044322000118,16.700000000000003,2.016,0,-150,-350,,,,,,,,,,,,,,,,,,,,,,,,,,,,,,,,,,,,,,,,,,,,,,,,,,,,,,,,,,,,,,,,,,,,,,,,,,,,,,,,,,,f,22,chenxuan,2022_Apr_03_1930,emotion,2021.1.4,59.368074327924305,
31,200,50,50,two,200,50,50,,,,,0,36,36,30,,,,,,,,,,,left,1.465873199980706,366.49320930003887,None,366.49320930003887,None,367.9961033000145,None,367.9961033000145,None,367.9961033000145,None,369.96994310000446,370.4696992000099,369.96994310000446,370.4696992000099,369.96994310000446,370.4696992000099,367.9961033000145,None,370.50301517002515,None,370.50301517002515,None,370.50301517002515,None,0.010263570002280176,None,370.50301517002515,None,370.50301517002515,None,370.50301517002515,None,370.50301517002515,None,370.50301517002515,None,370.50301517002515,None,370.51338590000523,None,370.51338590000523,None,370.51338590000523,None,0.003145869995933026,0.503145869995933,370.51338590000523,None,370.51338590000523,None,370.51338590000523,None,370.51338590000523,None,370.51338590000523,None,370.51338590000523,None,372.50280630000634,372.50280630000634,38.2,1.285,200,-100,-300,,,,,,,,,,,,,,,,,,,,,,,,,,,,,,,,,,,,,,,,,,,,,,,,,,,,,,,,,,,,,,,,,,,,,,,,,,,,,,,,,,,f,22,chenxuan,2022_Apr_03_1930,emotion,2021.1.4,59.368074327924305,
8,0,200,50,two,0,200,50,,,,,0,37,37,7,,,,,,,,,,,down,3.362504100019578,373.85079759999644,None,373.85079759999644,None,377.2396260999958,None,377.2396260999958,None,377.2396260999958,None,379.21789319999516,379.7180439000367,379.21789319999516,379.7180439000367,379.21789319999516,379.7180439000367,377.2396260999958,None,379.7513544700108,None,379.7513544700108,None,379.7513544700108,None,0.011681869975291193,None,379.7513544700108,None,379.7513544700108,None,379.7513544700108,None,379.7513544700108,None,379.7513544700108,None,379.7513544700108,None,379.76027180004166,None,379.76027180004166,None,379.76027180004166,None,0.004275269981008023,0.504275269981008,379.76027180004166,None,379.76027180004166,None,379.76027180004166,None,379.76027180004166,None,379.76027180004166,None,379.76027180004166,None,381.7510223000427,381.7510223000427,-33.6,2.471,200,100,-250,,,,,,,,,,,,,,,,,,,,,,,,,,,,,,,,,,,,,,,,,,,,,,,,,,,,,,,,,,,,,,,,,,,,,,,,,,,,,,,,,,,f,22,chenxuan,2022_Apr_03_1930,emotion,2021.1.4,59.368074327924305,
2,0,200,50,one,0,200,50,,,,,0,38,38,1,,,,,,,,,,,left,0.7980733999866061,384.2822357999976,None,384.2822357999976,None,385.10452069999883,None,385.10452069999883,None,385.10452069999883,None,387.0833192000282,387.58307970000897,387.0833192000282,387.58307970000897,387.0833192000282,387.58307970000897,385.10452069999883,None,387.6162569700158,None,387.6162569700158,None,387.6162569700158,None,0.011579970072489232,None,387.6162569700158,None,387.6162569700158,None,387.6162569700158,None,387.6162569700158,None,387.6162569700158,None,387.6162569700158,None,387.6255109999911,None,387.6255109999911,None,387.6255109999911,None,0.004426469968166202,0.5044264699681662,387.6255109999911,None,387.6255109999911,None,387.6255109999911,None,387.6255109999911,None,387.6255109999911,None,387.6255109999911,None,389.6160910000326,389.6160910000326,-24.1,2.043,200,300,-200,,,,,,,,,,,,,,,,,,,,,,,,,,,,,,,,,,,,,,,,,,,,,,,,,,,,,,,,,,,,,,,,,,,,,,,,,,,,,,,,,,,f,22,chenxuan,2022_Apr_03_1930,emotion,2021.1.4,59.368074327924305,
38,200,0,200,one,200,0,200,,,,,0,39,39,37,,,,,,,,,,,down,1.8508811999927275,391.7307206999976,None,391.7307206999976,None,393.59950860001845,None,393.59950860001845,None,393.59950860001845,None,395.58160630002385,396.0815506000072,395.58160630002385,396.0815506000072,395.58160630002385,396.0815506000072,393.59950860001845,None,396.1146668700152,None,396.1146668700152,None,396.1146668700152,None,0.01131947006797418,None,396.1146668700152,None,396.1146668700152,None,396.1146668700152,None,396.1146668700152,None,396.1146668700152,None,396.1146668700152,None,396.12444049998885,None,396.12444049998885,None,396.12444049998885,None,0.004269369994290173,0.5042693699942902,396.12444049998885,None,396.12444049998885,None,396.12444049998885,None,396.12444049998885,None,396.12444049998885,None,396.12444049998885,None,398.1145247000386,398.1145247000386,42.599999999999994,1.434,400,300,0,,,,,,,,,,,,,,,,,,,,,,,,,,,,,,,,,,,,,,,,,,,,,,,,,,,,,,,,,,,,,,,,,,,,,,,,,,,,,,,,,,,f,22,chenxuan,2022_Apr_03_1930,emotion,2021.1.4,59.368074327924305,
66,-200,0,0,one,-200,0,0,,,,,0,40,40,65,,,,,,,,,,,left,2.5035985000431538,399.6124386000447,None,399.6124386000447,None,402.1473638000316,None,402.1473638000316,None,402.1473638000316,None,404.12974720000057,404.6295208000229,404.12974720000057,404.6295208000229,404.12974720000057,404.6295208000229,402.1473638000316,None,404.6631477700197,None,404.6631477700197,None,404.6631477700197,None,0.011446969991084188,None,404.6631477700197,None,404.6631477700197,None,404.6631477700197,None,404.6631477700197,None,404.6631477700197,None,404.6631477700197,None,404.67306030000327,None,404.67306030000327,None,404.67306030000327,None,0.0034269699826836586,0.5034269699826837,404.67306030000327,None,404.67306030000327,None,404.67306030000327,None,404.67306030000327,None,404.67306030000327,None,404.67306030000327,None,406.66289810003946,406.66289810003946,38.900000000000006,1.91,200,300,0,,,,,,,,,,,,,,,,,,,,,,,,,,,,,,,,,,,,,,,,,,,,,,,,,,,,,,,,,,,,,,,,,,,,,,,,,,,,,,,,,,,f,22,chenxuan,2022_Apr_03_1930,emotion,2021.1.4,59.368074327924305,
84,-50,-50,0,two,-50,-50,0,,,,,0,41,41,83,,,,,,,,,,,right,1.0519207999459468,408.6288185000303,None,408.6288185000303,None,409.70934390003094,None,409.70934390003094,None,409.70934390003094,None,411.6781325000338,412.1782847000286,411.6781325000338,412.1782847000286,411.6781325000338,412.1782847000286,409.70934390003094,None,412.2114633699879,None,412.2114633699879,None,412.2114633699879,None,0.010809269966557622,None,412.2114633699879,None,412.2114633699879,None,412.2114633699879,None,412.2114633699879,None,412.2114633699879,None,412.2114633699879,None,412.2212834000238,None,412.2212834000238,None,412.2212834000238,None,0.003241369966417551,0.5032413699664176,412.2212834000238,None,412.2212834000238,None,412.2212834000238,None,412.2212834000238,None,412.2212834000238,None,412.2212834000238,None,414.2112866000389,414.2112866000389,-7.399999999999999,1.777,150,250,0,,,,,,,,,,,,,,,,,,,,,,,,,,,,,,,,,,,,,,,,,,,,,,,,,,,,,,,,,,,,,,,,,,,,,,,,,,,,,,,,,,,f,22,chenxuan,2022_Apr_03_1930,emotion,2021.1.4,59.368074327924305,
95,-200,-50,-200,two,-200,-50,-200,,,,,0,42,42,94,,,,,,,,,,,down,1.2418355000554584,416.0429335000226,None,416.0429335000226,None,417.31674640002893,None,417.31674640002893,None,417.31674640002893,None,419.29347179998877,419.79347390000476,419.29347179998877,419.79347390000476,419.29347179998877,419.79347390000476,417.31674640002893,None,419.82687247000865,None,419.82687247000865,None,419.82687247000865,None,0.01154456997755915,None,419.82687247000865,None,419.82687247000865,None,419.82687247000865,None,419.82687247000865,None,419.82687247000865,None,419.82687247000865,None,419.8368299000431,None,419.8368299000431,None,419.8368299000431,None,0.0038395700394175947,0.5038395700394176,419.8368299000431,None,419.8368299000431,None,419.8368299000431,None,419.8368299000431,None,419.8368299000431,None,419.8368299000431,None,421.82631820003735,421.82631820003735,-35.9,1.692,-50,200,-200,,,,,,,,,,,,,,,,,,,,,,,,,,,,,,,,,,,,,,,,,,,,,,,,,,,,,,,,,,,,,,,,,,,,,,,,,,,,,,,,,,,f,22,chenxuan,2022_Apr_03_1930,emotion,2021.1.4,59.368074327924305,
1,0,50,200,one,0,50,200,,,,,0,43,43,0,,,,,,,,,,,right,0.9738027999992482,423.5912914000219,None,423.5912914000219,None,424.59250490000704,None,424.59250490000704,None,424.59250490000704,None,426.57607579999603,427.0755943999975,426.57607579999603,427.0755943999975,426.57607579999603,427.0755943999975,424.59250490000704,None,427.0922512699966,None,427.0922512699966,None,427.0922512699966,None,0.005537669989280403,None,427.0922512699966,None,427.0922512699966,None,427.0922512699966,None,427.0922512699966,None,427.0922512699966,None,427.0922512699966,None,427.11040609999327,None,427.11040609999327,None,427.11040609999327,None,0.012686739966738969,0.512686739966739,427.11040609999327,None,427.11040609999327,None,427.11040609999327,None,427.11040609999327,None,427.11040609999327,None,427.11040609999327,None,429.0913811000064,429.0913811000064,-9.299999999999997,1.63,-50,250,0,,,,,,,,,,,,,,,,,,,,,,,,,,,,,,,,,,,,,,,,,,,,,,,,,,,,,,,,,,,,,,,,,,,,,,,,,,,,,,,,,,,f,22,chenxuan,2022_Apr_03_1930,emotion,2021.1.4,59.368074327924305,
43,200,200,0,two,200,200,0,,,,,0,44,44,42,,,,,,,,,,,down,2.0702293000067584,430.79334450000897,None,430.79334450000897,None,432.89768220001133,None,432.89768220001133,None,432.89768220001133,None,434.8739366999944,435.3732250999892,434.8739366999944,435.3732250999892,434.8739366999944,435.3732250999892,432.89768220001133,None,435.40683597003806,None,435.40683597003806,None,435.40683597003806,None,0.011689270089846104,None,435.40683597003806,None,435.40683597003806,None,435.40683597003806,None,435.40683597003806,None,435.40683597003806,None,435.40683597003806,None,435.4173726000008,None,435.4173726000008,None,435.4173726000008,None,0.004070170049089938,0.5040701700490899,435.4173726000008,None,435.4173726000008,None,435.4173726000008,None,435.4173726000008,None,435.4173726000008,None,435.4173726000008,None,437.4066652000183,437.4066652000183,7.899999999999999,2.726,150,450,0,,,,,,,,,,,,,,,,,,,,,,,,,,,,,,,,,,,,,,,,,,,,,,,,,,,,,,,,,,,,,,,,,,,,,,,,,,,,,,,,,,,f,22,chenxuan,2022_Apr_03_1930,emotion,2021.1.4,59.368074327924305,
93,0,-200,-200,two,0,-200,-200,,,,,0,45,45,92,,,,,,,,,,,down,0.9280174999730662,440.1885862000054,None,440.1885862000054,None,441.13915820000693,None,441.13915820000693,None,441.13915820000693,None,443.12214350001886,443.6219102999894,443.12214350001886,443.6219102999894,443.12214350001886,443.6219102999894,441.13915820000693,None,443.6385671699885,None,443.6385671699885,None,443.6385671699885,None,0.00953236996429041,None,443.6385671699885,None,443.6385671699885,None,443.6385671699885,None,443.6385671699885,None,443.6385671699885,None,443.6385671699885,None,443.64970850001555,None,443.64970850001555,None,443.64970850001555,None,0.002093370072543621,0.5020933700725436,443.64970850001555,None,443.64970850001555,None,443.64970850001555,None,443.64970850001555,None,443.64970850001555,None,443.64970850001555,None,445.63846240000566,445.63846240000566,36.900000000000006,3.489,150,250,-200,,,,,,,,,,,,,,,,,,,,,,,,,,,,,,,,,,,,,,,,,,,,,,,,,,,,,,,,,,,,,,,,,,,,,,,,,,,,,,,,,,,f,22,chenxuan,2022_Apr_03_1930,emotion,2021.1.4,59.368074327924305,
76,0,-50,-50,one,0,-50,-50,,,,,0,46,46,75,,,,,,,,,,,down,1.6053074999945238,449.20446460001403,None,449.20446460001403,None,450.8422082000179,None,450.8422082000179,None,450.8422082000179,None,452.82026549999136,453.32012400001986,452.82026549999136,453.32012400001986,452.82026549999136,453.32012400001986,450.8422082000179,None,453.35469077001324,None,453.35469077001324,None,453.35469077001324,None,0.0036159700248390436,None,453.35469077001324,None,453.35469077001324,None,453.35469077001324,None,453.35469077001324,None,453.35469077001324,None,453.35469077001324,None,453.3935845000087,None,453.3935845000087,None,453.3935845000087,None,0.003461139975115657,0.5034611399751157,453.3935845000087,None,453.3935845000087,None,453.3935845000087,None,453.3935845000087,None,453.3935845000087,None,453.3935845000087,None,455.3695209000143,455.3695209000143,24.5,1.32,150,200,-250,,,,,,,,,,,,,,,,,,,,,,,,,,,,,,,,,,,,,,,,,,,,,,,,,,,,,,,,,,,,,,,,,,,,,,,,,,,,,,,,,,,f,22,chenxuan,2022_Apr_03_1930,emotion,2021.1.4,59.368074327924305,
20,0,50,0,two,0,50,0,,,,,0,47,47,19,,,,,,,,,,,left,1.2467354999971576,456.76787550002337,None,456.76787550002337,None,458.038883500034,None,458.038883500034,None,458.038883500034,None,460.01990370004205,460.53531160001876,460.01990370004205,460.53531160001876,460.01990370004205,460.53531160001876,458.038883500034,None,460.55196847001787,None,460.55196847001787,None,460.55196847001787,None,0.011293969990219921,None,460.55196847001787,None,460.55196847001787,None,460.55196847001787,None,460.55196847001787,None,460.55196847001787,None,460.55196847001787,None,460.5613106000237,None,460.5613106000237,None,460.5613106000237,None,0.004984969971701503,0.5049849699717015,460.5613106000237,None,460.5613106000237,None,460.5613106000237,None,460.5613106000237,None,460.5613106000237,None,460.5613106000237,None,462.5517401000252,462.5517401000252,-17.4,1.197,150,250,-250,,,,,,,,,,,,,,,,,,,,,,,,,,,,,,,,,,,,,,,,,,,,,,,,,,,,,,,,,,,,,,,,,,,,,,,,,,,,,,,,,,,f,22,chenxuan,2022_Apr_03_1930,emotion,2021.1.4,59.368074327924305,
13,0,0,50,one,0,0,50,,,,,0,48,48,12,,,,,,,,,,,right,0.9670726000331342,463.81658199999947,None,463.81658199999947,None,464.8017201999901,None,464.8017201999901,None,464.8017201999901,None,466.78403710003477,467.2837889000075,466.78403710003477,467.2837889000075,466.78403710003477,467.2837889000075,464.8017201999901,None,467.3172262700158,None,467.3172262700158,None,467.3172262700158,None,0.011776970059145242,None,467.3172262700158,None,467.3172262700158,None,467.3172262700158,None,467.3172262700158,None,467.3172262700158,None,467.3172262700158,None,467.33604920003563,None,467.33604920003563,None,467.33604920003563,None,0.010374239936936647,0.5103742399369366,467.33604920003563,None,467.33604920003563,None,467.33604920003563,None,467.33604920003563,None,467.33604920003563,None,467.33604920003563,None,469.31678410002496,469.31678410002496,-14.799999999999997,1.726,150,250,-200,,,,,,,,,,,,,,,,,,,,,,,,,,,,,,,,,,,,,,,,,,,,,,,,,,,,,,,,,,,,,,,,,,,,,,,,,,,,,,,,,,,f,22,chenxuan,2022_Apr_03_1930,emotion,2021.1.4,59.368074327924305,
40,200,200,50,one,200,200,50,,,,,0,49,49,39,,,,,,,,,,,down,1.868919700034894,471.1149681000388,None,471.1149681000388,None,472.999762499996,None,472.999762499996,None,472.999762499996,None,474.98259650002,475.4823805000051,474.98259650002,475.4823805000051,474.98259650002,475.4823805000051,472.999762499996,None,475.4990373700042,None,475.4990373700042,None,475.4990373700042,None,0.009361870063003153,None,475.4990373700042,None,475.4990373700042,None,475.4990373700042,None,475.4990373700042,None,475.4990373700042,None,475.4990373700042,None,475.5130696000415,None,475.5130696000415,None,475.5130696000415,None,0.016356239968445152,0.5163562399684452,475.5130696000415,None,475.5130696000415,None,475.5130696000415,None,475.5130696000415,None,475.5130696000415,None,475.5130696000415,None,477.4820235000225,477.4820235000225,15.5,1.82,350,450,-150,,,,,,,,,,,,,,,,,,,,,,,,,,,,,,,,,,,,,,,,,,,,,,,,,,,,,,,,,,,,,,,,,,,,,,,,,,,,,,,,,,,f,22,chenxuan,2022_Apr_03_1930,emotion,2021.1.4,59.368074327924305,
11,200,50,0,two,200,50,0,,,,,0,50,50,10,,,,,,,,,,,down,1.107293999986723,479.38029110000934,None,479.38029110000934,None,480.51475120004034,None,480.51475120004034,None,480.51475120004034,None,482.4975548000075,482.9975035000243,482.4975548000075,482.9975035000243,482.4975548000075,482.9975035000243,480.51475120004034,None,483.01416037002343,None,483.01416037002343,None,483.01416037002343,None,0.009333370078820735,None,483.01416037002343,None,483.01416037002343,None,483.01416037002343,None,483.01416037002343,None,483.01416037002343,None,483.01416037002343,None,483.0345510999905,None,483.0345510999905,None,483.0345510999905,None,0.009375339956022799,0.5093753399560228,483.0345510999905,None,483.0345510999905,None,483.0345510999905,None,483.0345510999905,None,483.0345510999905,None,483.0345510999905,None,485.01406710001174,485.01406710001174,34.8,1.276,550,500,-150,,,,,,,,,,,,,,,,,,,,,,,,,,,,,,,,,,,,,,,,,,,,,,,,,,,,,,,,,,,,,,,,,,,,,,,,,,,,,,,,,,,f,22,chenxuan,2022_Apr_03_1930,emotion,2021.1.4,59.368074327924305,
34,0,50,50,two,0,50,50,,,,,0,51,51,33,,,,,,,,,,,left,3.3529039000277407,486.3620027000434,None,486.3620027000434,None,489.7463162000058,None,489.7463162000058,None,489.7463162000058,None,491.72922570002265,492.22898380004335,491.72922570002265,492.22898380004335,491.72922570002265,492.22898380004335,489.7463162000058,None,492.24564067004246,None,492.24564067004246,None,492.24564067004246,None,0.009745070012286305,None,492.24564067004246,None,492.24564067004246,None,492.24564067004246,None,492.24564067004246,None,492.24564067004246,None,492.24564067004246,None,492.25770160002867,None,492.25770160002867,None,492.25770160002867,None,0.002074770047329366,0.5020747700473294,492.25770160002867,None,492.25770160002867,None,492.25770160002867,None,492.25770160002867,None,492.25770160002867,None,492.25770160002867,None,494.24885370000266,494.24885370000266,-22.1,1.145,550,550,-100,,,,,,,,,,,,,,,,,,,,,,,,,,,,,,,,,,,,,,,,,,,,,,,,,,,,,,,,,,,,,,,,,,,,,,,,,,,,,,,,,,,f,22,chenxuan,2022_Apr_03_1930,emotion,2021.1.4,59.368074327924305,
64,0,0,-200,one,0,0,-200,,,,,0,52,52,63,,,,,,,,,,,down,1.528728700010106,495.4603236000403,None,495.4603236000403,None,497.01191340002697,None,497.01191340002697,None,497.01191340002697,None,498.99494280002546,499.49444290000247,498.99494280002546,499.49444290000247,498.99494280002546,499.49444290000247,497.01191340002697,None,499.5110997700016,None,499.5110997700016,None,499.5110997700016,None,0.009801869979128242,None,499.5110997700016,None,499.5110997700016,None,499.5110997700016,None,499.5110997700016,None,499.5110997700016,None,499.5110997700016,None,499.5244381999946,None,499.5244381999946,None,499.5244381999946,None,0.0004619700484909117,0.5004619700484909,499.5244381999946,None,499.5244381999946,None,499.5244381999946,None,499.5244381999946,None,499.5244381999946,None,499.5244381999946,None,501.51061719999416,501.51061719999416,15.0,1.976,550,550,-300,,,,,,,,,,,,,,,,,,,,,,,,,,,,,,,,,,,,,,,,,,,,,,,,,,,,,,,,,,,,,,,,,,,,,,,,,,,,,,,,,,,f,22,chenxuan,2022_Apr_03_1930,emotion,2021.1.4,59.368074327924305,
48,50,200,200,two,50,200,200,,,,,0,53,53,47,,,,,,,,,,,down,1.7134170000208542,503.5419897999964,None,503.5419897999964,None,505.27784739999333,None,505.27784739999333,None,505.27784739999333,None,507.25930810003774,507.7594492000062,507.25930810003774,507.7594492000062,507.25930810003774,507.7594492000062,505.27784739999333,None,507.79284556999335,None,507.79284556999335,None,507.79284556999335,None,0.011543369968421757,None,507.79284556999335,None,507.79284556999335,None,507.79284556999335,None,507.79284556999335,None,507.79284556999335,None,507.79284556999335,None,507.80233040003804,None,507.80233040003804,None,507.80233040003804,None,0.004468569997698069,0.5044685699976981,507.80233040003804,None,507.80233040003804,None,507.80233040003804,None,507.80233040003804,None,507.80233040003804,None,507.80233040003804,None,509.7923370000208,509.7923370000208,-20.7,1.429,600,750,-100,,,,,,,,,,,,,,,,,,,,,,,,,,,,,,,,,,,,,,,,,,,,,,,,,,,,,,,,,,,,,,,,,,,,,,,,,,,,,,,,,,,f,22,chenxuan,2022_Apr_03_1930,emotion,2021.1.4,59.368074327924305,
18,200,0,0,one,200,0,0,,,,,0,54,54,17,,,,,,,,,,,left,1.5266007000464015,511.2905197000364,None,511.2905197000364,None,512.8479583000299,None,512.8479583000299,None,512.8479583000299,None,514.8265667000087,515.3410353999934,514.8265667000087,515.3410353999934,514.8265667000087,515.3410353999934,512.8479583000299,None,515.3576922699925,None,515.3576922699925,None,515.3576922699925,None,0.011499870044644922,None,515.3576922699925,None,515.3576922699925,None,515.3576922699925,None,515.3576922699925,None,515.3576922699925,None,515.3576922699925,None,515.3682327000424,None,515.3682327000424,None,515.3682327000424,None,0.004391770053189248,0.5043917700531892,515.3682327000424,None,515.3682327000424,None,515.3682327000424,None,515.3682327000424,None,515.3682327000424,None,515.3682327000424,None,517.3581825000001,517.3581825000001,41.3,1.376,800,750,-100,,,,,,,,,,,,,,,,,,,,,,,,,,,,,,,,,,,,,,,,,,,,,,,,,,,,,,,,,,,,,,,,,,,,,,,,,,,,,,,,,,,f,22,chenxuan,2022_Apr_03_1930,emotion,2021.1.4,59.368074327924305,
29,50,0,50,one,50,0,50,,,,,0,55,55,28,,,,,,,,,,,right,0.9434936999459751,518.7885460000252,None,518.7885460000252,None,519.7634468000033,None,519.7634468000033,None,519.7634468000033,None,521.7400442000362,522.2400391999981,521.7400442000362,522.2400391999981,521.7400442000362,522.2400391999981,519.7634468000033,None,522.2731482700095,None,522.2731482700095,None,522.2731482700095,None,0.011142370058223605,None,522.2731482700095,None,522.2731482700095,None,522.2731482700095,None,522.2731482700095,None,522.2731482700095,None,522.2731482700095,None,522.2841813000268,None,522.2841813000268,None,522.2841813000268,None,0.004381469974759966,0.50438146997476,522.2841813000268,None,522.2841813000268,None,522.2841813000268,None,522.2841813000268,None,522.2841813000268,None,522.2841813000268,None,524.2727046000073,524.2727046000073,26.599999999999994,1.569,850,750,-50,,,,,,,,,,,,,,,,,,,,,,,,,,,,,,,,,,,,,,,,,,,,,,,,,,,,,,,,,,,,,,,,,,,,,,,,,,,,,,,,,,,f,22,chenxuan,2022_Apr_03_1930,emotion,2021.1.4,59.368074327924305,
45,0,200,200,two,0,200,200,,,,,0,56,56,44,,,,,,,,,,,down,0.9865110000246204,525.9042168000014,None,525.9042168000014,None,526.911454999994,None,526.911454999994,None,526.911454999994,None,528.8889129000017,529.3880682000308,528.8889129000017,529.3880682000308,528.8889129000017,529.3880682000308,526.911454999994,None,529.4220984700136,None,529.4220984700136,None,529.4220984700136,None,0.008876869978848845,None,529.4220984700136,None,529.4220984700136,None,529.4220984700136,None,529.4220984700136,None,529.4220984700136,None,529.4220984700136,None,529.4396897000261,None,529.4396897000261,None,529.4396897000261,None,0.012125339941121638,0.5121253399411216,529.4396897000261,None,529.4396897000261,None,529.4396897000261,None,529.4396897000261,None,529.4396897000261,None,529.4396897000261,None,531.4212914000382,531.4212914000382,-24.7,1.599,850,950,150,,,,,,,,,,,,,,,,,,,,,,,,,,,,,,,,,,,,,,,,,,,,,,,,,,,,,,,,,,,,,,,,,,,,,,,,,,,,,,,,,,,f,22,chenxuan,2022_Apr_03_1930,emotion,2021.1.4,59.368074327924305,
30,50,50,0,one,50,50,0,,,,,0,57,57,29,,,,,,,,,,,right,2.5906586999772117,533.0896772000124,None,533.0896772000124,None,535.7082817000337,None,535.7082817000337,None,535.7082817000337,None,537.686671500036,538.1876328000217,537.686671500036,538.1876328000217,537.686671500036,538.1876328000217,535.7082817000337,None,538.2198701700312,None,538.2198701700312,None,538.2198701700312,None,0.011133569991216063,None,538.2198701700312,None,538.2198701700312,None,538.2198701700312,None,538.2198701700312,None,538.2198701700312,None,538.2198701700312,None,538.2295004000189,None,538.2295004000189,None,538.2295004000189,None,0.0043771700002253056,0.5043771700002253,538.2295004000189,None,538.2295004000189,None,538.2295004000189,None,538.2295004000189,None,538.2295004000189,None,538.2295004000189,None,540.2196856000228,540.2196856000228,17.900000000000006,2.233,900,1000,150,,,,,,,,,,,,,,,,,,,,,,,,,,,,,,,,,,,,,,,,,,,,,,,,,,,,,,,,,,,,,,,,,,,,,,,,,,,,,,,,,,,f,22,chenxuan,2022_Apr_03_1930,emotion,2021.1.4,59.368074327924305,
81,-50,-50,-200,two,-50,-50,-200,,,,,0,58,58,80,,,,,,,,,,,right,1.8130022999830544,542.5176815000013,None,542.5176815000013,None,544.3528369000414,None,544.3528369000414,None,544.3528369000414,None,546.3351354000042,546.835177400033,546.3351354000042,546.835177400033,546.3351354000042,546.835177400033,544.3528369000414,None,546.8683258699951,None,546.8683258699951,None,546.8683258699951,None,0.01131637004436925,None,546.8683258699951,None,546.8683258699951,None,546.8683258699951,None,546.8683258699951,None,546.8683258699951,None,546.8683258699951,None,546.8784145000391,None,546.8784145000391,None,546.8784145000391,None,0.00408156996127218,0.5040815699612722,546.8784145000391,None,546.8784145000391,None,546.8784145000391,None,546.8784145000391,None,546.8784145000391,None,546.8784145000391,None,548.8680202999967,548.8680202999967,42.2,4.119,850,950,-50,,,,,,,,,,,,,,,,,,,,,,,,,,,,,,,,,,,,,,,,,,,,,,,,,,,,,,,,,,,,,,,,,,,,,,,,,,,,,,,,,,,f,22,chenxuan,2022_Apr_03_1930,emotion,2021.1.4,59.368074327924305,
78,-50,-50,0,one,-50,-50,0,,,,,0,59,59,77,,,,,,,,,,,down,0.9673409999813884,553.0829122000141,None,553.0829122000141,None,554.0669011000427,None,554.0669011000427,None,554.0669011000427,None,556.0499303000397,556.5499342000112,556.0499303000397,556.5499342000112,556.0499303000397,556.5499342000112,554.0669011000427,None,556.5665910700103,None,556.5665910700103,None,556.5665910700103,None,0.005763470020610839,None,556.5665910700103,None,556.5665910700103,None,556.5665910700103,None,556.5665910700103,None,556.5665910700103,None,556.5665910700103,None,556.5953252000036,None,556.5953252000036,None,556.5953252000036,None,0.0010304399766027927,0.5010304399766028,556.5953252000036,None,556.5953252000036,None,556.5953252000036,None,556.5953252000036,None,556.5953252000036,None,556.5953252000036,None,558.58279700001,558.58279700001,-39.0,2.701,800,900,-50,,,,,,,,,,,,,,,,,,,,,,,,,,,,,,,,,,,,,,,,,,,,,,,,,,,,,,,,,,,,,,,,,,,,,,,,,,,,,,,,,,,f,22,chenxuan,2022_Apr_03_1930,emotion,2021.1.4,59.368074327924305,
5,200,50,0,one,200,50,0,,,,,0,60,60,4,,,,,,,,,,,down,1.0728160999715328,561.3641165000154,None,561.3641165000154,None,562.4652891000151,None,562.4652891000151,None,562.4652891000151,None,564.4482012999943,564.9480866999947,564.4482012999943,564.9480866999947,564.4482012999943,564.9480866999947,562.4652891000151,None,564.9647435699939,None,564.9647435699939,None,564.9647435699939,None,0.00945686997147277,None,564.9647435699939,None,564.9647435699939,None,564.9647435699939,None,564.9647435699939,None,564.9647435699939,None,564.9647435699939,None,564.9760518000112,None,564.9760518000112,None,564.9760518000112,None,0.0015651700086891651,0.5015651700086892,564.9760518000112,None,564.9760518000112,None,564.9760518000112,None,564.9760518000112,None,564.9760518000112,None,564.9760518000112,None,566.9642049000249,566.9642049000249,42.7,1.379,1000,950,-50,,,,,,,,,,,,,,,,,,,,,,,,,,,,,,,,,,,,,,,,,,,,,,,,,,,,,,,,,,,,,,,,,,,,,,,,,,,,,,,,,,,f,22,chenxuan,2022_Apr_03_1930,emotion,2021.1.4,59.368074327924305,
35,50,0,50,two,50,0,50,,,,,0,61,61,34,,,,,,,,,,,left,0.42358709999825805,568.4135933000362,None,568.4135933000362,None,568.8895838999888,None,568.8895838999888,None,568.8895838999888,None,570.8634909000248,571.3636068000342,570.8634909000248,571.3636068000342,570.8634909000248,571.3636068000342,568.8895838999888,None,571.3967725700116,None,571.3967725700116,None,571.3967725700116,None,0.011674369976390153,None,571.3967725700116,None,571.3967725700116,None,571.3967725700116,None,571.3967725700116,None,571.3967725700116,None,571.3967725700116,None,571.4056302999961,None,571.4056302999961,None,571.4056302999961,None,0.004267369979061186,0.5042673699790612,571.4056302999961,None,571.4056302999961,None,571.4056302999961,None,571.4056302999961,None,571.4056302999961,None,571.4056302999961,None,573.3964778000372,573.3964778000372,34.099999999999994,1.38,1050,950,0,,,,,,,,,,,,,,,,,,,,,,,,,,,,,,,,,,,,,,,,,,,,,,,,,,,,,,,,,,,,,,,,,,,,,,,,,,,,,,,,,,,f,22,chenxuan,2022_Apr_03_1930,emotion,2021.1.4,59.368074327924305,
4,50,200,0,one,50,200,0,,,,,0,62,62,3,,,,,,,,,,,right,0.5219032000168227,574.8335015000193,None,574.8335015000193,None,575.3793372000218,None,575.3793372000218,None,575.3793372000218,None,577.3624261000077,577.8634869999951,577.3624261000077,577.8634869999951,577.3624261000077,577.8634869999951,575.3793372000218,None,577.8801438699942,None,577.8801438699942,None,577.8801438699942,None,0.004980069992598146,None,577.8801438699942,None,577.8801438699942,None,577.8801438699942,None,577.8801438699942,None,577.8801438699942,None,577.8801438699942,None,577.8990677000256,None,577.8990677000256,None,577.8990677000256,None,0.011874040006659925,0.5118740400066599,577.8990677000256,None,577.8990677000256,None,577.8990677000256,None,577.8990677000256,None,577.8990677000256,None,577.8990677000256,None,579.8786041000276,579.8786041000276,-18.4,1.163,1100,1150,0,,,,,,,,,,,,,,,,,,,,,,,,,,,,,,,,,,,,,,,,,,,,,,,,,,,,,,,,,,,,,,,,,,,,,,,,,,,,,,,,,,,f,22,chenxuan,2022_Apr_03_1930,emotion,2021.1.4,59.368074327924305,
83,-50,0,-50,two,-50,0,-50,,,,,0,63,63,82,,,,,,,,,,,right,0.539260399993509,581.1267868000432,None,581.1267868000432,None,581.6967283000122,None,581.6967283000122,None,581.6967283000122,None,583.6777414000244,584.1778793000267,583.6777414000244,584.1778793000267,583.6777414000244,584.1778793000267,581.6967283000122,None,584.2109239700134,None,584.2109239700134,None,584.2109239700134,None,0.011436969973146915,None,584.2109239700134,None,584.2109239700134,None,584.2109239700134,None,584.2109239700134,None,584.2109239700134,None,584.2109239700134,None,584.2213164000423,None,584.2213164000423,None,584.2213164000423,None,0.004748669976834208,0.5047486699768342,584.2213164000423,None,584.2213164000423,None,584.2213164000423,None,584.2213164000423,None,584.2213164000423,None,584.2213164000423,None,586.210641600017,586.210641600017,-24.9,1.575,1050,1150,-50,,,,,,,,,,,,,,,,,,,,,,,,,,,,,,,,,,,,,,,,,,,,,,,,,,,,,,,,,,,,,,,,,,,,,,,,,,,,,,,,,,,f,22,chenxuan,2022_Apr_03_1930,emotion,2021.1.4,59.368074327924305,
52,-50,-200,0,one,-50,-200,0,,,,,0,64,64,51,,,,,,,,,,,right,0.45057859999360517,587.8506003000075,None,587.8506003000075,None,588.3270512000308,None,588.3270512000308,None,588.3270512000308,None,590.3099185000174,590.8097253000014,590.3099185000174,590.8097253000014,590.3099185000174,590.8097253000014,588.3270512000308,None,590.8263821700006,None,590.8263821700006,None,590.8263821700006,None,0.009813670010771602,None,590.8263821700006,None,590.8263821700006,None,590.8263821700006,None,590.8263821700006,None,590.8263821700006,None,590.8263821700006,None,590.8370739000384,None,590.8370739000384,None,590.8370739000384,None,0.0031679700477980077,0.503167970047798,590.8370739000384,None,590.8370739000384,None,590.8370739000384,None,590.8370739000384,None,590.8370739000384,None,590.8370739000384,None,592.8267988000298,592.8267988000298,11.899999999999999,1.547,1000,950,-50,,,,,,,,,,,,,,,,,,,,,,,,,,,,,,,,,,,,,,,,,,,,,,,,,,,,,,,,,,,,,,,,,,,,,,,,,,,,,,,,,,,f,22,chenxuan,2022_Apr_03_1930,emotion,2021.1.4,59.368074327924305,
44,200,0,200,two,200,0,200,,,,,0,65,65,43,,,,,,,,,,,left,1.0043723999988288,594.4307848000317,None,594.4307848000317,None,595.4597406000248,None,595.4597406000248,None,595.4597406000248,None,597.4415963999927,597.9415314000216,597.4415963999927,597.9415314000216,597.4415963999927,597.9415314000216,595.4597406000248,None,597.9749676700216,None,597.9749676700216,None,597.9749676700216,None,0.010923570080194622,None,597.9749676700216,None,597.9749676700216,None,597.9749676700216,None,597.9749676700216,None,597.9749676700216,None,597.9749676700216,None,597.9859714999911,None,597.9859714999911,None,597.9859714999911,None,0.0035872700391337276,0.5035872700391337,597.9859714999911,None,597.9859714999911,None,597.9859714999911,None,597.9859714999911,None,597.9859714999911,None,597.9859714999911,None,599.9746083000209,599.9746083000209,42.7,1.5,1200,950,150,,,,,,,,,,,,,,,,,,,,,,,,,,,,,,,,,,,,,,,,,,,,,,,,,,,,,,,,,,,,,,,,,,,,,,,,,,,,,,,,,,,f,22,chenxuan,2022_Apr_03_1930,emotion,2021.1.4,59.368074327924305,
58,-50,-200,0,two,-50,-200,0,,,,,0,66,66,57,,,,,,,,,,,down,0.6359964000293985,601.5391124000307,None,601.5391124000307,None,602.1948752999888,None,602.1948752999888,None,602.1948752999888,None,604.1737018999993,604.6733439000091,604.1737018999993,604.6733439000091,604.1737018999993,604.6733439000091,602.1948752999888,None,604.706974570034,None,604.706974570034,None,604.706974570034,None,0.011570269998628646,None,604.706974570034,None,604.706974570034,None,604.706974570034,None,604.706974570034,None,604.706974570034,None,604.706974570034,None,604.7168973000371,None,604.7168973000371,None,604.7168973000371,None,0.004347770009189844,0.5043477700091898,604.7168973000371,None,604.7168973000371,None,604.7168973000371,None,604.7168973000371,None,604.7168973000371,None,604.7168973000371,None,606.7065762000275,606.7065762000275,-12.299999999999997,2.142,1150,750,150,,,,,,,,,,,,,,,,,,,,,,,,,,,,,,,,,,,,,,,,,,,,,,,,,,,,,,,,,,,,,,,,,,,,,,,,,,,,,,,,,,,f,22,chenxuan,2022_Apr_03_1930,emotion,2021.1.4,59.368074327924305,
16,0,0,200,one,0,0,200,,,,,0,67,67,15,,,,,,,,,,,right,0.424885600048583,608.9047647000407,None,608.9047647000407,None,609.3635661000153,None,609.3635661000153,None,609.3635661000153,None,611.3390571000054,611.8386937000323,611.3390571000054,611.8386937000323,611.3390571000054,611.8386937000323,609.3635661000153,None,611.8721898700227,None,611.8721898700227,None,611.8721898700227,None,0.011411170067731291,None,611.8721898700227,None,611.8721898700227,None,611.8721898700227,None,611.8721898700227,None,611.8721898700227,None,611.8721898700227,None,611.8813039000379,None,611.8813039000379,None,611.8813039000379,None,0.004458669980522245,0.5044586699805222,611.8813039000379,None,611.8813039000379,None,611.8813039000379,None,611.8813039000379,None,611.8813039000379,None,611.8813039000379,None,613.8718413000461,613.8718413000461,-9.600000000000001,2.559,1150,750,350,,,,,,,,,,,,,,,,,,,,,,,,,,,,,,,,,,,,,,,,,,,,,,,,,,,,,,,,,,,,,,,,,,,,,,,,,,,,,,,,,,,f,22,chenxuan,2022_Apr_03_1930,emotion,2021.1.4,59.368074327924305,
55,0,-50,-200,two,0,-50,-200,,,,,0,68,68,54,,,,,,,,,,,down,0.523542599985376,616.4867571000359,None,616.4867571000359,None,617.0380418000277,None,617.0380418000277,None,617.0380418000277,None,619.0209583000396,619.520811000024,619.0209583000396,619.520811000024,619.0209583000396,619.520811000024,617.0380418000277,None,619.5374678700231,None,619.5374678700231,None,619.5374678700231,None,0.009538170008454472,None,619.5374678700231,None,619.5374678700231,None,619.5374678700231,None,619.5374678700231,None,619.5374678700231,None,619.5374678700231,None,619.5506913000136,None,619.5506913000136,None,619.5506913000136,None,0.00024507008492946625,0.5002450700849295,619.5506913000136,None,619.5506913000136,None,619.5506913000136,None,619.5506913000136,None,619.5506913000136,None,619.5506913000136,None,621.5368172000162,621.5368172000162,44.8,1.433,1150,700,150,,,,,,,,,,,,,,,,,,,,,,,,,,,,,,,,,,,,,,,,,,,,,,,,,,,,,,,,,,,,,,,,,,,,,,,,,,,,,,,,,,,f,22,chenxuan,2022_Apr_03_1930,emotion,2021.1.4,59.368074327924305,
75,-50,-50,-200,one,-50,-50,-200,,,,,0,69,69,74,,,,,,,,,,,down,1.165878000028897,623.0361680000206,None,623.0361680000206,None,624.2198975000065,None,624.2198975000065,None,624.2198975000065,None,626.2043279000209,None,626.2043279000209,None,626.2043279000209,None,624.2198975000065,None,626.7194664700422,None,626.7194664700422,None,626.7194664700422,None,0.00924947002204135,None,626.7194664700422,None,626.7194664700422,None,626.7194664700422,None,626.7194664700422,None,626.7194664700422,None,626.7194664700422,None,626.733427500003,None,626.733427500003,None,626.733427500003,None,0.016114339989144355,0.5161143399891444,626.733427500003,None,626.733427500003,None,626.733427500003,None,626.733427500003,None,626.733427500003,None,626.733427500003,None,628.7189207000192,628.7189207000192,25.799999999999997,4.895,1100,650,-50,,,,,,,,,,,,,,,,,,,,,,,,,,,,,,,,,,,,,,,,,,,,,,,,,,,,,,,,,,,,,,,,,,,,,,,,,,,,,,,,,,,f,22,chenxuan,2022_Apr_03_1930,emotion,2021.1.4,59.368074327924305,
14,0,50,0,one,0,50,0,,,,,0,70,70,13,,,,,,,,,,,left,0.9076225000317208,633.6778519999934,None,633.6778519999934,None,634.6009970000014,None,634.6009970000014,None,634.6009970000014,None,636.5839998000301,637.0839809000026,636.5839998000301,637.0839809000026,636.5839998000301,637.0839809000026,634.6009970000014,None,637.1006377700018,None,637.1006377700018,None,637.1006377700018,None,0.009369070001412183,None,637.1006377700018,None,637.1006377700018,None,637.1006377700018,None,637.1006377700018,None,637.1006377700018,None,637.1006377700018,None,637.1138173000072,None,637.1138173000072,None,637.1138173000072,None,0.0002712700515985489,0.5002712700515985,637.1138173000072,None,637.1138173000072,None,637.1138173000072,None,637.1138173000072,None,637.1138173000072,None,637.1138173000072,None,639.1001671000267,639.1001671000267,-17.6,1.156,1100,700,-50,,,,,,,,,,,,,,,,,,,,,,,,,,,,,,,,,,,,,,,,,,,,,,,,,,,,,,,,,,,,,,,,,,,,,,,,,,,,,,,,,,,f,22,chenxuan,2022_Apr_03_1930,emotion,2021.1.4,59.368074327924305,
92,-200,0,-200,two,-200,0,-200,,,,,0,71,71,91,,,,,,,,,,,right,1.1099113000091165,640.3149901000434,None,640.3149901000434,None,641.4497782000108,None,641.4497782000108,None,641.4497782000108,None,643.4326792000211,643.9337131000357,643.4326792000211,643.9337131000357,643.4326792000211,643.9337131000357,641.4497782000108,None,643.9670268400339,None,643.9670268400339,None,643.9670268400339,None,0.0145150400348939,None,643.9670268400339,None,643.9670268400339,None,643.9670268400339,None,643.9670268400339,None,643.9670268400339,None,643.9670268400339,None,643.9724656000035,None,643.9724656000035,None,643.9724656000035,None,0.007398639980237931,0.5073986399802379,643.9724656000035,None,643.9724656000035,None,643.9724656000035,None,643.9724656000035,None,643.9724656000035,None,643.9724656000035,None,645.9653141000308,645.9653141000308,-36.1,1.286,900,700,-250,,,,,,,,,,,,,,,,,,,,,,,,,,,,,,,,,,,,,,,,,,,,,,,,,,,,,,,,,,,,,,,,,,,,,,,,,,,,,,,,,,,f,22,chenxuan,2022_Apr_03_1930,emotion,2021.1.4,59.368074327924305,
50,0,-200,-50,one,0,-200,-50,,,,,0,72,72,49,,,,,,,,,,,right,0.5792913000332192,647.3138282000436,None,647.3138282000436,None,647.9182049999945,None,647.9182049999945,None,647.9182049999945,None,649.8978670000215,650.3980849999934,649.8978670000215,650.3980849999934,649.8978670000215,650.3980849999934,647.9182049999945,None,650.4315602699993,None,650.4315602699993,None,650.4315602699993,None,0.01169137004762888,None,650.4315602699993,None,650.4315602699993,None,650.4315602699993,None,650.4315602699993,None,650.4315602699993,None,650.4315602699993,None,650.4406920000329,None,650.4406920000329,None,650.4406920000329,None,0.004450969980098307,0.5044509699800983,650.4406920000329,None,650.4406920000329,None,650.4406920000329,None,650.4406920000329,None,650.4406920000329,None,650.4406920000329,None,652.4309477999923,652.4309477999923,41.3,1.128,900,500,-300,,,,,,,,,,,,,,,,,,,,,,,,,,,,,,,,,,,,,,,,,,,,,,,,,,,,,,,,,,,,,,,,,,,,,,,,,,,,,,,,,,,f,22,chenxuan,2022_Apr_03_1930,emotion,2021.1.4,59.368074327924305,
62,0,-50,0,one,0,-50,0,,,,,0,73,73,61,,,,,,,,,,,right,0.6423902999958955,653.6120955999941,None,653.6120955999941,None,654.2879445000435,None,654.2879445000435,None,654.2879445000435,None,656.263490100042,656.7634355000337,656.263490100042,656.7634355000337,656.263490100042,656.7634355000337,654.2879445000435,None,656.7968020700267,None,656.7968020700267,None,656.7968020700267,None,0.011669569998048246,None,656.7968020700267,None,656.7968020700267,None,656.7968020700267,None,656.7968020700267,None,656.7968020700267,None,656.7968020700267,None,656.8062960000243,None,656.8062960000243,None,656.8062960000243,None,0.004981670004781336,0.5049816700047813,656.8062960000243,None,656.8062960000243,None,656.8062960000243,None,656.8062960000243,None,656.8062960000243,None,656.8062960000243,None,658.7969272999908,658.7969272999908,38.900000000000006,1.51,900,450,-300,,,,,,,,,,,,,,,,,,,,,,,,,,,,,,,,,,,,,,,,,,,,,,,,,,,,,,,,,,,,,,,,,,,,,,,,,,,,,,,,,,,f,22,chenxuan,2022_Apr_03_1930,emotion,2021.1.4,59.368074327924305,
47,200,50,200,two,200,50,200,,,,,0,74,74,46,,,,,,,,,,,down,0.6118679000064731,660.3609823000152,None,660.3609823000152,None,660.999604200013,None,660.999604200013,None,660.999604200013,None,662.9788199000177,663.4784878999926,662.9788199000177,663.4784878999926,662.9788199000177,663.4784878999926,660.999604200013,None,663.5119185700081,None,663.5119185700081,None,663.5119185700081,None,0.00906297005712986,None,663.5119185700081,None,663.5119185700081,None,663.5119185700081,None,663.5119185700081,None,663.5119185700081,None,663.5119185700081,None,663.5254324999987,None,663.5254324999987,None,663.5254324999987,None,1.846998929977417e-05,0.5000184699892998,663.5254324999987,None,663.5254324999987,None,663.5254324999987,None,663.5254324999987,None,663.5254324999987,None,663.5254324999987,None,665.5116601000191,665.5116601000191,39.599999999999994,1.474,1100,500,-100,,,,,,,,,,,,,,,,,,,,,,,,,,,,,,,,,,,,,,,,,,,,,,,,,,,,,,,,,,,,,,,,,,,,,,,,,,,,,,,,,,,f,22,chenxuan,2022_Apr_03_1930,emotion,2021.1.4,59.368074327924305,
74,-50,-200,-50,one,-50,-200,-50,,,,,0,75,75,73,,,,,,,,,,,down,1.1709553999826312,667.059846499993,None,667.059846499993,None,668.269699299999,None,668.269699299999,None,668.269699299999,None,670.2440011000144,670.7440754999989,670.2440011000144,670.7440754999989,670.2440011000144,670.7440754999989,668.269699299999,None,670.7771544700139,None,670.7771544700139,None,670.7771544700139,None,0.011327970074489713,None,670.7771544700139,None,670.7771544700139,None,670.7771544700139,None,670.7771544700139,None,670.7771544700139,None,670.7771544700139,None,670.7872403000365,None,670.7872403000365,None,670.7872403000365,None,0.004177970055025071,0.5041779700550251,670.7872403000365,None,670.7872403000365,None,670.7872403000365,None,670.7872403000365,None,670.7872403000365,None,670.7872403000365,None,672.777030199999,672.777030199999,36.0,4.459,1050,300,-150,,,,,,,,,,,,,,,,,,,,,,,,,,,,,,,,,,,,,,,,,,,,,,,,,,,,,,,,,,,,,,,,,,,,,,,,,,,,,,,,,,,f,22,chenxuan,2022_Apr_03_1930,emotion,2021.1.4,59.368074327924305,
91,-200,-200,0,two,-200,-200,0,,,,,0,76,76,90,,,,,,,,,,,right,0.7892062000464648,677.2923233000329,None,677.2923233000329,None,678.1135796000017,None,678.1135796000017,None,678.1135796000017,None,680.0920728000347,680.5918140000431,680.0920728000347,680.5918140000431,680.0920728000347,680.5918140000431,678.1135796000017,None,680.6251832699985,None,680.6251832699985,None,680.6251832699985,None,0.01136816997313872,None,680.6251832699985,None,680.6251832699985,None,680.6251832699985,None,680.6251832699985,None,680.6251832699985,None,680.6251832699985,None,680.6352670000051,None,680.6352670000051,None,680.6352670000051,None,0.004372969968244433,0.5043729699682444,680.6352670000051,None,680.6352670000051,None,680.6352670000051,None,680.6352670000051,None,680.6352670000051,None,680.6352670000051,None,682.625004600035,682.625004600035,-41.7,4.76,850,100,-150,,,,,,,,,,,,,,,,,,,,,,,,,,,,,,,,,,,,,,,,,,,,,,,,,,,,,,,,,,,,,,,,,,,,,,,,,,,,,,,,,,,f,22,chenxuan,2022_Apr_03_1930,emotion,2021.1.4,59.368074327924305,
80,-50,-200,-50,two,-50,-200,-50,,,,,0,77,77,79,,,,,,,,,,,right,0.7894051999901421,687.4480922000366,None,687.4480922000366,None,688.2606748000253,None,688.2606748000253,None,688.2606748000253,None,690.2401398000075,690.7398082000436,690.2401398000075,690.7398082000436,690.2401398000075,690.7398082000436,688.2606748000253,None,690.7734478700207,None,690.7734478700207,None,690.7734478700207,None,0.009152270038612187,None,690.7734478700207,None,690.7734478700207,None,690.7734478700207,None,690.7734478700207,None,690.7734478700207,None,690.7734478700207,None,690.7878529000445,None,690.7878529000445,None,690.7878529000445,None,0.016534739988856018,0.516534739988856,690.7878529000445,None,690.7878529000445,None,690.7878529000445,None,690.7878529000445,None,690.7878529000445,None,690.7878529000445,None,692.7564361999976,692.7564361999976,37.2,2.085,800,-100,-200,,,,,,,,,,,,,,,,,,,,,,,,,,,,,,,,,,,,,,,,,,,,,,,,,,,,,,,,,,,,,,,,,,,,,,,,,,,,,,,,,,,f,22,chenxuan,2022_Apr_03_1930,emotion,2021.1.4,59.368074327924305,
7,0,50,200,two,0,50,200,,,,,0,78,78,6,,,,,,,,,,,down,1.1601005000411533,694.9214513000334,None,694.9214513000334,None,696.1056411000318,None,696.1056411000318,None,696.1056411000318,None,698.0884356000461,698.5886077000177,698.0884356000461,698.5886077000177,698.0884356000461,698.5886077000177,696.1056411000318,None,698.6052645700169,None,698.6052645700169,None,698.6052645700169,None,0.009281869977712631,None,698.6052645700169,None,698.6052645700169,None,698.6052645700169,None,698.6052645700169,None,698.6052645700169,None,698.6052645700169,None,698.6308444000315,None,698.6308444000315,None,698.6308444000315,None,0.004635540011804551,0.5046355400118046,698.6308444000315,None,698.6308444000315,None,698.6308444000315,None,698.6308444000315,None,698.6308444000315,None,698.6308444000315,None,700.6214395000134,700.6214395000134,-28.5,3.313,800,-50,0,,,,,,,,,,,,,,,,,,,,,,,,,,,,,,,,,,,,,,,,,,,,,,,,,,,,,,,,,,,,,,,,,,,,,,,,,,,,,,,,,,,f,22,chenxuan,2022_Apr_03_1930,emotion,2021.1.4,59.368074327924305,
63,-50,0,0,one,-50,0,0,,,,,0,79,79,62,,,,,,,,,,,right,0.919098699989263,703.9873504000134,None,703.9873504000134,None,704.9264800000237,None,704.9264800000237,None,704.9264800000237,None,706.9032725000288,707.4034199000453,706.9032725000288,707.4034199000453,706.9032725000288,707.4034199000453,704.9264800000237,None,707.4365678700036,None,707.4365678700036,None,707.4365678700036,None,0.011237269965931773,None,707.4365678700036,None,707.4365678700036,None,707.4365678700036,None,707.4365678700036,None,707.4365678700036,None,707.4365678700036,None,707.4455791999935,None,707.4455791999935,None,707.4455791999935,None,0.004399570054374635,0.5043995700543746,707.4455791999935,None,707.4455791999935,None,707.4455791999935,None,707.4455791999935,None,707.4455791999935,None,707.4455791999935,None,709.4361516000354,709.4361516000354,-38.0,1.001,750,-50,0,,,,,,,,,,,,,,,,,,,,,,,,,,,,,,,,,,,,,,,,,,,,,,,,,,,,,,,,,,,,,,,,,,,,,,,,,,,,,,,,,,,f,22,chenxuan,2022_Apr_03_1930,emotion,2021.1.4,59.368074327924305,
61,0,0,-50,one,0,0,-50,,,,,0,80,80,60,,,,,,,,,,,right,0.6961242000106722,710.5013461000053,None,710.5013461000053,None,711.2246032000403,None,711.2246032000403,None,711.2246032000403,None,713.2020453000441,713.7022209000424,713.2020453000441,713.7022209000424,713.2020453000441,713.7022209000424,711.2246032000403,None,713.7356500699883,None,713.7356500699883,None,713.7356500699883,None,0.011435269960202277,None,713.7356500699883,None,713.7356500699883,None,713.7356500699883,None,713.7356500699883,None,713.7356500699883,None,713.7356500699883,None,713.7448375000386,None,713.7448375000386,None,713.7448375000386,None,0.004305169975850731,0.5043051699758507,713.7448375000386,None,713.7448375000386,None,713.7448375000386,None,713.7448375000386,None,713.7448375000386,None,713.7448375000386,None,715.7350832000375,715.7350832000375,27.700000000000003,1.535,750,-50,-50,,,,,,,,,,,,,,,,,,,,,,,,,,,,,,,,,,,,,,,,,,,,,,,,,,,,,,,,,,,,,,,,,,,,,,,,,,,,,,,,,,,f,22,chenxuan,2022_Apr_03_1930,emotion,2021.1.4,59.368074327924305,
87,0,-200,-200,one,0,-200,-200,,,,,0,81,81,86,,,,,,,,,,,right,0.6118131999974139,717.3251492000418,None,717.3251492000418,None,717.969849599991,None,717.969849599991,None,717.969849599991,None,719.951059300045,720.4506099999999,719.951059300045,720.4506099999999,719.951059300045,720.4506099999999,717.969849599991,None,720.4840327700134,None,720.4840327700134,None,720.4840327700134,None,0.011205170070752501,None,720.4840327700134,None,720.4840327700134,None,720.4840327700134,None,720.4840327700134,None,720.4840327700134,None,720.4840327700134,None,720.5138833000092,None,720.5138833000092,None,720.5138833000092,None,0.00879733997862786,0.5087973399786279,720.5138833000092,None,720.5138833000092,None,720.5138833000092,None,720.5138833000092,None,720.5138833000092,None,720.5138833000092,None,722.4837899000267,722.4837899000267,41.900000000000006,1.449,750,-250,-250,,,,,,,,,,,,,,,,,,,,,,,,,,,,,,,,,,,,,,,,,,,,,,,,,,,,,,,,,,,,,,,,,,,,,,,,,,,,,,,,,,,f,22,chenxuan,2022_Apr_03_1930,emotion,2021.1.4,59.368074327924305,
27,50,50,200,one,50,50,200,,,,,0,82,82,26,,,,,,,,,,,left,0.49018510000314564,724.0023362000356,None,724.0023362000356,None,724.5202283000108,None,724.5202283000108,None,724.5202283000108,None,726.4996164999902,726.9995071000303,726.4996164999902,726.9995071000303,726.4996164999902,726.9995071000303,724.5202283000108,None,727.0327530700364,None,727.0327530700364,None,727.0327530700364,None,0.010940670093987137,None,727.0327530700364,None,727.0327530700364,None,727.0327530700364,None,727.0327530700364,None,727.0327530700364,None,727.0327530700364,None,727.0428083000006,None,727.0428083000006,None,727.0428083000006,None,0.003951170016080141,0.5039511700160801,727.0428083000006,None,727.0428083000006,None,727.0428083000006,None,727.0428083000006,None,727.0428083000006,None,727.0428083000006,None,729.0326263000024,729.0326263000024,11.299999999999997,2.234,800,-200,-50,,,,,,,,,,,,,,,,,,,,,,,,,,,,,,,,,,,,,,,,,,,,,,,,,,,,,,,,,,,,,,,,,,,,,,,,,,,,,,,,,,,f,22,chenxuan,2022_Apr_03_1930,emotion,2021.1.4,59.368074327924305,
77,-50,0,-50,one,-50,0,-50,,,,,0,83,83,76,,,,,,,,,,,down,1.5593947999877855,731.3303546000388,None,731.3303546000388,None,732.9153284000349,None,732.9153284000349,None,732.9153284000349,None,734.8979848000454,735.397846100037,734.8979848000454,735.397846100037,734.8979848000454,735.397846100037,732.9153284000349,None,735.4311598400352,None,735.4311598400352,None,735.4311598400352,None,0.015530940028838813,None,735.4311598400352,None,735.4311598400352,None,735.4311598400352,None,735.4311598400352,None,735.4311598400352,None,735.4311598400352,None,735.4365433999919,None,735.4365433999919,None,735.4365433999919,None,0.008592739992309362,0.5085927399923094,735.4365433999919,None,735.4365433999919,None,735.4365433999919,None,735.4365433999919,None,735.4365433999919,None,735.4365433999919,None,737.4141499000252,737.4141499000252,-32.4,2.121,750,-200,-100,,,,,,,,,,,,,,,,,,,,,,,,,,,,,,,,,,,,,,,,,,,,,,,,,,,,,,,,,,,,,,,,,,,,,,,,,,,,,,,,,,,f,22,chenxuan,2022_Apr_03_1930,emotion,2021.1.4,59.368074327924305,
42,50,200,200,one,50,200,200,,,,,0,84,84,41,,,,,,,,,,,right,0.854346500011161,739.6126018000068,None,739.6126018000068,None,740.4969416999957,None,740.4969416999957,None,740.4969416999957,None,742.479811600002,742.9797773000319,742.479811600002,742.9797773000319,742.479811600002,742.9797773000319,740.4969416999957,None,742.996434170031,None,742.996434170031,None,742.996434170031,None,0.009931070089805871,None,742.996434170031,None,742.996434170031,None,742.996434170031,None,742.996434170031,None,742.996434170031,None,742.996434170031,None,743.0087431000429,None,743.0087431000429,None,743.0087431000429,None,0.0010178700904361904,0.5010178700904362,743.0087431000429,None,743.0087431000429,None,743.0087431000429,None,743.0087431000429,None,743.0087431000429,None,743.0087431000429,None,744.9959488000022,744.9959488000022,-43.4,0.981,800,0,100,,,,,,,,,,,,,,,,,,,,,,,,,,,,,,,,,,,,,,,,,,,,,,,,,,,,,,,,,,,,,,,,,,,,,,,,,,,,,,,,,,,f,22,chenxuan,2022_Apr_03_1930,emotion,2021.1.4,59.368074327924305,
60,-200,0,-50,two,-200,0,-50,,,,,0,85,85,59,,,,,,,,,,,down,0.8891661000088789,746.0442811000394,None,746.0442811000394,None,746.9620035000262,None,746.9620035000262,None,746.9620035000262,None,748.9452464000206,749.4448832999915,748.9452464000206,749.4448832999915,748.9452464000206,749.4448832999915,746.9620035000262,None,749.4615401699906,None,749.4615401699906,None,749.4615401699906,None,0.009192969999276102,None,749.4615401699906,None,749.4615401699906,None,749.4615401699906,None,749.4615401699906,None,749.4615401699906,None,749.4615401699906,None,749.473671499989,None,749.473671499989,None,749.473671499989,None,0.0007748700445517898,0.5007748700445518,749.473671499989,None,749.473671499989,None,749.473671499989,None,749.473671499989,None,749.473671499989,None,749.473671499989,None,751.4615249999915,751.4615249999915,-45.9,1.656,600,0,50,,,,,,,,,,,,,,,,,,,,,,,,,,,,,,,,,,,,,,,,,,,,,,,,,,,,,,,,,,,,,,,,,,,,,,,,,,,,,,,,,,,f,22,chenxuan,2022_Apr_03_1930,emotion,2021.1.4,59.368074327924305,
88,-200,-200,-50,one,-200,-200,-50,,,,,0,86,86,87,,,,,,,,,,,right,0.6883593000238761,753.1730772000155,None,753.1730772000155,None,753.8779186999891,None,753.8779186999891,None,753.8779186999891,None,755.8605529000051,756.3602706000092,755.8605529000051,756.3602706000092,755.8605529000051,756.3602706000092,753.8779186999891,None,756.3769274700084,None,756.3769274700084,None,756.3769274700084,None,0.00038526998832821846,None,756.3769274700084,None,756.3769274700084,None,756.3769274700084,None,756.3769274700084,None,756.3769274700084,None,756.3769274700084,None,756.3967868000036,None,756.3967868000036,None,756.3967868000036,None,0.010236939997412264,0.5102369399974123,756.3967868000036,None,756.3967868000036,None,756.3967868000036,None,756.3967868000036,None,756.3967868000036,None,756.3967868000036,None,758.3767152000219,758.3767152000219,-37.6,2.777,400,-200,0,,,,,,,,,,,,,,,,,,,,,,,,,,,,,,,,,,,,,,,,,,,,,,,,,,,,,,,,,,,,,,,,,,,,,,,,,,,,,,,,,,,f,22,chenxuan,2022_Apr_03_1930,emotion,2021.1.4,59.368074327924305,
17,0,200,0,one,0,200,0,,,,,0,87,87,16,,,,,,,,,,,right,0.5478512000408955,761.2245804000413,None,761.2245804000413,None,761.7924615000375,None,761.7924615000375,None,761.7924615000375,None,763.7757126000361,764.2754594000289,763.7757126000361,764.2754594000289,763.7757126000361,764.2754594000289,761.7924615000375,None,764.292116270028,None,764.292116270028,None,764.292116270028,None,0.009796769998501986,None,764.292116270028,None,764.292116270028,None,764.292116270028,None,764.292116270028,None,764.292116270028,None,764.292116270028,None,764.307866099989,None,764.307866099989,None,764.307866099989,None,0.015196939988527447,0.5151969399885274,764.307866099989,None,764.307866099989,None,764.307866099989,None,764.307866099989,None,764.307866099989,None,764.307866099989,None,766.2922081000288,766.2922081000288,-42.8,1.096,400,0,0,,,,,,,,,,,,,,,,,,,,,,,,,,,,,,,,,,,,,,,,,,,,,,,,,,,,,,,,,,,,,,,,,,,,,,,,,,,,,,,,,,,f,22,chenxuan,2022_Apr_03_1930,emotion,2021.1.4,59.368074327924305,
57,-50,0,-200,two,-50,0,-200,,,,,0,88,88,56,,,,,,,,,,,left,0.6498202999937348,767.4423049000325,None,767.4423049000325,None,768.1086403999943,None,768.1086403999943,None,768.1086403999943,None,770.0912001000252,770.5911019000341,770.0912001000252,770.5911019000341,770.0912001000252,770.5911019000341,768.1086403999943,None,770.6077587700332,None,770.6077587700332,None,770.6077587700332,None,0.00811037007952109,None,770.6077587700332,None,770.6077587700332,None,770.6077587700332,None,770.6077587700332,None,770.6077587700332,None,770.6077587700332,None,770.62260100001,None,770.62260100001,None,770.62260100001,None,0.01562764000846073,0.5156276400084607,770.62260100001,None,770.62260100001,None,770.62260100001,None,770.62260100001,None,770.62260100001,None,770.62260100001,None,772.6070140000083,772.6070140000083,-27.9,2.267,350,0,-200,,,,,,,,,,,,,,,,,,,,,,,,,,,,,,,,,,,,,,,,,,,,,,,,,,,,,,,,,,,,,,,,,,,,,,,,,,,,,,,,,,,f,22,chenxuan,2022_Apr_03_1930,emotion,2021.1.4,59.368074327924305,
24,200,0,0,two,200,0,0,,,,,0,89,89,23,,,,,,,,,,,down,0.8264667000039481,774.9257006000262,None,774.9257006000262,None,775.7734484000248,None,775.7734484000248,None,775.7734484000248,None,777.7561353000347,778.2561021000147,777.7561353000347,778.2561021000147,777.7561353000347,778.2561021000147,775.7734484000248,None,778.2727589700138,None,778.2727589700138,None,778.2727589700138,None,0.009771669982001185,None,778.2727589700138,None,778.2727589700138,None,778.2727589700138,None,778.2727589700138,None,778.2727589700138,None,778.2727589700138,None,778.2890194000211,None,778.2890194000211,None,778.2890194000211,None,0.0022171700256876647,0.5022171700256877,778.2890194000211,None,778.2890194000211,None,778.2890194000211,None,778.2890194000211,None,778.2890194000211,None,778.2890194000211,None,780.2722636000253,780.2722636000253,44.099999999999994,1.203,550,0,-200,,,,,,,,,,,,,,,,,,,,,,,,,,,,,,,,,,,,,,,,,,,,,,,,,,,,,,,,,,,,,,,,,,,,,,,,,,,,,,,,,,,f,22,chenxuan,2022_Apr_03_1930,emotion,2021.1.4,59.368074327924305,
3,50,0,200,one,50,0,200,,,,,0,90,90,2,,,,,,,,,,,right,0.7596030000131577,781.5372655999963,None,781.5372655999963,None,782.3255354000139,None,782.3255354000139,None,782.3255354000139,None,784.3060626999941,784.8214620000217,784.3060626999941,784.8214620000217,784.3060626999941,784.8214620000217,782.3255354000139,None,784.8381188700208,None,784.8381188700208,None,784.8381188700208,None,0.006867170042824,None,784.8381188700208,None,784.8381188700208,None,784.8381188700208,None,784.8381188700208,None,784.8381188700208,None,784.8381188700208,None,784.8664904999896,None,784.8664904999896,None,784.8664904999896,None,0.007155139988753945,0.507155139988754,784.8664904999896,None,784.8664904999896,None,784.8664904999896,None,784.8664904999896,None,784.8664904999896,None,784.8664904999896,None,786.854515700019,786.854515700019,-31.5,3.269,600,0,0,,,,,,,,,,,,,,,,,,,,,,,,,,,,,,,,,,,,,,,,,,,,,,,,,,,,,,,,,,,,,,,,,,,,,,,,,,,,,,,,,,,f,22,chenxuan,2022_Apr_03_1930,emotion,2021.1.4,59.368074327924305,
39,0,200,200,one,0,200,200,,,,,0,91,91,38,,,,,,,,,,,right,0.6270328999962658,790.1862596000428,None,790.1862596000428,None,790.8367287000292,793.3364940000465,790.8367287000292,793.3364940000465,790.8367287000292,793.3364940000465,792.8374082000228,None,792.8374082000228,None,792.8374082000228,None,790.8367287000292,793.3364940000465,793.3531508700456,None,793.3531508700456,None,793.3531508700456,None,0.011609970009885728,None,793.3531508700456,None,793.3531508700456,None,793.3531508700456,None,793.3531508700456,None,793.3531508700456,None,793.3531508700456,None,793.3786768999998,None,793.3786768999998,None,793.3786768999998,None,0.013042840000707656,0.5130428400007077,793.3786768999998,None,793.3786768999998,None,793.3786768999998,None,793.3786768999998,None,793.3786768999998,None,793.3786768999998,None,795.3527497000177,795.3527497000177,-40.0,1.071,600,200,200,,,,,,,,,,,,,,,,,,,,,,,,,,,,,,,,,,,,,,,,,,,,,,,,,,,,,,,,,,,,,,,,,,,,,,,,,,,,,,,,,,,f,22,chenxuan,2022_Apr_03_1930,emotion,2021.1.4,59.368074327924305,
72,-200,0,0,two,-200,0,0,,,,,0,92,92,71,,,,,,,,,,,down,0.8957115999655798,796.5009656000184,None,796.5009656000184,None,797.4192077000043,None,797.4192077000043,None,797.4192077000043,None,799.4017799000139,799.9018992999918,799.4017799000139,799.9018992999918,799.4017799000139,799.9018992999918,797.4192077000043,None,799.9185561699909,None,799.9185561699909,None,799.9185561699909,None,0.010383270040620118,None,799.9185561699909,None,799.9185561699909,None,799.9185561699909,None,799.9185561699909,None,799.9185561699909,None,799.9185561699909,None,799.9286929999944,None,799.9286929999944,None,799.9286929999944,None,0.0038255700492300093,0.50382557004923,799.9286929999944,None,799.9286929999944,None,799.9286929999944,None,799.9286929999944,None,799.9286929999944,None,799.9286929999944,None,801.9182627000264,801.9182627000264,-45.3,1.37,400,200,200,,,,,,,,,,,,,,,,,,,,,,,,,,,,,,,,,,,,,,,,,,,,,,,,,,,,,,,,,,,,,,,,,,,,,,,,,,,,,,,,,,,f,22,chenxuan,2022_Apr_03_1930,emotion,2021.1.4,59.368074327924305,
96,-50,-200,-200,two,-50,-200,-200,,,,,0,93,93,95,,,,,,,,,,,down,1.1003965999698266,803.3495285999961,None,803.3495285999961,None,804.4675055000116,None,804.4675055000116,None,804.4675055000116,None,806.4505243000458,806.951601000037,806.4505243000458,806.951601000037,806.4505243000458,806.951601000037,804.4675055000116,None,806.9682578700362,None,806.9682578700362,None,806.9682578700362,None,0.004787570098415017,None,806.9682578700362,None,806.9682578700362,None,806.9682578700362,None,806.9682578700362,None,806.9682578700362,None,806.9682578700362,None,806.9843406000291,None,806.9843406000291,None,806.9843406000291,None,0.014074539998546243,0.5140745399985462,806.9843406000291,None,806.9843406000291,None,806.9843406000291,None,806.9843406000291,None,806.9843406000291,None,806.9843406000291,None,808.9667434000294,808.9667434000294,37.3,1.458,350,0,0,,,,,,,,,,,,,,,,,,,,,,,,,,,,,,,,,,,,,,,,,,,,,,,,,,,,,,,,,,,,,,,,,,,,,,,,,,,,,,,,,,,f,22,chenxuan,2022_Apr_03_1930,emotion,2021.1.4,59.368074327924305,
