trialNumber,mychoice,otherchoice,stay,skip,pointsWon,otherScore,unobtained,choicepos,pos_1,otherscore,allowedkeyresp,trials_2.thisRepN,trials_2.thisTrialN,trials_2.thisN,trials_2.thisIndex,trials.thisRepN,trials.thisTrialN,trials.thisN,trials.thisIndex,image_2.started,image_2.stopped,key_resp_2.keys,key_resp_2.rt,key_resp_2.started,key_resp_2.stopped,key_resp_6.keys,key_resp_6.rt,key_resp_6.started,key_resp_6.stopped,text.started,text.stopped,left_3.started,left_3.stopped,middle_3.started,middle_3.stopped,right_3.started,right_3.stopped,otherleft_1.started,otherleft_1.stopped,othermiddle_1.started,othermiddle_1.stopped,otherright_1.started,otherright_1.stopped,text_2.started,text_2.stopped,left_4.started,left_4.stopped,right_4.started,right_4.stopped,middle_4.started,middle_4.stopped,ISI_3.started,ISI_3.stopped,mypick.started,mypick.stopped,otherpick.started,otherpick.stopped,residal.started,residal.stopped,otherleft_5.started,otherleft_5.stopped,othermiddle_5.started,othermiddle_5.stopped,otherright_5.started,otherright_5.stopped,left_5.started,left_5.stopped,right_5.started,right_5.stopped,middle_5.started,middle_5.stopped,ISI_5.started,ISI_5.stopped,mypick_1.started,mypick_1.stopped,otherpick_1.started,otherpick_1.stopped,residal_1.started,residal_1.stopped,otherleft_6.started,otherleft_6.stopped,othermiddle_6.started,othermiddle_6.stopped,otherright_6.started,otherright_6.stopped,text_3.started,text_3.stopped,rating,ratingrt,totalScore,othertotalScore,unobtainedScore,image_4.started,image_4.stopped,key_resp_3.keys,key_resp_3.rt,key_resp_3.started,key_resp_3.stopped,image_5.started,image_5.stopped,key_resp.keys,key_resp.rt,key_resp.started,key_resp.stopped,otherleft_3.started,otherleft_3.stopped,othermiddle_3.started,othermiddle_3.stopped,otherright_3.started,otherright_3.stopped,text_4.started,text_4.stopped,ISI_2.started,ISI_2.stopped,key_resp_4.keys,key_resp_4.rt,key_resp_4.started,key_resp_4.stopped,otherleft_4.started,otherleft_4.stopped,othermiddle_4.started,othermiddle_4.stopped,otherright_4.started,otherright_4.stopped,text_5.started,text_5.stopped,left.started,left.stopped,right.started,right.stopped,middle.started,middle.stopped,ISI.started,ISI.stopped,mypick_3.started,mypick_3.stopped,otherpick_3.started,otherpick_3.stopped,residal_3.started,residal_3.stopped,otherleft.started,otherleft.stopped,othermiddle.started,othermiddle.stopped,otherright.started,otherright.stopped,right_2.started,right_2.stopped,middle_2.started,middle_2.stopped,left_2.started,left_2.stopped,ISI_4.started,ISI_4.stopped,mypick_4.started,mypick_4.stopped,otherpick_4.started,otherpick_4.stopped,residal_4.started,residal_4.stopped,otherleft_2.started,otherleft_2.stopped,othermiddle_2.started,othermiddle_2.stopped,otherright_2.started,otherright_2.stopped,text_6.started,text_6.stopped,image_3.started,image_3.stopped,key_resp_9.keys,key_resp_9.rt,key_resp_9.started,key_resp_9.stopped,gender,age,participant,date,expName,psychopyVersion,frameRate,
,,,,,,,,,,,,,,,,,,,,36.0505177999994,None,space,7.763241900000139,36.0505177999994,None,,,,,,,,,,,,,,,,,,,,,,,,,,,,,,,,,,,,,,,,,,,,,,,,,,,,,,,,,,,,,,,,,,,,,,,,,,,,,,,,,,,,,,,,,,,,,,,,,,,,,,,,,,,,,,,,,,,,,,,,,,,,,,,,,,,,,,,,,,,,,,,,,,,,,,f,22,fuyao,2022-04-02_10h43.37.688,emotion,2022.1.2,60.02044296306862,
10,50,200,0,two,50,200,0,,,,,0,0,0,9,,,,,,,,,,,right,6.898445700000593,43.88566110000011,None,43.88566110000011,None,50.80100870000024,None,50.80100870000024,None,50.80100870000024,None,52.78354909999962,53.283201199999894,52.78354909999962,53.283201199999894,52.78354909999962,53.283201199999894,50.80100870000024,None,53.31656626999975,None,53.31656626999975,None,53.31656626999975,None,0.0005747699997300515,None,53.31656626999975,None,53.31656626999975,None,53.31656626999975,None,53.31656626999975,None,53.31656626999975,None,53.31656626999975,None,53.33664239999962,None,53.33664239999962,None,53.33664239999962,None,0.00934763999975985,0.5093476399997598,53.33664239999962,None,53.33664239999962,None,53.33664239999962,None,53.33664239999962,None,53.33664239999962,None,53.33664239999962,None,55.31534439999996,55.31534439999996,25.0,9.766,250,200,0,,,,,,,,,,,,,,,,,,,,,,,,,,,,,,,,,,,,,,,,,,,,,,,,,,,,,,,,,,,,,,,,,,,,,,,,,,,,,,,,,,,f,22,fuyao,2022-04-02_10h43.37.688,emotion,2022.1.2,60.02044296306862,
43,200,200,0,two,200,200,0,,,,,0,1,1,42,,,,,,,,,,,right,3.041987600000539,65.20986589999939,None,65.20986589999939,None,68.27636840000014,None,68.27636840000014,None,68.27636840000014,None,70.25861769999938,70.75823219999984,70.25861769999938,70.75823219999984,70.25861769999938,70.75823219999984,68.27636840000014,None,70.79156836999974,None,70.79156836999974,None,70.79156836999974,None,0.003725769999618933,None,70.79156836999974,None,70.79156836999974,None,70.79156836999974,None,70.79156836999974,None,70.79156836999974,None,70.79156836999974,None,70.80645099999947,None,70.80645099999947,None,70.80645099999947,None,0.012623040000107721,0.5126230400001077,70.80645099999947,None,70.80645099999947,None,70.80645099999947,None,70.80645099999947,None,70.80645099999947,None,70.80645099999947,None,72.79078140000001,72.79078140000001,50.0,6.006,450,400,0,,,,,,,,,,,,,,,,,,,,,,,,,,,,,,,,,,,,,,,,,,,,,,,,,,,,,,,,,,,,,,,,,,,,,,,,,,,,,,,,,,,f,22,fuyao,2022-04-02_10h43.37.688,emotion,2022.1.2,60.02044296306862,
68,0,-50,0,two,0,-50,0,,,,,0,2,2,67,,,,,,,,,,,right,2.3288861999999426,78.8713904999995,None,78.8713904999995,None,81.22045699999944,None,81.22045699999944,None,81.22045699999944,None,83.20282159999988,83.70253129999946,83.20282159999988,83.70253129999946,83.20282159999988,83.70253129999946,81.22045699999944,None,83.7359140699995,None,83.7359140699995,None,83.7359140699995,None,0.009094969998841407,None,83.7359140699995,None,83.7359140699995,None,83.7359140699995,None,83.7359140699995,None,83.7359140699995,None,83.7359140699995,None,83.74568050000016,None,83.74568050000016,None,83.74568050000016,None,0.0011809699990408262,0.5011809699990408,83.74568050000016,None,83.74568050000016,None,83.74568050000016,None,83.74568050000016,None,83.74568050000016,None,83.74568050000016,None,85.73487990000012,85.73487990000012,50.0,8.641,450,350,0,,,,,,,,,,,,,,,,,,,,,,,,,,,,,,,,,,,,,,,,,,,,,,,,,,,,,,,,,,,,,,,,,,,,,,,,,,,,,,,,,,,f,22,fuyao,2022-04-02_10h43.37.688,emotion,2022.1.2,60.02044296306862,
96,-50,-200,-200,two,-50,-200,-200,,,,,0,3,3,95,,,,,,,,,,,right,1.6020954000005077,94.4309916000002,None,94.4309916000002,None,96.06374700000015,None,96.06374700000015,None,96.06374700000015,None,98.04608759999974,98.54569739999988,98.04608759999974,98.54569739999988,98.04608759999974,98.54569739999988,96.06374700000015,None,98.57918026999997,None,98.57918026999997,None,98.57918026999997,None,0.010108569999829342,None,98.57918026999997,None,98.57918026999997,None,98.57918026999997,None,98.57918026999997,None,98.57918026999997,None,98.57918026999997,None,98.58865349999996,None,98.58865349999996,None,98.58865349999996,None,0.0019335699998919154,0.5019335699998919,98.58865349999996,None,98.58865349999996,None,98.58865349999996,None,98.58865349999996,None,98.58865349999996,None,98.58865349999996,None,100.57821419999982,100.57821419999982,50.0,7.031,400,150,-200,,,,,,,,,,,,,,,,,,,,,,,,,,,,,,,,,,,,,,,,,,,,,,,,,,,,,,,,,,,,,,,,,,,,,,,,,,,,,,,,,,,f,22,fuyao,2022-04-02_10h43.37.688,emotion,2022.1.2,60.02044296306862,
19,0,0,50,two,0,0,50,,,,,0,4,4,18,,,,,,,,,,,right,1.646901699999944,107.68304960000023,None,107.68304960000023,None,109.3574749999998,None,109.3574749999998,None,109.3574749999998,None,111.3397488999999,111.83984020000025,111.3397488999999,111.83984020000025,111.3397488999999,111.83984020000025,109.3574749999998,None,111.85652107000024,None,111.85652107000024,None,111.85652107000024,None,0.010214070000074571,None,111.85652107000024,None,111.85652107000024,None,111.85652107000024,None,111.85652107000024,None,111.85652107000024,None,111.85652107000024,None,111.86536699999942,None,111.86536699999942,None,111.86536699999942,None,0.0023917700000311015,0.5023917700000311,111.86536699999942,None,111.86536699999942,None,111.86536699999942,None,111.86536699999942,None,111.86536699999942,None,111.86536699999942,None,113.85542429999987,113.85542429999987,25.0,7.913,400,150,-150,,,,,,,,,,,,,,,,,,,,,,,,,,,,,,,,,,,,,,,,,,,,,,,,,,,,,,,,,,,,,,,,,,,,,,,,,,,,,,,,,,,f,22,fuyao,2022-04-02_10h43.37.688,emotion,2022.1.2,60.02044296306862,
36,50,50,0,two,50,50,0,,,,,0,5,5,35,,,,,,,,,,,right,1.7515733999998702,121.81833939999979,None,121.81833939999979,None,123.60117399999945,None,123.60117399999945,None,123.60117399999945,None,125.58364239999992,126.08319779999965,125.58364239999992,126.08319779999965,125.58364239999992,126.08319779999965,123.60117399999945,None,126.11689357000014,None,126.11689357000014,None,126.11689357000014,None,0.010730770000009215,None,126.11689357000014,None,126.11689357000014,None,126.11689357000014,None,126.11689357000014,None,126.11689357000014,None,126.11689357000014,None,126.12502289999975,None,126.12502289999975,None,126.12502289999975,None,0.004157669999585778,0.5041576699995858,126.12502289999975,None,126.12502289999975,None,126.12502289999975,None,126.12502289999975,None,126.12502289999975,None,126.12502289999975,None,128.11573249999947,128.11573249999947,50.0,4.29,450,200,-150,,,,,,,,,,,,,,,,,,,,,,,,,,,,,,,,,,,,,,,,,,,,,,,,,,,,,,,,,,,,,,,,,,,,,,,,,,,,,,,,,,,f,22,fuyao,2022-04-02_10h43.37.688,emotion,2022.1.2,60.02044296306862,
9,50,0,200,two,50,0,200,,,,,0,6,6,8,,,,,,,,,,,right,1.611042699999416,132.4638546999995,None,132.4638546999995,None,134.09644079999998,None,134.09644079999998,None,134.09644079999998,None,136.07871449999948,136.57843299999968,136.07871449999948,136.57843299999968,136.07871449999948,136.57843299999968,134.09644079999998,None,136.61198356999958,None,136.61198356999958,None,136.61198356999958,None,0.010837469999387395,None,136.61198356999958,None,136.61198356999958,None,136.61198356999958,None,136.61198356999958,None,136.61198356999958,None,136.61198356999958,None,136.61994950000008,None,136.61994950000008,None,136.61994950000008,None,0.004334069999458734,0.5043340699994587,136.61994950000008,None,136.61994950000008,None,136.61994950000008,None,136.61994950000008,None,136.61994950000008,None,136.61994950000008,None,138.61100449999958,138.61100449999958,25.0,12.387,500,200,50,,,,,,,,,,,,,,,,,,,,,,,,,,,,,,,,,,,,,,,,,,,,,,,,,,,,,,,,,,,,,,,,,,,,,,,,,,,,,,,,,,,f,22,fuyao,2022-04-02_10h43.37.688,emotion,2022.1.2,60.02044296306862,
88,-200,-200,-50,one,-200,-200,-50,,,,,0,7,7,87,,,,,,,,,,,right,1.3619584999996732,151.05529979999937,None,151.05529979999937,None,152.43808629999967,None,152.43808629999967,None,152.43808629999967,None,154.42047009999987,154.92028289999962,154.42047009999987,154.92028289999962,154.42047009999987,154.92028289999962,152.43808629999967,None,154.95346877000011,None,154.95346877000011,None,154.95346877000011,None,0.010497070000383246,None,154.95346877000011,None,154.95346877000011,None,154.95346877000011,None,154.95346877000011,None,154.95346877000011,None,154.95346877000011,None,154.96203109999988,None,154.96203109999988,None,154.96203109999988,None,0.0032460700003866805,0.5032460700003867,154.96203109999988,None,154.96203109999988,None,154.96203109999988,None,154.96203109999988,None,154.96203109999988,None,154.96203109999988,None,156.9526310000001,156.9526310000001,-25.0,14.28,300,0,0,,,,,,,,,,,,,,,,,,,,,,,,,,,,,,,,,,,,,,,,,,,,,,,,,,,,,,,,,,,,,,,,,,,,,,,,,,,,,,,,,,,f,22,fuyao,2022-04-02_10h43.37.688,emotion,2022.1.2,60.02044296306862,
81,-50,-50,-200,two,-50,-50,-200,,,,,0,8,8,80,,,,,,,,,,,right,1.5186530000000857,171.27987269999994,None,171.27987269999994,None,172.82878029999938,None,172.82878029999938,None,172.82878029999938,None,174.81127959999958,175.3110084,174.81127959999958,175.3110084,174.81127959999958,175.3110084,172.82878029999938,None,175.34438766999975,None,175.34438766999975,None,175.34438766999975,None,0.01035847000002832,None,175.34438766999975,None,175.34438766999975,None,175.34438766999975,None,175.34438766999975,None,175.34438766999975,None,175.34438766999975,None,175.35277440000027,None,175.35277440000027,None,175.35277440000027,None,0.0026300700001229416,0.5026300700001229,175.35277440000027,None,175.35277440000027,None,175.35277440000027,None,175.35277440000027,None,175.35277440000027,None,175.35277440000027,None,177.3434275999998,177.3434275999998,50.0,7.977,250,-50,-200,,,,,,,,,,,,,,,,,,,,,,,,,,,,,,,,,,,,,,,,,,,,,,,,,,,,,,,,,,,,,,,,,,,,,,,,,,,,,,,,,,,f,22,fuyao,2022-04-02_10h43.37.688,emotion,2022.1.2,60.02044296306862,
58,-50,-200,0,two,-50,-200,0,,,,,0,9,9,57,,,,,,,,,,,right,1.3820329999998648,185.37307369999962,None,185.37307369999962,None,186.7724834999999,None,186.7724834999999,None,186.7724834999999,None,188.75457180000012,189.25448469999992,188.75457180000012,189.25448469999992,188.75457180000012,189.25448469999992,186.7724834999999,None,189.28801936999972,None,189.28801936999972,None,189.28801936999972,None,0.010832169999957841,None,189.28801936999972,None,189.28801936999972,None,189.28801936999972,None,189.28801936999972,None,189.28801936999972,None,189.28801936999972,None,189.2958195000001,None,189.2958195000001,None,189.2958195000001,None,0.004220969998641522,0.5042209699986415,189.2958195000001,None,189.2958195000001,None,189.2958195000001,None,189.2958195000001,None,189.2958195000001,None,189.2958195000001,None,191.28701939999974,191.28701939999974,25.0,6.513,200,-250,-200,,,,,,,,,,,,,,,,,,,,,,,,,,,,,,,,,,,,,,,,,,,,,,,,,,,,,,,,,,,,,,,,,,,,,,,,,,,,,,,,,,,f,22,fuyao,2022-04-02_10h43.37.688,emotion,2022.1.2,60.02044296306862,
38,200,0,200,one,200,0,200,,,,,0,10,10,37,,,,,,,,,,,right,1.725956600000245,197.85026819999985,None,197.85026819999985,None,199.59970389999944,None,199.59970389999944,None,199.59970389999944,None,201.58231499999965,202.08204709999973,201.58231499999965,202.08204709999973,201.58231499999965,202.08204709999973,199.59970389999944,None,202.09872796999971,None,202.09872796999971,None,202.09872796999971,None,0.010306669999408768,None,202.09872796999971,None,202.09872796999971,None,202.09872796999971,None,202.09872796999971,None,202.09872796999971,None,202.09872796999971,None,202.10735419999946,None,202.10735419999946,None,202.10735419999946,None,0.00356686999930389,0.5035668699993039,202.10735419999946,None,202.10735419999946,None,202.10735419999946,None,202.10735419999946,None,202.10735419999946,None,202.10735419999946,None,204.0979440000001,204.0979440000001,50.0,4.241,400,-250,0,,,,,,,,,,,,,,,,,,,,,,,,,,,,,,,,,,,,,,,,,,,,,,,,,,,,,,,,,,,,,,,,,,,,,,,,,,,,,,,,,,,f,22,fuyao,2022-04-02_10h43.37.688,emotion,2022.1.2,60.02044296306862,
49,0,-50,-200,one,0,-50,-200,,,,,0,11,11,48,,,,,,,,,,,right,1.5800895000002129,208.3959046,None,208.3959046,None,209.99504160000015,None,209.99504160000015,None,209.99504160000015,None,211.97756800000025,212.47729869999966,211.97756800000025,212.47729869999966,211.97756800000025,212.47729869999966,209.99504160000015,None,212.51079406999943,None,212.51079406999943,None,212.51079406999943,None,0.010688469998967776,None,212.51079406999943,None,212.51079406999943,None,212.51079406999943,None,212.51079406999943,None,212.51079406999943,None,212.51079406999943,None,212.5187578999994,None,212.5187578999994,None,212.5187578999994,None,0.004108070000256703,0.5041080700002567,212.5187578999994,None,212.5187578999994,None,212.5187578999994,None,212.5187578999994,None,212.5187578999994,None,212.5187578999994,None,214.50972889999957,214.50972889999957,50.0,5.418,400,-300,-200,,,,,,,,,,,,,,,,,,,,,,,,,,,,,,,,,,,,,,,,,,,,,,,,,,,,,,,,,,,,,,,,,,,,,,,,,,,,,,,,,,,f,22,fuyao,2022-04-02_10h43.37.688,emotion,2022.1.2,60.02044296306862,
35,50,0,50,two,50,0,50,,,,,0,12,12,34,,,,,,,,,,,right,1.952219700000569,219.98931389999962,None,219.98931389999962,None,221.97301379999953,None,221.97301379999953,None,221.97301379999953,None,223.9555602999999,224.45531109999956,223.9555602999999,224.45531109999956,223.9555602999999,224.45531109999956,221.97301379999953,None,224.48850857000016,None,224.48850857000016,None,224.48850857000016,None,0.010584769999695709,None,224.48850857000016,None,224.48850857000016,None,224.48850857000016,None,224.48850857000016,None,224.48850857000016,None,224.48850857000016,None,224.49631619999946,None,224.49631619999946,None,224.49631619999946,None,0.0042177699997409945,0.504217769999741,224.49631619999946,None,224.49631619999946,None,224.49631619999946,None,224.49631619999946,None,224.49631619999946,None,224.49631619999946,None,226.48764149999988,226.48764149999988,50.0,3.556,450,-300,-150,,,,,,,,,,,,,,,,,,,,,,,,,,,,,,,,,,,,,,,,,,,,,,,,,,,,,,,,,,,,,,,,,,,,,,,,,,,,,,,,,,,f,22,fuyao,2022-04-02_10h43.37.688,emotion,2022.1.2,60.02044296306862,
26,50,200,50,one,50,200,50,,,,,0,13,13,25,,,,,,,,,,,right,2.4701814000000013,230.10171019999962,None,230.10171019999962,None,232.6015196999997,None,232.6015196999997,None,232.6015196999997,None,234.5840177,235.08390729999974,234.5840177,235.08390729999974,234.5840177,235.08390729999974,232.6015196999997,None,235.10058816999972,None,235.10058816999972,None,235.10058816999972,None,0.00994236999849818,None,235.10058816999972,None,235.10058816999972,None,235.10058816999972,None,235.10058816999972,None,235.10058816999972,None,235.10058816999972,None,235.11111679999976,None,235.11111679999976,None,235.11111679999976,None,0.0010139699988940265,0.501013969998894,235.11111679999976,None,235.11111679999976,None,235.11111679999976,None,235.11111679999976,None,235.11111679999976,None,235.11111679999976,None,237.09943010000006,237.09943010000006,25.299999999999997,15.283,500,-100,-100,,,,,,,,,,,,,,,,,,,,,,,,,,,,,,,,,,,,,,,,,,,,,,,,,,,,,,,,,,,,,,,,,,,,,,,,,,,,,,,,,,,f,22,fuyao,2022-04-02_10h43.37.688,emotion,2022.1.2,60.02044296306862,
4,50,200,0,one,50,200,0,,,,,0,14,14,3,,,,,,,,,,,right,1.5995844999997644,252.44148919999952,None,252.44148919999952,None,254.05839709999964,None,254.05839709999964,None,254.05839709999964,None,256.04080090000025,256.5407362999995,256.04080090000025,256.5407362999995,256.04080090000025,256.5407362999995,254.05839709999964,None,256.55741716999944,None,256.55741716999944,None,256.55741716999944,None,0.010255369998958486,None,256.55741716999944,None,256.55741716999944,None,256.55741716999944,None,256.55741716999944,None,256.55741716999944,None,256.55741716999944,None,256.5654715999999,None,256.5654715999999,None,256.5654715999999,None,0.00365756999963196,0.503657569999632,256.5654715999999,None,256.5654715999999,None,256.5654715999999,None,256.5654715999999,None,256.5654715999999,None,256.5654715999999,None,258.5562651,258.5562651,25.5,5.625,550,100,-100,,,,,,,,,,,,,,,,,,,,,,,,,,,,,,,,,,,,,,,,,,,,,,,,,,,,,,,,,,,,,,,,,,,,,,,,,,,,,,,,,,,f,22,fuyao,2022-04-02_10h43.37.688,emotion,2022.1.2,60.02044296306862,
13,0,0,50,one,0,0,50,,,,,0,15,15,12,,,,,,,,,,,right,1.4880507000007128,264.23688760000005,None,264.23688760000005,None,265.75324120000005,None,265.75324120000005,None,265.75324120000005,None,267.7355110999997,268.2353334999998,267.7355110999997,268.2353334999998,267.7355110999997,268.2353334999998,265.75324120000005,None,268.2684547699995,None,268.2684547699995,None,268.2684547699995,None,0.010896569999204075,None,268.2684547699995,None,268.2684547699995,None,268.2684547699995,None,268.2684547699995,None,268.2684547699995,None,268.2684547699995,None,268.2763433,None,268.2763433,None,268.2763433,None,0.00426496999898518,0.5042649699989852,268.2763433,None,268.2763433,None,268.2763433,None,268.2763433,None,268.2763433,None,268.2763433,None,270.26766750000024,270.26766750000024,24.900000000000006,2.733,550,100,-50,,,,,,,,,,,,,,,,,,,,,,,,,,,,,,,,,,,,,,,,,,,,,,,,,,,,,,,,,,,,,,,,,,,,,,,,,,,,,,,,,,,f,22,fuyao,2022-04-02_10h43.37.688,emotion,2022.1.2,60.02044296306862,
6,200,0,50,one,200,0,50,,,,,0,16,16,5,,,,,,,,,,,right,2.052915199999916,273.0501528999994,None,273.0501528999994,None,275.1321689999995,None,275.1321689999995,None,275.1321689999995,None,277.1146036,277.6143655999995,277.1146036,277.6143655999995,277.1146036,277.6143655999995,275.1321689999995,None,277.64780716999974,None,277.64780716999974,None,277.64780716999974,None,0.010556569999607746,None,277.64780716999974,None,277.64780716999974,None,277.64780716999974,None,277.64780716999974,None,277.64780716999974,None,277.64780716999974,None,277.6557858999995,None,277.6557858999995,None,277.6557858999995,None,0.004123669999898993,0.504123669999899,277.6557858999995,None,277.6557858999995,None,277.6557858999995,None,277.6557858999995,None,277.6557858999995,None,277.6557858999995,None,279.64704059999985,279.64704059999985,50.0,3.222,750,100,0,,,,,,,,,,,,,,,,,,,,,,,,,,,,,,,,,,,,,,,,,,,,,,,,,,,,,,,,,,,,,,,,,,,,,,,,,,,,,,,,,,,f,22,fuyao,2022-04-02_10h43.37.688,emotion,2022.1.2,60.02044296306862,
29,50,0,50,one,50,0,50,,,,,0,17,17,28,,,,,,,,,,,right,1.7310448000007455,282.92751020000014,None,282.92751020000014,None,284.6780441000001,None,284.6780441000001,None,284.6780441000001,None,286.6601343000002,287.1598973,286.6601343000002,287.1598973,286.6601343000002,287.1598973,284.6780441000001,None,287.19348496999953,None,287.19348496999953,None,287.19348496999953,None,0.010861069999918982,None,287.19348496999953,None,287.19348496999953,None,287.19348496999953,None,287.19348496999953,None,287.19348496999953,None,287.19348496999953,None,287.2011281999994,None,287.2011281999994,None,287.2011281999994,None,0.004098069999599829,0.5040980699995998,287.2011281999994,None,287.2011281999994,None,287.2011281999994,None,287.2011281999994,None,287.2011281999994,None,287.2011281999994,None,289.1924934999997,289.1924934999997,50.0,3.445,800,100,50,,,,,,,,,,,,,,,,,,,,,,,,,,,,,,,,,,,,,,,,,,,,,,,,,,,,,,,,,,,,,,,,,,,,,,,,,,,,,,,,,,,f,22,fuyao,2022-04-02_10h43.37.688,emotion,2022.1.2,60.02044296306862,
59,-200,-50,0,two,-200,-50,0,,,,,0,18,18,58,,,,,,,,,,,right,4.422554700000546,292.6908661999996,None,292.6908661999996,None,297.13891499999954,None,297.13891499999954,None,297.13891499999954,None,299.1210337000002,299.62111039999945,299.1210337000002,299.62111039999945,299.1210337000002,299.62111039999945,297.13891499999954,None,299.65445056999977,None,299.65445056999977,None,299.65445056999977,None,0.010570069999630505,None,299.65445056999977,None,299.65445056999977,None,299.65445056999977,None,299.65445056999977,None,299.65445056999977,None,299.65445056999977,None,299.6632018999999,None,299.6632018999999,None,299.6632018999999,None,0.0033316700000796118,0.5033316700000796,299.6632018999999,None,299.6632018999999,None,299.6632018999999,None,299.6632018999999,None,299.6632018999999,None,299.6632018999999,None,301.65341329999956,301.65341329999956,-25.2,8.251,600,50,50,,,,,,,,,,,,,,,,,,,,,,,,,,,,,,,,,,,,,,,,,,,,,,,,,,,,,,,,,,,,,,,,,,,,,,,,,,,,,,,,,,,f,22,fuyao,2022-04-02_10h43.37.688,emotion,2022.1.2,60.02044296306862,
24,200,0,0,two,200,0,0,,,,,0,19,19,23,,,,,,,,,,,right,1.519253700000263,309.9653908999999,None,309.9653908999999,None,311.51561589999983,None,311.51561589999983,None,311.51561589999983,None,313.49804119999953,313.99784589999945,313.49804119999953,313.99784589999945,313.49804119999953,313.99784589999945,311.51561589999983,None,314.03111036999996,None,314.03111036999996,None,314.03111036999996,None,0.011012569999365951,None,314.03111036999996,None,314.03111036999996,None,314.03111036999996,None,314.03111036999996,None,314.03111036999996,None,314.03111036999996,None,314.03864559999965,None,314.03864559999965,None,314.03864559999965,None,0.004653469999539084,0.5046534699995391,314.03864559999965,None,314.03864559999965,None,314.03864559999965,None,314.03864559999965,None,314.03864559999965,None,314.03864559999965,None,316.0302383999997,316.0302383999997,50.0,2.917,800,50,50,,,,,,,,,,,,,,,,,,,,,,,,,,,,,,,,,,,,,,,,,,,,,,,,,,,,,,,,,,,,,,,,,,,,,,,,,,,,,,,,,,,f,22,fuyao,2022-04-02_10h43.37.688,emotion,2022.1.2,60.02044296306862,
86,-200,0,-200,one,-200,0,-200,,,,,0,20,20,85,,,,,,,,,,,right,1.4463746999999785,318.99658569999974,None,318.99658569999974,None,320.46169050000026,None,320.46169050000026,None,320.46169050000026,None,322.44398660000024,322.94370059999983,322.44398660000024,322.94370059999983,322.44398660000024,322.94370059999983,320.46169050000026,None,322.97703256999955,None,322.97703256999955,None,322.97703256999955,None,0.01039717000003293,None,322.97703256999955,None,322.97703256999955,None,322.97703256999955,None,322.97703256999955,None,322.97703256999955,None,322.97703256999955,None,322.9851514000002,None,322.9851514000002,None,322.9851514000002,None,0.003746169999431004,0.503746169999431,322.9851514000002,None,322.9851514000002,None,322.9851514000002,None,322.9851514000002,None,322.9851514000002,None,322.9851514000002,None,324.9763575999996,324.9763575999996,0.0,7.849,600,50,-150,,,,,,,,,,,,,,,,,,,,,,,,,,,,,,,,,,,,,,,,,,,,,,,,,,,,,,,,,,,,,,,,,,,,,,,,,,,,,,,,,,,f,22,fuyao,2022-04-02_10h43.37.688,emotion,2022.1.2,60.02044296306862,
91,-200,-200,0,two,-200,-200,0,,,,,0,21,21,90,,,,,,,,,,,right,1.5698450999998386,332.8882619999995,None,332.8882619999995,None,334.4886158999998,None,334.4886158999998,None,334.4886158999998,None,336.47083120000025,336.97085679999964,336.47083120000025,336.97085679999964,336.47083120000025,336.97085679999964,334.4886158999998,None,337.00387906999947,None,337.00387906999947,None,337.00387906999947,None,0.010449069998685445,None,337.00387906999947,None,337.00387906999947,None,337.00387906999947,None,337.00387906999947,None,337.00387906999947,None,337.00387906999947,None,337.01186679999955,None,337.01186679999955,None,337.01186679999955,None,0.003685069999846746,0.5036850699998467,337.01186679999955,None,337.01186679999955,None,337.01186679999955,None,337.01186679999955,None,337.01186679999955,None,337.01186679999955,None,339.0027749000001,339.0027749000001,0.0,3.525,400,-150,-150,,,,,,,,,,,,,,,,,,,,,,,,,,,,,,,,,,,,,,,,,,,,,,,,,,,,,,,,,,,,,,,,,,,,,,,,,,,,,,,,,,,f,22,fuyao,2022-04-02_10h43.37.688,emotion,2022.1.2,60.02044296306862,
90,-50,-200,-200,one,-50,-200,-200,,,,,0,22,22,89,,,,,,,,,,,right,1.4484466000003522,342.58478560000003,None,342.58478560000003,None,344.05090999999993,None,344.05090999999993,None,344.05090999999993,None,346.03331419999995,346.5331963999997,346.03331419999995,346.5331963999997,346.03331419999995,346.5331963999997,344.05090999999993,None,346.56628986999965,None,346.56628986999965,None,346.56628986999965,None,0.010656269999344659,None,346.56628986999965,None,346.56628986999965,None,346.56628986999965,None,346.56628986999965,None,346.56628986999965,None,346.56628986999965,None,346.57490919999964,None,346.57490919999964,None,346.57490919999964,None,0.003787470000133908,0.5037874700001339,346.57490919999964,None,346.57490919999964,None,346.57490919999964,None,346.57490919999964,None,346.57490919999964,None,346.57490919999964,None,348.5654066999996,348.5654066999996,50.0,4.73,350,-350,-350,,,,,,,,,,,,,,,,,,,,,,,,,,,,,,,,,,,,,,,,,,,,,,,,,,,,,,,,,,,,,,,,,,,,,,,,,,,,,,,,,,,f,22,fuyao,2022-04-02_10h43.37.688,emotion,2022.1.2,60.02044296306862,
89,-200,-50,-200,one,-200,-50,-200,,,,,0,23,23,88,,,,,,,,,,,right,1.4165477000005922,353.34654390000014,None,353.34654390000014,None,354.7958385000002,None,354.7958385000002,None,354.7958385000002,None,356.7784886999998,357.27813460000016,356.7784886999998,357.27813460000016,356.7784886999998,357.27813460000016,354.7958385000002,None,357.31151007000005,None,357.31151007000005,None,357.31151007000005,None,0.010650069999428524,None,357.31151007000005,None,357.31151007000005,None,357.31151007000005,None,357.31151007000005,None,357.31151007000005,None,357.31151007000005,None,357.31934569999976,None,357.31934569999976,None,357.31934569999976,None,0.0039679700012129615,0.503967970001213,357.31934569999976,None,357.31934569999976,None,357.31934569999976,None,357.31934569999976,None,357.31934569999976,None,357.31934569999976,None,359.31062569999995,359.31062569999995,0.0,3.455,150,-400,-550,,,,,,,,,,,,,,,,,,,,,,,,,,,,,,,,,,,,,,,,,,,,,,,,,,,,,,,,,,,,,,,,,,,,,,,,,,,,,,,,,,,f,22,fuyao,2022-04-02_10h43.37.688,emotion,2022.1.2,60.02044296306862,
79,-200,-50,-50,two,-200,-50,-50,,,,,0,24,24,78,,,,,,,,,,,right,3.1049567999998544,362.8248782999999,None,362.8248782999999,None,365.95755199999985,None,365.95755199999985,None,365.95755199999985,None,367.94009189999997,368.43966029999956,367.94009189999997,368.43966029999956,367.94009189999997,368.43966029999956,365.95755199999985,None,368.47310717000016,None,368.47310717000016,None,368.47310717000016,None,0.010432669999318023,None,368.47310717000016,None,368.47310717000016,None,368.47310717000016,None,368.47310717000016,None,368.47310717000016,None,368.47310717000016,None,368.4812571000002,None,368.4812571000002,None,368.4812571000002,None,0.0037648699999408564,0.5037648699999409,368.4812571000002,None,368.4812571000002,None,368.4812571000002,None,368.4812571000002,None,368.4812571000002,None,368.4812571000002,None,370.4720963,370.4720963,-25.1,10.072,-50,-450,-600,,,,,,,,,,,,,,,,,,,,,,,,,,,,,,,,,,,,,,,,,,,,,,,,,,,,,,,,,,,,,,,,,,,,,,,,,,,,,,,,,,,f,22,fuyao,2022-04-02_10h43.37.688,emotion,2022.1.2,60.02044296306862,
27,50,50,200,one,50,50,200,,,,,0,25,25,26,,,,,,,,,,,right,1.1892503999997643,380.60052519999954,None,380.60052519999954,None,381.81692740000017,None,381.81692740000017,None,381.81692740000017,None,383.79912289999993,384.2991314000001,383.79912289999993,384.2991314000001,383.79912289999993,384.2991314000001,381.81692740000017,None,384.3326199699999,None,384.3326199699999,None,384.3326199699999,None,0.01073437000013655,None,384.3326199699999,None,384.3326199699999,None,384.3326199699999,None,384.3326199699999,None,384.3326199699999,None,384.3326199699999,None,384.34054209999977,None,384.34054209999977,None,384.34054209999977,None,0.0041933699994842755,0.5041933699994843,384.34054209999977,None,384.34054209999977,None,384.34054209999977,None,384.34054209999977,None,384.34054209999977,None,384.34054209999977,None,386.33155220000026,386.33155220000026,24.900000000000006,4.584,0,-400,-400,,,,,,,,,,,,,,,,,,,,,,,,,,,,,,,,,,,,,,,,,,,,,,,,,,,,,,,,,,,,,,,,,,,,,,,,,,,,,,,,,,,f,22,fuyao,2022-04-02_10h43.37.688,emotion,2022.1.2,60.02044296306862,
93,0,-200,-200,two,0,-200,-200,,,,,0,26,26,92,,,,,,,,,,,right,1.68598479999946,390.97809469999993,None,390.97809469999993,None,392.6954839,None,392.6954839,None,392.6954839,None,394.6778435999995,395.17766909999955,394.6778435999995,395.17766909999955,394.6778435999995,395.17766909999955,392.6954839,None,395.2110194700002,None,395.2110194700002,None,395.2110194700002,None,0.01074527000037051,None,395.2110194700002,None,395.2110194700002,None,395.2110194700002,None,395.2110194700002,None,395.2110194700002,None,395.2110194700002,None,395.2193599000002,None,395.2193599000002,None,395.2193599000002,None,0.004004469999927096,0.5040044699999271,395.2193599000002,None,395.2193599000002,None,395.2193599000002,None,395.2193599000002,None,395.2193599000002,None,395.2193599000002,None,397.21010959999967,397.21010959999967,50.0,3.887,0,-600,-600,,,,,,,,,,,,,,,,,,,,,,,,,,,,,,,,,,,,,,,,,,,,,,,,,,,,,,,,,,,,,,,,,,,,,,,,,,,,,,,,,,,f,22,fuyao,2022-04-02_10h43.37.688,emotion,2022.1.2,60.02044296306862,
30,50,50,0,one,50,50,0,,,,,0,27,27,29,,,,,,,,,,,right,3.94655849999981,401.1569823,None,401.1569823,None,405.1230713999994,None,405.1230713999994,None,405.1230713999994,None,407.1055285000002,407.6052811999998,407.1055285000002,407.6052811999998,407.1055285000002,407.6052811999998,405.1230713999994,None,407.6385285700002,None,407.6385285700002,None,407.6385285700002,None,0.010681869999643823,None,407.6385285700002,None,407.6385285700002,None,407.6385285700002,None,407.6385285700002,None,407.6385285700002,None,407.6385285700002,None,407.6461733999995,None,407.6461733999995,None,407.6461733999995,None,0.004392270000607823,0.5043922700006078,407.6461733999995,None,407.6461733999995,None,407.6461733999995,None,407.6461733999995,None,407.6461733999995,None,407.6461733999995,None,409.63764619999984,409.63764619999984,50.0,3.164,50,-550,-600,,,,,,,,,,,,,,,,,,,,,,,,,,,,,,,,,,,,,,,,,,,,,,,,,,,,,,,,,,,,,,,,,,,,,,,,,,,,,,,,,,,f,22,fuyao,2022-04-02_10h43.37.688,emotion,2022.1.2,60.02044296306862,
17,0,200,0,one,0,200,0,,,,,0,28,28,16,,,,,,,,,,,right,2.2583336000006966,412.8525162999995,None,412.8525162999995,None,415.13509799999974,None,415.13509799999974,None,415.13509799999974,None,417.11778179999965,417.61735619999945,417.11778179999965,417.61735619999945,417.11778179999965,417.61735619999945,415.13509799999974,None,417.65067657,None,417.65067657,None,417.65067657,None,0.010749670000222977,None,417.65067657,None,417.65067657,None,417.65067657,None,417.65067657,None,417.65067657,None,417.65067657,None,417.6580363000003,None,417.6580363000003,None,417.6580363000003,None,0.004379869998956565,0.5043798699989566,417.6580363000003,None,417.6580363000003,None,417.6580363000003,None,417.6580363000003,None,417.6580363000003,None,417.6580363000003,None,419.6494267999997,419.6494267999997,0.0,5.384,50,-350,-600,,,,,,,,,,,,,,,,,,,,,,,,,,,,,,,,,,,,,,,,,,,,,,,,,,,,,,,,,,,,,,,,,,,,,,,,,,,,,,,,,,,f,22,fuyao,2022-04-02_10h43.37.688,emotion,2022.1.2,60.02044296306862,
65,0,-200,0,one,0,-200,0,,,,,0,29,29,64,,,,,,,,,,,right,1.4462256000006164,425.09636059999957,None,425.09636059999957,None,426.5632064000001,None,426.5632064000001,None,426.5632064000001,None,428.5456030999994,429.0453600999999,428.5456030999994,429.0453600999999,428.5456030999994,429.0453600999999,426.5632064000001,None,429.0789456699998,None,429.0789456699998,None,429.0789456699998,None,0.010995469999215857,None,429.0789456699998,None,429.0789456699998,None,429.0789456699998,None,429.0789456699998,None,429.0789456699998,None,429.0789456699998,None,429.0870539999996,None,429.0870539999996,None,429.0870539999996,None,0.004556869999760238,0.5045568699997602,429.0870539999996,None,429.0870539999996,None,429.0870539999996,None,429.0870539999996,None,429.0870539999996,None,429.0870539999996,None,431.07775609999953,431.07775609999953,50.0,3.915,50,-550,-600,,,,,,,,,,,,,,,,,,,,,,,,,,,,,,,,,,,,,,,,,,,,,,,,,,,,,,,,,,,,,,,,,,,,,,,,,,,,,,,,,,,f,22,fuyao,2022-04-02_10h43.37.688,emotion,2022.1.2,60.02044296306862,
50,0,-200,-50,one,0,-200,-50,,,,,0,30,30,49,,,,,,,,,,,right,1.5864025999999285,435.0429113,None,435.0429113,None,436.65876560000015,None,436.65876560000015,None,436.65876560000015,None,438.6410914999997,439.1410342999998,438.6410914999997,439.1410342999998,438.6410914999997,439.1410342999998,436.65876560000015,None,439.17416596999954,None,439.17416596999954,None,439.17416596999954,None,0.010736669998550497,None,439.17416596999954,None,439.17416596999954,None,439.17416596999954,None,439.17416596999954,None,439.17416596999954,None,439.17416596999954,None,439.1822155,None,439.1822155,None,439.1822155,None,0.0038570699998672353,0.5038570699998672,439.1822155,None,439.1822155,None,439.1822155,None,439.1822155,None,439.1822155,None,439.1822155,None,441.17349430000013,441.17349430000013,50.0,3.19,50,-750,-650,,,,,,,,,,,,,,,,,,,,,,,,,,,,,,,,,,,,,,,,,,,,,,,,,,,,,,,,,,,,,,,,,,,,,,,,,,,,,,,,,,,f,22,fuyao,2022-04-02_10h43.37.688,emotion,2022.1.2,60.02044296306862,
54,-200,0,-50,one,-200,0,-50,,,,,0,31,31,53,,,,,,,,,,,right,1.667378899999676,444.4219045,None,444.4219045,None,446.12111540000024,None,446.12111540000024,None,446.12111540000024,None,448.10324200000014,448.6033797,448.10324200000014,448.6033797,448.10324200000014,448.6033797,446.12111540000024,None,448.63667506999934,None,448.63667506999934,None,448.63667506999934,None,0.010724569999183586,None,448.63667506999934,None,448.63667506999934,None,448.63667506999934,None,448.63667506999934,None,448.63667506999934,None,448.63667506999934,None,448.6451354999999,None,448.6451354999999,None,448.6451354999999,None,0.0038480699995488976,0.5038480699995489,448.6451354999999,None,448.6451354999999,None,448.6451354999999,None,448.6451354999999,None,448.6451354999999,None,448.6451354999999,None,450.6359352999998,450.6359352999998,-25.2,9.325,-150,-750,-700,,,,,,,,,,,,,,,,,,,,,,,,,,,,,,,,,,,,,,,,,,,,,,,,,,,,,,,,,,,,,,,,,,,,,,,,,,,,,,,,,,,f,22,fuyao,2022-04-02_10h43.37.688,emotion,2022.1.2,60.02044296306862,
45,0,200,200,two,0,200,200,,,,,0,32,32,44,,,,,,,,,,,right,1.2524948000000222,460.0145819999998,None,460.0145819999998,None,461.2974420999999,None,461.2974420999999,None,461.2974420999999,None,463.2798957999994,463.77971350000007,463.2798957999994,463.77971350000007,463.2798957999994,463.77971350000007,461.2974420999999,None,463.8132211699998,None,463.8132211699998,None,463.8132211699998,None,0.010769169999548467,None,463.8132211699998,None,463.8132211699998,None,463.8132211699998,None,463.8132211699998,None,463.8132211699998,None,463.8132211699998,None,463.82103860000007,None,463.82103860000007,None,463.82103860000007,None,0.004105769999114273,0.5041057699991143,463.82103860000007,None,463.82103860000007,None,463.82103860000007,None,463.82103860000007,None,463.82103860000007,None,463.82103860000007,None,465.8122180999999,465.8122180999999,-0.20000000000000284,10.669,-150,-550,-500,,,,,,,,,,,,,,,,,,,,,,,,,,,,,,,,,,,,,,,,,,,,,,,,,,,,,,,,,,,,,,,,,,,,,,,,,,,,,,,,,,,f,22,fuyao,2022-04-02_10h43.37.688,emotion,2022.1.2,60.02044296306862,
74,-50,-200,-50,one,-50,-200,-50,,,,,0,33,33,73,,,,,,,,,,,right,1.8902644999998302,476.5394986000001,None,476.5394986000001,None,478.4564905999996,None,478.4564905999996,None,478.4564905999996,None,480.4388466999999,480.9385610999998,480.4388466999999,480.9385610999998,480.4388466999999,480.9385610999998,478.4564905999996,None,480.9719769699999,None,480.9719769699999,None,480.9719769699999,None,0.010426069999084575,None,480.9719769699999,None,480.9719769699999,None,480.9719769699999,None,480.9719769699999,None,480.9719769699999,None,480.9719769699999,None,480.98052110000026,None,480.98052110000026,None,480.98052110000026,None,0.002930970000306843,0.5029309700003068,480.98052110000026,None,480.98052110000026,None,480.98052110000026,None,480.98052110000026,None,480.98052110000026,None,480.98052110000026,None,482.9710765,482.9710765,50.0,3.007,-200,-750,-550,,,,,,,,,,,,,,,,,,,,,,,,,,,,,,,,,,,,,,,,,,,,,,,,,,,,,,,,,,,,,,,,,,,,,,,,,,,,,,,,,,,f,22,fuyao,2022-04-02_10h43.37.688,emotion,2022.1.2,60.02044296306862,
31,200,50,50,two,200,50,50,,,,,0,34,34,30,,,,,,,,,,,right,1.6604128999997556,486.03601809999964,None,486.03601809999964,None,487.71877309999945,None,487.71877309999945,None,487.71877309999945,None,489.70120439999937,490.2010905999996,489.70120439999937,490.2010905999996,489.70120439999937,490.2010905999996,487.71877309999945,None,490.23435426999947,None,490.23435426999947,None,490.23435426999947,None,0.010884869999244984,None,490.23435426999947,None,490.23435426999947,None,490.23435426999947,None,490.23435426999947,None,490.23435426999947,None,490.23435426999947,None,490.24279149999984,None,490.24279149999984,None,490.24279149999984,None,0.004051269998853968,0.504051269998854,490.24279149999984,None,490.24279149999984,None,490.24279149999984,None,490.24279149999984,None,490.24279149999984,None,490.24279149999984,None,492.2334909000001,492.2334909000001,50.0,3.258,0,-700,-500,,,,,,,,,,,,,,,,,,,,,,,,,,,,,,,,,,,,,,,,,,,,,,,,,,,,,,,,,,,,,,,,,,,,,,,,,,,,,,,,,,,f,22,fuyao,2022-04-02_10h43.37.688,emotion,2022.1.2,60.02044296306862,
21,50,0,0,two,50,0,0,,,,,0,35,35,20,,,,,,,,,,,right,1.2612687000000733,495.54766930000005,None,495.54766930000005,None,496.83143409999957,None,496.83143409999957,None,496.83143409999957,None,498.8137195999998,499.3135210999999,498.8137195999998,499.3135210999999,498.8137195999998,499.3135210999999,496.83143409999957,None,499.3468105699998,None,499.3468105699998,None,499.3468105699998,None,0.010906969999268767,None,499.3468105699998,None,499.3468105699998,None,499.3468105699998,None,499.3468105699998,None,499.3468105699998,None,499.3468105699998,None,499.3548028999994,None,499.3548028999994,None,499.3548028999994,None,0.004323569999542087,0.5043235699995421,499.3548028999994,None,499.3548028999994,None,499.3548028999994,None,499.3548028999994,None,499.3548028999994,None,499.3548028999994,None,501.3456863000001,501.3456863000001,50.0,2.986,50,-700,-500,,,,,,,,,,,,,,,,,,,,,,,,,,,,,,,,,,,,,,,,,,,,,,,,,,,,,,,,,,,,,,,,,,,,,,,,,,,,,,,,,,,f,22,fuyao,2022-04-02_10h43.37.688,emotion,2022.1.2,60.02044296306862,
47,200,50,200,two,200,50,200,,,,,0,36,36,46,,,,,,,,,,,right,1.419727100000273,504.39369239999996,None,504.39369239999996,None,505.84376879999945,None,505.84376879999945,None,505.84376879999945,None,507.82641760000024,508.32620679999945,507.82641760000024,508.32620679999945,507.82641760000024,508.32620679999945,505.84376879999945,None,508.3428876699994,None,508.3428876699994,None,508.3428876699994,None,0.0103764699997555,None,508.3428876699994,None,508.3428876699994,None,508.3428876699994,None,508.3428876699994,None,508.3428876699994,None,508.3428876699994,None,508.3507835999999,None,508.3507835999999,None,508.3507835999999,None,0.0038231699991229107,0.5038231699991229,508.3507835999999,None,508.3507835999999,None,508.3507835999999,None,508.3507835999999,None,508.3507835999999,None,508.3507835999999,None,510.3416164999999,510.3416164999999,50.0,2.989,250,-650,-300,,,,,,,,,,,,,,,,,,,,,,,,,,,,,,,,,,,,,,,,,,,,,,,,,,,,,,,,,,,,,,,,,,,,,,,,,,,,,,,,,,,f,22,fuyao,2022-04-02_10h43.37.688,emotion,2022.1.2,60.02044296306862,
82,0,-50,-50,two,0,-50,-50,,,,,0,37,37,81,,,,,,,,,,,right,1.4687656000005518,513.3896679999998,None,513.3896679999998,None,514.8897970999997,None,514.8897970999997,None,514.8897970999997,None,516.8723094999996,517.3720612999996,516.8723094999996,517.3720612999996,516.8723094999996,517.3720612999996,514.8897970999997,None,517.4054526699996,None,517.4054526699996,None,517.4054526699996,None,0.010807369999383809,None,517.4054526699996,None,517.4054526699996,None,517.4054526699996,None,517.4054526699996,None,517.4054526699996,None,517.4054526699996,None,517.4128707999998,None,517.4128707999998,None,517.4128707999998,None,0.004261869999936607,0.5042618699999366,517.4128707999998,None,517.4128707999998,None,517.4128707999998,None,517.4128707999998,None,517.4128707999998,None,517.4128707999998,None,519.4044254,519.4044254,50.0,1.939,250,-700,-350,,,,,,,,,,,,,,,,,,,,,,,,,,,,,,,,,,,,,,,,,,,,,,,,,,,,,,,,,,,,,,,,,,,,,,,,,,,,,,,,,,,f,22,fuyao,2022-04-02_10h43.37.688,emotion,2022.1.2,60.02044296306862,
61,0,0,-50,one,0,0,-50,,,,,0,38,38,60,,,,,,,,,,,right,1.619521700000405,521.4025783999996,None,521.4025783999996,None,523.0526918999994,None,523.0526918999994,None,523.0526918999994,None,525.0350927999998,525.5349471999998,525.0350927999998,525.5349471999998,525.0350927999998,525.5349471999998,523.0526918999994,None,525.5683640699993,None,525.5683640699993,None,525.5683640699993,None,0.010977069999171363,None,525.5683640699993,None,525.5683640699993,None,525.5683640699993,None,525.5683640699993,None,525.5683640699993,None,525.5683640699993,None,525.5765351999999,None,525.5765351999999,None,525.5765351999999,None,0.0045792699993398855,0.5045792699993399,525.5765351999999,None,525.5765351999999,None,525.5765351999999,None,525.5765351999999,None,525.5765351999999,None,525.5765351999999,None,527.5673306999997,527.5673306999997,50.0,2.262,250,-700,-400,,,,,,,,,,,,,,,,,,,,,,,,,,,,,,,,,,,,,,,,,,,,,,,,,,,,,,,,,,,,,,,,,,,,,,,,,,,,,,,,,,,f,22,fuyao,2022-04-02_10h43.37.688,emotion,2022.1.2,60.02044296306862,
7,0,50,200,two,0,50,200,,,,,0,39,39,6,,,,,,,,,,,right,1.7489289000004646,529.8830816999998,None,529.8830816999998,None,531.6489609,None,531.6489609,None,531.6489609,None,533.6312370999995,534.1311858999998,533.6312370999995,534.1311858999998,533.6312370999995,534.1311858999998,531.6489609,None,534.1643457699996,None,534.1643457699996,None,534.1643457699996,None,0.010698569999476604,None,534.1643457699996,None,534.1643457699996,None,534.1643457699996,None,534.1643457699996,None,534.1643457699996,None,534.1643457699996,None,534.1726990999996,None,534.1726990999996,None,534.1726990999996,None,0.004011369999716408,0.5040113699997164,534.1726990999996,None,534.1726990999996,None,534.1726990999996,None,534.1726990999996,None,534.1726990999996,None,534.1726990999996,None,536.1634943999998,536.1634943999998,-25.2,5.12,250,-650,-200,,,,,,,,,,,,,,,,,,,,,,,,,,,,,,,,,,,,,,,,,,,,,,,,,,,,,,,,,,,,,,,,,,,,,,,,,,,,,,,,,,,f,22,fuyao,2022-04-02_10h43.37.688,emotion,2022.1.2,60.02044296306862,
75,-50,-50,-200,one,-50,-50,-200,,,,,0,40,40,74,,,,,,,,,,,right,1.423706100000345,541.3435259999997,None,541.3435259999997,None,542.7936841000001,None,542.7936841000001,None,542.7936841000001,None,544.7762783999997,545.2760754000001,544.7762783999997,545.2760754000001,544.7762783999997,545.2760754000001,542.7936841000001,None,545.29275627,None,545.29275627,None,545.29275627,None,0.010190570000304433,None,545.29275627,None,545.29275627,None,545.29275627,None,545.29275627,None,545.29275627,None,545.29275627,None,545.3010538999997,None,545.3010538999997,None,545.3010538999997,None,0.0033469700001660385,0.503346970000166,545.3010538999997,None,545.3010538999997,None,545.3010538999997,None,545.3010538999997,None,545.3010538999997,None,545.3010538999997,None,547.2918234999997,547.2918234999997,50.0,4.35,200,-700,-400,,,,,,,,,,,,,,,,,,,,,,,,,,,,,,,,,,,,,,,,,,,,,,,,,,,,,,,,,,,,,,,,,,,,,,,,,,,,,,,,,,,f,22,fuyao,2022-04-02_10h43.37.688,emotion,2022.1.2,60.02044296306862,
46,200,200,50,two,200,200,50,,,,,0,41,41,45,,,,,,,,,,,right,1.6035806999998385,551.6905835999996,None,551.6905835999996,None,553.3219481999995,None,553.3219481999995,None,553.3219481999995,None,555.3047888000001,555.8043458000002,555.3047888000001,555.8043458000002,555.3047888000001,555.8043458000002,553.3219481999995,None,555.8210266700002,None,555.8210266700002,None,555.8210266700002,None,0.010061370000585157,None,555.8210266700002,None,555.8210266700002,None,555.8210266700002,None,555.8210266700002,None,555.8210266700002,None,555.8210266700002,None,555.8300663,None,555.8300663,None,555.8300663,None,0.0022357699999702163,0.5022357699999702,555.8300663,None,555.8300663,None,555.8300663,None,555.8300663,None,555.8300663,None,555.8300663,None,557.8201473999998,557.8201473999998,50.0,2.312,400,-500,-350,,,,,,,,,,,,,,,,,,,,,,,,,,,,,,,,,,,,,,,,,,,,,,,,,,,,,,,,,,,,,,,,,,,,,,,,,,,,,,,,,,,f,22,fuyao,2022-04-02_10h43.37.688,emotion,2022.1.2,60.02044296306862,
8,0,200,50,two,0,200,50,,,,,0,42,42,7,,,,,,,,,,,right,2.0209155000002283,560.1858680999994,None,560.1858680999994,None,562.2347637000003,None,562.2347637000003,None,562.2347637000003,None,564.2174819000002,564.7170827999998,564.2174819000002,564.7170827999998,564.2174819000002,564.7170827999998,562.2347637000003,None,564.7505181700002,None,564.7505181700002,None,564.7505181700002,None,0.010842769999726443,None,564.7505181700002,None,564.7505181700002,None,564.7505181700002,None,564.7505181700002,None,564.7505181700002,None,564.7505181700002,None,564.7582284,None,564.7582284,None,564.7582284,None,0.004317869999795221,0.5043178699997952,564.7582284,None,564.7582284,None,564.7582284,None,564.7582284,None,564.7582284,None,564.7582284,None,566.7493998999998,566.7493998999998,-0.10000000000000142,4.875,400,-300,-300,,,,,,,,,,,,,,,,,,,,,,,,,,,,,,,,,,,,,,,,,,,,,,,,,,,,,,,,,,,,,,,,,,,,,,,,,,,,,,,,,,,f,22,fuyao,2022-04-02_10h43.37.688,emotion,2022.1.2,60.02044296306862,
94,-200,-200,-50,two,-200,-200,-50,,,,,0,43,43,93,,,,,,,,,,,right,1.581470399999489,571.6806041999998,None,571.6806041999998,None,573.2800710000001,None,573.2800710000001,None,573.2800710000001,None,575.2623507999997,575.7622448000002,575.2623507999997,575.7622448000002,575.2623507999997,575.7622448000002,573.2800710000001,None,575.7954774699996,None,575.7954774699996,None,575.7954774699996,None,0.010704969999096647,None,575.7954774699996,None,575.7954774699996,None,575.7954774699996,None,575.7954774699996,None,575.7954774699996,None,575.7954774699996,None,575.8038140999997,None,575.8038140999997,None,575.8038140999997,None,0.003957269999773416,0.5039572699997734,575.8038140999997,None,575.8038140999997,None,575.8038140999997,None,575.8038140999997,None,575.8038140999997,None,575.8038140999997,None,577.7947275999995,577.7947275999995,-0.5,6.037,200,-500,-350,,,,,,,,,,,,,,,,,,,,,,,,,,,,,,,,,,,,,,,,,,,,,,,,,,,,,,,,,,,,,,,,,,,,,,,,,,,,,,,,,,,f,22,fuyao,2022-04-02_10h43.37.688,emotion,2022.1.2,60.02044296306862,
12,200,0,50,two,200,0,50,,,,,0,44,44,11,,,,,,,,,,,right,1.4059210000004896,583.8907909999998,None,583.8907909999998,None,585.3243826999997,None,585.3243826999997,None,585.3243826999997,None,587.3068189999995,587.8066319999998,587.3068189999995,587.8066319999998,587.3068189999995,587.8066319999998,585.3243826999997,None,587.8399428699998,None,587.8399428699998,None,587.8399428699998,None,0.010890470000958885,None,587.8399428699998,None,587.8399428699998,None,587.8399428699998,None,587.8399428699998,None,587.8399428699998,None,587.8399428699998,None,587.8476191,None,587.8476191,None,587.8476191,None,0.004495269999097218,0.5044952699990972,587.8476191,None,587.8476191,None,587.8476191,None,587.8476191,None,587.8476191,None,587.8476191,None,589.8391818999999,589.8391818999999,50.0,2.86,400,-500,-300,,,,,,,,,,,,,,,,,,,,,,,,,,,,,,,,,,,,,,,,,,,,,,,,,,,,,,,,,,,,,,,,,,,,,,,,,,,,,,,,,,,f,22,fuyao,2022-04-02_10h43.37.688,emotion,2022.1.2,60.02044296306862,
70,0,0,-200,two,0,0,-200,,,,,0,45,45,69,,,,,,,,,,,right,1.5336245000007693,592.7542625999995,None,592.7542625999995,None,594.3203482999998,None,594.3203482999998,None,594.3203482999998,None,596.3026880999996,596.8025871,596.3026880999996,596.8025871,596.3026880999996,596.8025871,594.3203482999998,None,596.8359362699997,None,596.8359362699997,None,596.8359362699997,None,0.010806169999341364,None,596.8359362699997,None,596.8359362699997,None,596.8359362699997,None,596.8359362699997,None,596.8359362699997,None,596.8359362699997,None,596.8436092000002,None,596.8436092000002,None,596.8436092000002,None,0.004494569999224041,0.504494569999224,596.8436092000002,None,596.8436092000002,None,596.8436092000002,None,596.8436092000002,None,596.8436092000002,None,596.8436092000002,None,598.8351695000001,598.8351695000001,50.0,3.024,400,-500,-500,,,,,,,,,,,,,,,,,,,,,,,,,,,,,,,,,,,,,,,,,,,,,,,,,,,,,,,,,,,,,,,,,,,,,,,,,,,,,,,,,,,f,22,fuyao,2022-04-02_10h43.37.688,emotion,2022.1.2,60.02044296306862,
60,-200,0,-50,two,-200,0,-50,,,,,0,46,46,59,,,,,,,,,,,right,2.2469752000006338,601.9168413999996,None,601.9168413999996,None,604.1826208000002,None,604.1826208000002,None,604.1826208000002,None,606.1651008999997,606.6648422999997,606.1651008999997,606.6648422999997,606.1651008999997,606.6648422999997,604.1826208000002,None,606.6980864699993,None,606.6980864699993,None,606.6980864699993,None,0.0106838699994114,None,606.6980864699993,None,606.6980864699993,None,606.6980864699993,None,606.6980864699993,None,606.6980864699993,None,606.6980864699993,None,606.7066637999997,None,606.7066637999997,None,606.7066637999997,None,0.004046469999593683,0.5040464699995937,606.7066637999997,None,606.7066637999997,None,606.7066637999997,None,606.7066637999997,None,606.7066637999997,None,606.7066637999997,None,608.6973417999998,608.6973417999998,-24.8,4.895,200,-500,-550,,,,,,,,,,,,,,,,,,,,,,,,,,,,,,,,,,,,,,,,,,,,,,,,,,,,,,,,,,,,,,,,,,,,,,,,,,,,,,,,,,,f,22,fuyao,2022-04-02_10h43.37.688,emotion,2022.1.2,60.02044296306862,
16,0,0,200,one,0,0,200,,,,,0,47,47,15,,,,,,,,,,,right,1.5093663000006927,613.6449401,None,613.6449401,None,615.1777265000001,None,615.1777265000001,None,615.1777265000001,None,617.1599951999997,617.6596829,617.1599951999997,617.6596829,617.1599951999997,617.6596829,615.1777265000001,None,617.6930035700001,None,617.6930035700001,None,617.6930035700001,None,0.010112269999808632,None,617.6930035700001,None,617.6930035700001,None,617.6930035700001,None,617.6930035700001,None,617.6930035700001,None,617.6930035700001,None,617.7025237999997,None,617.7025237999997,None,617.7025237999997,None,0.0015263699997376534,0.5015263699997377,617.7025237999997,None,617.7025237999997,None,617.7025237999997,None,617.7025237999997,None,617.7025237999997,None,617.7025237999997,None,619.6920571,619.6920571,0.0,4.294,200,-500,-350,,,,,,,,,,,,,,,,,,,,,,,,,,,,,,,,,,,,,,,,,,,,,,,,,,,,,,,,,,,,,,,,,,,,,,,,,,,,,,,,,,,f,22,fuyao,2022-04-02_10h43.37.688,emotion,2022.1.2,60.02044296306862,
37,200,200,0,one,200,200,0,,,,,0,48,48,36,,,,,,,,,,,right,1.9134751999999935,624.0400713999998,None,624.0400713999998,None,625.9727885000002,None,625.9727885000002,None,625.9727885000002,None,627.9550202999999,628.4544430999995,627.9550202999999,628.4544430999995,627.9550202999999,628.4544430999995,625.9727885000002,None,628.48804177,None,628.48804177,None,628.48804177,None,0.008560969999052759,None,628.48804177,None,628.48804177,None,628.48804177,None,628.48804177,None,628.48804177,None,628.48804177,None,628.4987972999998,None,628.4987972999998,None,628.4987972999998,None,0.0003022700002475176,0.5003022700002475,628.4987972999998,None,628.4987972999998,None,628.4987972999998,None,628.4987972999998,None,628.4987972999998,None,628.4987972999998,None,630.4873219000001,630.4873219000001,50.0,3.196,400,-300,-350,,,,,,,,,,,,,,,,,,,,,,,,,,,,,,,,,,,,,,,,,,,,,,,,,,,,,,,,,,,,,,,,,,,,,,,,,,,,,,,,,,,f,22,fuyao,2022-04-02_10h43.37.688,emotion,2022.1.2,60.02044296306862,
33,50,50,200,two,50,50,200,,,,,0,49,49,32,,,,,,,,,,,right,1.236021400000027,633.7358064999999,None,633.7358064999999,None,635.0017845000002,None,635.0017845000002,None,635.0017845000002,None,636.9842084000002,637.4840987999996,636.9842084000002,637.4840987999996,636.9842084000002,637.4840987999996,635.0017845000002,None,637.5174930699999,None,637.5174930699999,None,637.5174930699999,None,0.010809069999595522,None,637.5174930699999,None,637.5174930699999,None,637.5174930699999,None,637.5174930699999,None,637.5174930699999,None,637.5174930699999,None,637.5255545,None,637.5255545,None,637.5255545,None,0.004086469999492692,0.5040864699994927,637.5255545,None,637.5255545,None,637.5255545,None,637.5255545,None,637.5255545,None,637.5255545,None,639.5164680999997,639.5164680999997,25.0,15.284,450,-250,-150,,,,,,,,,,,,,,,,,,,,,,,,,,,,,,,,,,,,,,,,,,,,,,,,,,,,,,,,,,,,,,,,,,,,,,,,,,,,,,,,,,,f,22,fuyao,2022-04-02_10h43.37.688,emotion,2022.1.2,60.02044296306862,
77,-50,0,-50,one,-50,0,-50,,,,,0,50,50,76,,,,,,,,,,,right,1.1980017000005319,654.8584547,None,654.8584547,None,656.0755884,None,656.0755884,None,656.0755884,None,658.0579514000001,658.5577166000003,658.0579514000001,658.5577166000003,658.0579514000001,658.5577166000003,656.0755884,None,658.59118067,None,658.59118067,None,658.59118067,None,0.010793769999509095,None,658.59118067,None,658.59118067,None,658.59118067,None,658.59118067,None,658.59118067,None,658.59118067,None,658.5992956,None,658.5992956,None,658.5992956,None,0.004316469999139372,0.5043164699991394,658.5992956,None,658.5992956,None,658.5992956,None,658.5992956,None,658.5992956,None,658.5992956,None,660.5899258999998,660.5899258999998,-0.20000000000000284,4.501,400,-250,-200,,,,,,,,,,,,,,,,,,,,,,,,,,,,,,,,,,,,,,,,,,,,,,,,,,,,,,,,,,,,,,,,,,,,,,,,,,,,,,,,,,,f,22,fuyao,2022-04-02_10h43.37.688,emotion,2022.1.2,60.02044296306862,
84,-50,-50,0,two,-50,-50,0,,,,,0,51,51,83,,,,,,,,,,,right,1.813605500000449,665.1537388999996,None,665.1537388999996,None,666.986973,None,666.986973,None,666.986973,None,668.9697176,669.4694719999998,668.9697176,669.4694719999998,668.9697176,669.4694719999998,666.986973,None,669.4861528699997,None,669.4861528699997,None,669.4861528699997,None,0.01039446999948268,None,669.4861528699997,None,669.4861528699997,None,669.4861528699997,None,669.4861528699997,None,669.4861528699997,None,669.4861528699997,None,669.4950484999999,None,669.4950484999999,None,669.4950484999999,None,0.0033808699990913738,0.5033808699990914,669.4950484999999,None,669.4950484999999,None,669.4950484999999,None,669.4950484999999,None,669.4950484999999,None,669.4950484999999,None,671.4852493999997,671.4852493999997,0.10000000000000142,4.861,350,-300,-200,,,,,,,,,,,,,,,,,,,,,,,,,,,,,,,,,,,,,,,,,,,,,,,,,,,,,,,,,,,,,,,,,,,,,,,,,,,,,,,,,,,f,22,fuyao,2022-04-02_10h43.37.688,emotion,2022.1.2,60.02044296306862,
48,50,200,200,two,50,200,200,,,,,0,52,52,47,,,,,,,,,,,right,1.3877947999999378,676.3996130999994,None,676.3996130999994,None,677.8156275000001,None,677.8156275000001,None,677.8156275000001,None,679.7981977999998,680.2980720999994,679.7981977999998,680.2980720999994,679.7981977999998,680.2980720999994,677.8156275000001,None,680.3147529699994,None,680.3147529699994,None,680.3147529699994,None,0.010177769998335862,None,680.3147529699994,None,680.3147529699994,None,680.3147529699994,None,680.3147529699994,None,680.3147529699994,None,680.3147529699994,None,680.3229726999998,None,680.3229726999998,None,680.3229726999998,None,0.0028244699997230782,0.5028244699997231,680.3229726999998,None,680.3229726999998,None,680.3229726999998,None,680.3229726999998,None,680.3229726999998,None,680.3229726999998,None,682.3140064999998,682.3140064999998,0.0,2.72,400,-100,0,,,,,,,,,,,,,,,,,,,,,,,,,,,,,,,,,,,,,,,,,,,,,,,,,,,,,,,,,,,,,,,,,,,,,,,,,,,,,,,,,,,f,22,fuyao,2022-04-02_10h43.37.688,emotion,2022.1.2,60.02044296306862,
42,50,200,200,one,50,200,200,,,,,0,53,53,41,,,,,,,,,,,right,1.5441620000001421,685.0945566999999,None,685.0945566999999,None,686.6617791999997,None,686.6617791999997,None,686.6617791999997,None,688.6441660999999,689.1437488000001,688.6441660999999,689.1437488000001,688.6441660999999,689.1437488000001,686.6617791999997,None,689.17715437,None,689.17715437,None,689.17715437,None,0.010851669999283331,None,689.17715437,None,689.17715437,None,689.17715437,None,689.17715437,None,689.17715437,None,689.17715437,None,689.1848298999994,None,689.1848298999994,None,689.1848298999994,None,0.0039046699994287337,0.5039046699994287,689.1848298999994,None,689.1848298999994,None,689.1848298999994,None,689.1848298999994,None,689.1848298999994,None,689.1848298999994,None,691.1762543999994,691.1762543999994,-24.7,8.375,450,100,200,,,,,,,,,,,,,,,,,,,,,,,,,,,,,,,,,,,,,,,,,,,,,,,,,,,,,,,,,,,,,,,,,,,,,,,,,,,,,,,,,,,f,22,fuyao,2022-04-02_10h43.37.688,emotion,2022.1.2,60.02044296306862,
25,200,50,50,one,200,50,50,,,,,0,54,54,24,,,,,,,,,,,right,1.3191069000004063,699.6058279999997,None,699.6058279999997,None,700.9552683000002,None,700.9552683000002,None,700.9552683000002,None,702.9377139999997,703.4375101999995,702.9377139999997,703.4375101999995,702.9377139999997,703.4375101999995,700.9552683000002,None,703.4709315699996,None,703.4709315699996,None,703.4709315699996,None,0.010916169999291014,None,703.4709315699996,None,703.4709315699996,None,703.4709315699996,None,703.4709315699996,None,703.4709315699996,None,703.4709315699996,None,703.4782122999995,None,703.4782122999995,None,703.4782122999995,None,0.004498169999351376,0.5044981699993514,703.4782122999995,None,703.4782122999995,None,703.4782122999995,None,703.4782122999995,None,703.4782122999995,None,703.4782122999995,None,705.4699083999994,705.4699083999994,50.0,3.959,650,150,250,,,,,,,,,,,,,,,,,,,,,,,,,,,,,,,,,,,,,,,,,,,,,,,,,,,,,,,,,,,,,,,,,,,,,,,,,,,,,,,,,,,f,22,fuyao,2022-04-02_10h43.37.688,emotion,2022.1.2,60.02044296306862,
55,0,-50,-200,two,0,-50,-200,,,,,0,55,55,54,,,,,,,,,,,right,2.1963792000005924,709.4846901999999,None,709.4846901999999,None,711.7002628999999,None,711.7002628999999,None,711.7002628999999,None,713.6827974999997,714.1824448999996,713.6827974999997,714.1824448999996,713.6827974999997,714.1824448999996,711.7002628999999,None,714.2158092699996,None,714.2158092699996,None,714.2158092699996,None,0.010781569999380736,None,714.2158092699996,None,714.2158092699996,None,714.2158092699996,None,714.2158092699996,None,714.2158092699996,None,714.2158092699996,None,714.2239138999994,None,714.2239138999994,None,714.2239138999994,None,0.004293670000151906,0.5042936700001519,714.2239138999994,None,714.2239138999994,None,714.2239138999994,None,714.2239138999994,None,714.2239138999994,None,714.2239138999994,None,716.2149177000001,716.2149177000001,50.0,2.701,650,100,50,,,,,,,,,,,,,,,,,,,,,,,,,,,,,,,,,,,,,,,,,,,,,,,,,,,,,,,,,,,,,,,,,,,,,,,,,,,,,,,,,,,f,22,fuyao,2022-04-02_10h43.37.688,emotion,2022.1.2,60.02044296306862,
73,-200,-50,-50,one,-200,-50,-50,,,,,0,56,56,72,,,,,,,,,,,right,1.6593136000001323,718.9640450999996,None,718.9640450999996,None,720.6462552000003,None,720.6462552000003,None,720.6462552000003,None,722.6286604999996,723.1284497999995,722.6286604999996,723.1284497999995,722.6286604999996,723.1284497999995,720.6462552000003,None,723.1617877699995,None,723.1617877699995,None,723.1617877699995,None,0.010544369998569891,None,723.1617877699995,None,723.1617877699995,None,723.1617877699995,None,723.1617877699995,None,723.1617877699995,None,723.1617877699995,None,723.1696758999997,None,723.1696758999997,None,723.1696758999997,None,0.0039056699997672695,0.5039056699997673,723.1696758999997,None,723.1696758999997,None,723.1696758999997,None,723.1696758999997,None,723.1696758999997,None,723.1696758999997,None,725.1609388999996,725.1609388999996,-24.7,4.08,450,50,0,,,,,,,,,,,,,,,,,,,,,,,,,,,,,,,,,,,,,,,,,,,,,,,,,,,,,,,,,,,,,,,,,,,,,,,,,,,,,,,,,,,f,22,fuyao,2022-04-02_10h43.37.688,emotion,2022.1.2,60.02044296306862,
62,0,-50,0,one,0,-50,0,,,,,0,57,57,61,,,,,,,,,,,right,3.6127373000008447,729.2919575999995,None,729.2919575999995,None,732.9240350999999,None,732.9240350999999,None,732.9240350999999,None,734.9064510999997,735.4061184000002,734.9064510999997,735.4061184000002,734.9064510999997,735.4061184000002,732.9240350999999,None,735.4397388699994,None,735.4397388699994,None,735.4397388699994,None,0.010805069999150874,None,735.4397388699994,None,735.4397388699994,None,735.4397388699994,None,735.4397388699994,None,735.4397388699994,None,735.4397388699994,None,735.4478266999995,None,735.4478266999995,None,735.4478266999995,None,0.004270269999324228,0.5042702699993242,735.4478266999995,None,735.4478266999995,None,735.4478266999995,None,735.4478266999995,None,735.4478266999995,None,735.4478266999995,None,737.4386278000002,737.4386278000002,50.0,3.47,450,0,0,,,,,,,,,,,,,,,,,,,,,,,,,,,,,,,,,,,,,,,,,,,,,,,,,,,,,,,,,,,,,,,,,,,,,,,,,,,,,,,,,,,f,22,fuyao,2022-04-02_10h43.37.688,emotion,2022.1.2,60.02044296306862,
66,-200,0,0,one,-200,0,0,,,,,0,58,58,65,,,,,,,,,,,right,1.552464900000814,740.9691696999998,None,740.9691696999998,None,742.5531580999996,None,742.5531580999996,None,742.5531580999996,None,744.5352665999999,745.0350438999994,744.5352665999999,745.0350438999994,744.5352665999999,745.0350438999994,742.5531580999996,None,745.0687830700002,None,745.0687830700002,None,745.0687830700002,None,0.010831270000380755,None,745.0687830700002,None,745.0687830700002,None,745.0687830700002,None,745.0687830700002,None,745.0687830700002,None,745.0687830700002,None,745.0769988000002,None,745.0769988000002,None,745.0769988000002,None,0.004191070000160835,0.5041910700001608,745.0769988000002,None,745.0769988000002,None,745.0769988000002,None,745.0769988000002,None,745.0769988000002,None,745.0769988000002,None,747.0674853,747.0674853,-25.3,3.029,250,0,0,,,,,,,,,,,,,,,,,,,,,,,,,,,,,,,,,,,,,,,,,,,,,,,,,,,,,,,,,,,,,,,,,,,,,,,,,,,,,,,,,,,f,22,fuyao,2022-04-02_10h43.37.688,emotion,2022.1.2,60.02044296306862,
63,-50,0,0,one,-50,0,0,,,,,0,59,59,62,,,,,,,,,,,right,1.2406644000002416,750.1493893999996,None,750.1493893999996,None,751.4155056,None,751.4155056,None,751.4155056,None,753.3980314,753.8979823,753.3980314,753.8979823,753.3980314,753.8979823,751.4155056,None,753.9146631699999,None,753.9146631699999,None,753.9146631699999,None,0.010155869999834977,None,753.9146631699999,None,753.9146631699999,None,753.9146631699999,None,753.9146631699999,None,753.9146631699999,None,753.9146631699999,None,753.9228343999994,None,753.9228343999994,None,753.9228343999994,None,0.0032385699996666517,0.5032385699996667,753.9228343999994,None,753.9228343999994,None,753.9228343999994,None,753.9228343999994,None,753.9228343999994,None,753.9228343999994,None,755.9136731999997,755.9136731999997,-25.5,5.282,200,0,0,,,,,,,,,,,,,,,,,,,,,,,,,,,,,,,,,,,,,,,,,,,,,,,,,,,,,,,,,,,,,,,,,,,,,,,,,,,,,,,,,,,f,22,fuyao,2022-04-02_10h43.37.688,emotion,2022.1.2,60.02044296306862,
23,0,200,0,two,0,200,0,,,,,0,60,60,22,,,,,,,,,,,right,1.2412356000004365,761.2600605999996,None,761.2600605999996,None,762.5271949999997,None,762.5271949999997,None,762.5271949999997,None,764.5094866999998,765.0093189999998,764.5094866999998,765.0093189999998,764.5094866999998,765.0093189999998,762.5271949999997,None,765.04274957,None,765.04274957,None,765.04274957,None,0.01074047000020073,None,765.04274957,None,765.04274957,None,765.04274957,None,765.04274957,None,765.04274957,None,765.04274957,None,765.0506144000001,None,765.0506144000001,None,765.0506144000001,None,0.004238570000779873,0.5042385700007799,765.0506144000001,None,765.0506144000001,None,765.0506144000001,None,765.0506144000001,None,765.0506144000001,None,765.0506144000001,None,767.0417698000001,767.0417698000001,-0.10000000000000142,3.759,200,200,0,,,,,,,,,,,,,,,,,,,,,,,,,,,,,,,,,,,,,,,,,,,,,,,,,,,,,,,,,,,,,,,,,,,,,,,,,,,,,,,,,,,f,22,fuyao,2022-04-02_10h43.37.688,emotion,2022.1.2,60.02044296306862,
51,-50,0,-200,one,-50,0,-200,,,,,0,61,61,50,,,,,,,,,,,right,1.6566245000003619,770.8566532999994,None,770.8566532999994,None,772.5394858,None,772.5394858,None,772.5394858,None,774.5217469999998,775.0215619999999,774.5217469999998,775.0215619999999,774.5217469999998,775.0215619999999,772.5394858,None,775.05489557,None,775.05489557,None,775.05489557,None,0.010404470000139554,None,775.05489557,None,775.05489557,None,775.05489557,None,775.05489557,None,775.05489557,None,775.05489557,None,775.0640348999996,None,775.0640348999996,None,775.0640348999996,None,0.00365146999956778,0.5036514699995678,775.0640348999996,None,775.0640348999996,None,775.0640348999996,None,775.0640348999996,None,775.0640348999996,None,775.0640348999996,None,777.0538533999998,777.0538533999998,0.0,5.186,150,200,-200,,,,,,,,,,,,,,,,,,,,,,,,,,,,,,,,,,,,,,,,,,,,,,,,,,,,,,,,,,,,,,,,,,,,,,,,,,,,,,,,,,,f,22,fuyao,2022-04-02_10h43.37.688,emotion,2022.1.2,60.02044296306862,
22,0,0,200,two,0,0,200,,,,,0,62,62,21,,,,,,,,,,,right,1.667469500000152,782.3005186999999,None,782.3005186999999,None,784.0005234999999,None,784.0005234999999,None,784.0005234999999,None,785.9831182999997,786.4827808999999,785.9831182999997,786.4827808999999,785.9831182999997,786.4827808999999,784.0005234999999,None,786.5163495700002,None,786.5163495700002,None,786.5163495700002,None,0.010902070000156527,None,786.5163495700002,None,786.5163495700002,None,786.5163495700002,None,786.5163495700002,None,786.5163495700002,None,786.5163495700002,None,786.5239541000001,None,786.5239541000001,None,786.5239541000001,None,0.004495970000789384,0.5044959700007894,786.5239541000001,None,786.5239541000001,None,786.5239541000001,None,786.5239541000001,None,786.5239541000001,None,786.5239541000001,None,788.5151945999996,788.5151945999996,0.0,6.964,150,200,0,,,,,,,,,,,,,,,,,,,,,,,,,,,,,,,,,,,,,,,,,,,,,,,,,,,,,,,,,,,,,,,,,,,,,,,,,,,,,,,,,,,f,22,fuyao,2022-04-02_10h43.37.688,emotion,2022.1.2,60.02044296306862,
57,-50,0,-200,two,-50,0,-200,,,,,0,63,63,56,,,,,,,,,,,right,1.5879298999998355,795.5285892000002,None,795.5285892000002,None,797.1448842,None,797.1448842,None,797.1448842,None,799.127195,799.6270629999999,799.127195,799.6270629999999,799.127195,799.6270629999999,797.1448842,None,799.6601238699999,None,799.6601238699999,None,799.6601238699999,None,0.010499869999875955,None,799.6601238699999,None,799.6601238699999,None,799.6601238699999,None,799.6601238699999,None,799.6601238699999,None,799.6601238699999,None,799.6679923000002,None,799.6679923000002,None,799.6679923000002,None,0.004054070000165666,0.5040540700001657,799.6679923000002,None,799.6679923000002,None,799.6679923000002,None,799.6679923000002,None,799.6679923000002,None,799.6679923000002,None,801.6594193000001,801.6594193000001,-0.20000000000000284,10.387,100,200,-200,,,,,,,,,,,,,,,,,,,,,,,,,,,,,,,,,,,,,,,,,,,,,,,,,,,,,,,,,,,,,,,,,,,,,,,,,,,,,,,,,,,f,22,fuyao,2022-04-02_10h43.37.688,emotion,2022.1.2,60.02044296306862,
2,0,200,50,one,0,200,50,,,,,0,64,64,1,,,,,,,,,,,right,1.1100102000000334,812.1035937999995,None,812.1035937999995,None,813.2373376999994,None,813.2373376999994,None,813.2373376999994,None,815.2199658,815.7197323999999,815.2199658,815.7197323999999,815.2199658,815.7197323999999,813.2373376999994,None,815.7364132699998,None,815.7364132699998,None,815.7364132699998,None,0.009867669999948703,None,815.7364132699998,None,815.7364132699998,None,815.7364132699998,None,815.7364132699998,None,815.7364132699998,None,815.7364132699998,None,815.7454476000003,None,815.7454476000003,None,815.7454476000003,None,0.002387970000199857,0.5023879700001999,815.7454476000003,None,815.7454476000003,None,815.7454476000003,None,815.7454476000003,None,815.7454476000003,None,815.7454476000003,None,817.7354589999995,817.7354589999995,-25.2,4.724,100,400,-150,,,,,,,,,,,,,,,,,,,,,,,,,,,,,,,,,,,,,,,,,,,,,,,,,,,,,,,,,,,,,,,,,,,,,,,,,,,,,,,,,,,f,22,fuyao,2022-04-02_10h43.37.688,emotion,2022.1.2,60.02044296306862,
71,0,-200,0,two,0,-200,0,,,,,0,65,65,70,,,,,,,,,,,right,1.2144812000005913,822.5165461999995,None,822.5165461999995,None,823.7495331,None,823.7495331,None,823.7495331,None,825.7319548999994,826.2317911,825.7319548999994,826.2317911,825.7319548999994,826.2317911,823.7495331,None,826.2649060699999,None,826.2649060699999,None,826.2649060699999,None,0.01078426999902149,None,826.2649060699999,None,826.2649060699999,None,826.2649060699999,None,826.2649060699999,None,826.2649060699999,None,826.2649060699999,None,826.2726185000001,None,826.2726185000001,None,826.2726185000001,None,0.004500269998970907,0.5045002699989709,826.2726185000001,None,826.2726185000001,None,826.2726185000001,None,826.2726185000001,None,826.2726185000001,None,826.2726185000001,None,828.2639493999995,828.2639493999995,50.0,2.616,100,200,-150,,,,,,,,,,,,,,,,,,,,,,,,,,,,,,,,,,,,,,,,,,,,,,,,,,,,,,,,,,,,,,,,,,,,,,,,,,,,,,,,,,,f,22,fuyao,2022-04-02_10h43.37.688,emotion,2022.1.2,60.02044296306862,
52,-50,-200,0,one,-50,-200,0,,,,,0,66,66,51,,,,,,,,,,,right,1.4328728000009505,830.9304241999998,None,830.9304241999998,None,832.3954462000002,None,832.3954462000002,None,832.3954462000002,None,834.3779173000003,834.8775349999996,834.3779173000003,834.8775349999996,834.3779173000003,834.8775349999996,832.3954462000002,None,834.9110015700002,None,834.9110015700002,None,834.9110015700002,None,0.010701070000322943,None,834.9110015700002,None,834.9110015700002,None,834.9110015700002,None,834.9110015700002,None,834.9110015700002,None,834.9110015700002,None,834.9189644999997,None,834.9189644999997,None,834.9189644999997,None,0.004218070000206353,0.5042180700002064,834.9189644999997,None,834.9189644999997,None,834.9189644999997,None,834.9189644999997,None,834.9189644999997,None,834.9189644999997,None,836.9098599999998,836.9098599999998,0.10000000000000142,3.766,50,0,-150,,,,,,,,,,,,,,,,,,,,,,,,,,,,,,,,,,,,,,,,,,,,,,,,,,,,,,,,,,,,,,,,,,,,,,,,,,,,,,,,,,,f,22,fuyao,2022-04-02_10h43.37.688,emotion,2022.1.2,60.02044296306862,
5,200,50,0,one,200,50,0,,,,,0,67,67,4,,,,,,,,,,,right,1.3886807999997473,840.7249706000002,None,840.7249706000002,None,842.1409372999997,None,842.1409372999997,None,842.1409372999997,None,844.1234259000003,844.6231085,844.1234259000003,844.6231085,844.1234259000003,844.6231085,842.1409372999997,None,844.6565169700001,None,844.6565169700001,None,844.6565169700001,None,0.010758569999779866,None,844.6565169700001,None,844.6565169700001,None,844.6565169700001,None,844.6565169700001,None,844.6565169700001,None,844.6565169700001,None,844.6643487000001,None,844.6643487000001,None,844.6643487000001,None,0.004002570000011474,0.5040025700000115,844.6643487000001,None,844.6643487000001,None,844.6643487000001,None,844.6643487000001,None,844.6643487000001,None,844.6643487000001,None,846.6557296000001,846.6557296000001,50.0,2.699,250,50,-150,,,,,,,,,,,,,,,,,,,,,,,,,,,,,,,,,,,,,,,,,,,,,,,,,,,,,,,,,,,,,,,,,,,,,,,,,,,,,,,,,,,f,22,fuyao,2022-04-02_10h43.37.688,emotion,2022.1.2,60.02044296306862,
3,50,0,200,one,50,0,200,,,,,0,68,68,2,,,,,,,,,,,right,2.08335309999984,849.4046143999994,None,849.4046143999994,None,851.5201737999996,None,851.5201737999996,None,851.5201737999996,None,853.5024900999997,854.0021471999999,853.5024900999997,854.0021471999999,853.5024900999997,854.0021471999999,851.5201737999996,None,854.0356565699998,None,854.0356565699998,None,854.0356565699998,None,0.010773670000162383,None,854.0356565699998,None,854.0356565699998,None,854.0356565699998,None,854.0356565699998,None,854.0356565699998,None,854.0356565699998,None,854.0435675999997,None,854.0435675999997,None,854.0435675999997,None,0.004365769999822078,0.5043657699998221,854.0435675999997,None,854.0435675999997,None,854.0435675999997,None,854.0435675999997,None,854.0435675999997,None,854.0435675999997,None,856.0346983,856.0346983,24.900000000000006,8.905,300,50,50,,,,,,,,,,,,,,,,,,,,,,,,,,,,,,,,,,,,,,,,,,,,,,,,,,,,,,,,,,,,,,,,,,,,,,,,,,,,,,,,,,,f,22,fuyao,2022-04-02_10h43.37.688,emotion,2022.1.2,60.02044296306862,
80,-50,-200,-50,two,-50,-200,-50,,,,,0,69,69,79,,,,,,,,,,,right,1.2716219000003548,864.9971066999997,None,864.9971066999997,None,866.2965740999998,None,866.2965740999998,None,866.2965740999998,None,868.2789972999999,868.7789645000003,868.2789972999999,868.7789645000003,868.2789972999999,868.7789645000003,866.2965740999998,None,868.7956453700002,None,868.7956453700002,None,868.7956453700002,None,0.00978497000050993,None,868.7956453700002,None,868.7956453700002,None,868.7956453700002,None,868.7956453700002,None,868.7956453700002,None,868.7956453700002,None,868.8056433000002,None,868.8056433000002,None,868.8056433000002,None,0.001705269999547454,0.5017052699995475,868.8056433000002,None,868.8056433000002,None,868.8056433000002,None,868.8056433000002,None,868.8056433000002,None,868.8056433000002,None,870.7946218999996,870.7946218999996,50.0,3.576,250,-150,0,,,,,,,,,,,,,,,,,,,,,,,,,,,,,,,,,,,,,,,,,,,,,,,,,,,,,,,,,,,,,,,,,,,,,,,,,,,,,,,,,,,f,22,fuyao,2022-04-02_10h43.37.688,emotion,2022.1.2,60.02044296306862,
69,-50,0,0,two,-50,0,0,,,,,0,70,70,68,,,,,,,,,,,right,1.5082508000004964,874.4261712999996,None,874.4261712999996,None,875.9589230000001,None,875.9589230000001,None,875.9589230000001,None,877.9412917999998,878.4411739999996,877.9412917999998,878.4411739999996,877.9412917999998,878.4411739999996,875.9589230000001,None,878.4746937699996,None,878.4746937699996,None,878.4746937699996,None,0.010963169999740785,None,878.4746937699996,None,878.4746937699996,None,878.4746937699996,None,878.4746937699996,None,878.4746937699996,None,878.4746937699996,None,878.4817622,None,878.4817622,None,878.4817622,None,0.004657969999243505,0.5046579699992435,878.4817622,None,878.4817622,None,878.4817622,None,878.4817622,None,878.4817622,None,878.4817622,None,880.4736139999995,880.4736139999995,-24.9,3.773,200,-150,0,,,,,,,,,,,,,,,,,,,,,,,,,,,,,,,,,,,,,,,,,,,,,,,,,,,,,,,,,,,,,,,,,,,,,,,,,,,,,,,,,,,f,22,fuyao,2022-04-02_10h43.37.688,emotion,2022.1.2,60.02044296306862,
85,-200,-200,0,one,-200,-200,0,,,,,0,71,71,84,,,,,,,,,,,right,4.98196310000003,884.3050033999998,None,884.3050033999998,None,889.319536,None,889.319536,None,889.319536,None,891.3017491,891.8017719,891.3017491,891.8017719,891.3017491,891.8017719,889.319536,None,891.8353380699995,None,891.8353380699995,None,891.8353380699995,None,0.01081796999915241,None,891.8353380699995,None,891.8353380699995,None,891.8353380699995,None,891.8353380699995,None,891.8353380699995,None,891.8353380699995,None,891.8427843999998,None,891.8427843999998,None,891.8427843999998,None,0.0042618699990271125,0.5042618699990271,891.8427843999998,None,891.8427843999998,None,891.8427843999998,None,891.8427843999998,None,891.8427843999998,None,891.8427843999998,None,893.8342142000001,893.8342142000001,-0.29999999999999716,6.076,0,-350,0,,,,,,,,,,,,,,,,,,,,,,,,,,,,,,,,,,,,,,,,,,,,,,,,,,,,,,,,,,,,,,,,,,,,,,,,,,,,,,,,,,,f,22,fuyao,2022-04-02_10h43.37.688,emotion,2022.1.2,60.02044296306862,
28,0,50,50,one,0,50,50,,,,,0,72,72,27,,,,,,,,,,,right,1.6489547999999559,899.9644994,None,899.9644994,None,901.6305683999999,None,901.6305683999999,None,901.6305683999999,None,903.6129424000001,904.1129247999997,903.6129424000001,904.1129247999997,903.6129424000001,904.1129247999997,901.6305683999999,None,904.1296056699997,None,904.1296056699997,None,904.1296056699997,None,0.0105579699993541,None,904.1296056699997,None,904.1296056699997,None,904.1296056699997,None,904.1296056699997,None,904.1296056699997,None,904.1296056699997,None,904.1374083999999,None,904.1374083999999,None,904.1374083999999,None,0.004026769999654789,0.5040267699996548,904.1374083999999,None,904.1374083999999,None,904.1374083999999,None,904.1374083999999,None,904.1374083999999,None,904.1374083999999,None,906.1281782999995,906.1281782999995,-0.10000000000000142,3.405,0,-300,50,,,,,,,,,,,,,,,,,,,,,,,,,,,,,,,,,,,,,,,,,,,,,,,,,,,,,,,,,,,,,,,,,,,,,,,,,,,,,,,,,,,f,22,fuyao,2022-04-02_10h43.37.688,emotion,2022.1.2,60.02044296306862,
92,-200,0,-200,two,-200,0,-200,,,,,0,73,73,91,,,,,,,,,,,right,1.679283100000248,909.5933267999999,None,909.5933267999999,None,911.2927706,None,911.2927706,None,911.2927706,None,913.2754927999995,913.7751455999996,913.2754927999995,913.7751455999996,913.2754927999995,913.7751455999996,911.2927706,None,913.7918264699996,None,913.7918264699996,None,913.7918264699996,None,0.010225469999568304,None,913.7918264699996,None,913.7918264699996,None,913.7918264699996,None,913.7918264699996,None,913.7918264699996,None,913.7918264699996,None,913.8008873999997,None,913.8008873999997,None,913.8008873999997,None,0.0021682699989469256,0.5021682699989469,913.8008873999997,None,913.8008873999997,None,913.8008873999997,None,913.8008873999997,None,913.8008873999997,None,913.8008873999997,None,915.7910357000001,915.7910357000001,0.0,4.333,-200,-300,-150,,,,,,,,,,,,,,,,,,,,,,,,,,,,,,,,,,,,,,,,,,,,,,,,,,,,,,,,,,,,,,,,,,,,,,,,,,,,,,,,,,,f,22,fuyao,2022-04-02_10h43.37.688,emotion,2022.1.2,60.02044296306862,
1,0,50,200,one,0,50,200,,,,,0,74,74,0,,,,,,,,,,,right,1.4361043000008067,920.1878945999997,None,920.1878945999997,None,921.6548499,None,921.6548499,None,921.6548499,None,923.6370509999997,924.1372652,923.6370509999997,924.1372652,923.6370509999997,924.1372652,921.6548499,None,924.15394607,None,924.15394607,None,924.15394607,None,0.01031717000023491,None,924.15394607,None,924.15394607,None,924.15394607,None,924.15394607,None,924.15394607,None,924.15394607,None,924.1630295999994,None,924.1630295999994,None,924.1630295999994,None,0.002506570000150532,0.5025065700001505,924.1630295999994,None,924.1630295999994,None,924.1630295999994,None,924.1630295999994,None,924.1630295999994,None,924.1630295999994,None,926.1527968,926.1527968,-0.20000000000000284,4.729,-200,-250,50,,,,,,,,,,,,,,,,,,,,,,,,,,,,,,,,,,,,,,,,,,,,,,,,,,,,,,,,,,,,,,,,,,,,,,,,,,,,,,,,,,,f,22,fuyao,2022-04-02_10h43.37.688,emotion,2022.1.2,60.02044296306862,
87,0,-200,-200,one,0,-200,-200,,,,,0,75,75,86,,,,,,,,,,,right,1.347623499999827,930.9338941999995,None,930.9338941999995,None,932.3002486999994,None,932.3002486999994,None,932.3002486999994,None,934.2821856999999,934.7823284999995,934.2821856999999,934.7823284999995,934.2821856999999,934.7823284999995,932.3002486999994,None,934.8156799699995,None,934.8156799699995,None,934.8156799699995,None,0.0104718699994919,None,934.8156799699995,None,934.8156799699995,None,934.8156799699995,None,934.8156799699995,None,934.8156799699995,None,934.8156799699995,None,934.8241540999998,None,934.8241540999998,None,934.8241540999998,None,0.002897169998504978,0.502897169998505,934.8241540999998,None,934.8241540999998,None,934.8241540999998,None,934.8241540999998,None,934.8241540999998,None,934.8241540999998,None,936.8144344000002,936.8144344000002,50.0,3.646,-200,-450,-150,,,,,,,,,,,,,,,,,,,,,,,,,,,,,,,,,,,,,,,,,,,,,,,,,,,,,,,,,,,,,,,,,,,,,,,,,,,,,,,,,,,f,22,fuyao,2022-04-02_10h43.37.688,emotion,2022.1.2,60.02044296306862,
41,200,50,200,one,200,50,200,,,,,0,76,76,40,,,,,,,,,,,right,1.397095299999819,940.5129964999996,None,940.5129964999996,None,941.9290100999997,None,941.9290100999997,None,941.9290100999997,None,943.9109526000002,944.4114392000001,943.9109526000002,944.4114392000001,943.9109526000002,944.4114392000001,941.9290100999997,None,944.4281200700001,None,944.4281200700001,None,944.4281200700001,None,0.010298669999428967,None,944.4281200700001,None,944.4281200700001,None,944.4281200700001,None,944.4281200700001,None,944.4281200700001,None,944.4281200700001,None,944.4362799999999,None,944.4362799999999,None,944.4362799999999,None,0.0034007699996436713,0.5034007699996437,944.4362799999999,None,944.4362799999999,None,944.4362799999999,None,944.4362799999999,None,944.4362799999999,None,944.4362799999999,None,946.4272547999999,946.4272547999999,50.0,2.418,0,-400,50,,,,,,,,,,,,,,,,,,,,,,,,,,,,,,,,,,,,,,,,,,,,,,,,,,,,,,,,,,,,,,,,,,,,,,,,,,,,,,,,,,,f,22,fuyao,2022-04-02_10h43.37.688,emotion,2022.1.2,60.02044296306862,
72,-200,0,0,two,-200,0,0,,,,,0,77,77,71,,,,,,,,,,,right,1.423029999999926,948.9080526999996,None,948.9080526999996,None,950.3584322999995,None,950.3584322999995,None,950.3584322999995,None,952.3410926999995,952.8408000999998,952.3410926999995,952.8408000999998,952.3410926999995,952.8408000999998,950.3584322999995,None,952.8574809699998,None,952.8574809699998,None,952.8574809699998,None,0.010347469999942405,None,952.8574809699998,None,952.8574809699998,None,952.8574809699998,None,952.8574809699998,None,952.8574809699998,None,952.8574809699998,None,952.8662266000001,None,952.8662266000001,None,952.8662266000001,None,0.003726769999957469,0.5037267699999575,952.8662266000001,None,952.8662266000001,None,952.8662266000001,None,952.8662266000001,None,952.8662266000001,None,952.8662266000001,None,954.8563303999999,954.8563303999999,-25.1,3.024,-200,-400,50,,,,,,,,,,,,,,,,,,,,,,,,,,,,,,,,,,,,,,,,,,,,,,,,,,,,,,,,,,,,,,,,,,,,,,,,,,,,,,,,,,,f,22,fuyao,2022-04-02_10h43.37.688,emotion,2022.1.2,60.02044296306862,
39,0,200,200,one,0,200,200,,,,,0,78,78,38,,,,,,,,,,,right,1.31781299999966,957.9382611000001,None,957.9382611000001,None,959.2878730000002,None,959.2878730000002,None,959.2878730000002,None,961.2701724999997,961.7701126000002,961.2701724999997,961.7701126000002,961.2701724999997,961.7701126000002,959.2878730000002,None,961.8034171699995,None,961.8034171699995,None,961.8034171699995,None,0.010692169998947065,None,961.8034171699995,None,961.8034171699995,None,961.8034171699995,None,961.8034171699995,None,961.8034171699995,None,961.8034171699995,None,961.8121335999995,None,961.8121335999995,None,961.8121335999995,None,0.004047069999614905,0.5040470699996149,961.8121335999995,None,961.8121335999995,None,961.8121335999995,None,961.8121335999995,None,961.8121335999995,None,961.8121335999995,None,963.8024482000001,963.8024482000001,-25.7,3.237,-200,-200,250,,,,,,,,,,,,,,,,,,,,,,,,,,,,,,,,,,,,,,,,,,,,,,,,,,,,,,,,,,,,,,,,,,,,,,,,,,,,,,,,,,,f,22,fuyao,2022-04-02_10h43.37.688,emotion,2022.1.2,60.02044296306862,
32,50,200,50,two,50,200,50,,,,,0,79,79,31,,,,,,,,,,,right,1.5702369999999064,967.0997146999998,None,967.0997146999998,None,968.7002232999994,None,968.7002232999994,None,968.7002232999994,None,970.6824176,971.1821811,970.6824176,971.1821811,970.6824176,971.1821811,968.7002232999994,None,971.2158631699998,None,971.2158631699998,None,971.2158631699998,None,0.010739870000179508,None,971.2158631699998,None,971.2158631699998,None,971.2158631699998,None,971.2158631699998,None,971.2158631699998,None,971.2158631699998,None,971.2240022999995,None,971.2240022999995,None,971.2240022999995,None,0.004355869999926654,0.5043558699999267,971.2240022999995,None,971.2240022999995,None,971.2240022999995,None,971.2240022999995,None,971.2240022999995,None,971.2240022999995,None,973.2148634999994,973.2148634999994,-0.10000000000000142,4.558,-150,0,300,,,,,,,,,,,,,,,,,,,,,,,,,,,,,,,,,,,,,,,,,,,,,,,,,,,,,,,,,,,,,,,,,,,,,,,,,,,,,,,,,,,f,22,fuyao,2022-04-02_10h43.37.688,emotion,2022.1.2,60.02044296306862,
56,0,-200,-50,two,0,-200,-50,,,,,0,80,80,55,,,,,,,,,,,right,1.1103266000000076,977.8292771999995,None,977.8292771999995,None,978.9621834999998,None,978.9621834999998,None,978.9621834999998,None,980.9444695000002,981.4445797999997,980.9444695000002,981.4445797999997,980.9444695000002,981.4445797999997,978.9621834999998,None,981.4612606699997,None,981.4612606699997,None,981.4612606699997,None,0.010207569999693078,None,981.4612606699997,None,981.4612606699997,None,981.4612606699997,None,981.4612606699997,None,981.4612606699997,None,981.4612606699997,None,981.4697268,None,981.4697268,None,981.4697268,None,0.002569269999185053,0.502569269999185,981.4697268,None,981.4697268,None,981.4697268,None,981.4697268,None,981.4697268,None,981.4697268,None,983.4602231999997,983.4602231999997,50.0,2.388,-150,-200,250,,,,,,,,,,,,,,,,,,,,,,,,,,,,,,,,,,,,,,,,,,,,,,,,,,,,,,,,,,,,,,,,,,,,,,,,,,,,,,,,,,,f,22,fuyao,2022-04-02_10h43.37.688,emotion,2022.1.2,60.02044296306862,
20,0,50,0,two,0,50,0,,,,,0,81,81,19,,,,,,,,,,,right,1.5177509999994072,985.9093086000003,None,985.9093086000003,None,987.4583443000001,None,987.4583443000001,None,987.4583443000001,None,989.4410324,989.9400412999994,989.4410324,989.9400412999994,989.4410324,989.9400412999994,987.4583443000001,None,989.9735957699999,None,989.9735957699999,None,989.9735957699999,None,0.009380169999531063,None,989.9735957699999,None,989.9735957699999,None,989.9735957699999,None,989.9735957699999,None,989.9735957699999,None,989.9735957699999,None,989.9835083999997,None,989.9835083999997,None,989.9835083999997,None,0.0017060700001820805,0.5017060700001821,989.9835083999997,None,989.9835083999997,None,989.9835083999997,None,989.9835083999997,None,989.9835083999997,None,989.9835083999997,None,991.9730018,991.9730018,-0.20000000000000284,9.481,-150,-150,250,,,,,,,,,,,,,,,,,,,,,,,,,,,,,,,,,,,,,,,,,,,,,,,,,,,,,,,,,,,,,,,,,,,,,,,,,,,,,,,,,,,f,22,fuyao,2022-04-02_10h43.37.688,emotion,2022.1.2,60.02044296306862,
34,0,50,50,two,0,50,50,,,,,0,82,82,33,,,,,,,,,,,right,1.3842549000000872,1001.5175830999997,None,1001.5175830999997,None,1002.9344904,None,1002.9344904,None,1002.9344904,None,1004.9165920999994,1005.4168989999998,1004.9165920999994,1005.4168989999998,1004.9165920999994,1005.4168989999998,1002.9344904,None,1005.4335798699998,None,1005.4335798699998,None,1005.4335798699998,None,0.010331069999665488,None,1005.4335798699998,None,1005.4335798699998,None,1005.4335798699998,None,1005.4335798699998,None,1005.4335798699998,None,1005.4335798699998,None,1005.4421495999995,None,1005.4421495999995,None,1005.4421495999995,None,0.0038880699994479073,0.5038880699994479,1005.4421495999995,None,1005.4421495999995,None,1005.4421495999995,None,1005.4421495999995,None,1005.4421495999995,None,1005.4421495999995,None,1007.4325209999997,1007.4325209999997,-25.5,6.768,-150,-100,300,,,,,,,,,,,,,,,,,,,,,,,,,,,,,,,,,,,,,,,,,,,,,,,,,,,,,,,,,,,,,,,,,,,,,,,,,,,,,,,,,,,f,22,fuyao,2022-04-02_10h43.37.688,emotion,2022.1.2,60.02044296306862,
15,50,0,0,one,50,0,0,,,,,0,83,83,14,,,,,,,,,,,right,1.1001517000004242,1014.2620482000002,None,1014.2620482000002,None,1015.3790011000001,None,1015.3790011000001,None,1015.3790011000001,None,1017.3611252000001,1017.8609939999997,1017.3611252000001,1017.8609939999997,1017.3611252000001,1017.8609939999997,1015.3790011000001,None,1017.8943555700001,None,1017.8943555700001,None,1017.8943555700001,None,0.01088456999968912,None,1017.8943555700001,None,1017.8943555700001,None,1017.8943555700001,None,1017.8943555700001,None,1017.8943555700001,None,1017.8943555700001,None,1017.9022015999999,None,1017.9022015999999,None,1017.9022015999999,None,0.0044266699987929314,0.5044266699987929,1017.9022015999999,None,1017.9022015999999,None,1017.9022015999999,None,1017.9022015999999,None,1017.9022015999999,None,1017.9022015999999,None,1019.8937527999997,1019.8937527999997,50.0,2.421,-100,-100,300,,,,,,,,,,,,,,,,,,,,,,,,,,,,,,,,,,,,,,,,,,,,,,,,,,,,,,,,,,,,,,,,,,,,,,,,,,,,,,,,,,,f,22,fuyao,2022-04-02_10h43.37.688,emotion,2022.1.2,60.02044296306862,
11,200,50,0,two,200,50,0,,,,,0,84,84,10,,,,,,,,,,,right,1.3625278999998045,1022.3747585000001,None,1022.3747585000001,None,1023.7581380000001,None,1023.7581380000001,None,1023.7581380000001,None,1025.7410242999995,1026.2405755,1025.7410242999995,1026.2405755,1025.7410242999995,1026.2405755,1023.7581380000001,None,1026.25725637,None,1026.25725637,None,1026.25725637,None,0.010430570000607986,None,1026.25725637,None,1026.25725637,None,1026.25725637,None,1026.25725637,None,1026.25725637,None,1026.25725637,None,1026.2661207,None,1026.2661207,None,1026.2661207,None,0.002162569999200059,0.5021625699992001,1026.2661207,None,1026.2661207,None,1026.2661207,None,1026.2661207,None,1026.2661207,None,1026.2661207,None,1028.2565860999994,1028.2565860999994,50.0,2.55,100,-50,300,,,,,,,,,,,,,,,,,,,,,,,,,,,,,,,,,,,,,,,,,,,,,,,,,,,,,,,,,,,,,,,,,,,,,,,,,,,,,,,,,,,f,22,fuyao,2022-04-02_10h43.37.688,emotion,2022.1.2,60.02044296306862,
53,-200,-50,0,one,-200,-50,0,,,,,0,85,85,52,,,,,,,,,,,right,1.3262479000004532,1030.8561170000003,None,1030.8561170000003,None,1032.2045618000002,None,1032.2045618000002,None,1032.2045618000002,None,1034.1870864000002,1034.6866426999995,1034.1870864000002,1034.6866426999995,1034.1870864000002,1034.6866426999995,1032.2045618000002,None,1034.7201784699996,None,1034.7201784699996,None,1034.7201784699996,None,0.010911669999586593,None,1034.7201784699996,None,1034.7201784699996,None,1034.7201784699996,None,1034.7201784699996,None,1034.7201784699996,None,1034.7201784699996,None,1034.7283097999998,None,1034.7283097999998,None,1034.7283097999998,None,0.00446326999917801,0.504463269999178,1034.7283097999998,None,1034.7283097999998,None,1034.7283097999998,None,1034.7283097999998,None,1034.7283097999998,None,1034.7283097999998,None,1036.7189560999996,1036.7189560999996,-24.8,3.481,-100,-100,300,,,,,,,,,,,,,,,,,,,,,,,,,,,,,,,,,,,,,,,,,,,,,,,,,,,,,,,,,,,,,,,,,,,,,,,,,,,,,,,,,,,f,22,fuyao,2022-04-02_10h43.37.688,emotion,2022.1.2,60.02044296306862,
78,-50,-50,0,one,-50,-50,0,,,,,0,86,86,77,,,,,,,,,,,right,1.2312397000005149,1040.2508306999998,None,1040.2508306999998,None,1041.5004320999997,None,1041.5004320999997,None,1041.5004320999997,None,1043.4828363999995,1043.9826009999997,1043.4828363999995,1043.9826009999997,1043.4828363999995,1043.9826009999997,1041.5004320999997,None,1044.0161376700003,None,1044.0161376700003,None,1044.0161376700003,None,0.01075617000060447,None,1044.0161376700003,None,1044.0161376700003,None,1044.0161376700003,None,1044.0161376700003,None,1044.0161376700003,None,1044.0161376700003,None,1044.0242072,None,1044.0242072,None,1044.0242072,None,0.004101570001694199,0.5041015700016942,1044.0242072,None,1044.0242072,None,1044.0242072,None,1044.0242072,None,1044.0242072,None,1044.0242072,None,1046.0147478999997,1046.0147478999997,0.5,6.348,-150,-150,300,,,,,,,,,,,,,,,,,,,,,,,,,,,,,,,,,,,,,,,,,,,,,,,,,,,,,,,,,,,,,,,,,,,,,,,,,,,,,,,,,,,f,22,fuyao,2022-04-02_10h43.37.688,emotion,2022.1.2,60.02044296306862,
64,0,0,-200,one,0,0,-200,,,,,0,87,87,63,,,,,,,,,,,right,1.2787796000002345,1052.4121739000002,None,1052.4121739000002,None,1053.7116141999995,None,1053.7116141999995,None,1053.7116141999995,None,1055.6939978,1056.1937933,1055.6939978,1056.1937933,1055.6939978,1056.1937933,1053.7116141999995,None,1056.2270837700003,None,1056.2270837700003,None,1056.2270837700003,None,0.01084326999989571,None,1056.2270837700003,None,1056.2270837700003,None,1056.2270837700003,None,1056.2270837700003,None,1056.2270837700003,None,1056.2270837700003,None,1056.2346559999996,None,1056.2346559999996,None,1056.2346559999996,None,0.00432647000070574,0.5043264700007057,1056.2346559999996,None,1056.2346559999996,None,1056.2346559999996,None,1056.2346559999996,None,1056.2346559999996,None,1056.2346559999996,None,1058.2262239000002,1058.2262239000002,50.0,3.523,-150,-150,100,,,,,,,,,,,,,,,,,,,,,,,,,,,,,,,,,,,,,,,,,,,,,,,,,,,,,,,,,,,,,,,,,,,,,,,,,,,,,,,,,,,f,22,fuyao,2022-04-02_10h43.37.688,emotion,2022.1.2,60.02044296306862,
95,-200,-50,-200,two,-200,-50,-200,,,,,0,88,88,94,,,,,,,,,,,right,1.4637016999995467,1061.8063763,None,1061.8063763,None,1063.290161,None,1063.290161,None,1063.290161,None,1065.2727235000002,1065.7728480999995,1065.2727235000002,1065.7728480999995,1065.2727235000002,1065.7728480999995,1063.290161,None,1065.7895289699995,None,1065.7895289699995,None,1065.7895289699995,None,0.010286270000506192,None,1065.7895289699995,None,1065.7895289699995,None,1065.7895289699995,None,1065.7895289699995,None,1065.7895289699995,None,1065.7895289699995,None,1065.7987121999995,None,1065.7987121999995,None,1065.7987121999995,None,0.0027928700001211837,0.5027928700001212,1065.7987121999995,None,1065.7987121999995,None,1065.7987121999995,None,1065.7987121999995,None,1065.7987121999995,None,1065.7987121999995,None,1067.7885482000002,1067.7885482000002,-0.20000000000000284,4.617,-350,-200,-100,,,,,,,,,,,,,,,,,,,,,,,,,,,,,,,,,,,,,,,,,,,,,,,,,,,,,,,,,,,,,,,,,,,,,,,,,,,,,,,,,,,f,22,fuyao,2022-04-02_10h43.37.688,emotion,2022.1.2,60.02044296306862,
83,-50,0,-50,two,-50,0,-50,,,,,0,89,89,82,,,,,,,,,,,right,1.3228619000001345,1072.4681603999998,None,1072.4681603999998,None,1073.8190800000002,None,1073.8190800000002,None,1073.8190800000002,None,1075.8014917,1076.3014242999998,1075.8014917,1076.3014242999998,1075.8014917,1076.3014242999998,1073.8190800000002,None,1076.3181051699999,None,1076.3181051699999,None,1076.3181051699999,None,0.010354470000493166,None,1076.3181051699999,None,1076.3181051699999,None,1076.3181051699999,None,1076.3181051699999,None,1076.3181051699999,None,1076.3181051699999,None,1076.3266385999996,None,1076.3266385999996,None,1076.3266385999996,None,0.0028998699999647215,0.5028998699999647,1076.3266385999996,None,1076.3266385999996,None,1076.3266385999996,None,1076.3266385999996,None,1076.3266385999996,None,1076.3266385999996,None,1078.3168448999995,1078.3168448999995,-0.10000000000000142,1.887,-400,-200,-150,,,,,,,,,,,,,,,,,,,,,,,,,,,,,,,,,,,,,,,,,,,,,,,,,,,,,,,,,,,,,,,,,,,,,,,,,,,,,,,,,,,f,22,fuyao,2022-04-02_10h43.37.688,emotion,2022.1.2,60.02044296306862,
44,200,0,200,two,200,0,200,,,,,0,90,90,43,,,,,,,,,,,right,1.039375100000143,1080.2652673000002,None,1080.2652673000002,None,1081.3324678,None,1081.3324678,None,1081.3324678,None,1083.3146345999994,1083.8146357999995,1083.3146345999994,1083.8146357999995,1083.3146345999994,1083.8146357999995,1081.3324678,None,1083.8477089699995,None,1083.8477089699995,None,1083.8477089699995,None,0.010824869998941722,None,1083.8477089699995,None,1083.8477089699995,None,1083.8477089699995,None,1083.8477089699995,None,1083.8477089699995,None,1083.8477089699995,None,1083.8558710999996,None,1083.8558710999996,None,1083.8558710999996,None,0.00407617000018945,0.5040761700001894,1083.8558710999996,None,1083.8558710999996,None,1083.8558710999996,None,1083.8558710999996,None,1083.8558710999996,None,1083.8558710999996,None,1085.8469315000002,1085.8469315000002,50.0,2.61,-200,-200,50,,,,,,,,,,,,,,,,,,,,,,,,,,,,,,,,,,,,,,,,,,,,,,,,,,,,,,,,,,,,,,,,,,,,,,,,,,,,,,,,,,,f,22,fuyao,2022-04-02_10h43.37.688,emotion,2022.1.2,60.02044296306862,
18,200,0,0,one,200,0,0,,,,,0,91,91,17,,,,,,,,,,,right,2.095353200000318,1088.5124839,None,1088.5124839,None,1090.6280664999995,None,1090.6280664999995,None,1090.6280664999995,None,1092.6103652000002,1093.1102443999998,1092.6103652000002,1093.1102443999998,1092.6103652000002,1093.1102443999998,1090.6280664999995,None,1093.1437515699995,None,1093.1437515699995,None,1093.1437515699995,None,0.010671269999875221,None,1093.1437515699995,None,1093.1437515699995,None,1093.1437515699995,None,1093.1437515699995,None,1093.1437515699995,None,1093.1437515699995,None,1093.1516837999998,None,1093.1516837999998,None,1093.1516837999998,None,0.004347269999925629,0.5043472699999256,1093.1516837999998,None,1093.1516837999998,None,1093.1516837999998,None,1093.1516837999998,None,1093.1516837999998,None,1093.1516837999998,None,1095.1428347,1095.1428347,50.0,2.659,0,-200,50,,,,,,,,,,,,,,,,,,,,,,,,,,,,,,,,,,,,,,,,,,,,,,,,,,,,,,,,,,,,,,,,,,,,,,,,,,,,,,,,,,,f,22,fuyao,2022-04-02_10h43.37.688,emotion,2022.1.2,60.02044296306862,
67,0,0,-50,two,0,0,-50,,,,,0,92,92,66,,,,,,,,,,,right,1.3599184000004243,1097.8579278999996,None,1097.8579278999996,None,1099.2408410999997,None,1099.2408410999997,None,1099.2408410999997,None,1101.2230792,1101.7231697999996,1101.2230792,1101.7231697999996,1101.2230792,1101.7231697999996,1099.2408410999997,None,1101.7398506699997,None,1101.7398506699997,None,1101.7398506699997,None,0.010578770000392979,None,1101.7398506699997,None,1101.7398506699997,None,1101.7398506699997,None,1101.7398506699997,None,1101.7398506699997,None,1101.7398506699997,None,1101.7480152999997,None,1101.7480152999997,None,1101.7480152999997,None,0.004283469999791123,0.5042834699997911,1101.7480152999997,None,1101.7480152999997,None,1101.7480152999997,None,1101.7480152999997,None,1101.7480152999997,None,1101.7480152999997,None,1103.7386012999996,1103.7386012999996,50.0,3.007,0,-200,0,,,,,,,,,,,,,,,,,,,,,,,,,,,,,,,,,,,,,,,,,,,,,,,,,,,,,,,,,,,,,,,,,,,,,,,,,,,,,,,,,,,f,22,fuyao,2022-04-02_10h43.37.688,emotion,2022.1.2,60.02044296306862,
14,0,50,0,one,0,50,0,,,,,0,93,93,13,,,,,,,,,,,right,1.5096830000002228,1106.8026982000001,None,1106.8026982000001,None,1108.3365414999998,None,1108.3365414999998,None,1108.3365414999998,None,1110.3188123,1110.8189582999994,1110.3188123,1110.8189582999994,1110.3188123,1110.8189582999994,1108.3365414999998,None,1110.8356391699995,None,1110.8356391699995,None,1110.8356391699995,None,0.010450869999658607,None,1110.8356391699995,None,1110.8356391699995,None,1110.8356391699995,None,1110.8356391699995,None,1110.8356391699995,None,1110.8356391699995,None,1110.8440466000002,None,1110.8440466000002,None,1110.8440466000002,None,0.004090170000381477,0.5040901700003815,1110.8440466000002,None,1110.8440466000002,None,1110.8440466000002,None,1110.8440466000002,None,1110.8440466000002,None,1110.8440466000002,None,1112.8346763999998,1112.8346763999998,25.0,4.641,0,-150,0,,,,,,,,,,,,,,,,,,,,,,,,,,,,,,,,,,,,,,,,,,,,,,,,,,,,,,,,,,,,,,,,,,,,,,,,,,,,,,,,,,,f,22,fuyao,2022-04-02_10h43.37.688,emotion,2022.1.2,60.02044296306862,
76,0,-50,-50,one,0,-50,-50,,,,,0,94,94,75,,,,,,,,,,,right,1.1535674999995535,1117.5323923999995,None,1117.5323923999995,None,1118.7149858000002,None,1118.7149858000002,None,1118.7149858000002,None,1120.6978062999997,1121.1974585999997,1120.6978062999997,1121.1974585999997,1120.6978062999997,1121.1974585999997,1118.7149858000002,None,1121.2141394699997,None,1121.2141394699997,None,1121.2141394699997,None,0.010417269999379641,None,1121.2141394699997,None,1121.2141394699997,None,1121.2141394699997,None,1121.2141394699997,None,1121.2141394699997,None,1121.2141394699997,None,1121.2227230999997,None,1121.2227230999997,None,1121.2227230999997,None,0.0032572700001765043,0.5032572700001765,1121.2227230999997,None,1121.2227230999997,None,1121.2227230999997,None,1121.2227230999997,None,1121.2227230999997,None,1121.2227230999997,None,1123.2132547,1123.2132547,50.0,2.461,0,-200,-50,,,,,,,,,,,,,,,,,,,,,,,,,,,,,,,,,,,,,,,,,,,,,,,,,,,,,,,,,,,,,,,,,,,,,,,,,,,,,,,,,,,f,22,fuyao,2022-04-02_10h43.37.688,emotion,2022.1.2,60.02044296306862,
40,200,200,50,one,200,200,50,,,,,0,95,95,39,,,,,,,,,,,right,1.3984265000008236,1125.7289516,None,1125.7289516,None,1127.1444628,None,1127.1444628,None,1127.1444628,None,1129.1273204999998,1129.6271869000002,1129.1273204999998,1129.6271869000002,1129.1273204999998,1129.6271869000002,1127.1444628,None,1129.6438677700003,None,1129.6438677700003,None,1129.6438677700003,None,0.010398870001154137,None,1129.6438677700003,None,1129.6438677700003,None,1129.6438677700003,None,1129.6438677700003,None,1129.6438677700003,None,1129.6438677700003,None,1129.6521480000001,None,1129.6521480000001,None,1129.6521480000001,None,0.0036106700008531334,0.5036106700008531,1129.6521480000001,None,1129.6521480000001,None,1129.6521480000001,None,1129.6521480000001,None,1129.6521480000001,None,1129.6521480000001,None,1131.6430135,1131.6430135,50.0,2.565,200,0,0,,,,,,,,,,,,,,,,,,,,,,,,,,,,,,,,,,,,,,,,,,,,,,,,,,,,,,,,,,,,,,,,,,,,,,,,,,,,,,,,,,,f,22,fuyao,2022-04-02_10h43.37.688,emotion,2022.1.2,60.02044296306862,
