trialNumber,mychoice,otherchoice,stay,skip,pointsWon,otherScore,unobtained,choicepos,pos_1,otherscore,allowedkeyresp,trials_2.thisRepN,trials_2.thisTrialN,trials_2.thisN,trials_2.thisIndex,trials.thisRepN,trials.thisTrialN,trials.thisN,trials.thisIndex,image_2.started,image_2.stopped,key_resp_2.keys,key_resp_2.rt,key_resp_2.started,key_resp_2.stopped,key_resp_6.keys,key_resp_6.rt,key_resp_6.started,key_resp_6.stopped,text.started,text.stopped,left_3.started,left_3.stopped,middle_3.started,middle_3.stopped,right_3.started,right_3.stopped,otherleft_1.started,otherleft_1.stopped,othermiddle_1.started,othermiddle_1.stopped,otherright_1.started,otherright_1.stopped,text_2.started,text_2.stopped,left_4.started,left_4.stopped,right_4.started,right_4.stopped,middle_4.started,middle_4.stopped,ISI_3.started,ISI_3.stopped,mypick.started,mypick.stopped,otherpick.started,otherpick.stopped,residal.started,residal.stopped,otherleft_5.started,otherleft_5.stopped,othermiddle_5.started,othermiddle_5.stopped,otherright_5.started,otherright_5.stopped,left_5.started,left_5.stopped,right_5.started,right_5.stopped,middle_5.started,middle_5.stopped,ISI_5.started,ISI_5.stopped,mypick_1.started,mypick_1.stopped,otherpick_1.started,otherpick_1.stopped,residal_1.started,residal_1.stopped,otherleft_6.started,otherleft_6.stopped,othermiddle_6.started,othermiddle_6.stopped,otherright_6.started,otherright_6.stopped,text_3.started,text_3.stopped,rating,ratingrt,totalScore,othertotalScore,unobtainedScore,image_4.started,image_4.stopped,key_resp_3.keys,key_resp_3.rt,key_resp_3.started,key_resp_3.stopped,image_5.started,image_5.stopped,key_resp.keys,key_resp.rt,key_resp.started,key_resp.stopped,otherleft_3.started,otherleft_3.stopped,othermiddle_3.started,othermiddle_3.stopped,otherright_3.started,otherright_3.stopped,text_4.started,text_4.stopped,ISI_2.started,ISI_2.stopped,key_resp_4.keys,key_resp_4.rt,key_resp_4.started,key_resp_4.stopped,otherleft_4.started,otherleft_4.stopped,othermiddle_4.started,othermiddle_4.stopped,otherright_4.started,otherright_4.stopped,text_5.started,text_5.stopped,left.started,left.stopped,right.started,right.stopped,middle.started,middle.stopped,ISI.started,ISI.stopped,mypick_3.started,mypick_3.stopped,otherpick_3.started,otherpick_3.stopped,residal_3.started,residal_3.stopped,otherleft.started,otherleft.stopped,othermiddle.started,othermiddle.stopped,otherright.started,otherright.stopped,right_2.started,right_2.stopped,middle_2.started,middle_2.stopped,left_2.started,left_2.stopped,ISI_4.started,ISI_4.stopped,mypick_4.started,mypick_4.stopped,otherpick_4.started,otherpick_4.stopped,residal_4.started,residal_4.stopped,otherleft_2.started,otherleft_2.stopped,othermiddle_2.started,othermiddle_2.stopped,otherright_2.started,otherright_2.stopped,text_6.started,text_6.stopped,image_3.started,image_3.stopped,key_resp_9.keys,key_resp_9.rt,key_resp_9.started,key_resp_9.stopped,gender,age,participant,date,expName,psychopyVersion,frameRate,
,,,,,,,,,,,,,,,,,,,,32.23536880000029,None,space,10.348723200000677,32.23536880000029,None,,,,,,,,,,,,,,,,,,,,,,,,,,,,,,,,,,,,,,,,,,,,,,,,,,,,,,,,,,,,,,,,,,,,,,,,,,,,,,,,,,,,,,,,,,,,,,,,,,,,,,,,,,,,,,,,,,,,,,,,,,,,,,,,,,,,,,,,,,,,,,,,,,,,,,f,25,gululu,2022-04-02_16h34.58.466,emotion,2022.1.2,60.129940800997765,
55,0,-50,-200,two,0,-50,-200,,,,,0,0,0,54,,,,,,,,,,,left,1.472624399997585,42.65935759999775,None,42.65935759999775,None,44.14867629999935,None,44.14867629999935,None,44.14867629999935,None,46.13099959999818,46.63071299999865,46.13099959999818,46.63071299999865,46.13099959999818,46.63071299999865,44.14867629999935,None,46.66388280999818,None,46.66388280999818,None,46.66388280999818,None,0.0007117099958122708,None,46.66388280999818,None,46.66388280999818,None,46.66388280999818,None,46.66388280999818,None,46.66388280999818,None,46.66388280999818,None,46.68401509999967,None,46.68401509999967,None,46.68401509999967,None,0.00857492000068305,0.508574920000683,46.68401509999967,None,46.68401509999967,None,46.68401509999967,None,46.68401509999967,None,46.68401509999967,None,46.68401509999967,None,48.663306399997964,48.663306399997964,35.599999999999994,3.809,200,-50,-200,,,,,,,,,,,,,,,,,,,,,,,,,,,,,,,,,,,,,,,,,,,,,,,,,,,,,,,,,,,,,,,,,,,,,,,,,,,,,,,,,,,f,25,gululu,2022-04-02_16h34.58.466,emotion,2022.1.2,60.129940800997765,
33,50,50,200,two,50,50,200,,,,,0,1,1,32,,,,,,,,,,,right,1.666715600000316,52.5785661000009,None,52.5785661000009,None,54.27726830000029,None,54.27726830000029,None,54.27726830000029,None,56.25974280000082,56.75928389999899,56.25974280000082,56.75928389999899,56.25974280000082,56.75928389999899,54.27726830000029,None,56.79252390999827,None,56.79252390999827,None,56.79252390999827,None,0.005207109996263171,None,56.79252390999827,None,56.79252390999827,None,56.79252390999827,None,56.79252390999827,None,56.79252390999827,None,56.79252390999827,None,56.806599199997436,None,56.806599199997436,None,56.806599199997436,None,0.013724919997912366,0.5137249199979124,56.806599199997436,None,56.806599199997436,None,56.806599199997436,None,56.806599199997436,None,56.806599199997436,None,56.806599199997436,None,58.79167899999811,58.79167899999811,0.20000000000000284,2.78,250,0,0,,,,,,,,,,,,,,,,,,,,,,,,,,,,,,,,,,,,,,,,,,,,,,,,,,,,,,,,,,,,,,,,,,,,,,,,,,,,,,,,,,,f,25,gululu,2022-04-02_16h34.58.466,emotion,2022.1.2,60.129940800997765,
24,200,0,0,two,200,0,0,,,,,0,2,2,23,,,,,,,,,,,down,1.805194600001414,61.640534999998636,None,61.640534999998636,None,63.473252600000706,None,63.473252600000706,None,63.473252600000706,None,65.45538970000052,65.95522290000008,65.45538970000052,65.95522290000008,65.45538970000052,65.95522290000008,63.473252600000706,None,65.98872650999837,None,65.98872650999837,None,65.98872650999837,None,0.010742009995738044,None,65.98872650999837,None,65.98872650999837,None,65.98872650999837,None,65.98872650999837,None,65.98872650999837,None,65.98872650999837,None,65.99720779999916,None,65.99720779999916,None,65.99720779999916,None,0.0037926100012555253,0.5037926100012555,65.99720779999916,None,65.99720779999916,None,65.99720779999916,None,65.99720779999916,None,65.99720779999916,None,65.99720779999916,None,67.98768679999921,67.98768679999921,35.400000000000006,3.24,450,0,0,,,,,,,,,,,,,,,,,,,,,,,,,,,,,,,,,,,,,,,,,,,,,,,,,,,,,,,,,,,,,,,,,,,,,,,,,,,,,,,,,,,f,25,gululu,2022-04-02_16h34.58.466,emotion,2022.1.2,60.129940800997765,
13,0,0,50,one,0,0,50,,,,,0,3,3,12,,,,,,,,,,,right,1.427836799997749,71.2860714999988,None,71.2860714999988,None,72.7351325999989,None,72.7351325999989,None,72.7351325999989,None,74.71765349999987,75.21788620000007,74.71765349999987,75.21788620000007,74.71765349999987,75.21788620000007,72.7351325999989,None,75.23453810999999,None,75.23453810999999,None,75.23453810999999,None,0.010393209999165265,None,75.23453810999999,None,75.23453810999999,None,75.23453810999999,None,75.23453810999999,None,75.23453810999999,None,75.23453810999999,None,75.24325549999776,None,75.24325549999776,None,75.24325549999776,None,0.0033168100017064717,0.5033168100017065,75.24325549999776,None,75.24325549999776,None,75.24325549999776,None,75.24325549999776,None,75.24325549999776,None,75.24325549999776,None,77.23335840000072,77.23335840000072,4.299999999999997,3.702,450,0,50,,,,,,,,,,,,,,,,,,,,,,,,,,,,,,,,,,,,,,,,,,,,,,,,,,,,,,,,,,,,,,,,,,,,,,,,,,,,,,,,,,,f,25,gululu,2022-04-02_16h34.58.466,emotion,2022.1.2,60.129940800997765,
45,0,200,200,two,0,200,200,,,,,0,4,4,44,,,,,,,,,,,left,1.3525936000005458,80.99720309999975,None,80.99720309999975,None,82.38095469999826,None,82.38095469999826,None,82.38095469999826,None,84.36326719999852,84.863196899998,84.36326719999852,84.863196899998,84.36326719999852,84.863196899998,82.38095469999826,None,84.89649770999821,None,84.89649770999821,None,84.89649770999821,None,0.010581409998849267,None,84.89649770999821,None,84.89649770999821,None,84.89649770999821,None,84.89649770999821,None,84.89649770999821,None,84.89649770999821,None,84.90475460000016,None,84.90475460000016,None,84.90475460000016,None,0.004044609999255044,0.504044609999255,84.90475460000016,None,84.90475460000016,None,84.90475460000016,None,84.90475460000016,None,84.90475460000016,None,84.90475460000016,None,86.89584259999901,86.89584259999901,-15.5,2.3,450,200,250,,,,,,,,,,,,,,,,,,,,,,,,,,,,,,,,,,,,,,,,,,,,,,,,,,,,,,,,,,,,,,,,,,,,,,,,,,,,,,,,,,,f,25,gululu,2022-04-02_16h34.58.466,emotion,2022.1.2,60.129940800997765,
71,0,-200,0,two,0,-200,0,,,,,0,5,5,70,,,,,,,,,,,down,1.1018089999997756,89.24544139999853,None,89.24544139999853,None,90.3774126999997,None,90.3774126999997,None,90.3774126999997,None,92.3599979999999,92.8596323999991,92.3599979999999,92.8596323999991,92.3599979999999,92.8596323999991,90.3774126999997,None,92.89289271000015,None,92.89289271000015,None,92.89289271000015,None,0.009734709998156177,None,92.89289271000015,None,92.89289271000015,None,92.89289271000015,None,92.89289271000015,None,92.89289271000015,None,92.89289271000015,None,92.90265509999881,None,92.90265509999881,None,92.90265509999881,None,0.001866110000264598,0.5018661100002646,92.90265509999881,None,92.90265509999881,None,92.90265509999881,None,92.90265509999881,None,92.90265509999881,None,92.90265509999881,None,94.89224749999994,94.89224749999994,24.0,1.977,450,0,250,,,,,,,,,,,,,,,,,,,,,,,,,,,,,,,,,,,,,,,,,,,,,,,,,,,,,,,,,,,,,,,,,,,,,,,,,,,,,,,,,,,f,25,gululu,2022-04-02_16h34.58.466,emotion,2022.1.2,60.129940800997765,
49,0,-50,-200,one,0,-50,-200,,,,,0,6,6,48,,,,,,,,,,,down,2.5800211999994644,96.92431209999995,None,96.92431209999995,None,99.52318039999955,None,99.52318039999955,None,99.52318039999955,None,101.50577209999756,102.0055042999993,101.50577209999756,102.0055042999993,101.50577209999756,102.0055042999993,99.52318039999955,None,102.0388286100002,None,102.0388286100002,None,102.0388286100002,None,0.010690910003177123,None,102.0388286100002,None,102.0388286100002,None,102.0388286100002,None,102.0388286100002,None,102.0388286100002,None,102.0388286100002,None,102.04768559999866,None,102.04768559999866,None,102.04768559999866,None,0.003311309999844525,0.5033113099998445,102.04768559999866,None,102.04768559999866,None,102.04768559999866,None,102.04768559999866,None,102.04768559999866,None,102.04768559999866,None,104.0380370999992,104.0380370999992,18.799999999999997,1.5,450,-50,50,,,,,,,,,,,,,,,,,,,,,,,,,,,,,,,,,,,,,,,,,,,,,,,,,,,,,,,,,,,,,,,,,,,,,,,,,,,,,,,,,,,f,25,gululu,2022-04-02_16h34.58.466,emotion,2022.1.2,60.129940800997765,
70,0,0,-200,two,0,0,-200,,,,,0,7,7,69,,,,,,,,,,,right,0.9786693000023661,105.60288389999914,None,105.60288389999914,None,106.6034765000004,None,106.6034765000004,None,106.6034765000004,None,108.58595670000068,109.08557149999979,108.58595670000068,109.08557149999979,108.58595670000068,109.08557149999979,106.6034765000004,None,109.11906710999901,None,109.11906710999901,None,109.11906710999901,None,0.010695810000470374,None,109.11906710999901,None,109.11906710999901,None,109.11906710999901,None,109.11906710999901,None,109.11906710999901,None,109.11906710999901,None,109.12808650000079,None,109.12808650000079,None,109.12808650000079,None,0.004066409997903975,0.504066409997904,109.12808650000079,None,109.12808650000079,None,109.12808650000079,None,109.12808650000079,None,109.12808650000079,None,109.12808650000079,None,111.11806109999816,111.11806109999816,0.8999999999999986,1.799,450,-50,-150,,,,,,,,,,,,,,,,,,,,,,,,,,,,,,,,,,,,,,,,,,,,,,,,,,,,,,,,,,,,,,,,,,,,,,,,,,,,,,,,,,,f,25,gululu,2022-04-02_16h34.58.466,emotion,2022.1.2,60.129940800997765,
67,0,0,-50,two,0,0,-50,,,,,0,8,8,66,,,,,,,,,,,left,1.6822800999980245,112.96755499999927,None,112.96755499999927,None,114.66607309999745,None,114.66607309999745,None,114.66607309999745,None,116.64882120000038,117.14876989999902,116.64882120000038,117.14876989999902,116.64882120000038,117.14876989999902,114.66607309999745,None,117.16542180999895,None,117.16542180999895,None,117.16542180999895,None,0.009851109996816376,None,117.16542180999895,None,117.16542180999895,None,117.16542180999895,None,117.16542180999895,None,117.16542180999895,None,117.16542180999895,None,117.17499150000003,None,117.17499150000003,None,117.17499150000003,None,0.0019971100009570364,0.501997110000957,117.17499150000003,None,117.17499150000003,None,117.17499150000003,None,117.17499150000003,None,117.17499150000003,None,117.17499150000003,None,119.16448490000039,119.16448490000039,0.10000000000000142,1.39,450,-50,-200,,,,,,,,,,,,,,,,,,,,,,,,,,,,,,,,,,,,,,,,,,,,,,,,,,,,,,,,,,,,,,,,,,,,,,,,,,,,,,,,,,,f,25,gululu,2022-04-02_16h34.58.466,emotion,2022.1.2,60.129940800997765,
57,-50,0,-200,two,-50,0,-200,,,,,0,9,9,56,,,,,,,,,,,down,1.3616383999979007,120.61255919999894,None,120.61255919999894,None,121.99639639999805,None,121.99639639999805,None,121.99639639999805,None,123.97892180000053,124.47876809999798,123.97892180000053,124.47876809999798,123.97892180000053,124.47876809999798,121.99639639999805,None,124.4954200099979,None,124.4954200099979,None,124.4954200099979,None,0.009742509999341564,None,124.4954200099979,None,124.4954200099979,None,124.4954200099979,None,124.4954200099979,None,124.4954200099979,None,124.4954200099979,None,124.50496489999932,None,124.50496489999932,None,124.50496489999932,None,0.001893309996376047,0.501893309996376,124.50496489999932,None,124.50496489999932,None,124.50496489999932,None,124.50496489999932,None,124.50496489999932,None,124.50496489999932,None,126.49420900000041,126.49420900000041,-19.7,1.706,400,-50,-400,,,,,,,,,,,,,,,,,,,,,,,,,,,,,,,,,,,,,,,,,,,,,,,,,,,,,,,,,,,,,,,,,,,,,,,,,,,,,,,,,,,f,25,gululu,2022-04-02_16h34.58.466,emotion,2022.1.2,60.129940800997765,
42,50,200,200,one,50,200,200,,,,,0,10,10,41,,,,,,,,,,,right,1.009536699999444,128.26021919999766,None,128.26021919999766,None,129.2932037999999,None,129.2932037999999,None,129.2932037999999,None,131.27572979999968,131.77527220000047,131.27572979999968,131.77527220000047,131.27572979999968,131.77527220000047,129.2932037999999,None,131.8085824099995,None,131.8085824099995,None,131.8085824099995,None,0.010242609998385888,None,131.8085824099995,None,131.8085824099995,None,131.8085824099995,None,131.8085824099995,None,131.8085824099995,None,131.8085824099995,None,131.81805489999897,None,131.81805489999897,None,131.81805489999897,None,0.002392410002357792,0.5023924100023578,131.81805489999897,None,131.81805489999897,None,131.81805489999897,None,131.81805489999897,None,131.81805489999897,None,131.81805489999897,None,133.8078351999975,133.8078351999975,-17.9,1.787,450,150,-200,,,,,,,,,,,,,,,,,,,,,,,,,,,,,,,,,,,,,,,,,,,,,,,,,,,,,,,,,,,,,,,,,,,,,,,,,,,,,,,,,,,f,25,gululu,2022-04-02_16h34.58.466,emotion,2022.1.2,60.129940800997765,
94,-200,-200,-50,two,-200,-200,-50,,,,,0,11,11,93,,,,,,,,,,,down,0.9165920000014012,135.655759199999,None,135.655759199999,None,136.58995539999887,None,136.58995539999887,None,136.58995539999887,None,138.57218899999862,139.0719618999974,138.57218899999862,139.0719618999974,138.57218899999862,139.0719618999974,136.58995539999887,None,139.10508540999726,None,139.10508540999726,None,139.10508540999726,None,0.010611210000206484,None,139.10508540999726,None,139.10508540999726,None,139.10508540999726,None,139.10508540999726,None,139.10508540999726,None,139.10508540999726,None,139.11328660000072,None,139.11328660000072,None,139.11328660000072,None,0.0038597099992330186,0.503859709999233,139.11328660000072,None,139.11328660000072,None,139.11328660000072,None,139.11328660000072,None,139.11328660000072,None,139.11328660000072,None,141.1044918000007,141.1044918000007,-21.9,2.385,250,-50,-250,,,,,,,,,,,,,,,,,,,,,,,,,,,,,,,,,,,,,,,,,,,,,,,,,,,,,,,,,,,,,,,,,,,,,,,,,,,,,,,,,,,f,25,gululu,2022-04-02_16h34.58.466,emotion,2022.1.2,60.129940800997765,
18,200,0,0,one,200,0,0,,,,,0,12,12,17,,,,,,,,,,,right,0.9274574000010034,143.55206069999986,None,143.55206069999986,None,144.50265220000074,None,144.50265220000074,None,144.50265220000074,None,146.4853946000003,146.98510709999755,146.4853946000003,146.98510709999755,146.4853946000003,146.98510709999755,144.50265220000074,None,147.00175900999747,None,147.00175900999747,None,147.00175900999747,None,0.010301209997123806,None,147.00175900999747,None,147.00175900999747,None,147.00175900999747,None,147.00175900999747,None,147.00175900999747,None,147.00175900999747,None,147.01086700000087,None,147.01086700000087,None,147.01086700000087,None,0.0024958099966170266,0.502495809996617,147.01086700000087,None,147.01086700000087,None,147.01086700000087,None,147.01086700000087,None,147.01086700000087,None,147.01086700000087,None,149.0010631999976,149.0010631999976,30.700000000000003,1.292,450,-50,-250,,,,,,,,,,,,,,,,,,,,,,,,,,,,,,,,,,,,,,,,,,,,,,,,,,,,,,,,,,,,,,,,,,,,,,,,,,,,,,,,,,,f,25,gululu,2022-04-02_16h34.58.466,emotion,2022.1.2,60.129940800997765,
15,50,0,0,one,50,0,0,,,,,0,13,13,14,,,,,,,,,,,down,1.1631859999979497,150.34989759999735,None,150.34989759999735,None,151.53311519999988,None,151.53311519999988,None,151.53311519999988,None,153.51539419999972,154.01536059999853,153.51539419999972,154.01536059999853,153.51539419999972,154.01536059999853,151.53311519999988,None,154.04832310999845,None,154.04832310999845,None,154.04832310999845,None,0.010738509998191148,None,154.04832310999845,None,154.04832310999845,None,154.04832310999845,None,154.04832310999845,None,154.04832310999845,None,154.04832310999845,None,154.05643910000072,None,154.05643910000072,None,154.05643910000072,None,0.004049809998832643,0.5040498099988326,154.05643910000072,None,154.05643910000072,None,154.05643910000072,None,154.05643910000072,None,154.05643910000072,None,154.05643910000072,None,156.04779249999774,156.04779249999774,33.599999999999994,1.096,500,-50,-250,,,,,,,,,,,,,,,,,,,,,,,,,,,,,,,,,,,,,,,,,,,,,,,,,,,,,,,,,,,,,,,,,,,,,,,,,,,,,,,,,,,f,25,gululu,2022-04-02_16h34.58.466,emotion,2022.1.2,60.129940800997765,
77,-50,0,-50,one,-50,0,-50,,,,,0,14,14,76,,,,,,,,,,,right,0.8829882999998517,157.19718400000056,None,157.19718400000056,None,158.09665889999815,None,158.09665889999815,None,158.09665889999815,None,160.07898379999824,160.57875839999906,160.07898379999824,160.57875839999906,160.07898379999824,160.57875839999906,158.09665889999815,None,160.61232950999837,None,160.61232950999837,None,160.61232950999837,None,0.010726010001235409,None,160.61232950999837,None,160.61232950999837,None,160.61232950999837,None,160.61232950999837,None,160.61232950999837,None,160.61232950999837,None,160.62047289999828,None,160.62047289999828,None,160.62047289999828,None,0.003966309999668738,0.5039663099996687,160.62047289999828,None,160.62047289999828,None,160.62047289999828,None,160.62047289999828,None,160.62047289999828,None,160.62047289999828,None,162.61102349999783,162.61102349999783,-29.1,1.145,450,-50,-300,,,,,,,,,,,,,,,,,,,,,,,,,,,,,,,,,,,,,,,,,,,,,,,,,,,,,,,,,,,,,,,,,,,,,,,,,,,,,,,,,,,f,25,gululu,2022-04-02_16h34.58.466,emotion,2022.1.2,60.129940800997765,
5,200,50,0,one,200,50,0,,,,,0,15,15,4,,,,,,,,,,,down,1.020419699998456,163.81056460000036,None,163.81056460000036,None,164.86002329999974,None,164.86002329999974,None,164.86002329999974,None,166.84247139999934,167.34202910000022,166.84247139999934,167.34202910000022,166.84247139999934,167.34202910000022,164.86002329999974,None,167.37555860999927,None,167.37555860999927,None,167.37555860999927,None,0.008179810000001453,None,167.37555860999927,None,167.37555860999927,None,167.37555860999927,None,167.37555860999927,None,167.37555860999927,None,167.37555860999927,None,167.3909653999981,None,167.3909653999981,None,167.3909653999981,None,0.013776119998510694,0.5137761199985107,167.3909653999981,None,167.3909653999981,None,167.3909653999981,None,167.3909653999981,None,167.3909653999981,None,167.3909653999981,None,169.3752547999975,169.3752547999975,34.400000000000006,1.163,650,0,-300,,,,,,,,,,,,,,,,,,,,,,,,,,,,,,,,,,,,,,,,,,,,,,,,,,,,,,,,,,,,,,,,,,,,,,,,,,,,,,,,,,,f,25,gululu,2022-04-02_16h34.58.466,emotion,2022.1.2,60.129940800997765,
6,200,0,50,one,200,0,50,,,,,0,16,16,5,,,,,,,,,,,right,0.8456476999999722,170.5906107999981,None,170.5906107999981,None,171.4574255999978,None,171.4574255999978,None,171.4574255999978,None,173.43987489999927,173.93928239999877,173.43987489999927,173.93928239999877,173.43987489999927,173.93928239999877,171.4574255999978,None,173.97275180999858,None,173.97275180999858,None,173.97275180999858,None,0.010816009995323839,None,173.97275180999858,None,173.97275180999858,None,173.97275180999858,None,173.97275180999858,None,173.97275180999858,None,173.97275180999858,None,173.98122109999895,None,173.98122109999895,None,173.98122109999895,None,0.004157009996561101,0.5041570099965611,173.98122109999895,None,173.98122109999895,None,173.98122109999895,None,173.98122109999895,None,173.98122109999895,None,173.98122109999895,None,175.97173499999917,175.97173499999917,43.400000000000006,2.619,850,0,-250,,,,,,,,,,,,,,,,,,,,,,,,,,,,,,,,,,,,,,,,,,,,,,,,,,,,,,,,,,,,,,,,,,,,,,,,,,,,,,,,,,,f,25,gululu,2022-04-02_16h34.58.466,emotion,2022.1.2,60.129940800997765,
20,0,50,0,two,0,50,0,,,,,0,17,17,19,,,,,,,,,,,down,0.9796382999993511,178.65286070000002,None,178.65286070000002,None,179.65351440000086,None,179.65351440000086,None,179.65351440000086,None,181.63620479999736,182.135827099999,181.63620479999736,182.135827099999,181.63620479999736,182.135827099999,179.65351440000086,None,182.1692426099995,None,182.1692426099995,None,182.1692426099995,None,0.010545809996983735,None,182.1692426099995,None,182.1692426099995,None,182.1692426099995,None,182.1692426099995,None,182.1692426099995,None,182.1692426099995,None,182.17832669999916,None,182.17832669999916,None,182.17832669999916,None,0.00313610999728553,0.5031361099972855,182.17832669999916,None,182.17832669999916,None,182.17832669999916,None,182.17832669999916,None,182.17832669999916,None,182.17832669999916,None,184.1680653000003,184.1680653000003,-22.0,1.222,850,50,-250,,,,,,,,,,,,,,,,,,,,,,,,,,,,,,,,,,,,,,,,,,,,,,,,,,,,,,,,,,,,,,,,,,,,,,,,,,,,,,,,,,,f,25,gululu,2022-04-02_16h34.58.466,emotion,2022.1.2,60.129940800997765,
50,0,-200,-50,one,0,-200,-50,,,,,0,18,18,49,,,,,,,,,,,right,1.0975988999998663,185.44961350000085,None,185.44961350000085,None,186.5671798000003,None,186.5671798000003,None,186.5671798000003,None,188.54955209999753,189.04927099999986,188.54955209999753,189.04927099999986,188.54955209999753,189.04927099999986,186.5671798000003,None,189.08260510999898,None,189.08260510999898,None,189.08260510999898,None,0.010424610001791734,None,189.08260510999898,None,189.08260510999898,None,189.08260510999898,None,189.08260510999898,None,189.08260510999898,None,189.08260510999898,None,189.0916666999983,None,189.0916666999983,None,189.0916666999983,None,0.002701309997064527,0.5027013099970645,189.0916666999983,None,189.0916666999983,None,189.0916666999983,None,189.0916666999983,None,189.0916666999983,None,189.0916666999983,None,191.08166290000008,191.08166290000008,36.900000000000006,1.456,850,-150,-300,,,,,,,,,,,,,,,,,,,,,,,,,,,,,,,,,,,,,,,,,,,,,,,,,,,,,,,,,,,,,,,,,,,,,,,,,,,,,,,,,,,f,25,gululu,2022-04-02_16h34.58.466,emotion,2022.1.2,60.129940800997765,
79,-200,-50,-50,two,-200,-50,-50,,,,,0,19,19,78,,,,,,,,,,,right,1.0495937000014237,192.59656499999983,None,192.59656499999983,None,193.66392699999778,None,193.66392699999778,None,193.66392699999778,None,195.64621070000067,196.1458907999986,195.64621070000067,196.1458907999986,195.64621070000067,196.1458907999986,193.66392699999778,None,196.1793763099973,None,196.1793763099973,None,196.1793763099973,None,0.010560909995547263,None,196.1793763099973,None,196.1793763099973,None,196.1793763099973,None,196.1793763099973,None,196.1793763099973,None,196.1793763099973,None,196.18765409999833,None,196.18765409999833,None,196.18765409999833,None,0.0038050099974498153,0.5038050099974498,196.18765409999833,None,196.18765409999833,None,196.18765409999833,None,196.18765409999833,None,196.18765409999833,None,196.18765409999833,None,198.1783226999978,198.1783226999978,-23.5,1.189,650,-200,-350,,,,,,,,,,,,,,,,,,,,,,,,,,,,,,,,,,,,,,,,,,,,,,,,,,,,,,,,,,,,,,,,,,,,,,,,,,,,,,,,,,,f,25,gululu,2022-04-02_16h34.58.466,emotion,2022.1.2,60.129940800997765,
81,-50,-50,-200,two,-50,-50,-200,,,,,0,20,20,80,,,,,,,,,,,down,0.821060899997974,199.42670639999778,None,199.42670639999778,None,200.27769429999898,None,200.27769429999898,None,200.27769429999898,None,202.26005369999984,202.7598450000005,202.26005369999984,202.7598450000005,202.26005369999984,202.7598450000005,200.27769429999898,None,202.79306800999765,None,202.79306800999765,None,202.79306800999765,None,0.010538709997490514,None,202.79306800999765,None,202.79306800999765,None,202.79306800999765,None,202.79306800999765,None,202.79306800999765,None,202.79306800999765,None,202.80176179999762,None,202.80176179999762,None,202.80176179999762,None,0.00368800999422092,0.5036880099942209,202.80176179999762,None,202.80176179999762,None,202.80176179999762,None,202.80176179999762,None,202.80176179999762,None,202.80176179999762,None,204.79211550000036,204.79211550000036,-0.10000000000000142,1.301,600,-250,-550,,,,,,,,,,,,,,,,,,,,,,,,,,,,,,,,,,,,,,,,,,,,,,,,,,,,,,,,,,,,,,,,,,,,,,,,,,,,,,,,,,,f,25,gululu,2022-04-02_16h34.58.466,emotion,2022.1.2,60.129940800997765,
68,0,-50,0,two,0,-50,0,,,,,0,21,21,67,,,,,,,,,,,left,1.2593546000025526,206.14211699999942,None,206.14211699999942,None,207.42425279999952,None,207.42425279999952,None,207.42425279999952,None,209.40662769999835,209.9064002999985,209.40662769999835,209.9064002999985,209.40662769999835,209.9064002999985,207.42425279999952,None,209.9396521100003,None,209.9396521100003,None,209.9396521100003,None,0.010614109996822663,None,209.9396521100003,None,209.9396521100003,None,209.9396521100003,None,209.9396521100003,None,209.9396521100003,None,209.9396521100003,None,209.9476681999986,None,209.9476681999986,None,209.9476681999986,None,0.0042622100008884445,0.5042622100008884,209.9476681999986,None,209.9476681999986,None,209.9476681999986,None,209.9476681999986,None,209.9476681999986,None,209.9476681999986,None,211.9388794999977,211.9388794999977,28.200000000000003,1.489,600,-300,-550,,,,,,,,,,,,,,,,,,,,,,,,,,,,,,,,,,,,,,,,,,,,,,,,,,,,,,,,,,,,,,,,,,,,,,,,,,,,,,,,,,,f,25,gululu,2022-04-02_16h34.58.466,emotion,2022.1.2,60.129940800997765,
47,200,50,200,two,200,50,200,,,,,0,22,22,46,,,,,,,,,,,down,0.8837911000009626,213.48661399999764,None,213.48661399999764,None,214.38767860000007,None,214.38767860000007,None,214.38767860000007,None,216.3702059999996,216.8697401999998,216.3702059999996,216.8697401999998,216.3702059999996,216.8697401999998,214.38767860000007,None,216.9033567099992,None,216.9033567099992,None,216.9033567099992,None,0.010170410001592245,None,216.9033567099992,None,216.9033567099992,None,216.9033567099992,None,216.9033567099992,None,216.9033567099992,None,216.9033567099992,None,216.91249349999998,None,216.91249349999998,None,216.91249349999998,None,0.0026370099985797424,0.5026370099985797,216.91249349999998,None,216.91249349999998,None,216.91249349999998,None,216.91249349999998,None,216.91249349999998,None,216.91249349999998,None,218.90249559999938,218.90249559999938,37.3,1.046,800,-250,-350,,,,,,,,,,,,,,,,,,,,,,,,,,,,,,,,,,,,,,,,,,,,,,,,,,,,,,,,,,,,,,,,,,,,,,,,,,,,,,,,,,,f,25,gululu,2022-04-02_16h34.58.466,emotion,2022.1.2,60.129940800997765,
29,50,0,50,one,50,0,50,,,,,0,23,23,28,,,,,,,,,,,right,1.0450334000015573,220.0019898999999,None,220.0019898999999,None,221.06813429999966,None,221.06813429999966,None,221.06813429999966,None,223.050605299999,223.55017439999938,223.050605299999,223.55017439999938,223.050605299999,223.55017439999938,221.06813429999966,None,223.58369660999742,None,223.58369660999742,None,223.58369660999742,None,0.010788809995574411,None,223.58369660999742,None,223.58369660999742,None,223.58369660999742,None,223.58369660999742,None,223.58369660999742,None,223.58369660999742,None,223.59176989999833,None,223.59176989999833,None,223.59176989999833,None,0.00401210999552859,0.5040121099955286,223.59176989999833,None,223.59176989999833,None,223.59176989999833,None,223.59176989999833,None,223.59176989999833,None,223.59176989999833,None,225.58253239999976,225.58253239999976,34.099999999999994,1.31,850,-250,-300,,,,,,,,,,,,,,,,,,,,,,,,,,,,,,,,,,,,,,,,,,,,,,,,,,,,,,,,,,,,,,,,,,,,,,,,,,,,,,,,,,,f,25,gululu,2022-04-02_16h34.58.466,emotion,2022.1.2,60.129940800997765,
1,0,50,200,one,0,50,200,,,,,0,24,24,0,,,,,,,,,,,down,0.978240000000369,226.94862099999955,None,226.94862099999955,None,227.94821669999874,None,227.94821669999874,None,227.94821669999874,None,229.93092459999752,230.43050709999807,229.93092459999752,230.43050709999807,229.93092459999752,230.43050709999807,227.94821669999874,None,230.4635535100002,None,230.4635535100002,None,230.4635535100002,None,0.010684709995985031,None,230.4635535100002,None,230.4635535100002,None,230.4635535100002,None,230.4635535100002,None,230.4635535100002,None,230.4635535100002,None,230.47255210000003,None,230.47255210000003,None,230.47255210000003,None,0.0038406099993153475,0.5038406099993153,230.47255210000003,None,230.47255210000003,None,230.47255210000003,None,230.47255210000003,None,230.47255210000003,None,230.47255210000003,None,232.46327799999926,232.46327799999926,-15.0,1.458,850,-200,-100,,,,,,,,,,,,,,,,,,,,,,,,,,,,,,,,,,,,,,,,,,,,,,,,,,,,,,,,,,,,,,,,,,,,,,,,,,,,,,,,,,,f,25,gululu,2022-04-02_16h34.58.466,emotion,2022.1.2,60.129940800997765,
63,-50,0,0,one,-50,0,0,,,,,0,25,25,62,,,,,,,,,,,left,0.7808110000005399,233.97902939999767,None,233.97902939999767,None,234.77845929999967,None,234.77845929999967,None,234.77845929999967,None,236.76094699999885,237.26033499999903,236.76094699999885,237.26033499999903,236.76094699999885,237.26033499999903,234.77845929999967,None,237.2938871099992,None,237.2938871099992,None,237.2938871099992,None,0.006583209997188533,None,237.2938871099992,None,237.2938871099992,None,237.2938871099992,None,237.2938871099992,None,237.2938871099992,None,237.2938871099992,None,237.306887499999,None,237.306887499999,None,237.306887499999,None,0.015303219999623252,0.5153032199996233,237.306887499999,None,237.306887499999,None,237.306887499999,None,237.306887499999,None,237.306887499999,None,237.306887499999,None,239.29344090000086,239.29344090000086,-23.3,1.878,800,-200,-100,,,,,,,,,,,,,,,,,,,,,,,,,,,,,,,,,,,,,,,,,,,,,,,,,,,,,,,,,,,,,,,,,,,,,,,,,,,,,,,,,,,f,25,gululu,2022-04-02_16h34.58.466,emotion,2022.1.2,60.129940800997765,
83,-50,0,-50,two,-50,0,-50,,,,,0,26,26,82,,,,,,,,,,,right,1.370418400001654,241.22523369999908,None,241.22523369999908,None,242.6247067000004,None,242.6247067000004,None,242.6247067000004,None,244.60744989999876,245.10711449999872,244.60744989999876,245.10711449999872,244.60744989999876,245.10711449999872,242.6247067000004,None,245.12376640999864,None,245.12376640999864,None,245.12376640999864,None,0.009767609997652471,None,245.12376640999864,None,245.12376640999864,None,245.12376640999864,None,245.12376640999864,None,245.12376640999864,None,245.12376640999864,None,245.13470089999828,None,245.13470089999828,None,245.13470089999828,None,0.0017778100009309128,0.5017778100009309,245.13470089999828,None,245.13470089999828,None,245.13470089999828,None,245.13470089999828,None,245.13470089999828,None,245.13470089999828,None,247.1226831999993,247.1226831999993,-23.6,1.096,750,-200,-150,,,,,,,,,,,,,,,,,,,,,,,,,,,,,,,,,,,,,,,,,,,,,,,,,,,,,,,,,,,,,,,,,,,,,,,,,,,,,,,,,,,f,25,gululu,2022-04-02_16h34.58.466,emotion,2022.1.2,60.129940800997765,
26,50,200,50,one,50,200,50,,,,,0,27,27,25,,,,,,,,,,,left,0.8805155000009108,248.27244559999963,None,248.27244559999963,None,249.17195499999798,None,249.17195499999798,None,249.17195499999798,None,251.15418289999798,251.65392119999888,251.15418289999798,251.65392119999888,251.15418289999798,251.65392119999888,249.17195499999798,None,251.6874547099993,None,251.6874547099993,None,251.6874547099993,None,0.010649110001395456,None,251.6874547099993,None,251.6874547099993,None,251.6874547099993,None,251.6874547099993,None,251.6874547099993,None,251.6874547099993,None,251.69653629999812,None,251.69653629999812,None,251.69653629999812,None,0.00352541000029305,0.503525410000293,251.69653629999812,None,251.69653629999812,None,251.69653629999812,None,251.69653629999812,None,251.69653629999812,None,251.69653629999812,None,253.68673040000067,253.68673040000067,-11.799999999999997,1.406,800,0,-100,,,,,,,,,,,,,,,,,,,,,,,,,,,,,,,,,,,,,,,,,,,,,,,,,,,,,,,,,,,,,,,,,,,,,,,,,,,,,,,,,,,f,25,gululu,2022-04-02_16h34.58.466,emotion,2022.1.2,60.129940800997765,
84,-50,-50,0,two,-50,-50,0,,,,,0,28,28,83,,,,,,,,,,,down,1.5039418999986083,255.15163129999928,None,255.15163129999928,None,256.6851299000009,None,256.6851299000009,None,256.6851299000009,None,258.6675706999995,259.1674834000005,258.6675706999995,259.1674834000005,258.6675706999995,259.1674834000005,256.6851299000009,None,259.18413531000044,None,259.18413531000044,None,259.18413531000044,None,0.010131309998541838,None,259.18413531000044,None,259.18413531000044,None,259.18413531000044,None,259.18413531000044,None,259.18413531000044,None,259.18413531000044,None,259.1933790999974,None,259.1933790999974,None,259.1933790999974,None,0.0023962100021890365,0.502396210002189,259.1933790999974,None,259.1933790999974,None,259.1933790999974,None,259.1933790999974,None,259.1933790999974,None,259.1933790999974,None,261.18323699999746,261.18323699999746,3.5,1.367,750,-50,-100,,,,,,,,,,,,,,,,,,,,,,,,,,,,,,,,,,,,,,,,,,,,,,,,,,,,,,,,,,,,,,,,,,,,,,,,,,,,,,,,,,,f,25,gululu,2022-04-02_16h34.58.466,emotion,2022.1.2,60.129940800997765,
39,0,200,200,one,0,200,200,,,,,0,29,29,38,,,,,,,,,,,left,0.978528900002857,262.5995189999994,None,262.5995189999994,None,263.5987490000007,None,263.5987490000007,None,263.5987490000007,None,265.58121729999766,266.0811627000003,265.58121729999766,266.0811627000003,265.58121729999766,266.0811627000003,263.5987490000007,None,266.0978146100002,None,266.0978146100002,None,266.0978146100002,None,0.010118309997778852,None,266.0978146100002,None,266.0978146100002,None,266.0978146100002,None,266.0978146100002,None,266.0978146100002,None,266.0978146100002,None,266.10679869999876,None,266.10679869999876,None,266.10679869999876,None,0.0020540099976642523,0.5020540099976643,266.10679869999876,None,266.10679869999876,None,266.10679869999876,None,266.10679869999876,None,266.10679869999876,None,266.10679869999876,None,268.0970113000003,268.0970113000003,-16.299999999999997,1.309,750,150,100,,,,,,,,,,,,,,,,,,,,,,,,,,,,,,,,,,,,,,,,,,,,,,,,,,,,,,,,,,,,,,,,,,,,,,,,,,,,,,,,,,,f,25,gululu,2022-04-02_16h34.58.466,emotion,2022.1.2,60.129940800997765,
62,0,-50,0,one,0,-50,0,,,,,0,30,30,61,,,,,,,,,,,down,0.9545622000005096,269.46291930000007,None,269.46291930000007,None,270.4457239999974,None,270.4457239999974,None,270.4457239999974,None,272.4279930999983,272.9278188999997,272.4279930999983,272.9278188999997,272.4279930999983,272.9278188999997,270.4457239999974,None,272.961265309999,None,272.961265309999,None,272.961265309999,None,0.010690209997846978,None,272.961265309999,None,272.961265309999,None,272.961265309999,None,272.961265309999,None,272.961265309999,None,272.961265309999,None,272.9698088999976,None,272.9698088999976,None,272.9698088999976,None,0.004141509998589754,0.5041415099985898,272.9698088999976,None,272.9698088999976,None,272.9698088999976,None,272.9698088999976,None,272.9698088999976,None,272.9698088999976,None,274.96038770000087,274.96038770000087,23.5,1.474,750,100,100,,,,,,,,,,,,,,,,,,,,,,,,,,,,,,,,,,,,,,,,,,,,,,,,,,,,,,,,,,,,,,,,,,,,,,,,,,,,,,,,,,,f,25,gululu,2022-04-02_16h34.58.466,emotion,2022.1.2,60.129940800997765,
43,200,200,0,two,200,200,0,,,,,0,31,31,42,,,,,,,,,,,left,0.8818181999995431,276.49305190000086,None,276.49305190000086,None,277.3925448000009,None,277.3925448000009,None,277.3925448000009,None,279.37494940000033,279.87455059999775,279.37494940000033,279.87455059999775,279.37494940000033,279.87455059999775,277.3925448000009,None,279.9080555099987,None,279.9080555099987,None,279.9080555099987,None,0.010558809997746721,None,279.9080555099987,None,279.9080555099987,None,279.9080555099987,None,279.9080555099987,None,279.9080555099987,None,279.9080555099987,None,279.9161824999974,None,279.9161824999974,None,279.9161824999974,None,0.0039625099998374935,0.5039625099998375,279.9161824999974,None,279.9161824999974,None,279.9161824999974,None,279.9161824999974,None,279.9161824999974,None,279.9161824999974,None,281.90707629999815,281.90707629999815,3.1000000000000014,2.426,950,300,100,,,,,,,,,,,,,,,,,,,,,,,,,,,,,,,,,,,,,,,,,,,,,,,,,,,,,,,,,,,,,,,,,,,,,,,,,,,,,,,,,,,f,25,gululu,2022-04-02_16h34.58.466,emotion,2022.1.2,60.129940800997765,
21,50,0,0,two,50,0,0,,,,,0,32,32,20,,,,,,,,,,,down,0.76077609999993,284.3893007999977,None,284.3893007999977,None,285.17227619999903,None,285.17227619999903,None,285.17227619999903,None,287.1547133999993,287.654522599998,287.1547133999993,287.654522599998,287.1547133999993,287.654522599998,285.17227619999903,None,287.6875627099995,None,287.6875627099995,None,287.6875627099995,None,0.010873809998884099,None,287.6875627099995,None,287.6875627099995,None,287.6875627099995,None,287.6875627099995,None,287.6875627099995,None,287.6875627099995,None,287.6954287999979,None,287.6954287999979,None,287.6954287999979,None,0.004301409997424344,0.5043014099974243,287.6954287999979,None,287.6954287999979,None,287.6954287999979,None,287.6954287999979,None,287.6954287999979,None,287.6954287999979,None,289.6870851999993,289.6870851999993,30.299999999999997,1.321,1000,300,100,,,,,,,,,,,,,,,,,,,,,,,,,,,,,,,,,,,,,,,,,,,,,,,,,,,,,,,,,,,,,,,,,,,,,,,,,,,,,,,,,,,f,25,gululu,2022-04-02_16h34.58.466,emotion,2022.1.2,60.129940800997765,
44,200,0,200,two,200,0,200,,,,,0,33,33,43,,,,,,,,,,,left,0.9112346999972942,291.0688306999982,None,291.0688306999982,None,292.00255099999777,None,292.00255099999777,None,292.00255099999777,None,293.9850182000009,294.48474390000047,293.9850182000009,294.48474390000047,293.9850182000009,294.48474390000047,292.00255099999777,None,294.5180978099976,None,294.5180978099976,None,294.5180978099976,None,0.010818110000400338,None,294.5180978099976,None,294.5180978099976,None,294.5180978099976,None,294.5180978099976,None,294.5180978099976,None,294.5180978099976,None,294.52715700000044,None,294.52715700000044,None,294.52715700000044,None,0.00234250999710639,0.5023425099971064,294.52715700000044,None,294.52715700000044,None,294.52715700000044,None,294.52715700000044,None,294.52715700000044,None,294.52715700000044,None,296.517239599998,296.517239599998,38.3,1.203,1200,300,300,,,,,,,,,,,,,,,,,,,,,,,,,,,,,,,,,,,,,,,,,,,,,,,,,,,,,,,,,,,,,,,,,,,,,,,,,,,,,,,,,,,f,25,gululu,2022-04-02_16h34.58.466,emotion,2022.1.2,60.129940800997765,
28,0,50,50,one,0,50,50,,,,,0,34,34,27,,,,,,,,,,,right,0.8482421999979124,297.78219030000037,None,297.78219030000037,None,298.64951089999886,None,298.64951089999886,None,298.64951089999886,None,300.63168609999775,301.1314569999995,300.63168609999775,301.1314569999995,300.63168609999775,301.1314569999995,298.64951089999886,None,301.16490870999917,None,301.16490870999917,None,301.16490870999917,None,0.010673209999367828,None,301.16490870999917,None,301.16490870999917,None,301.16490870999917,None,301.16490870999917,None,301.16490870999917,None,301.16490870999917,None,301.17310870000074,None,301.17310870000074,None,301.17310870000074,None,0.004184410001471406,0.5041844100014714,301.17310870000074,None,301.17310870000074,None,301.17310870000074,None,301.17310870000074,None,301.17310870000074,None,301.17310870000074,None,303.16425320000053,303.16425320000053,-22.3,1.103,1200,350,350,,,,,,,,,,,,,,,,,,,,,,,,,,,,,,,,,,,,,,,,,,,,,,,,,,,,,,,,,,,,,,,,,,,,,,,,,,,,,,,,,,,f,25,gululu,2022-04-02_16h34.58.466,emotion,2022.1.2,60.129940800997765,
89,-200,-50,-200,one,-200,-50,-200,,,,,0,35,35,88,,,,,,,,,,,down,0.9195403000012448,304.3288074999982,None,304.3288074999982,None,305.27966019999803,None,305.27966019999803,None,305.27966019999803,None,307.2622104999973,307.76198379999914,307.2622104999973,307.76198379999914,307.2622104999973,307.76198379999914,305.27966019999803,None,307.7949497099995,None,307.7949497099995,None,307.7949497099995,None,0.01062940999690909,None,307.7949497099995,None,307.7949497099995,None,307.7949497099995,None,307.7949497099995,None,307.7949497099995,None,307.7949497099995,None,307.80334819999916,None,307.80334819999916,None,307.80334819999916,None,0.0037701100009144284,0.5037701100009144,307.80334819999916,None,307.80334819999916,None,307.80334819999916,None,307.80334819999916,None,307.80334819999916,None,307.80334819999916,None,309.7944270000007,309.7944270000007,-37.0,1.109,1000,300,150,,,,,,,,,,,,,,,,,,,,,,,,,,,,,,,,,,,,,,,,,,,,,,,,,,,,,,,,,,,,,,,,,,,,,,,,,,,,,,,,,,,f,25,gululu,2022-04-02_16h34.58.466,emotion,2022.1.2,60.129940800997765,
76,0,-50,-50,one,0,-50,-50,,,,,0,36,36,75,,,,,,,,,,,right,1.0691391000000294,310.9602498999993,None,310.9602498999993,None,312.05982989999757,None,312.05982989999757,None,312.05982989999757,None,314.0426398999989,314.5422547999988,314.0426398999989,314.5422547999988,314.0426398999989,314.5422547999988,312.05982989999757,None,314.5589067099987,None,314.5589067099987,None,314.5589067099987,None,0.010164309998799581,None,314.5589067099987,None,314.5589067099987,None,314.5589067099987,None,314.5589067099987,None,314.5589067099987,None,314.5589067099987,None,314.56723689999853,None,314.56723689999853,None,314.56723689999853,None,0.003487809997750446,0.5034878099977504,314.56723689999853,None,314.56723689999853,None,314.56723689999853,None,314.56723689999853,None,314.56723689999853,None,314.56723689999853,None,316.5579070999993,316.5579070999993,32.2,0.967,1000,250,100,,,,,,,,,,,,,,,,,,,,,,,,,,,,,,,,,,,,,,,,,,,,,,,,,,,,,,,,,,,,,,,,,,,,,,,,,,,,,,,,,,,f,25,gululu,2022-04-02_16h34.58.466,emotion,2022.1.2,60.129940800997765,
27,50,50,200,one,50,50,200,,,,,0,37,37,26,,,,,,,,,,,down,0.8166840000012598,317.58985960000064,None,317.58985960000064,None,318.4237917999999,None,318.4237917999999,None,318.4237917999999,None,320.42527399999744,None,320.42527399999744,None,320.42527399999744,None,318.4237917999999,None,320.938988309999,None,320.938988309999,None,320.938988309999,None,0.008758109997870633,None,320.938988309999,None,320.938988309999,None,320.938988309999,None,320.938988309999,None,320.938988309999,None,320.938988309999,None,320.9510518999996,None,320.9510518999996,None,320.9510518999996,None,0.0005548100016312674,0.5005548100016313,320.9510518999996,None,320.9510518999996,None,320.9510518999996,None,320.9510518999996,None,320.9510518999996,None,320.9510518999996,None,322.93845599999986,322.93845599999986,-6.600000000000001,1.678,1050,300,300,,,,,,,,,,,,,,,,,,,,,,,,,,,,,,,,,,,,,,,,,,,,,,,,,,,,,,,,,,,,,,,,,,,,,,,,,,,,,,,,,,,f,25,gululu,2022-04-02_16h34.58.466,emotion,2022.1.2,60.129940800997765,
8,0,200,50,two,0,200,50,,,,,0,38,38,7,,,,,,,,,,,left,0.8798499000004085,324.67066820000036,None,324.67066820000036,None,325.5701468999978,None,325.5701468999978,None,325.5701468999978,None,327.55306070000006,328.0524605999999,327.55306070000006,328.0524605999999,327.55306070000006,328.0524605999999,325.5701468999978,None,328.08590820999746,None,328.08590820999746,None,328.08590820999746,None,0.005455909995362163,None,328.08590820999746,None,328.08590820999746,None,328.08590820999746,None,328.08590820999746,None,328.08590820999746,None,328.08590820999746,None,328.1083851000003,None,328.1083851000003,None,328.1083851000003,None,0.009646419999626232,0.5096464199996262,328.1083851000003,None,328.1083851000003,None,328.1083851000003,None,328.1083851000003,None,328.1083851000003,None,328.1083851000003,None,330.08625069999835,330.08625069999835,-17.6,2.846,1050,500,350,,,,,,,,,,,,,,,,,,,,,,,,,,,,,,,,,,,,,,,,,,,,,,,,,,,,,,,,,,,,,,,,,,,,,,,,,,,,,,,,,,,f,25,gululu,2022-04-02_16h34.58.466,emotion,2022.1.2,60.129940800997765,
75,-50,-50,-200,one,-50,-50,-200,,,,,0,39,39,74,,,,,,,,,,,down,1.0452284000020882,333.01622289999796,None,333.01622289999796,None,334.0833012999974,None,334.0833012999974,None,334.0833012999974,None,336.06579059999785,336.565540399999,336.06579059999785,336.565540399999,336.06579059999785,336.565540399999,334.0833012999974,None,336.5987060099993,None,336.5987060099993,None,336.5987060099993,None,0.010573909996310249,None,336.5987060099993,None,336.5987060099993,None,336.5987060099993,None,336.5987060099993,None,336.5987060099993,None,336.5987060099993,None,336.60741620000044,None,336.60741620000044,None,336.60741620000044,None,0.003839709999738261,0.5038397099997383,336.60741620000044,None,336.60741620000044,None,336.60741620000044,None,336.60741620000044,None,336.60741620000044,None,336.60741620000044,None,338.59763979999843,338.59763979999843,20.099999999999994,1.656,1000,450,150,,,,,,,,,,,,,,,,,,,,,,,,,,,,,,,,,,,,,,,,,,,,,,,,,,,,,,,,,,,,,,,,,,,,,,,,,,,,,,,,,,,f,25,gululu,2022-04-02_16h34.58.466,emotion,2022.1.2,60.129940800997765,
51,-50,0,-200,one,-50,0,-200,,,,,0,40,40,50,,,,,,,,,,,right,0.848061400000006,340.31391670000085,None,340.31391670000085,None,341.1799519999986,None,341.1799519999986,None,341.1799519999986,None,343.1624164999994,343.6623856999977,343.1624164999994,343.6623856999977,343.1624164999994,343.6623856999977,341.1799519999986,None,343.67903760999764,None,343.67903760999764,None,343.67903760999764,None,0.010081909997097682,None,343.67903760999764,None,343.67903760999764,None,343.67903760999764,None,343.67903760999764,None,343.67903760999764,None,343.67903760999764,None,343.6886377999981,None,343.6886377999981,None,343.6886377999981,None,0.0020293099951231852,0.5020293099951232,343.6886377999981,None,343.6886377999981,None,343.6886377999981,None,343.6886377999981,None,343.6886377999981,None,343.6886377999981,None,345.6781549999978,345.6781549999978,-28.2,1.109,950,450,-50,,,,,,,,,,,,,,,,,,,,,,,,,,,,,,,,,,,,,,,,,,,,,,,,,,,,,,,,,,,,,,,,,,,,,,,,,,,,,,,,,,,f,25,gululu,2022-04-02_16h34.58.466,emotion,2022.1.2,60.129940800997765,
73,-200,-50,-50,one,-200,-50,-50,,,,,0,41,41,72,,,,,,,,,,,down,1.373322499999631,346.8441903999992,None,346.8441903999992,None,348.24324219999835,None,348.24324219999835,None,348.24324219999835,None,350.2260119999992,350.7257862000006,350.2260119999992,350.7257862000006,350.2260119999992,350.7257862000006,348.24324219999835,None,350.74243811000053,None,350.74243811000053,None,350.74243811000053,None,0.010180310000578174,None,350.74243811000053,None,350.74243811000053,None,350.74243811000053,None,350.74243811000053,None,350.74243811000053,None,350.74243811000053,None,350.75148839999747,None,350.75148839999747,None,350.75148839999747,None,0.002348909998545423,0.5023489099985454,350.75148839999747,None,350.75148839999747,None,350.75148839999747,None,350.75148839999747,None,350.75148839999747,None,350.75148839999747,None,352.74139039999864,352.74139039999864,-42.2,1.501,750,400,-100,,,,,,,,,,,,,,,,,,,,,,,,,,,,,,,,,,,,,,,,,,,,,,,,,,,,,,,,,,,,,,,,,,,,,,,,,,,,,,,,,,,f,25,gululu,2022-04-02_16h34.58.466,emotion,2022.1.2,60.129940800997765,
66,-200,0,0,one,-200,0,0,,,,,0,42,42,65,,,,,,,,,,,right,0.8381681999999273,354.3064458999979,None,354.3064458999979,None,355.1736889999993,None,355.1736889999993,None,355.1736889999993,None,357.1562836999983,357.6556923999997,357.1562836999983,357.6556923999997,357.1562836999983,357.6556923999997,355.1736889999993,None,357.689199009999,None,357.689199009999,None,357.689199009999,None,0.010730210000474472,None,357.689199009999,None,357.689199009999,None,357.689199009999,None,357.689199009999,None,357.689199009999,None,357.689199009999,None,357.6974795999995,None,357.6974795999995,None,357.6974795999995,None,0.004212509997159941,0.5042125099971599,357.6974795999995,None,357.6974795999995,None,357.6974795999995,None,357.6974795999995,None,357.6974795999995,None,357.6974795999995,None,359.6887695999976,359.6887695999976,-28.0,1.85,550,400,-100,,,,,,,,,,,,,,,,,,,,,,,,,,,,,,,,,,,,,,,,,,,,,,,,,,,,,,,,,,,,,,,,,,,,,,,,,,,,,,,,,,,f,25,gululu,2022-04-02_16h34.58.466,emotion,2022.1.2,60.129940800997765,
48,50,200,200,two,50,200,200,,,,,0,43,43,47,,,,,,,,,,,down,0.9583617999996932,361.6031213999995,None,361.6031213999995,None,362.58711219999896,None,362.58711219999896,None,362.58711219999896,None,364.56948679999914,365.06910849999986,364.56948679999914,365.06910849999986,364.56948679999914,365.06910849999986,362.58711219999896,None,365.1027484099992,None,365.1027484099992,None,365.1027484099992,None,0.010676409998268355,None,365.1027484099992,None,365.1027484099992,None,365.1027484099992,None,365.1027484099992,None,365.1027484099992,None,365.1027484099992,None,365.1132413999985,None,365.1132413999985,None,365.1132413999985,None,0.0019852099976560567,0.5019852099976561,365.1132413999985,None,365.1132413999985,None,365.1132413999985,None,365.1132413999985,None,365.1132413999985,None,365.1132413999985,None,367.1018335999979,367.1018335999979,-25.1,1.382,600,600,100,,,,,,,,,,,,,,,,,,,,,,,,,,,,,,,,,,,,,,,,,,,,,,,,,,,,,,,,,,,,,,,,,,,,,,,,,,,,,,,,,,,f,25,gululu,2022-04-02_16h34.58.466,emotion,2022.1.2,60.129940800997765,
23,0,200,0,two,0,200,0,,,,,0,44,44,22,,,,,,,,,,,right,1.0017980000011448,368.5343237999987,None,368.5343237999987,None,369.5673100999993,None,369.5673100999993,None,369.5673100999993,None,371.54955619999964,372.0495076999978,371.54955619999964,372.0495076999978,371.54955619999964,372.0495076999978,369.5673100999993,None,372.08283420999726,None,372.08283420999726,None,372.08283420999726,None,0.010335309994843556,None,372.08283420999726,None,372.08283420999726,None,372.08283420999726,None,372.08283420999726,None,372.08283420999726,None,372.08283420999726,None,372.0918266999979,None,372.0918266999979,None,372.0918266999979,None,0.0026046099956147373,0.5026046099956147,372.0918266999979,None,372.0918266999979,None,372.0918266999979,None,372.0918266999979,None,372.0918266999979,None,372.0918266999979,None,374.0816387999985,374.0816387999985,-24.7,1.177,600,800,100,,,,,,,,,,,,,,,,,,,,,,,,,,,,,,,,,,,,,,,,,,,,,,,,,,,,,,,,,,,,,,,,,,,,,,,,,,,,,,,,,,,f,25,gululu,2022-04-02_16h34.58.466,emotion,2022.1.2,60.129940800997765,
10,50,200,0,two,50,200,0,,,,,0,45,45,9,,,,,,,,,,,left,1.3534868999995524,375.3145427999989,None,375.3145427999989,None,376.6972249999999,None,376.6972249999999,None,376.6972249999999,None,378.67951139999786,379.17950089999795,378.67951139999786,379.17950089999795,378.67951139999786,379.17950089999795,376.6972249999999,None,379.2129537099987,None,379.2129537099987,None,379.2129537099987,None,0.01066281000021263,None,379.2129537099987,None,379.2129537099987,None,379.2129537099987,None,379.2129537099987,None,379.2129537099987,None,379.2129537099987,None,379.22226930000033,None,379.22226930000033,None,379.22226930000033,None,0.003442209999775514,0.5034422099997755,379.22226930000033,None,379.22226930000033,None,379.22226930000033,None,379.22226930000033,None,379.22226930000033,None,379.22226930000033,None,381.2119626999993,381.2119626999993,-22.6,1.191,650,1000,100,,,,,,,,,,,,,,,,,,,,,,,,,,,,,,,,,,,,,,,,,,,,,,,,,,,,,,,,,,,,,,,,,,,,,,,,,,,,,,,,,,,f,25,gululu,2022-04-02_16h34.58.466,emotion,2022.1.2,60.129940800997765,
85,-200,-200,0,one,-200,-200,0,,,,,0,46,46,84,,,,,,,,,,,down,1.0825060000024678,382.4609863000005,None,382.4609863000005,None,383.5603145999994,None,383.5603145999994,None,383.5603145999994,None,385.5434060999978,386.04304129999946,385.5434060999978,386.04304129999946,385.5434060999978,386.04304129999946,383.5603145999994,None,386.0596932099994,None,386.0596932099994,None,386.0596932099994,None,0.01033620999805862,None,386.0596932099994,None,386.0596932099994,None,386.0596932099994,None,386.0596932099994,None,386.0596932099994,None,386.0596932099994,None,386.0685139999987,None,386.0685139999987,None,386.0685139999987,None,0.0035974099992017727,0.5035974099992018,386.0685139999987,None,386.0685139999987,None,386.0685139999987,None,386.0685139999987,None,386.0685139999987,None,386.0685139999987,None,388.05879060000007,388.05879060000007,-1.5,2.957,450,800,100,,,,,,,,,,,,,,,,,,,,,,,,,,,,,,,,,,,,,,,,,,,,,,,,,,,,,,,,,,,,,,,,,,,,,,,,,,,,,,,,,,,f,25,gululu,2022-04-02_16h34.58.466,emotion,2022.1.2,60.129940800997765,
38,200,0,200,one,200,0,200,,,,,0,47,47,37,,,,,,,,,,,down,1.644483299998683,391.074111599999,None,391.074111599999,None,392.7399852999988,None,392.7399852999988,None,392.7399852999988,None,394.72232769999755,395.22193289999996,394.72232769999755,395.22193289999996,394.72232769999755,395.22193289999996,392.7399852999988,None,395.2556427100004,None,395.2556427100004,None,395.2556427100004,None,0.010710909999033902,None,395.2556427100004,None,395.2556427100004,None,395.2556427100004,None,395.2556427100004,None,395.2556427100004,None,395.2556427100004,None,395.26382419999936,None,395.26382419999936,None,395.26382419999936,None,0.004194409997580806,0.5041944099975808,395.26382419999936,None,395.26382419999936,None,395.26382419999936,None,395.26382419999936,None,395.26382419999936,None,395.26382419999936,None,397.25460530000055,397.25460530000055,47.900000000000006,1.269,650,800,300,,,,,,,,,,,,,,,,,,,,,,,,,,,,,,,,,,,,,,,,,,,,,,,,,,,,,,,,,,,,,,,,,,,,,,,,,,,,,,,,,,,f,25,gululu,2022-04-02_16h34.58.466,emotion,2022.1.2,60.129940800997765,
52,-50,-200,0,one,-50,-200,0,,,,,0,48,48,51,,,,,,,,,,,down,1.20716689999972,398.5857088999983,None,398.5857088999983,None,399.81991539999945,None,399.81991539999945,None,399.81991539999945,None,401.80210369999986,402.3022567000007,401.80210369999986,402.3022567000007,401.80210369999986,402.3022567000007,399.81991539999945,None,402.3356851099976,None,402.3356851099976,None,402.3356851099976,None,0.01078440999481245,None,402.3356851099976,None,402.3356851099976,None,402.3356851099976,None,402.3356851099976,None,402.3356851099976,None,402.3356851099976,None,402.3441610000009,None,402.3441610000009,None,402.3441610000009,None,0.002800409998599207,0.5028004099985992,402.3441610000009,None,402.3441610000009,None,402.3441610000009,None,402.3441610000009,None,402.3441610000009,None,402.3441610000009,None,404.3343937999998,404.3343937999998,36.8,1.671,600,600,300,,,,,,,,,,,,,,,,,,,,,,,,,,,,,,,,,,,,,,,,,,,,,,,,,,,,,,,,,,,,,,,,,,,,,,,,,,,,,,,,,,,f,25,gululu,2022-04-02_16h34.58.466,emotion,2022.1.2,60.129940800997765,
17,0,200,0,one,0,200,0,,,,,0,49,49,16,,,,,,,,,,,right,0.9830914000012854,406.0658504999992,None,406.0658504999992,None,407.06668340000033,None,407.06668340000033,None,407.06668340000033,None,409.0490570000002,409.54889179999736,409.0490570000002,409.54889179999736,409.0490570000002,409.54889179999736,407.06668340000033,None,409.58230721000075,None,409.58230721000075,None,409.58230721000075,None,0.010929210002359468,None,409.58230721000075,None,409.58230721000075,None,409.58230721000075,None,409.58230721000075,None,409.58230721000075,None,409.58230721000075,None,409.5905543999979,None,409.5905543999979,None,409.5905543999979,None,0.00451990999863483,0.5045199099986348,409.5905543999979,None,409.5905543999979,None,409.5905543999979,None,409.5905543999979,None,409.5905543999979,None,409.5905543999979,None,411.581364499998,411.581364499998,-31.7,1.206,600,800,300,,,,,,,,,,,,,,,,,,,,,,,,,,,,,,,,,,,,,,,,,,,,,,,,,,,,,,,,,,,,,,,,,,,,,,,,,,,,,,,,,,,f,25,gululu,2022-04-02_16h34.58.466,emotion,2022.1.2,60.129940800997765,
61,0,0,-50,one,0,0,-50,,,,,0,50,50,60,,,,,,,,,,,down,0.9128768999980821,412.84645909999745,None,412.84645909999745,None,413.7803897999984,None,413.7803897999984,None,413.7803897999984,None,415.7624625999997,416.26268079999863,415.7624625999997,416.26268079999863,415.7624625999997,416.26268079999863,413.7803897999984,None,416.29591201000005,None,416.29591201000005,None,416.29591201000005,None,0.010749109995231265,None,416.29591201000005,None,416.29591201000005,None,416.29591201000005,None,416.29591201000005,None,416.29591201000005,None,416.29591201000005,None,416.304304199999,None,416.304304199999,None,416.304304199999,None,0.004125109997403342,0.5041251099974033,416.304304199999,None,416.304304199999,None,416.304304199999,None,416.304304199999,None,416.304304199999,None,416.304304199999,None,418.29478329999984,418.29478329999984,11.600000000000001,1.531,600,800,250,,,,,,,,,,,,,,,,,,,,,,,,,,,,,,,,,,,,,,,,,,,,,,,,,,,,,,,,,,,,,,,,,,,,,,,,,,,,,,,,,,,f,25,gululu,2022-04-02_16h34.58.466,emotion,2022.1.2,60.129940800997765,
40,200,200,50,one,200,200,50,,,,,0,51,51,39,,,,,,,,,,,right,0.8455935999991198,419.87767840000015,None,419.87767840000015,None,420.74409390000073,None,420.74409390000073,None,420.74409390000073,None,422.7264084999988,423.2258402000007,422.7264084999988,423.2258402000007,422.7264084999988,423.2258402000007,420.74409390000073,None,423.2594064099991,None,423.2594064099991,None,423.2594064099991,None,0.010470910001458833,None,423.2594064099991,None,423.2594064099991,None,423.2594064099991,None,423.2594064099991,None,423.2594064099991,None,423.2594064099991,None,423.26758939999854,None,423.26758939999854,None,423.26758939999854,None,0.003911709998646984,0.503911709998647,423.26758939999854,None,423.26758939999854,None,423.26758939999854,None,423.26758939999854,None,423.26758939999854,None,423.26758939999854,None,425.25847059999796,425.25847059999796,-0.5,2.033,800,1000,300,,,,,,,,,,,,,,,,,,,,,,,,,,,,,,,,,,,,,,,,,,,,,,,,,,,,,,,,,,,,,,,,,,,,,,,,,,,,,,,,,,,f,25,gululu,2022-04-02_16h34.58.466,emotion,2022.1.2,60.129940800997765,
31,200,50,50,two,200,50,50,,,,,0,52,52,30,,,,,,,,,,,left,0.9357320999988588,427.35632540000006,None,427.35632540000006,None,428.3239743999984,None,428.3239743999984,None,428.3239743999984,None,430.30604669999957,430.80579410000064,430.30604669999957,430.80579410000064,430.30604669999957,430.80579410000064,428.3239743999984,None,430.83906270999944,None,430.83906270999944,None,430.83906270999944,None,0.008313710000948049,None,430.83906270999944,None,430.83906270999944,None,430.83906270999944,None,430.83906270999944,None,430.83906270999944,None,430.83906270999944,None,430.8506696000004,None,430.8506696000004,None,430.8506696000004,None,0.00012001000141026452,0.5001200100014103,430.8506696000004,None,430.8506696000004,None,430.8506696000004,None,430.8506696000004,None,430.8506696000004,None,430.8506696000004,None,432.83846640000047,432.83846640000047,21.099999999999994,1.094,1000,1050,350,,,,,,,,,,,,,,,,,,,,,,,,,,,,,,,,,,,,,,,,,,,,,,,,,,,,,,,,,,,,,,,,,,,,,,,,,,,,,,,,,,,f,25,gululu,2022-04-02_16h34.58.466,emotion,2022.1.2,60.129940800997765,
46,200,200,50,two,200,200,50,,,,,0,53,53,45,,,,,,,,,,,right,3.764678700001241,433.9878209999988,None,433.9878209999988,None,437.7696748999988,None,437.7696748999988,None,437.7696748999988,None,439.7519253999999,440.25163579999935,439.7519253999999,440.25163579999935,439.7519253999999,440.25163579999935,437.7696748999988,None,440.28478630999746,None,440.28478630999746,None,440.28478630999746,None,0.010717509998357855,None,440.28478630999746,None,440.28478630999746,None,440.28478630999746,None,440.28478630999746,None,440.28478630999746,None,440.28478630999746,None,440.29360369999995,None,440.29360369999995,None,440.29360369999995,None,0.003676409996842267,0.5036764099968423,440.29360369999995,None,440.29360369999995,None,440.29360369999995,None,440.29360369999995,None,440.29360369999995,None,440.29360369999995,None,442.28433719999884,442.28433719999884,0.10000000000000142,2.042,1200,1250,400,,,,,,,,,,,,,,,,,,,,,,,,,,,,,,,,,,,,,,,,,,,,,,,,,,,,,,,,,,,,,,,,,,,,,,,,,,,,,,,,,,,f,25,gululu,2022-04-02_16h34.58.466,emotion,2022.1.2,60.129940800997765,
22,0,0,200,two,0,0,200,,,,,0,54,54,21,,,,,,,,,,,right,1.0360129000000597,444.3835383000005,None,444.3835383000005,None,445.4494295000004,None,445.4494295000004,None,445.4494295000004,None,447.4319601999996,447.9316168000005,447.4319601999996,447.9316168000005,447.4319601999996,447.9316168000005,445.4494295000004,None,447.9647047099985,None,447.9647047099985,None,447.9647047099985,None,0.010636709997925209,None,447.9647047099985,None,447.9647047099985,None,447.9647047099985,None,447.9647047099985,None,447.9647047099985,None,447.9647047099985,None,447.97435499999847,None,447.97435499999847,None,447.97435499999847,None,0.0035915099979320075,0.503591509997932,447.97435499999847,None,447.97435499999847,None,447.97435499999847,None,447.97435499999847,None,447.97435499999847,None,447.97435499999847,None,449.96410040000046,449.96410040000046,-7.200000000000003,1.258,1200,1250,600,,,,,,,,,,,,,,,,,,,,,,,,,,,,,,,,,,,,,,,,,,,,,,,,,,,,,,,,,,,,,,,,,,,,,,,,,,,,,,,,,,,f,25,gululu,2022-04-02_16h34.58.466,emotion,2022.1.2,60.129940800997765,
91,-200,-200,0,two,-200,-200,0,,,,,0,55,55,90,,,,,,,,,,,left,0.8192033999985142,451.2796128000009,None,451.2796128000009,None,452.12979469999846,None,452.12979469999846,None,452.12979469999846,None,454.1119472999999,454.611881599998,454.1119472999999,454.611881599998,454.1119472999999,454.611881599998,452.12979469999846,None,454.6451662099986,None,454.6451662099986,None,454.6451662099986,None,0.010731409998697927,None,454.6451662099986,None,454.6451662099986,None,454.6451662099986,None,454.6451662099986,None,454.6451662099986,None,454.6451662099986,None,454.6536438999974,None,454.6536438999974,None,454.6536438999974,None,0.004160809996392345,0.5041608099963923,454.6536438999974,None,454.6536438999974,None,454.6536438999974,None,454.6536438999974,None,454.6536438999974,None,454.6536438999974,None,456.6441849999974,456.6441849999974,14.700000000000003,2.668,1000,1050,600,,,,,,,,,,,,,,,,,,,,,,,,,,,,,,,,,,,,,,,,,,,,,,,,,,,,,,,,,,,,,,,,,,,,,,,,,,,,,,,,,,,f,25,gululu,2022-04-02_16h34.58.466,emotion,2022.1.2,60.129940800997765,
9,50,0,200,two,50,0,200,,,,,0,56,56,8,,,,,,,,,,,right,0.9193295000004582,459.3755113999978,None,459.3755113999978,None,460.32596750000084,None,460.32596750000084,None,460.32596750000084,None,462.30837489999976,462.8078792999986,462.30837489999976,462.8078792999986,462.30837489999976,462.8078792999986,460.32596750000084,None,462.8415045099988,None,462.8415045099988,None,462.8415045099988,None,0.010674209996068384,None,462.8415045099988,None,462.8415045099988,None,462.8415045099988,None,462.8415045099988,None,462.8415045099988,None,462.8415045099988,None,462.84963179999977,None,462.84963179999977,None,462.84963179999977,None,0.004142509995290311,0.5041425099952903,462.84963179999977,None,462.84963179999977,None,462.84963179999977,None,462.84963179999977,None,462.84963179999977,None,462.84963179999977,None,464.8404688999981,464.8404688999981,10.100000000000001,0.995,1050,1050,800,,,,,,,,,,,,,,,,,,,,,,,,,,,,,,,,,,,,,,,,,,,,,,,,,,,,,,,,,,,,,,,,,,,,,,,,,,,,,,,,,,,f,25,gululu,2022-04-02_16h34.58.466,emotion,2022.1.2,60.129940800997765,
12,200,0,50,two,200,0,50,,,,,0,57,57,11,,,,,,,,,,,down,0.9616612999998324,465.8898595999999,None,465.8898595999999,None,466.8730255999981,None,466.8730255999981,None,466.8730255999981,None,468.8553261999987,469.3548931000005,468.8553261999987,469.3548931000005,468.8553261999987,469.3548931000005,466.8730255999981,None,469.38841610999737,None,469.38841610999737,None,469.38841610999737,None,0.01065570999708143,None,469.38841610999737,None,469.38841610999737,None,469.38841610999737,None,469.38841610999737,None,469.38841610999737,None,469.38841610999737,None,469.3976322999988,None,469.3976322999988,None,469.3976322999988,None,0.00394410999797401,0.503944109997974,469.3976322999988,None,469.3976322999988,None,469.3976322999988,None,469.3976322999988,None,469.3976322999988,None,469.3976322999988,None,471.3878420000001,471.3878420000001,47.3,1.279,1250,1050,850,,,,,,,,,,,,,,,,,,,,,,,,,,,,,,,,,,,,,,,,,,,,,,,,,,,,,,,,,,,,,,,,,,,,,,,,,,,,,,,,,,,f,25,gululu,2022-04-02_16h34.58.466,emotion,2022.1.2,60.129940800997765,
60,-200,0,-50,two,-200,0,-50,,,,,0,58,58,59,,,,,,,,,,,right,0.817838799997844,472.72023799999806,None,472.72023799999806,None,473.5698588999985,None,473.5698588999985,None,473.5698588999985,None,475.5522854999981,476.0518598999988,475.5522854999981,476.0518598999988,475.5522854999981,476.0518598999988,473.5698588999985,None,476.0848819100007,None,476.0848819100007,None,476.0848819100007,None,0.009736510000948329,None,476.0848819100007,None,476.0848819100007,None,476.0848819100007,None,476.0848819100007,None,476.0848819100007,None,476.0848819100007,None,476.10013959999924,None,476.10013959999924,None,476.10013959999924,None,0.014836120004474651,0.5148361200044747,476.10013959999924,None,476.10013959999924,None,476.10013959999924,None,476.10013959999924,None,476.10013959999924,None,476.10013959999924,None,478.08454039999924,478.08454039999924,-33.7,1.159,1050,1050,800,,,,,,,,,,,,,,,,,,,,,,,,,,,,,,,,,,,,,,,,,,,,,,,,,,,,,,,,,,,,,,,,,,,,,,,,,,,,,,,,,,,f,25,gululu,2022-04-02_16h34.58.466,emotion,2022.1.2,60.129940800997765,
2,0,200,50,one,0,200,50,,,,,0,59,59,1,,,,,,,,,,,down,0.8920058999974572,479.30037599999923,None,479.30037599999923,None,480.2169794000001,None,480.2169794000001,None,480.2169794000001,None,482.1989472999994,482.69928829999844,482.1989472999994,482.69928829999844,482.1989472999994,482.69928829999844,480.2169794000001,None,482.7324364100001,None,482.7324364100001,None,482.7324364100001,None,0.010765510000055656,None,482.7324364100001,None,482.7324364100001,None,482.7324364100001,None,482.7324364100001,None,482.7324364100001,None,482.7324364100001,None,482.74128369999744,None,482.74128369999744,None,482.74128369999744,None,0.004217309997329721,0.5042173099973297,482.74128369999744,None,482.74128369999744,None,482.74128369999744,None,482.74128369999744,None,482.74128369999744,None,482.74128369999744,None,484.73168109999824,484.73168109999824,-35.8,1.79,1050,1250,850,,,,,,,,,,,,,,,,,,,,,,,,,,,,,,,,,,,,,,,,,,,,,,,,,,,,,,,,,,,,,,,,,,,,,,,,,,,,,,,,,,,f,25,gululu,2022-04-02_16h34.58.466,emotion,2022.1.2,60.129940800997765,
56,0,-200,-50,two,0,-200,-50,,,,,0,60,60,55,,,,,,,,,,,down,0.9243959000014002,486.5808896999988,None,486.5808896999988,None,487.53035570000065,None,487.53035570000065,None,487.53035570000065,None,489.5127543999988,490.01228609999816,489.5127543999988,490.01228609999816,489.5127543999988,490.01228609999816,487.53035570000065,None,490.04575560999876,None,490.04575560999876,None,490.04575560999876,None,0.010128709996934049,None,490.04575560999876,None,490.04575560999876,None,490.04575560999876,None,490.04575560999876,None,490.04575560999876,None,490.04575560999876,None,490.05470050000076,None,490.05470050000076,None,490.05470050000076,None,0.0020363099974929355,0.5020363099974929,490.05470050000076,None,490.05470050000076,None,490.05470050000076,None,490.05470050000076,None,490.05470050000076,None,490.05470050000076,None,492.0451710999987,492.0451710999987,37.3,1.938,1050,1050,800,,,,,,,,,,,,,,,,,,,,,,,,,,,,,,,,,,,,,,,,,,,,,,,,,,,,,,,,,,,,,,,,,,,,,,,,,,,,,,,,,,,f,25,gululu,2022-04-02_16h34.58.466,emotion,2022.1.2,60.129940800997765,
72,-200,0,0,two,-200,0,0,,,,,0,61,61,71,,,,,,,,,,,right,0.8204355000016221,494.0427544999984,None,494.0427544999984,None,494.893506299999,None,494.893506299999,None,494.893506299999,None,496.8761587000008,497.37556100000074,496.8761587000008,497.37556100000074,496.8761587000008,497.37556100000074,494.893506299999,None,497.40892890999896,None,497.40892890999896,None,497.40892890999896,None,0.010891109996009618,None,497.40892890999896,None,497.40892890999896,None,497.40892890999896,None,497.40892890999896,None,497.40892890999896,None,497.40892890999896,None,497.41692559999865,None,497.41692559999865,None,497.41692559999865,None,0.003940409995266236,0.5039404099952662,497.41692559999865,None,497.41692559999865,None,497.41692559999865,None,497.41692559999865,None,497.41692559999865,None,497.41692559999865,None,499.4081210999975,499.4081210999975,-44.3,1.754,850,1050,800,,,,,,,,,,,,,,,,,,,,,,,,,,,,,,,,,,,,,,,,,,,,,,,,,,,,,,,,,,,,,,,,,,,,,,,,,,,,,,,,,,,f,25,gululu,2022-04-02_16h34.58.466,emotion,2022.1.2,60.129940800997765,
7,0,50,200,two,0,50,200,,,,,0,62,62,6,,,,,,,,,,,right,0.8428629000009096,501.2229688999978,None,501.2229688999978,None,502.09020899999814,None,502.09020899999814,None,502.09020899999814,None,504.0724057000007,504.57236600000033,504.0724057000007,504.57236600000033,504.0724057000007,504.57236600000033,502.09020899999814,None,504.60590120999916,None,504.60590120999916,None,504.60590120999916,None,0.010542709998844657,None,504.60590120999916,None,504.60590120999916,None,504.60590120999916,None,504.60590120999916,None,504.60590120999916,None,504.60590120999916,None,504.6140884999986,None,504.6140884999986,None,504.6140884999986,None,0.004110310001124162,0.5041103100011242,504.6140884999986,None,504.6140884999986,None,504.6140884999986,None,504.6140884999986,None,504.6140884999986,None,504.6140884999986,None,506.60498799999914,506.60498799999914,-17.9,1.217,850,1100,1000,,,,,,,,,,,,,,,,,,,,,,,,,,,,,,,,,,,,,,,,,,,,,,,,,,,,,,,,,,,,,,,,,,,,,,,,,,,,,,,,,,,f,25,gululu,2022-04-02_16h34.58.466,emotion,2022.1.2,60.129940800997765,
41,200,50,200,one,200,50,200,,,,,0,63,63,40,,,,,,,,,,,down,0.902287000000797,507.87105099999826,None,507.87105099999826,None,508.803512399998,None,508.803512399998,None,508.803512399998,None,510.78635519999807,511.2862284999974,510.78635519999807,511.2862284999974,510.78635519999807,511.2862284999974,508.803512399998,None,511.30288040999733,None,511.30288040999733,None,511.30288040999733,None,0.010305009993317071,None,511.30288040999733,None,511.30288040999733,None,511.30288040999733,None,511.30288040999733,None,511.30288040999733,None,511.30288040999733,None,511.3120166000008,None,511.3120166000008,None,511.3120166000008,None,0.002641109997057356,0.5026411099970574,511.3120166000008,None,511.3120166000008,None,511.3120166000008,None,511.3120166000008,None,511.3120166000008,None,511.3120166000008,None,513.3021984000006,513.3021984000006,40.3,1.305,1050,1150,1200,,,,,,,,,,,,,,,,,,,,,,,,,,,,,,,,,,,,,,,,,,,,,,,,,,,,,,,,,,,,,,,,,,,,,,,,,,,,,,,,,,,f,25,gululu,2022-04-02_16h34.58.466,emotion,2022.1.2,60.129940800997765,
34,0,50,50,two,0,50,50,,,,,0,64,64,33,,,,,,,,,,,down,2.2889733000010892,514.6668358999996,None,514.6668358999996,None,516.9834515999974,None,516.9834515999974,None,516.9834515999974,None,518.9658557000002,519.4655533999976,518.9658557000002,519.4655533999976,518.9658557000002,519.4655533999976,516.9834515999974,None,519.4991473099996,None,519.4991473099996,None,519.4991473099996,None,0.010859710000659106,None,519.4991473099996,None,519.4991473099996,None,519.4991473099996,None,519.4991473099996,None,519.4991473099996,None,519.4991473099996,None,519.5070465999997,None,519.5070465999997,None,519.5070465999997,None,0.004421510002430296,0.5044215100024303,519.5070465999997,None,519.5070465999997,None,519.5070465999997,None,519.5070465999997,None,519.5070465999997,None,519.5070465999997,None,521.4979899999998,521.4979899999998,-28.5,1.271,1050,1200,1250,,,,,,,,,,,,,,,,,,,,,,,,,,,,,,,,,,,,,,,,,,,,,,,,,,,,,,,,,,,,,,,,,,,,,,,,,,,,,,,,,,,f,25,gululu,2022-04-02_16h34.58.466,emotion,2022.1.2,60.129940800997765,
53,-200,-50,0,one,-200,-50,0,,,,,0,65,65,52,,,,,,,,,,,right,0.7490503000008175,522.8297963999976,None,522.8297963999976,None,523.5970286999982,None,523.5970286999982,None,523.5970286999982,None,525.5792800999989,526.0792149999979,525.5792800999989,526.0792149999979,525.5792800999989,526.0792149999979,523.5970286999982,None,526.1123838100008,None,526.1123838100008,None,526.1123838100008,None,0.010621209996315883,None,526.1123838100008,None,526.1123838100008,None,526.1123838100008,None,526.1123838100008,None,526.1123838100008,None,526.1123838100008,None,526.1212053999989,None,526.1212053999989,None,526.1212053999989,None,0.0038014099991414696,0.5038014099991415,526.1212053999989,None,526.1212053999989,None,526.1212053999989,None,526.1212053999989,None,526.1212053999989,None,526.1212053999989,None,528.1118387999995,528.1118387999995,-37.5,1.195,850,1150,1250,,,,,,,,,,,,,,,,,,,,,,,,,,,,,,,,,,,,,,,,,,,,,,,,,,,,,,,,,,,,,,,,,,,,,,,,,,,,,,,,,,,f,25,gululu,2022-04-02_16h34.58.466,emotion,2022.1.2,60.129940800997765,
37,200,200,0,one,200,200,0,,,,,0,66,66,36,,,,,,,,,,,left,1.3025484000027063,529.3609644999997,None,529.3609644999997,None,530.6936434999989,None,530.6936434999989,None,530.6936434999989,None,532.6762052999984,533.1761255999991,532.6762052999984,533.1761255999991,532.6762052999984,533.1761255999991,530.6936434999989,None,533.192777509999,None,533.192777509999,None,533.192777509999,None,0.010253809996356722,None,533.192777509999,None,533.192777509999,None,533.192777509999,None,533.192777509999,None,533.192777509999,None,533.192777509999,None,533.2009306,None,533.2009306,None,533.2009306,None,0.0037547100000665523,0.5037547100000666,533.2009306,None,533.2009306,None,533.2009306,None,533.2009306,None,533.2009306,None,533.2009306,None,535.1916034999995,535.1916034999995,-8.700000000000003,2.226,1050,1350,1250,,,,,,,,,,,,,,,,,,,,,,,,,,,,,,,,,,,,,,,,,,,,,,,,,,,,,,,,,,,,,,,,,,,,,,,,,,,,,,,,,,,f,25,gululu,2022-04-02_16h34.58.466,emotion,2022.1.2,60.129940800997765,
78,-50,-50,0,one,-50,-50,0,,,,,0,67,67,77,,,,,,,,,,,down,0.9080812000029255,537.4740218999978,None,537.4740218999978,None,538.4072049999995,None,538.4072049999995,None,538.4072049999995,None,540.3895398999994,540.8894849999997,540.3895398999994,540.8894849999997,540.3895398999994,540.8894849999997,538.4072049999995,None,540.9224428100002,None,540.9224428100002,None,540.9224428100002,None,0.010667509999620961,None,540.9224428100002,None,540.9224428100002,None,540.9224428100002,None,540.9224428100002,None,540.9224428100002,None,540.9224428100002,None,540.9311993999981,None,540.9311993999981,None,540.9311993999981,None,0.004002009998657741,0.5040020099986577,540.9311993999981,None,540.9311993999981,None,540.9311993999981,None,540.9311993999981,None,540.9311993999981,None,540.9311993999981,None,542.9214737000002,542.9214737000002,-13.200000000000003,1.243,1000,1300,1250,,,,,,,,,,,,,,,,,,,,,,,,,,,,,,,,,,,,,,,,,,,,,,,,,,,,,,,,,,,,,,,,,,,,,,,,,,,,,,,,,,,f,25,gululu,2022-04-02_16h34.58.466,emotion,2022.1.2,60.129940800997765,
80,-50,-200,-50,two,-50,-200,-50,,,,,0,68,68,79,,,,,,,,,,,right,0.811596899999131,544.2208260000007,None,544.2208260000007,None,545.0541854999974,None,545.0541854999974,None,545.0541854999974,None,547.0362404999978,547.5363512000004,547.0362404999978,547.5363512000004,547.0362404999978,547.5363512000004,545.0541854999974,None,547.5696148099975,None,547.5696148099975,None,547.5696148099975,None,0.010608509997837245,None,547.5696148099975,None,547.5696148099975,None,547.5696148099975,None,547.5696148099975,None,547.5696148099975,None,547.5696148099975,None,547.5792658999999,None,547.5792658999999,None,547.5792658999999,None,0.0025890099968819413,0.5025890099968819,547.5792658999999,None,547.5792658999999,None,547.5792658999999,None,547.5792658999999,None,547.5792658999999,None,547.5792658999999,None,549.5687622000005,549.5687622000005,19.900000000000006,1.428,950,1100,1200,,,,,,,,,,,,,,,,,,,,,,,,,,,,,,,,,,,,,,,,,,,,,,,,,,,,,,,,,,,,,,,,,,,,,,,,,,,,,,,,,,,f,25,gululu,2022-04-02_16h34.58.466,emotion,2022.1.2,60.129940800997765,
92,-200,0,-200,two,-200,0,-200,,,,,0,69,69,91,,,,,,,,,,,left,1.1162402000009024,551.0511393999986,None,551.0511393999986,None,552.1842725999995,None,552.1842725999995,None,552.1842725999995,None,554.1664232000003,554.6664280999976,554.1664232000003,554.6664280999976,554.1664232000003,554.6664280999976,552.1842725999995,None,554.6996463099982,None,554.6996463099982,None,554.6996463099982,None,0.010422610001114663,None,554.6996463099982,None,554.6996463099982,None,554.6996463099982,None,554.6996463099982,None,554.6996463099982,None,554.6996463099982,None,554.7087351000009,None,554.7087351000009,None,554.7087351000009,None,0.0036828099982813,0.5036828099982813,554.7087351000009,None,554.7087351000009,None,554.7087351000009,None,554.7087351000009,None,554.7087351000009,None,554.7087351000009,None,556.6988295999981,556.6988295999981,-44.2,1.379,750,1100,1000,,,,,,,,,,,,,,,,,,,,,,,,,,,,,,,,,,,,,,,,,,,,,,,,,,,,,,,,,,,,,,,,,,,,,,,,,,,,,,,,,,,f,25,gululu,2022-04-02_16h34.58.466,emotion,2022.1.2,60.129940800997765,
32,50,200,50,two,50,200,50,,,,,0,70,70,31,,,,,,,,,,,down,0.8624526999992668,558.132390499999,None,558.132390499999,None,559.0143633999978,None,559.0143633999978,None,559.0143633999978,None,560.9968249999984,561.4966160999975,560.9968249999984,561.4966160999975,560.9968249999984,561.4966160999975,559.0143633999978,None,561.5298466100008,None,561.5298466100008,None,561.5298466100008,None,0.010710610000387533,None,561.5298466100008,None,561.5298466100008,None,561.5298466100008,None,561.5298466100008,None,561.5298466100008,None,561.5298466100008,None,561.5379957000005,None,561.5379957000005,None,561.5379957000005,None,0.0038175100016815122,0.5038175100016815,561.5379957000005,None,561.5379957000005,None,561.5379957000005,None,561.5379957000005,None,561.5379957000005,None,561.5379957000005,None,563.5288532999984,563.5288532999984,-23.7,1.301,800,1300,1050,,,,,,,,,,,,,,,,,,,,,,,,,,,,,,,,,,,,,,,,,,,,,,,,,,,,,,,,,,,,,,,,,,,,,,,,,,,,,,,,,,,f,25,gululu,2022-04-02_16h34.58.466,emotion,2022.1.2,60.129940800997765,
69,-50,0,0,two,-50,0,0,,,,,0,71,71,68,,,,,,,,,,,right,0.9048674000005121,564.8938567000005,None,564.8938567000005,None,565.8279837000009,None,565.8279837000009,None,565.8279837000009,None,567.8103097999992,568.3101508,567.8103097999992,568.3101508,567.8103097999992,568.3101508,565.8279837000009,None,568.34349601,None,568.34349601,None,568.34349601,None,0.010958810002193786,None,568.34349601,None,568.34349601,None,568.34349601,None,568.34349601,None,568.34349601,None,568.34349601,None,568.3515339999976,None,568.3515339999976,None,568.3515339999976,None,0.004209610000543762,0.5042096100005438,568.3515339999976,None,568.3515339999976,None,568.3515339999976,None,568.3515339999976,None,568.3515339999976,None,568.3515339999976,None,570.3426763999996,570.3426763999996,-20.1,1.705,750,1300,1050,,,,,,,,,,,,,,,,,,,,,,,,,,,,,,,,,,,,,,,,,,,,,,,,,,,,,,,,,,,,,,,,,,,,,,,,,,,,,,,,,,,f,25,gululu,2022-04-02_16h34.58.466,emotion,2022.1.2,60.129940800997765,
86,-200,0,-200,one,-200,0,-200,,,,,0,72,72,85,,,,,,,,,,,down,1.0667081999999937,572.107156099999,None,572.107156099999,None,573.191577499998,None,573.191577499998,None,573.191577499998,None,575.1737241999981,575.6735335999983,575.1737241999981,575.6735335999983,575.1737241999981,575.6735335999983,573.191577499998,None,575.7068323100008,None,575.7068323100008,None,575.7068323100008,None,0.010598310000204947,None,575.7068323100008,None,575.7068323100008,None,575.7068323100008,None,575.7068323100008,None,575.7068323100008,None,575.7068323100008,None,575.7153235999976,None,575.7153235999976,None,575.7153235999976,None,0.0033633099992584903,0.5033633099992585,575.7153235999976,None,575.7153235999976,None,575.7153235999976,None,575.7153235999976,None,575.7153235999976,None,575.7153235999976,None,577.7059908999981,577.7059908999981,-35.2,1.182,550,1300,850,,,,,,,,,,,,,,,,,,,,,,,,,,,,,,,,,,,,,,,,,,,,,,,,,,,,,,,,,,,,,,,,,,,,,,,,,,,,,,,,,,,f,25,gululu,2022-04-02_16h34.58.466,emotion,2022.1.2,60.129940800997765,
59,-200,-50,0,two,-200,-50,0,,,,,0,73,73,58,,,,,,,,,,,down,1.0949198999987857,578.9382446999989,None,578.9382446999989,None,580.0548011999999,None,580.0548011999999,None,580.0548011999999,None,582.0372437000005,582.5370440000006,582.0372437000005,582.5370440000006,582.0372437000005,582.5370440000006,580.0548011999999,None,582.5704402099997,None,582.5704402099997,None,582.5704402099997,None,0.010490010001376504,None,582.5704402099997,None,582.5704402099997,None,582.5704402099997,None,582.5704402099997,None,582.5704402099997,None,582.5704402099997,None,582.580045499999,None,582.580045499999,None,582.580045499999,None,0.0027887100004591048,0.5027887100004591,582.580045499999,None,582.580045499999,None,582.580045499999,None,582.580045499999,None,582.580045499999,None,582.580045499999,None,584.5692698999992,584.5692698999992,-24.1,0.999,350,1250,850,,,,,,,,,,,,,,,,,,,,,,,,,,,,,,,,,,,,,,,,,,,,,,,,,,,,,,,,,,,,,,,,,,,,,,,,,,,,,,,,,,,f,25,gululu,2022-04-02_16h34.58.466,emotion,2022.1.2,60.129940800997765,
74,-50,-200,-50,one,-50,-200,-50,,,,,0,74,74,73,,,,,,,,,,,right,0.8694073000006028,585.6193036000004,None,585.6193036000004,None,586.5186665000001,None,586.5186665000001,None,586.5186665000001,None,588.5009781999979,589.0005308,588.5009781999979,589.0005308,588.5009781999979,589.0005308,586.5186665000001,None,589.0338168100003,None,589.0338168100003,None,589.0338168100003,None,0.010074609996081563,None,589.0338168100003,None,589.0338168100003,None,589.0338168100003,None,589.0338168100003,None,589.0338168100003,None,589.0338168100003,None,589.0436569999983,None,589.0436569999983,None,589.0436569999983,None,0.0016960100001597311,0.5016960100001597,589.0436569999983,None,589.0436569999983,None,589.0436569999983,None,589.0436569999983,None,589.0436569999983,None,589.0436569999983,None,591.0329327,591.0329327,10.399999999999999,1.907,300,1050,800,,,,,,,,,,,,,,,,,,,,,,,,,,,,,,,,,,,,,,,,,,,,,,,,,,,,,,,,,,,,,,,,,,,,,,,,,,,,,,,,,,,f,25,gululu,2022-04-02_16h34.58.466,emotion,2022.1.2,60.129940800997765,
64,0,0,-200,one,0,0,-200,,,,,0,75,75,63,,,,,,,,,,,down,1.367822600001091,592.9991295,None,592.9991295,None,594.3984066999983,None,594.3984066999983,None,594.3984066999983,None,596.3805151999986,596.8801432,596.3805151999986,596.8801432,596.3805151999986,596.8801432,594.3984066999983,None,596.9137470099973,None,596.9137470099973,None,596.9137470099973,None,0.010524509994866094,None,596.9137470099973,None,596.9137470099973,None,596.9137470099973,None,596.9137470099973,None,596.9137470099973,None,596.9137470099973,None,596.9218111000009,None,596.9218111000009,None,596.9218111000009,None,0.003985009996540612,0.5039850099965406,596.9218111000009,None,596.9218111000009,None,596.9218111000009,None,596.9218111000009,None,596.9218111000009,None,596.9218111000009,None,598.9128525999986,598.9128525999986,-10.200000000000003,1.305,300,1050,600,,,,,,,,,,,,,,,,,,,,,,,,,,,,,,,,,,,,,,,,,,,,,,,,,,,,,,,,,,,,,,,,,,,,,,,,,,,,,,,,,,,f,25,gululu,2022-04-02_16h34.58.466,emotion,2022.1.2,60.129940800997765,
11,200,50,0,two,200,50,0,,,,,0,76,76,10,,,,,,,,,,,left,0.8116420999976981,600.2780063999999,None,600.2780063999999,None,601.1116131999988,None,601.1116131999988,None,601.1116131999988,None,603.094026499999,603.5940919999994,603.094026499999,603.5940919999994,603.094026499999,603.5940919999994,601.1116131999988,None,603.6107439099993,None,603.6107439099993,None,603.6107439099993,None,0.01025440999728744,None,603.6107439099993,None,603.6107439099993,None,603.6107439099993,None,603.6107439099993,None,603.6107439099993,None,603.6107439099993,None,603.6193142999982,None,603.6193142999982,None,603.6193142999982,None,0.003740809996088501,0.5037408099960885,603.6193142999982,None,603.6193142999982,None,603.6193142999982,None,603.6193142999982,None,603.6193142999982,None,603.6193142999982,None,605.6099618000007,605.6099618000007,40.599999999999994,1.108,500,1100,600,,,,,,,,,,,,,,,,,,,,,,,,,,,,,,,,,,,,,,,,,,,,,,,,,,,,,,,,,,,,,,,,,,,,,,,,,,,,,,,,,,,f,25,gululu,2022-04-02_16h34.58.466,emotion,2022.1.2,60.129940800997765,
3,50,0,200,one,50,0,200,,,,,0,77,77,2,,,,,,,,,,,right,1.5115200000000186,606.7757988999983,None,606.7757988999983,None,608.3086804999984,None,608.3086804999984,None,608.3086804999984,None,610.2910306999984,610.7908218999983,610.2910306999984,610.7908218999983,610.2910306999984,610.7908218999983,608.3086804999984,None,610.8242604099993,None,610.8242604099993,None,610.8242604099993,None,0.010648010000295471,None,610.8242604099993,None,610.8242604099993,None,610.8242604099993,None,610.8242604099993,None,610.8242604099993,None,610.8242604099993,None,610.8327952,None,610.8327952,None,610.8327952,None,0.0031604099967807997,0.5031604099967808,610.8327952,None,610.8327952,None,610.8327952,None,610.8327952,None,610.8327952,None,610.8327952,None,612.8229533999984,612.8229533999984,10.299999999999997,0.957,550,1100,800,,,,,,,,,,,,,,,,,,,,,,,,,,,,,,,,,,,,,,,,,,,,,,,,,,,,,,,,,,,,,,,,,,,,,,,,,,,,,,,,,,,f,25,gululu,2022-04-02_16h34.58.466,emotion,2022.1.2,60.129940800997765,
16,0,0,200,one,0,0,200,,,,,0,78,78,15,,,,,,,,,,,down,0.7471650000006775,613.8390271999997,None,613.8390271999997,None,614.6058068999992,None,614.6058068999992,None,614.6058068999992,None,616.5883159000005,617.0876542999977,616.5883159000005,617.0876542999977,616.5883159000005,617.0876542999977,614.6058068999992,None,617.1208554099991,None,617.1208554099991,None,617.1208554099991,None,0.009849509995547123,None,617.1208554099991,None,617.1208554099991,None,617.1208554099991,None,617.1208554099991,None,617.1208554099991,None,617.1208554099991,None,617.1313747999993,None,617.1313747999993,None,617.1313747999993,None,0.0013611100002890453,0.501361110000289,617.1313747999993,None,617.1313747999993,None,617.1313747999993,None,617.1313747999993,None,617.1313747999993,None,617.1313747999993,None,619.1204117999987,619.1204117999987,-12.5,1.192,550,1100,1000,,,,,,,,,,,,,,,,,,,,,,,,,,,,,,,,,,,,,,,,,,,,,,,,,,,,,,,,,,,,,,,,,,,,,,,,,,,,,,,,,,,f,25,gululu,2022-04-02_16h34.58.466,emotion,2022.1.2,60.129940800997765,
4,50,200,0,one,50,200,0,,,,,0,79,79,3,,,,,,,,,,,right,0.7233659999983502,620.3697790000006,None,620.3697790000006,None,621.119387499999,None,621.119387499999,None,621.119387499999,None,623.1019257000007,623.6014909000005,623.1019257000007,623.6014909000005,623.1019257000007,623.6014909000005,621.119387499999,None,623.6348962099997,None,623.6348962099997,None,623.6348962099997,None,0.010751210000307765,None,623.6348962099997,None,623.6348962099997,None,623.6348962099997,None,623.6348962099997,None,623.6348962099997,None,623.6348962099997,None,623.6429680000001,None,623.6429680000001,None,623.6429680000001,None,0.004042309996293625,0.5040423099962936,623.6429680000001,None,623.6429680000001,None,623.6429680000001,None,623.6429680000001,None,623.6429680000001,None,623.6429680000001,None,625.6341085999993,625.6341085999993,-26.9,1.178,600,1300,1000,,,,,,,,,,,,,,,,,,,,,,,,,,,,,,,,,,,,,,,,,,,,,,,,,,,,,,,,,,,,,,,,,,,,,,,,,,,,,,,,,,,f,25,gululu,2022-04-02_16h34.58.466,emotion,2022.1.2,60.129940800997765,
93,0,-200,-200,two,0,-200,-200,,,,,0,80,80,92,,,,,,,,,,,down,0.7513915999988967,626.8666038999982,None,626.8666038999982,None,627.6498833999976,None,627.6498833999976,None,627.6498833999976,None,629.6324167999992,630.1319624999996,629.6324167999992,630.1319624999996,629.6324167999992,630.1319624999996,627.6498833999976,None,630.1653268099996,None,630.1653268099996,None,630.1653268099996,None,0.010506309998163488,None,630.1653268099996,None,630.1653268099996,None,630.1653268099996,None,630.1653268099996,None,630.1653268099996,None,630.1653268099996,None,630.1737890999975,None,630.1737890999975,None,630.1737890999975,None,0.0038838100008433685,0.5038838100008434,630.1737890999975,None,630.1737890999975,None,630.1737890999975,None,630.1737890999975,None,630.1737890999975,None,630.1737890999975,None,632.1641500000005,632.1641500000005,49.099999999999994,1.398,600,1100,800,,,,,,,,,,,,,,,,,,,,,,,,,,,,,,,,,,,,,,,,,,,,,,,,,,,,,,,,,,,,,,,,,,,,,,,,,,,,,,,,,,,f,25,gululu,2022-04-02_16h34.58.466,emotion,2022.1.2,60.129940800997765,
25,200,50,50,one,200,50,50,,,,,0,81,81,24,,,,,,,,,,,left,0.9967111999976623,633.6144552999976,None,633.6144552999976,None,634.6300623999996,None,634.6300623999996,None,634.6300623999996,None,636.6125042999993,637.1123102999991,636.6125042999993,637.1123102999991,636.6125042999993,637.1123102999991,634.6300623999996,None,637.1456582099978,None,637.1456582099978,None,637.1456582099978,None,0.01045990999773494,None,637.1456582099978,None,637.1456582099978,None,637.1456582099978,None,637.1456582099978,None,637.1456582099978,None,637.1456582099978,None,637.154096899998,None,637.154096899998,None,637.154096899998,None,0.0034775099957187194,0.5034775099957187,637.154096899998,None,637.154096899998,None,637.154096899998,None,637.154096899998,None,637.154096899998,None,637.154096899998,None,639.1445759999988,639.1445759999988,42.599999999999994,2.828,800,1150,850,,,,,,,,,,,,,,,,,,,,,,,,,,,,,,,,,,,,,,,,,,,,,,,,,,,,,,,,,,,,,,,,,,,,,,,,,,,,,,,,,,,f,25,gululu,2022-04-02_16h34.58.466,emotion,2022.1.2,60.129940800997765,
88,-200,-200,-50,one,-200,-200,-50,,,,,0,82,82,87,,,,,,,,,,,down,1.2480808999971487,642.0261971,None,642.0261971,None,643.2927916999979,None,643.2927916999979,None,643.2927916999979,None,645.2752961000006,645.774751099998,645.2752961000006,645.774751099998,645.2752961000006,645.774751099998,643.2927916999979,None,645.8080867099976,None,645.8080867099976,None,645.8080867099976,None,0.010629309999785619,None,645.8080867099976,None,645.8080867099976,None,645.8080867099976,None,645.8080867099976,None,645.8080867099976,None,645.8080867099976,None,645.8170444999996,None,645.8170444999996,None,645.8170444999996,None,0.00393730999348918,0.5039373099934892,645.8170444999996,None,645.8170444999996,None,645.8170444999996,None,645.8170444999996,None,645.8170444999996,None,645.8170444999996,None,647.8072627000001,647.8072627000001,-1.2999999999999972,1.342,600,950,800,,,,,,,,,,,,,,,,,,,,,,,,,,,,,,,,,,,,,,,,,,,,,,,,,,,,,,,,,,,,,,,,,,,,,,,,,,,,,,,,,,,f,25,gululu,2022-04-02_16h34.58.466,emotion,2022.1.2,60.129940800997765,
87,0,-200,-200,one,0,-200,-200,,,,,0,83,83,86,,,,,,,,,,,down,0.7813110999995843,649.2067141999978,None,649.2067141999978,None,650.0062260999985,None,650.0062260999985,None,650.0062260999985,None,651.9886736000008,652.4886288999987,651.9886736000008,652.4886288999987,651.9886736000008,652.4886288999987,650.0062260999985,None,652.5052808099987,None,652.5052808099987,None,652.5052808099987,None,0.010293209998053499,None,652.5052808099987,None,652.5052808099987,None,652.5052808099987,None,652.5052808099987,None,652.5052808099987,None,652.5052808099987,None,652.5145902000004,None,652.5145902000004,None,652.5145902000004,None,0.002585809997981414,0.5025858099979814,652.5145902000004,None,652.5145902000004,None,652.5145902000004,None,652.5145902000004,None,652.5145902000004,None,652.5145902000004,None,654.5043574999982,654.5043574999982,44.0,1.642,600,750,600,,,,,,,,,,,,,,,,,,,,,,,,,,,,,,,,,,,,,,,,,,,,,,,,,,,,,,,,,,,,,,,,,,,,,,,,,,,,,,,,,,,f,25,gululu,2022-04-02_16h34.58.466,emotion,2022.1.2,60.129940800997765,
54,-200,0,-50,one,-200,0,-50,,,,,0,84,84,53,,,,,,,,,,,right,0.7524726999981795,656.203557599998,None,656.203557599998,None,656.9863413999992,None,656.9863413999992,None,656.9863413999992,None,658.9689789000004,659.4688051999983,658.9689789000004,659.4688051999983,658.9689789000004,659.4688051999983,656.9863413999992,None,659.4854571099983,None,659.4854571099983,None,659.4854571099983,None,0.010301809994416544,None,659.4854571099983,None,659.4854571099983,None,659.4854571099983,None,659.4854571099983,None,659.4854571099983,None,659.4854571099983,None,659.4936492999987,None,659.4936492999987,None,659.4936492999987,None,0.0034017099969787523,0.5034017099969788,659.4936492999987,None,659.4936492999987,None,659.4936492999987,None,659.4936492999987,None,659.4936492999987,None,659.4936492999987,None,661.4845731999994,661.4845731999994,-28.5,1.756,400,750,550,,,,,,,,,,,,,,,,,,,,,,,,,,,,,,,,,,,,,,,,,,,,,,,,,,,,,,,,,,,,,,,,,,,,,,,,,,,,,,,,,,,f,25,gululu,2022-04-02_16h34.58.466,emotion,2022.1.2,60.129940800997765,
96,-50,-200,-200,two,-50,-200,-200,,,,,0,85,85,95,,,,,,,,,,,left,0.8719639999981155,663.299148099999,None,663.299148099999,None,664.2000015999984,None,664.2000015999984,None,664.2000015999984,None,666.1822145000006,666.6820625,666.1822145000006,666.6820625,666.1822145000006,666.6820625,664.2000015999984,None,666.7155362099999,None,666.7155362099999,None,666.7155362099999,None,0.01054180999926757,None,666.7155362099999,None,666.7155362099999,None,666.7155362099999,None,666.7155362099999,None,666.7155362099999,None,666.7155362099999,None,666.7247844999983,None,666.7247844999983,None,666.7247844999983,None,0.0022251100017456338,0.5022251100017456,666.7247844999983,None,666.7247844999983,None,666.7247844999983,None,666.7247844999983,None,666.7247844999983,None,666.7247844999983,None,668.7144705999999,668.7144705999999,41.900000000000006,1.273,350,550,350,,,,,,,,,,,,,,,,,,,,,,,,,,,,,,,,,,,,,,,,,,,,,,,,,,,,,,,,,,,,,,,,,,,,,,,,,,,,,,,,,,,f,25,gululu,2022-04-02_16h34.58.466,emotion,2022.1.2,60.129940800997765,
90,-50,-200,-200,one,-50,-200,-200,,,,,0,86,86,89,,,,,,,,,,,left,0.8646526999982598,670.0472838999995,None,670.0472838999995,None,670.9298892999977,None,670.9298892999977,None,670.9298892999977,None,672.9126187000002,673.4122757000005,672.9126187000002,673.4122757000005,672.9126187000002,673.4122757000005,670.9298892999977,None,673.4289276100004,None,673.4289276100004,None,673.4289276100004,None,0.01029981000101543,None,673.4289276100004,None,673.4289276100004,None,673.4289276100004,None,673.4289276100004,None,673.4289276100004,None,673.4289276100004,None,673.4381114999996,None,673.4381114999996,None,673.4381114999996,None,0.002236309999716468,0.5022363099997165,673.4381114999996,None,673.4381114999996,None,673.4381114999996,None,673.4381114999996,None,673.4381114999996,None,673.4381114999996,None,675.4281071000005,675.4281071000005,41.0,1.334,300,350,150,,,,,,,,,,,,,,,,,,,,,,,,,,,,,,,,,,,,,,,,,,,,,,,,,,,,,,,,,,,,,,,,,,,,,,,,,,,,,,,,,,,f,25,gululu,2022-04-02_16h34.58.466,emotion,2022.1.2,60.129940800997765,
14,0,50,0,one,0,50,0,,,,,0,87,87,13,,,,,,,,,,,left,0.7650314000020444,676.8119694999987,None,676.8119694999987,None,677.5939514999991,None,677.5939514999991,None,677.5939514999991,None,679.5761739000009,680.0760273999986,679.5761739000009,680.0760273999986,679.5761739000009,680.0760273999986,677.5939514999991,None,680.1093917099985,None,680.1093917099985,None,680.1093917099985,None,0.010877509997953894,None,680.1093917099985,None,680.1093917099985,None,680.1093917099985,None,680.1093917099985,None,680.1093917099985,None,680.1093917099985,None,680.1175707000002,None,680.1175707000002,None,680.1175707000002,None,0.00409890999799245,0.5040989099979925,680.1175707000002,None,680.1175707000002,None,680.1175707000002,None,680.1175707000002,None,680.1175707000002,None,680.1175707000002,None,682.1083696999995,682.1083696999995,-11.700000000000003,1.278,300,400,150,,,,,,,,,,,,,,,,,,,,,,,,,,,,,,,,,,,,,,,,,,,,,,,,,,,,,,,,,,,,,,,,,,,,,,,,,,,,,,,,,,,f,25,gululu,2022-04-02_16h34.58.466,emotion,2022.1.2,60.129940800997765,
36,50,50,0,two,50,50,0,,,,,0,88,88,35,,,,,,,,,,,left,0.8322423999998136,683.4411344,None,683.4411344,None,684.2904323000002,None,684.2904323000002,None,684.2904323000002,None,686.2732924999982,686.7728659999993,686.2732924999982,686.7728659999993,686.2732924999982,686.7728659999993,684.2904323000002,None,686.7895179099993,None,686.7895179099993,None,686.7895179099993,None,0.010090409999975236,None,686.7895179099993,None,686.7895179099993,None,686.7895179099993,None,686.7895179099993,None,686.7895179099993,None,686.7895179099993,None,686.7983514000007,None,686.7983514000007,None,686.7983514000007,None,0.002731209999183193,0.5027312099991832,686.7983514000007,None,686.7983514000007,None,686.7983514000007,None,686.7983514000007,None,686.7983514000007,None,686.7983514000007,None,688.7886521,688.7886521,0.5,2.46,350,450,150,,,,,,,,,,,,,,,,,,,,,,,,,,,,,,,,,,,,,,,,,,,,,,,,,,,,,,,,,,,,,,,,,,,,,,,,,,,,,,,,,,,f,25,gululu,2022-04-02_16h34.58.466,emotion,2022.1.2,60.129940800997765,
35,50,0,50,two,50,0,50,,,,,0,89,89,34,,,,,,,,,,,left,1.104424500001187,691.3039599999975,None,691.3039599999975,None,692.4369388999985,None,692.4369388999985,None,692.4369388999985,None,694.4192837999981,694.9192756999983,694.4192837999981,694.9192756999983,694.4192837999981,694.9192756999983,692.4369388999985,None,694.9522799099992,None,694.9522799099992,None,694.9522799099992,None,0.01069190999987768,None,694.9522799099992,None,694.9522799099992,None,694.9522799099992,None,694.9522799099992,None,694.9522799099992,None,694.9522799099992,None,694.9603081999994,None,694.9603081999994,None,694.9603081999994,None,0.004248009998264024,0.504248009998264,694.9603081999994,None,694.9603081999994,None,694.9603081999994,None,694.9603081999994,None,694.9603081999994,None,694.9603081999994,None,696.9514959999979,696.9514959999979,23.400000000000006,1.324,400,450,200,,,,,,,,,,,,,,,,,,,,,,,,,,,,,,,,,,,,,,,,,,,,,,,,,,,,,,,,,,,,,,,,,,,,,,,,,,,,,,,,,,,f,25,gululu,2022-04-02_16h34.58.466,emotion,2022.1.2,60.129940800997765,
30,50,50,0,one,50,50,0,,,,,0,90,90,29,,,,,,,,,,,left,0.8659453000000212,698.3345840000002,None,698.3345840000002,None,699.2173863999997,None,699.2173863999997,None,699.2173863999997,None,701.1998362999984,701.6994209999975,701.1998362999984,701.6994209999975,701.1998362999984,701.6994209999975,699.2173863999997,None,701.732757809999,None,701.732757809999,None,701.732757809999,None,0.01070410999818705,None,701.732757809999,None,701.732757809999,None,701.732757809999,None,701.732757809999,None,701.732757809999,None,701.732757809999,None,701.7411135000002,None,701.7411135000002,None,701.7411135000002,None,0.004281910001736833,0.5042819100017368,701.7411135000002,None,701.7411135000002,None,701.7411135000002,None,701.7411135000002,None,701.7411135000002,None,701.7411135000002,None,703.7322772999978,703.7322772999978,0.0,1.527,450,500,200,,,,,,,,,,,,,,,,,,,,,,,,,,,,,,,,,,,,,,,,,,,,,,,,,,,,,,,,,,,,,,,,,,,,,,,,,,,,,,,,,,,f,25,gululu,2022-04-02_16h34.58.466,emotion,2022.1.2,60.129940800997765,
82,0,-50,-50,two,0,-50,-50,,,,,0,91,91,81,,,,,,,,,,,left,1.5002328999980818,705.3140657000004,None,705.3140657000004,None,706.8472629999997,None,706.8472629999997,None,706.8472629999997,None,708.8296152999974,709.3292808999977,708.8296152999974,709.3292808999977,708.8296152999974,709.3292808999977,706.8472629999997,None,709.3626993099984,None,709.3626993099984,None,709.3626993099984,None,0.010788609997689491,None,709.3626993099984,None,709.3626993099984,None,709.3626993099984,None,709.3626993099984,None,709.3626993099984,None,709.3626993099984,None,709.3712006999995,None,709.3712006999995,None,709.3712006999995,None,0.004142809997574659,0.5041428099975747,709.3712006999995,None,709.3712006999995,None,709.3712006999995,None,709.3712006999995,None,709.3712006999995,None,709.3712006999995,None,711.3619068000007,711.3619068000007,31.5,1.206,450,450,150,,,,,,,,,,,,,,,,,,,,,,,,,,,,,,,,,,,,,,,,,,,,,,,,,,,,,,,,,,,,,,,,,,,,,,,,,,,,,,,,,,,f,25,gululu,2022-04-02_16h34.58.466,emotion,2022.1.2,60.129940800997765,
65,0,-200,0,one,0,-200,0,,,,,0,92,92,64,,,,,,,,,,,left,0.8262953999983438,712.6265311999996,None,712.6265311999996,None,713.4775049999989,None,713.4775049999989,None,713.4775049999989,None,715.4597240999974,715.9597192000001,715.4597240999974,715.9597192000001,715.4597240999974,715.9597192000001,713.4775049999989,None,715.9927958099994,None,715.9927958099994,None,715.9927958099994,None,0.010882009999477305,None,715.9927958099994,None,715.9927958099994,None,715.9927958099994,None,715.9927958099994,None,715.9927958099994,None,715.9927958099994,None,716.0004749,None,716.0004749,None,716.0004749,None,0.004524910000327509,0.5045249100003275,716.0004749,None,716.0004749,None,716.0004749,None,716.0004749,None,716.0004749,None,716.0004749,None,717.9921718000005,717.9921718000005,45.400000000000006,1.16,450,250,150,,,,,,,,,,,,,,,,,,,,,,,,,,,,,,,,,,,,,,,,,,,,,,,,,,,,,,,,,,,,,,,,,,,,,,,,,,,,,,,,,,,f,25,gululu,2022-04-02_16h34.58.466,emotion,2022.1.2,60.129940800997765,
19,0,0,50,two,0,0,50,,,,,0,93,93,18,,,,,,,,,,,left,0.8516243999983999,719.2081706999998,None,719.2081706999998,None,720.0910717000006,None,720.0910717000006,None,720.0910717000006,None,722.0736615999995,722.572958599998,722.0736615999995,722.572958599998,722.0736615999995,722.572958599998,720.0910717000006,None,722.6065105100002,None,722.6065105100002,None,722.6065105100002,None,0.010346709997975267,None,722.6065105100002,None,722.6065105100002,None,722.6065105100002,None,722.6065105100002,None,722.6065105100002,None,722.6065105100002,None,722.6146726000006,None,722.6146726000006,None,722.6146726000006,None,0.003784009997616522,0.5037840099976165,722.6146726000006,None,722.6146726000006,None,722.6146726000006,None,722.6146726000006,None,722.6146726000006,None,722.6146726000006,None,724.6055317999999,724.6055317999999,-8.899999999999999,3.165,450,250,200,,,,,,,,,,,,,,,,,,,,,,,,,,,,,,,,,,,,,,,,,,,,,,,,,,,,,,,,,,,,,,,,,,,,,,,,,,,,,,,,,,,f,25,gululu,2022-04-02_16h34.58.466,emotion,2022.1.2,60.129940800997765,
