trialNumber,mychoice,otherchoice,stay,skip,pointsWon,otherScore,unobtained,choicepos,pos_1,otherscore,allowedkeyresp,trials_2.thisRepN,trials_2.thisTrialN,trials_2.thisN,trials_2.thisIndex,trials.thisRepN,trials.thisTrialN,trials.thisN,trials.thisIndex,image_2.started,image_2.stopped,key_resp_2.keys,key_resp_2.rt,key_resp_2.started,key_resp_2.stopped,key_resp_6.keys,key_resp_6.rt,key_resp_6.started,key_resp_6.stopped,text.started,text.stopped,left_3.started,left_3.stopped,middle_3.started,middle_3.stopped,right_3.started,right_3.stopped,otherleft_1.started,otherleft_1.stopped,othermiddle_1.started,othermiddle_1.stopped,otherright_1.started,otherright_1.stopped,text_2.started,text_2.stopped,left_4.started,left_4.stopped,right_4.started,right_4.stopped,middle_4.started,middle_4.stopped,ISI_3.started,ISI_3.stopped,mypick.started,mypick.stopped,otherpick.started,otherpick.stopped,residal.started,residal.stopped,otherleft_5.started,otherleft_5.stopped,othermiddle_5.started,othermiddle_5.stopped,otherright_5.started,otherright_5.stopped,left_5.started,left_5.stopped,right_5.started,right_5.stopped,middle_5.started,middle_5.stopped,ISI_5.started,ISI_5.stopped,mypick_1.started,mypick_1.stopped,otherpick_1.started,otherpick_1.stopped,residal_1.started,residal_1.stopped,otherleft_6.started,otherleft_6.stopped,othermiddle_6.started,othermiddle_6.stopped,otherright_6.started,otherright_6.stopped,text_3.started,text_3.stopped,rating,ratingrt,totalScore,othertotalScore,unobtainedScore,image_4.started,image_4.stopped,key_resp_3.keys,key_resp_3.rt,key_resp_3.started,key_resp_3.stopped,image_5.started,image_5.stopped,key_resp.keys,key_resp.rt,key_resp.started,key_resp.stopped,otherleft_3.started,otherleft_3.stopped,othermiddle_3.started,othermiddle_3.stopped,otherright_3.started,otherright_3.stopped,text_4.started,text_4.stopped,ISI_2.started,ISI_2.stopped,key_resp_4.keys,key_resp_4.rt,key_resp_4.started,key_resp_4.stopped,otherleft_4.started,otherleft_4.stopped,othermiddle_4.started,othermiddle_4.stopped,otherright_4.started,otherright_4.stopped,text_5.started,text_5.stopped,left.started,left.stopped,right.started,right.stopped,middle.started,middle.stopped,ISI.started,ISI.stopped,mypick_3.started,mypick_3.stopped,otherpick_3.started,otherpick_3.stopped,residal_3.started,residal_3.stopped,otherleft.started,otherleft.stopped,othermiddle.started,othermiddle.stopped,otherright.started,otherright.stopped,right_2.started,right_2.stopped,middle_2.started,middle_2.stopped,left_2.started,left_2.stopped,ISI_4.started,ISI_4.stopped,mypick_4.started,mypick_4.stopped,otherpick_4.started,otherpick_4.stopped,residal_4.started,residal_4.stopped,otherleft_2.started,otherleft_2.stopped,othermiddle_2.started,othermiddle_2.stopped,otherright_2.started,otherright_2.stopped,text_6.started,text_6.stopped,image_3.started,image_3.stopped,key_resp_9.keys,key_resp_9.rt,key_resp_9.started,key_resp_9.stopped,gender,age,participant,date,expName,psychopyVersion,frameRate,
,,,,,,,,,,,,,,,,,,,,27.55546979999781,None,space,6.510152299997571,27.55546979999781,None,,,,,,,,,,,,,,,,,,,,,,,,,,,,,,,,,,,,,,,,,,,,,,,,,,,,,,,,,,,,,,,,,,,,,,,,,,,,,,,,,,,,,,,,,,,,,,,,,,,,,,,,,,,,,,,,,,,,,,,,,,,,,,,,,,,,,,,,,,,,,,,,,,,,,,f,24,Jiangtianyi,2022-04-01_18h33.47.409,emotion,2022.1.2,60.05107944563209,
17,0,200,0,one,0,200,0,,,,,0,0,0,16,,,,,,,,,,,right,5.9329773999998,34.133843999996316,None,34.133843999996316,None,40.09166890000051,None,40.09166890000051,None,40.09166890000051,None,42.073902699994505,42.57355639999878,42.073902699994505,42.57355639999878,42.073902699994505,42.57355639999878,40.09166890000051,None,42.607010789997005,None,42.607010789997005,None,42.607010789997005,None,0.004704389990365598,None,42.607010789997005,None,42.607010789997005,None,42.607010789997005,None,42.607010789997005,None,42.607010789997005,None,42.607010789997005,None,42.62379939999664,None,42.62379939999664,None,42.62379939999664,None,0.011924080004973803,0.5119240800049738,42.62379939999664,None,42.62379939999664,None,42.62379939999664,None,42.62379939999664,None,42.62379939999664,None,42.62379939999664,None,44.60616939999454,44.60616939999454,-25.2,7.338,200,200,0,,,,,,,,,,,,,,,,,,,,,,,,,,,,,,,,,,,,,,,,,,,,,,,,,,,,,,,,,,,,,,,,,,,,,,,,,,,,,,,,,,,f,24,Jiangtianyi,2022-04-01_18h33.47.409,emotion,2022.1.2,60.05107944563209,
33,50,50,200,two,50,50,200,,,,,0,1,1,32,,,,,,,,,,,right,5.497231800007285,52.035779699996056,None,52.035779699996056,None,57.55030089999491,None,57.55030089999491,None,57.55030089999491,None,59.532581200001005,60.032458900001075,59.532581200001005,60.032458900001075,59.532581200001005,60.032458900001075,57.55030089999491,None,60.06554688999604,None,60.06554688999604,None,60.06554688999604,None,0.004568089992972091,None,60.06554688999604,None,60.06554688999604,None,60.06554688999604,None,60.06554688999604,None,60.06554688999604,None,60.06554688999604,None,60.08025919999636,None,60.08025919999636,None,60.08025919999636,None,0.01330168000276899,0.513301680002769,60.08025919999636,None,60.08025919999636,None,60.08025919999636,None,60.08025919999636,None,60.08025919999636,None,60.08025919999636,None,62.06478789999528,62.06478789999528,0.20000000000000284,9.758,250,250,200,,,,,,,,,,,,,,,,,,,,,,,,,,,,,,,,,,,,,,,,,,,,,,,,,,,,,,,,,,,,,,,,,,,,,,,,,,,,,,,,,,,f,24,Jiangtianyi,2022-04-01_18h33.47.409,emotion,2022.1.2,60.05107944563209,
67,0,0,-50,two,0,0,-50,,,,,0,2,2,66,,,,,,,,,,,right,5.915453499997966,71.89372629999707,None,71.89372629999707,None,77.8409920999984,None,77.8409920999984,None,77.8409920999984,None,79.82347579999623,80.32323049999832,79.82347579999623,80.32323049999832,79.82347579999623,80.32323049999832,77.8409920999984,None,80.35649339000084,None,80.35649339000084,None,80.35649339000084,None,0.009320489996753167,None,80.35649339000084,None,80.35649339000084,None,80.35649339000084,None,80.35649339000084,None,80.35649339000084,None,80.35649339000084,None,80.3675471999959,None,80.3675471999959,None,80.3675471999959,None,0.0011311899943393655,0.5011311899943394,80.3675471999959,None,80.3675471999959,None,80.3675471999959,None,80.3675471999959,None,80.3675471999959,None,80.3675471999959,None,82.3554576999959,82.3554576999959,25.200000000000003,7.592,250,250,150,,,,,,,,,,,,,,,,,,,,,,,,,,,,,,,,,,,,,,,,,,,,,,,,,,,,,,,,,,,,,,,,,,,,,,,,,,,,,,,,,,,f,24,Jiangtianyi,2022-04-01_18h33.47.409,emotion,2022.1.2,60.05107944563209,
22,0,0,200,two,0,0,200,,,,,0,3,3,21,,,,,,,,,,,down,3.7010053000049083,90.0020022999961,None,90.0020022999961,None,93.73392089999834,None,93.73392089999834,None,93.73392089999834,None,95.71631509999861,96.21591039999475,95.71631509999861,96.21591039999475,95.71631509999861,96.21591039999475,93.73392089999834,None,96.24910838999786,None,96.24910838999786,None,96.24910838999786,None,0.01036048999230843,None,96.24910838999786,None,96.24910838999786,None,96.24910838999786,None,96.24910838999786,None,96.24910838999786,None,96.24910838999786,None,96.2582040999987,None,96.2582040999987,None,96.2582040999987,None,0.0036088900014874525,0.5036088900014875,96.2582040999987,None,96.2582040999987,None,96.2582040999987,None,96.2582040999987,None,96.2582040999987,None,96.2582040999987,None,98.24814689999766,98.24814689999766,-0.20000000000000284,10.073,250,250,350,,,,,,,,,,,,,,,,,,,,,,,,,,,,,,,,,,,,,,,,,,,,,,,,,,,,,,,,,,,,,,,,,,,,,,,,,,,,,,,,,,,f,24,Jiangtianyi,2022-04-01_18h33.47.409,emotion,2022.1.2,60.05107944563209,
57,-50,0,-200,two,-50,0,-200,,,,,0,4,4,56,,,,,,,,,,,right,3.7081968000056804,108.3773704999985,None,108.3773704999985,None,112.10869819999789,None,112.10869819999789,None,112.10869819999789,None,114.0913156999959,114.59092249999958,114.0913156999959,114.59092249999958,114.0913156999959,114.59092249999958,112.10869819999789,None,114.62441718999908,None,114.62441718999908,None,114.62441718999908,None,0.01025868999568047,None,114.62441718999908,None,114.62441718999908,None,114.62441718999908,None,114.62441718999908,None,114.62441718999908,None,114.62441718999908,None,114.63342739999644,None,114.63342739999644,None,114.63342739999644,None,0.0017265899950871244,0.5017265899950871,114.63342739999644,None,114.63342739999644,None,114.63342739999644,None,114.63342739999644,None,114.63342739999644,None,114.63342739999644,None,116.62351289999788,116.62351289999788,-25.1,4.083,200,250,150,,,,,,,,,,,,,,,,,,,,,,,,,,,,,,,,,,,,,,,,,,,,,,,,,,,,,,,,,,,,,,,,,,,,,,,,,,,,,,,,,,,f,24,Jiangtianyi,2022-04-01_18h33.47.409,emotion,2022.1.2,60.05107944563209,
96,-50,-200,-200,two,-50,-200,-200,,,,,0,5,5,95,,,,,,,,,,,down,3.6915544000003138,120.755717,None,120.755717,None,124.46974190000037,None,124.46974190000037,None,124.46974190000037,None,126.45215469999675,126.95213749999675,126.45215469999675,126.95213749999675,126.45215469999675,126.95213749999675,124.46974190000037,None,126.96881858999696,None,126.96881858999696,None,126.96881858999696,None,0.009786590002477169,None,126.96881858999696,None,126.96881858999696,None,126.96881858999696,None,126.96881858999696,None,126.96881858999696,None,126.96881858999696,None,126.97901160000038,None,126.97901160000038,None,126.97901160000038,None,0.0015055900003062561,0.5015055900003063,126.97901160000038,None,126.97901160000038,None,126.97901160000038,None,126.97901160000038,None,126.97901160000038,None,126.97901160000038,None,128.96789539999736,128.96789539999736,0.0,6.664,150,50,-50,,,,,,,,,,,,,,,,,,,,,,,,,,,,,,,,,,,,,,,,,,,,,,,,,,,,,,,,,,,,,,,,,,,,,,,,,,,,,,,,,,,f,24,Jiangtianyi,2022-04-01_18h33.47.409,emotion,2022.1.2,60.05107944563209,
77,-50,0,-50,one,-50,0,-50,,,,,0,6,6,76,,,,,,,,,,,right,5.1060545000000275,135.68226319999667,None,135.68226319999667,None,140.8123787000004,None,140.8123787000004,None,140.8123787000004,None,142.79479629999696,143.29461699999956,142.79479629999696,143.29461699999956,142.79479629999696,143.29461699999956,140.8123787000004,None,143.32789458999758,None,143.32789458999758,None,143.32789458999758,None,0.01046359000611119,None,143.32789458999758,None,143.32789458999758,None,143.32789458999758,None,143.32789458999758,None,143.32789458999758,None,143.32789458999758,None,143.3374460999985,None,143.3374460999985,None,143.3374460999985,None,0.002716789997066371,0.5027167899970664,143.3374460999985,None,143.3374460999985,None,143.3374460999985,None,143.3374460999985,None,143.3374460999985,None,143.3374460999985,None,145.326954199998,145.326954199998,-25.0,4.021,100,50,-100,,,,,,,,,,,,,,,,,,,,,,,,,,,,,,,,,,,,,,,,,,,,,,,,,,,,,,,,,,,,,,,,,,,,,,,,,,,,,,,,,,,f,24,Jiangtianyi,2022-04-01_18h33.47.409,emotion,2022.1.2,60.05107944563209,
11,200,50,0,two,200,50,0,,,,,0,7,7,10,,,,,,,,,,,left,5.548448300003656,149.40746149999904,None,149.40746149999904,None,154.97256949999428,None,154.97256949999428,None,154.97256949999428,None,156.9548047999997,157.4548563999997,156.9548047999997,157.4548563999997,156.9548047999997,157.4548563999997,154.97256949999428,None,157.48815729000052,None,157.48815729000052,None,157.48815729000052,None,0.010697390003770124,None,157.48815729000052,None,157.48815729000052,None,157.48815729000052,None,157.48815729000052,None,157.48815729000052,None,157.48815729000052,None,157.49672409999766,None,157.49672409999766,None,157.49672409999766,None,0.003051489999052137,0.5030514899990521,157.49672409999766,None,157.49672409999766,None,157.49672409999766,None,157.49672409999766,None,157.49672409999766,None,157.49672409999766,None,159.4872499999983,159.4872499999983,50.0,3.828,300,100,-100,,,,,,,,,,,,,,,,,,,,,,,,,,,,,,,,,,,,,,,,,,,,,,,,,,,,,,,,,,,,,,,,,,,,,,,,,,,,,,,,,,,f,24,Jiangtianyi,2022-04-01_18h33.47.409,emotion,2022.1.2,60.05107944563209,
52,-50,-200,0,one,-50,-200,0,,,,,0,8,8,51,,,,,,,,,,,right,5.759746900002938,163.36884930000087,None,163.36884930000087,None,169.14962699999887,None,169.14962699999887,None,169.14962699999887,None,171.13191119999829,171.63180629999988,171.13191119999829,171.63180629999988,171.13191119999829,171.63180629999988,169.14962699999887,None,171.66507208999536,None,171.66507208999536,None,171.66507208999536,None,0.010443889994348865,None,171.66507208999536,None,171.66507208999536,None,171.66507208999536,None,171.66507208999536,None,171.66507208999536,None,171.66507208999536,None,171.6737734999988,None,171.6737734999988,None,171.6737734999988,None,0.002600889994937461,0.5026008899949375,171.6737734999988,None,171.6737734999988,None,171.6737734999988,None,171.6737734999988,None,171.6737734999988,None,171.6737734999988,None,173.66430489999766,173.66430489999766,24.900000000000006,4.503,250,-100,-100,,,,,,,,,,,,,,,,,,,,,,,,,,,,,,,,,,,,,,,,,,,,,,,,,,,,,,,,,,,,,,,,,,,,,,,,,,,,,,,,,,,f,24,Jiangtianyi,2022-04-01_18h33.47.409,emotion,2022.1.2,60.05107944563209,
30,50,50,0,one,50,50,0,,,,,0,9,9,29,,,,,,,,,,,down,4.247886400000425,178.22777539999515,None,178.22777539999515,None,182.493507399995,None,182.493507399995,None,182.493507399995,None,184.47594910000043,184.97568679999677,184.47594910000043,184.97568679999677,184.47594910000043,184.97568679999677,182.493507399995,None,185.00921169000065,None,185.00921169000065,None,185.00921169000065,None,0.010511790002055932,None,185.00921169000065,None,185.00921169000065,None,185.00921169000065,None,185.00921169000065,None,185.00921169000065,None,185.00921169000065,None,185.01820709999447,None,185.01820709999447,None,185.01820709999447,None,0.002712590001465287,0.5027125900014653,185.01820709999447,None,185.01820709999447,None,185.01820709999447,None,185.01820709999447,None,185.01820709999447,None,185.01820709999447,None,187.00823390000005,187.00823390000005,25.5,4.427,300,-50,-100,,,,,,,,,,,,,,,,,,,,,,,,,,,,,,,,,,,,,,,,,,,,,,,,,,,,,,,,,,,,,,,,,,,,,,,,,,,,,,,,,,,f,24,Jiangtianyi,2022-04-01_18h33.47.409,emotion,2022.1.2,60.05107944563209,
21,50,0,0,two,50,0,0,,,,,0,10,10,20,,,,,,,,,,,right,2.9297568000038154,191.48942189999798,None,191.48942189999798,None,194.4381285999989,None,194.4381285999989,None,194.4381285999989,None,196.42053319999832,196.92038739999407,196.42053319999832,196.92038739999407,196.42053319999832,196.92038739999407,194.4381285999989,None,196.95364238999463,None,196.95364238999463,None,196.95364238999463,None,0.01042808999773115,None,196.95364238999463,None,196.95364238999463,None,196.95364238999463,None,196.95364238999463,None,196.95364238999463,None,196.95364238999463,None,196.96194309999555,None,196.96194309999555,None,196.96194309999555,None,0.002835189996403642,0.5028351899964036,196.96194309999555,None,196.96194309999555,None,196.96194309999555,None,196.96194309999555,None,196.96194309999555,None,196.96194309999555,None,198.95285769999464,198.95285769999464,24.400000000000006,3.0,350,-50,-100,,,,,,,,,,,,,,,,,,,,,,,,,,,,,,,,,,,,,,,,,,,,,,,,,,,,,,,,,,,,,,,,,,,,,,,,,,,,,,,,,,,f,24,Jiangtianyi,2022-04-01_18h33.47.409,emotion,2022.1.2,60.05107944563209,
2,0,200,50,one,0,200,50,,,,,0,11,11,1,,,,,,,,,,,down,6.238878800002567,202.0022891999979,None,202.0022891999979,None,208.26524909999716,None,208.26524909999716,None,208.26524909999716,None,210.24768039999617,210.74726609999925,210.24768039999617,210.74726609999925,210.24768039999617,210.74726609999925,208.26524909999716,None,210.7808102899973,None,210.7808102899973,None,210.7808102899973,None,0.0106365899919183,None,210.7808102899973,None,210.7808102899973,None,210.7808102899973,None,210.7808102899973,None,210.7808102899973,None,210.7808102899973,None,210.78890509999474,None,210.78890509999474,None,210.78890509999474,None,0.0037812899972777814,0.5037812899972778,210.78890509999474,None,210.78890509999474,None,210.78890509999474,None,210.78890509999474,None,210.78890509999474,None,210.78890509999474,None,212.77960389999498,212.77960389999498,-25.6,3.549,350,150,-50,,,,,,,,,,,,,,,,,,,,,,,,,,,,,,,,,,,,,,,,,,,,,,,,,,,,,,,,,,,,,,,,,,,,,,,,,,,,,,,,,,,f,24,Jiangtianyi,2022-04-01_18h33.47.409,emotion,2022.1.2,60.05107944563209,
46,200,200,50,two,200,200,50,,,,,0,12,12,45,,,,,,,,,,,down,6.489294400002109,216.37815059999411,None,216.37815059999411,None,222.89186319999862,None,222.89186319999862,None,222.89186319999862,None,224.87429339999653,225.37434819999908,224.87429339999653,225.37434819999908,224.87429339999653,225.37434819999908,222.89186319999862,None,225.39102928999927,None,225.39102928999927,None,225.39102928999927,None,0.010015890002250671,None,225.39102928999927,None,225.39102928999927,None,225.39102928999927,None,225.39102928999927,None,225.39102928999927,None,225.39102928999927,None,225.4004058999999,None,225.4004058999999,None,225.4004058999999,None,0.0020462899992708117,0.5020462899992708,225.4004058999999,None,225.4004058999999,None,225.4004058999999,None,225.4004058999999,None,225.4004058999999,None,225.4004058999999,None,227.38999559999502,227.38999559999502,0.6000000000000014,5.141,550,350,0,,,,,,,,,,,,,,,,,,,,,,,,,,,,,,,,,,,,,,,,,,,,,,,,,,,,,,,,,,,,,,,,,,,,,,,,,,,,,,,,,,,f,24,Jiangtianyi,2022-04-01_18h33.47.409,emotion,2022.1.2,60.05107944563209,
72,-200,0,0,two,-200,0,0,,,,,0,13,13,71,,,,,,,,,,,right,2.950113800005056,232.58742309999798,None,232.58742309999798,None,235.56935220000014,None,235.56935220000014,None,235.56935220000014,None,237.55168059999414,238.0515185999975,237.55168059999414,238.0515185999975,237.55168059999414,238.0515185999975,235.56935220000014,None,238.0851519899981,None,238.0851519899981,None,238.0851519899981,None,0.010687390000384767,None,238.0851519899981,None,238.0851519899981,None,238.0851519899981,None,238.0851519899981,None,238.0851519899981,None,238.0851519899981,None,238.09432549999474,None,238.09432549999474,None,238.09432549999474,None,0.0028443900009733625,0.5028443900009734,238.09432549999474,None,238.09432549999474,None,238.09432549999474,None,238.09432549999474,None,238.09432549999474,None,238.09432549999474,None,240.0840085999953,240.0840085999953,-50.0,4.304,350,350,0,,,,,,,,,,,,,,,,,,,,,,,,,,,,,,,,,,,,,,,,,,,,,,,,,,,,,,,,,,,,,,,,,,,,,,,,,,,,,,,,,,,f,24,Jiangtianyi,2022-04-01_18h33.47.409,emotion,2022.1.2,60.05107944563209,
49,0,-50,-200,one,0,-50,-200,,,,,0,14,14,48,,,,,,,,,,,right,3.491641000000527,244.44776589999674,None,244.44776589999674,None,247.96356829999422,None,247.96356829999422,None,247.96356829999422,None,249.94628199999715,250.4461358999979,249.94628199999715,250.4461358999979,249.94628199999715,250.4461358999979,247.96356829999422,None,250.4628169899981,None,250.4628169899981,None,250.4628169899981,None,0.010143389990844298,None,250.4628169899981,None,250.4628169899981,None,250.4628169899981,None,250.4628169899981,None,250.4628169899981,None,250.4628169899981,None,250.47258589999547,None,250.47258589999547,None,250.47258589999547,None,0.002029989998845849,0.5020299899988458,250.47258589999547,None,250.47258589999547,None,250.47258589999547,None,250.47258589999547,None,250.47258589999547,None,250.47258589999547,None,252.46183539999765,252.46183539999765,0.0,3.658,350,300,-200,,,,,,,,,,,,,,,,,,,,,,,,,,,,,,,,,,,,,,,,,,,,,,,,,,,,,,,,,,,,,,,,,,,,,,,,,,,,,,,,,,,f,24,Jiangtianyi,2022-04-01_18h33.47.409,emotion,2022.1.2,60.05107944563209,
25,200,50,50,one,200,50,50,,,,,0,15,15,24,,,,,,,,,,,left,2.9589532000027248,256.176707300001,None,256.176707300001,None,259.1586724999943,None,259.1586724999943,None,259.1586724999943,None,261.14119959999516,261.6409324999986,261.14119959999516,261.6409324999986,261.14119959999516,261.6409324999986,259.1586724999943,None,261.67416008999425,None,261.67416008999425,None,261.67416008999425,None,0.010300689988071099,None,261.67416008999425,None,261.67416008999425,None,261.67416008999425,None,261.67416008999425,None,261.67416008999425,None,261.67416008999425,None,261.6836517999982,None,261.6836517999982,None,261.6836517999982,None,0.0021301899905665778,0.5021301899905666,261.6836517999982,None,261.6836517999982,None,261.6836517999982,None,261.6836517999982,None,261.6836517999982,None,261.6836517999982,None,263.67337069999485,263.67337069999485,25.5,3.389,550,350,-150,,,,,,,,,,,,,,,,,,,,,,,,,,,,,,,,,,,,,,,,,,,,,,,,,,,,,,,,,,,,,,,,,,,,,,,,,,,,,,,,,,,f,24,Jiangtianyi,2022-04-01_18h33.47.409,emotion,2022.1.2,60.05107944563209,
23,0,200,0,two,0,200,0,,,,,0,16,16,22,,,,,,,,,,,down,5.139291700004833,267.12165979999554,None,267.12165979999554,None,272.286119299999,None,272.286119299999,None,272.286119299999,None,274.26851769999485,274.7684269999954,274.26851769999485,274.7684269999954,274.26851769999485,274.7684269999954,272.286119299999,None,274.80154938999766,None,274.80154938999766,None,274.80154938999766,None,0.01071578999835765,None,274.80154938999766,None,274.80154938999766,None,274.80154938999766,None,274.80154938999766,None,274.80154938999766,None,274.80154938999766,None,274.8103228999971,None,274.8103228999971,None,274.8103228999971,None,0.003751689990167506,0.5037516899901675,274.8103228999971,None,274.8103228999971,None,274.8103228999971,None,274.8103228999971,None,274.8103228999971,None,274.8103228999971,None,276.80061819999537,276.80061819999537,-24.5,3.742,550,550,-150,,,,,,,,,,,,,,,,,,,,,,,,,,,,,,,,,,,,,,,,,,,,,,,,,,,,,,,,,,,,,,,,,,,,,,,,,,,,,,,,,,,f,24,Jiangtianyi,2022-04-01_18h33.47.409,emotion,2022.1.2,60.05107944563209,
51,-50,0,-200,one,-50,0,-200,,,,,0,17,17,50,,,,,,,,,,,right,6.923454600007972,280.5990210999953,None,280.5990210999953,None,287.54585669999506,None,287.54585669999506,None,287.54585669999506,None,289.5281640999965,290.02801940000063,289.5281640999965,290.02801940000063,289.5281640999965,290.02801940000063,287.54585669999506,None,290.06148688999673,None,290.06148688999673,None,290.06148688999673,None,0.010544989992922638,None,290.06148688999673,None,290.06148688999673,None,290.06148688999673,None,290.06148688999673,None,290.06148688999673,None,290.06148688999673,None,290.0704776999992,None,290.0704776999992,None,290.0704776999992,None,0.0024068899947451428,0.5024068899947451,290.0704776999992,None,290.0704776999992,None,290.0704776999992,None,290.0704776999992,None,290.0704776999992,None,290.0704776999992,None,292.0603525999977,292.0603525999977,-0.29999999999999716,4.724,500,550,-350,,,,,,,,,,,,,,,,,,,,,,,,,,,,,,,,,,,,,,,,,,,,,,,,,,,,,,,,,,,,,,,,,,,,,,,,,,,,,,,,,,,f,24,Jiangtianyi,2022-04-01_18h33.47.409,emotion,2022.1.2,60.05107944563209,
7,0,50,200,two,0,50,200,,,,,0,18,18,6,,,,,,,,,,,down,3.4164804000029108,296.8413842000009,None,296.8413842000009,None,300.28998399999546,None,300.28998399999546,None,300.28998399999546,None,302.27249749999464,302.77221239999926,302.27249749999464,302.77221239999926,302.27249749999464,302.77221239999926,300.28998399999546,None,302.8055018900006,None,302.8055018900006,None,302.8055018900006,None,0.01071088999742642,None,302.8055018900006,None,302.8055018900006,None,302.8055018900006,None,302.8055018900006,None,302.8055018900006,None,302.8055018900006,None,302.81432029999996,None,302.81432029999996,None,302.81432029999996,None,0.003915489993232768,0.5039154899932328,302.81432029999996,None,302.81432029999996,None,302.81432029999996,None,302.81432029999996,None,302.81432029999996,None,302.81432029999996,None,304.80457169999863,304.80457169999863,-25.3,5.27,500,600,-150,,,,,,,,,,,,,,,,,,,,,,,,,,,,,,,,,,,,,,,,,,,,,,,,,,,,,,,,,,,,,,,,,,,,,,,,,,,,,,,,,,,f,24,Jiangtianyi,2022-04-01_18h33.47.409,emotion,2022.1.2,60.05107944563209,
5,200,50,0,one,200,50,0,,,,,0,19,19,4,,,,,,,,,,,right,3.146222499999567,310.1350367999985,None,310.1350367999985,None,313.30079829999886,None,313.30079829999886,None,313.30079829999886,None,315.28351219999604,315.7830329999997,315.28351219999604,315.7830329999997,315.28351219999604,315.7830329999997,313.30079829999886,None,315.81627918999874,None,315.81627918999874,None,315.81627918999874,None,0.010605890005535912,None,315.81627918999874,None,315.81627918999874,None,315.81627918999874,None,315.81627918999874,None,315.81627918999874,None,315.81627918999874,None,315.8243622000009,None,315.8243622000009,None,315.8243622000009,None,0.003880889998981729,0.5038808899989817,315.8243622000009,None,315.8243622000009,None,315.8243622000009,None,315.8243622000009,None,315.8243622000009,None,315.8243622000009,None,317.8154904999974,317.8154904999974,36.3,2.531,700,650,-150,,,,,,,,,,,,,,,,,,,,,,,,,,,,,,,,,,,,,,,,,,,,,,,,,,,,,,,,,,,,,,,,,,,,,,,,,,,,,,,,,,,f,24,Jiangtianyi,2022-04-01_18h33.47.409,emotion,2022.1.2,60.05107944563209,
78,-50,-50,0,one,-50,-50,0,,,,,0,20,20,77,,,,,,,,,,,left,4.003897800001141,320.3977375999966,None,320.3977375999966,None,324.4289590999979,None,324.4289590999979,None,324.4289590999979,None,326.41143599999486,326.91152599999623,326.41143599999486,326.91152599999623,326.41143599999486,326.91152599999623,324.4289590999979,None,326.9282070899964,None,326.9282070899964,None,326.9282070899964,None,0.01008678999642143,None,326.9282070899964,None,326.9282070899964,None,326.9282070899964,None,326.9282070899964,None,326.9282070899964,None,326.9282070899964,None,326.93788839999615,None,326.93788839999615,None,326.93788839999615,None,0.0016417899896623567,0.5016417899896624,326.93788839999615,None,326.93788839999615,None,326.93788839999615,None,326.93788839999615,None,326.93788839999615,None,326.93788839999615,None,328.9271004999973,328.9271004999973,-25.2,2.714,650,600,-150,,,,,,,,,,,,,,,,,,,,,,,,,,,,,,,,,,,,,,,,,,,,,,,,,,,,,,,,,,,,,,,,,,,,,,,,,,,,,,,,,,,f,24,Jiangtianyi,2022-04-01_18h33.47.409,emotion,2022.1.2,60.05107944563209,
81,-50,-50,-200,two,-50,-50,-200,,,,,0,21,21,80,,,,,,,,,,,right,2.5092012000022805,331.69266549999884,None,331.69266549999884,None,334.22475139999733,None,334.22475139999733,None,334.22475139999733,None,336.20705109999835,336.70685819999926,336.20705109999835,336.70685819999926,336.20705109999835,336.70685819999926,334.22475139999733,None,336.7400626900009,None,336.7400626900009,None,336.7400626900009,None,0.010291090002283454,None,336.7400626900009,None,336.7400626900009,None,336.7400626900009,None,336.7400626900009,None,336.7400626900009,None,336.7400626900009,None,336.74878439999884,None,336.74878439999884,None,336.74878439999884,None,0.002480589995684568,0.5024805899956846,336.74878439999884,None,336.74878439999884,None,336.74878439999884,None,336.74878439999884,None,336.74878439999884,None,336.74878439999884,None,338.7392431999979,338.7392431999979,-0.20000000000000284,2.946,600,550,-350,,,,,,,,,,,,,,,,,,,,,,,,,,,,,,,,,,,,,,,,,,,,,,,,,,,,,,,,,,,,,,,,,,,,,,,,,,,,,,,,,,,f,24,Jiangtianyi,2022-04-01_18h33.47.409,emotion,2022.1.2,60.05107944563209,
9,50,0,200,two,50,0,200,,,,,0,22,22,8,,,,,,,,,,,right,4.13065660000575,341.73772520000057,None,341.73772520000057,None,345.88609859999997,None,345.88609859999997,None,345.88609859999997,None,347.86859299999924,348.3683619000003,347.86859299999924,348.3683619000003,347.86859299999924,348.3683619000003,345.88609859999997,None,348.40135638999635,None,348.40135638999635,None,348.40135638999635,None,0.010818589995324146,None,348.40135638999635,None,348.40135638999635,None,348.40135638999635,None,348.40135638999635,None,348.40135638999635,None,348.40135638999635,None,348.40897229999973,None,348.40897229999973,None,348.40897229999973,None,0.004442389988980722,0.5044423899889807,348.40897229999973,None,348.40897229999973,None,348.40897229999973,None,348.40897229999973,None,348.40897229999973,None,348.40897229999973,None,350.4005860999969,350.4005860999969,24.799999999999997,3.794,650,550,-150,,,,,,,,,,,,,,,,,,,,,,,,,,,,,,,,,,,,,,,,,,,,,,,,,,,,,,,,,,,,,,,,,,,,,,,,,,,,,,,,,,,f,24,Jiangtianyi,2022-04-01_18h33.47.409,emotion,2022.1.2,60.05107944563209,
90,-50,-200,-200,one,-50,-200,-200,,,,,0,23,23,89,,,,,,,,,,,down,4.385983300002408,354.24869079999917,None,354.24869079999917,None,358.6636609999987,None,358.6636609999987,None,358.6636609999987,None,360.6460089999964,361.1458458999987,360.6460089999964,361.1458458999987,360.6460089999964,361.1458458999987,358.6636609999987,None,361.17910308999416,None,361.17910308999416,None,361.17910308999416,None,0.010338790001696907,None,361.17910308999416,None,361.17910308999416,None,361.17910308999416,None,361.17910308999416,None,361.17910308999416,None,361.17910308999416,None,361.1886121999996,None,361.1886121999996,None,361.1886121999996,None,0.002079889993183315,0.5020798899931833,361.1886121999996,None,361.1886121999996,None,361.1886121999996,None,361.1886121999996,None,361.1886121999996,None,361.1886121999996,None,363.1781963999965,363.1781963999965,-0.5,3.694,600,350,-350,,,,,,,,,,,,,,,,,,,,,,,,,,,,,,,,,,,,,,,,,,,,,,,,,,,,,,,,,,,,,,,,,,,,,,,,,,,,,,,,,,,f,24,Jiangtianyi,2022-04-01_18h33.47.409,emotion,2022.1.2,60.05107944563209,
45,0,200,200,two,0,200,200,,,,,0,24,24,44,,,,,,,,,,,left,6.418181600005482,366.92596729999786,None,366.92596729999786,None,373.37370809999993,None,373.37370809999993,None,373.37370809999993,None,375.356071299997,375.85587379999924,375.356071299997,375.85587379999924,375.356071299997,375.85587379999924,373.37370809999993,None,375.8892205900003,None,375.8892205900003,None,375.8892205900003,None,0.010696789999201428,None,375.8892205900003,None,375.8892205900003,None,375.8892205900003,None,375.8892205900003,None,375.8892205900003,None,375.8892205900003,None,375.8978939000008,None,375.8978939000008,None,375.8978939000008,None,0.003698289998283144,0.5036982899982831,375.8978939000008,None,375.8978939000008,None,375.8978939000008,None,375.8978939000008,None,375.8978939000008,None,375.8978939000008,None,377.88822409999557,377.88822409999557,-43.2,4.595,600,550,-150,,,,,,,,,,,,,,,,,,,,,,,,,,,,,,,,,,,,,,,,,,,,,,,,,,,,,,,,,,,,,,,,,,,,,,,,,,,,,,,,,,,f,24,Jiangtianyi,2022-04-01_18h33.47.409,emotion,2022.1.2,60.05107944563209,
26,50,200,50,one,50,200,50,,,,,0,25,25,25,,,,,,,,,,,left,5.653238300001249,382.53622729999915,None,382.53622729999915,None,388.2168473999991,None,388.2168473999991,None,388.2168473999991,None,390.199314999998,390.69911460000003,390.199314999998,390.69911460000003,390.199314999998,390.69911460000003,388.2168473999991,None,390.7323665899996,None,390.7323665899996,None,390.7323665899996,None,0.010040690001915209,None,390.7323665899996,None,390.7323665899996,None,390.7323665899996,None,390.7323665899996,None,390.7323665899996,None,390.7323665899996,None,390.7422383999947,None,390.7422383999947,None,390.7422383999947,None,0.0014750899936188944,0.5014750899936189,390.7422383999947,None,390.7422383999947,None,390.7422383999947,None,390.7422383999947,None,390.7422383999947,None,390.7422383999947,None,392.73155199999746,392.73155199999746,-25.0,1.778,650,750,-100,,,,,,,,,,,,,,,,,,,,,,,,,,,,,,,,,,,,,,,,,,,,,,,,,,,,,,,,,,,,,,,,,,,,,,,,,,,,,,,,,,,f,24,Jiangtianyi,2022-04-01_18h33.47.409,emotion,2022.1.2,60.05107944563209,
43,200,200,0,two,200,200,0,,,,,0,26,26,42,,,,,,,,,,,down,2.681943299998238,394.56394909999653,None,394.56394909999653,None,397.26291359999595,None,397.26291359999595,None,397.26291359999595,None,399.24500659999467,399.7447328999988,399.24500659999467,399.7447328999988,399.24500659999467,399.7447328999988,397.26291359999595,None,399.77819578999623,None,399.77819578999623,None,399.77819578999623,None,0.010528689999773633,None,399.77819578999623,None,399.77819578999623,None,399.77819578999623,None,399.77819578999623,None,399.77819578999623,None,399.77819578999623,None,399.78645159999724,None,399.78645159999724,None,399.78645159999724,None,0.0036457899914239533,0.503645789991424,399.78645159999724,None,399.78645159999724,None,399.78645159999724,None,399.78645159999724,None,399.78645159999724,None,399.78645159999724,None,401.77751789999456,401.77751789999456,0.10000000000000142,2.02,850,950,-100,,,,,,,,,,,,,,,,,,,,,,,,,,,,,,,,,,,,,,,,,,,,,,,,,,,,,,,,,,,,,,,,,,,,,,,,,,,,,,,,,,,f,24,Jiangtianyi,2022-04-01_18h33.47.409,emotion,2022.1.2,60.05107944563209,
85,-200,-200,0,one,-200,-200,0,,,,,0,27,27,84,,,,,,,,,,,right,4.384734799998114,403.85915039999963,None,403.85915039999963,None,408.27424909999536,None,408.27424909999536,None,408.27424909999536,None,410.2566919999954,410.7563605999967,410.2566919999954,410.7563605999967,410.2566919999954,410.7563605999967,408.27424909999536,None,410.79000268999806,None,410.79000268999806,None,410.79000268999806,None,0.010651790005795192,None,410.79000268999806,None,410.79000268999806,None,410.79000268999806,None,410.79000268999806,None,410.79000268999806,None,410.79000268999806,None,410.79801439999574,None,410.79801439999574,None,410.79801439999574,None,0.0038753899934818037,0.5038753899934818,410.79801439999574,None,410.79801439999574,None,410.79801439999574,None,410.79801439999574,None,410.79801439999574,None,410.79801439999574,None,412.7889184999949,412.7889184999949,-25.1,3.104,650,750,-100,,,,,,,,,,,,,,,,,,,,,,,,,,,,,,,,,,,,,,,,,,,,,,,,,,,,,,,,,,,,,,,,,,,,,,,,,,,,,,,,,,,f,24,Jiangtianyi,2022-04-01_18h33.47.409,emotion,2022.1.2,60.05107944563209,
12,200,0,50,two,200,0,50,,,,,0,28,28,11,,,,,,,,,,,right,15.148656200006371,415.9533217999997,None,415.9533217999997,None,431.1308041999946,None,431.1308041999946,None,431.1308041999946,None,433.1132546999943,433.61293559999467,433.1132546999943,433.61293559999467,433.1132546999943,433.61293559999467,431.1308041999946,None,433.64627018999744,None,433.64627018999744,None,433.64627018999744,None,0.010580289992503822,None,433.64627018999744,None,433.64627018999744,None,433.64627018999744,None,433.64627018999744,None,433.64627018999744,None,433.64627018999744,None,433.6555290999968,None,433.6555290999968,None,433.6555290999968,None,0.002288489995407872,0.5022884899954079,433.6555290999968,None,433.6555290999968,None,433.6555290999968,None,433.6555290999968,None,433.6555290999968,None,433.6555290999968,None,435.64529089999996,435.64529089999996,24.799999999999997,3.759,850,750,-50,,,,,,,,,,,,,,,,,,,,,,,,,,,,,,,,,,,,,,,,,,,,,,,,,,,,,,,,,,,,,,,,,,,,,,,,,,,,,,,,,,,f,24,Jiangtianyi,2022-04-01_18h33.47.409,emotion,2022.1.2,60.05107944563209,
64,0,0,-200,one,0,0,-200,,,,,0,29,29,63,,,,,,,,,,,left,3.849841800001741,439.4599187999993,None,439.4599187999993,None,443.34196710000106,None,443.34196710000106,None,443.34196710000106,None,445.32439099999465,445.8243521999975,445.32439099999465,445.8243521999975,445.32439099999465,445.8243521999975,443.34196710000106,None,445.8410332899977,None,445.8410332899977,None,445.8410332899977,None,0.01020509000227321,None,445.8410332899977,None,445.8410332899977,None,445.8410332899977,None,445.8410332899977,None,445.8410332899977,None,445.8410332899977,None,445.84928789999685,None,445.84928789999685,None,445.84928789999685,None,0.0028968900005565956,0.5028968900005566,445.84928789999685,None,445.84928789999685,None,445.84928789999685,None,445.84928789999685,None,445.84928789999685,None,445.84928789999685,None,447.83978589999606,447.83978589999606,0.8999999999999986,2.681,850,750,-250,,,,,,,,,,,,,,,,,,,,,,,,,,,,,,,,,,,,,,,,,,,,,,,,,,,,,,,,,,,,,,,,,,,,,,,,,,,,,,,,,,,f,24,Jiangtianyi,2022-04-01_18h33.47.409,emotion,2022.1.2,60.05107944563209,
32,50,200,50,two,50,200,50,,,,,0,30,30,31,,,,,,,,,,,right,6.277815100002044,450.5718729,None,450.5718729,None,456.8690912999955,None,456.8690912999955,None,456.8690912999955,None,458.85141219999787,459.3511561999985,458.85141219999787,459.3511561999985,458.85141219999787,459.3511561999985,456.8690912999955,None,459.3845919900006,None,459.3845919900006,None,459.3845919900006,None,0.010635189995809924,None,459.3845919900006,None,459.3845919900006,None,459.3845919900006,None,459.3845919900006,None,459.3845919900006,None,459.3845919900006,None,459.39380489999894,None,459.39380489999894,None,459.39380489999894,None,0.0029633899976033717,0.5029633899976034,459.39380489999894,None,459.39380489999894,None,459.39380489999894,None,459.39380489999894,None,459.39380489999894,None,459.39380489999894,None,461.3836095999941,461.3836095999941,-0.20000000000000284,2.89,900,950,-200,,,,,,,,,,,,,,,,,,,,,,,,,,,,,,,,,,,,,,,,,,,,,,,,,,,,,,,,,,,,,,,,,,,,,,,,,,,,,,,,,,,f,24,Jiangtianyi,2022-04-01_18h33.47.409,emotion,2022.1.2,60.05107944563209,
56,0,-200,-50,two,0,-200,-50,,,,,0,31,31,55,,,,,,,,,,,right,4.663281400004053,464.3312289999958,None,464.3312289999958,None,469.013435199995,None,469.013435199995,None,469.013435199995,None,470.99599209999724,471.4956749999983,470.99599209999724,471.4956749999983,470.99599209999724,471.4956749999983,469.013435199995,None,471.52898108999506,None,471.52898108999506,None,471.52898108999506,None,0.01078658999176696,None,471.52898108999506,None,471.52898108999506,None,471.52898108999506,None,471.52898108999506,None,471.52898108999506,None,471.52898108999506,None,471.5378341999967,None,471.5378341999967,None,471.5378341999967,None,0.0031787900006747805,0.5031787900006748,471.5378341999967,None,471.5378341999967,None,471.5378341999967,None,471.5378341999967,None,471.5378341999967,None,471.5378341999967,None,473.5280608999965,473.5280608999965,25.200000000000003,2.655,900,750,-250,,,,,,,,,,,,,,,,,,,,,,,,,,,,,,,,,,,,,,,,,,,,,,,,,,,,,,,,,,,,,,,,,,,,,,,,,,,,,,,,,,,f,24,Jiangtianyi,2022-04-01_18h33.47.409,emotion,2022.1.2,60.05107944563209,
42,50,200,200,one,50,200,200,,,,,0,32,32,41,,,,,,,,,,,down,5.297663800003647,476.24326830000064,None,476.24326830000064,None,481.55789869999717,None,481.55789869999717,None,481.55789869999717,None,483.54023400000005,484.0402083000008,483.54023400000005,484.0402083000008,483.54023400000005,484.0402083000008,481.55789869999717,None,484.0732220899983,None,484.0732220899983,None,484.0732220899983,None,0.01057088999368716,None,484.0732220899983,None,484.0732220899983,None,484.0732220899983,None,484.0732220899983,None,484.0732220899983,None,484.0732220899983,None,484.08159799999703,None,484.08159799999703,None,484.08159799999703,None,0.0038850899945828132,0.5038850899945828,484.08159799999703,None,484.08159799999703,None,484.08159799999703,None,484.08159799999703,None,484.08159799999703,None,484.08159799999703,None,486.0724696999969,486.0724696999969,-0.10000000000000142,2.477,950,950,-50,,,,,,,,,,,,,,,,,,,,,,,,,,,,,,,,,,,,,,,,,,,,,,,,,,,,,,,,,,,,,,,,,,,,,,,,,,,,,,,,,,,f,24,Jiangtianyi,2022-04-01_18h33.47.409,emotion,2022.1.2,60.05107944563209,
79,-200,-50,-50,two,-200,-50,-50,,,,,0,33,33,78,,,,,,,,,,,left,3.360625900008017,488.6045875999989,None,488.6045875999989,None,491.98649289999594,None,491.98649289999594,None,491.98649289999594,None,493.96879509999417,494.468529699996,493.96879509999417,494.468529699996,493.96879509999417,494.468529699996,491.98649289999594,None,494.5018946899974,None,494.5018946899974,None,494.5018946899974,None,0.010429789996123873,None,494.5018946899974,None,494.5018946899974,None,494.5018946899974,None,494.5018946899974,None,494.5018946899974,None,494.5018946899974,None,494.5108188999948,None,494.5108188999948,None,494.5108188999948,None,0.0036318899947218597,0.5036318899947219,494.5108188999948,None,494.5108188999948,None,494.5108188999948,None,494.5108188999948,None,494.5108188999948,None,494.5108188999948,None,496.50093539999943,496.50093539999943,-47.6,2.373,750,900,-100,,,,,,,,,,,,,,,,,,,,,,,,,,,,,,,,,,,,,,,,,,,,,,,,,,,,,,,,,,,,,,,,,,,,,,,,,,,,,,,,,,,f,24,Jiangtianyi,2022-04-01_18h33.47.409,emotion,2022.1.2,60.05107944563209,
91,-200,-200,0,two,-200,-200,0,,,,,0,34,34,90,,,,,,,,,,,right,2.169347299997753,498.93292149999616,None,498.93292149999616,None,501.1323906999969,None,501.1323906999969,None,501.1323906999969,None,503.1147032000008,503.61437450000085,503.1147032000008,503.61437450000085,503.1147032000008,503.61437450000085,501.1323906999969,None,503.6479169900005,None,503.6479169900005,None,503.6479169900005,None,0.01065328999538906,None,503.6479169900005,None,503.6479169900005,None,503.6479169900005,None,503.6479169900005,None,503.6479169900005,None,503.6479169900005,None,503.655772099999,None,503.655772099999,None,503.655772099999,None,0.00402118999772938,0.5040211899977294,503.655772099999,None,503.655772099999,None,503.655772099999,None,503.655772099999,None,503.655772099999,None,503.655772099999,None,505.64684719999786,505.64684719999786,-38.8,2.946,550,700,-100,,,,,,,,,,,,,,,,,,,,,,,,,,,,,,,,,,,,,,,,,,,,,,,,,,,,,,,,,,,,,,,,,,,,,,,,,,,,,,,,,,,f,24,Jiangtianyi,2022-04-01_18h33.47.409,emotion,2022.1.2,60.05107944563209,
34,0,50,50,two,0,50,50,,,,,0,35,35,33,,,,,,,,,,,right,8.074198299997079,508.6457758999968,None,508.6457758999968,None,516.7421908999968,None,516.7421908999968,None,516.7421908999968,None,518.7242024999941,519.224078399995,518.7242024999941,519.224078399995,518.7242024999941,519.224078399995,516.7421908999968,None,519.2573510899995,None,519.2573510899995,None,519.2573510899995,None,0.010562989999016281,None,519.2573510899995,None,519.2573510899995,None,519.2573510899995,None,519.2573510899995,None,519.2573510899995,None,519.2573510899995,None,519.2655633999966,None,519.2655633999966,None,519.2655633999966,None,0.003755989993805997,0.503755989993806,519.2655633999966,None,519.2655633999966,None,519.2655633999966,None,519.2655633999966,None,519.2655633999966,None,519.2655633999966,None,521.2565038999965,521.2565038999965,-39.9,3.312,550,750,-50,,,,,,,,,,,,,,,,,,,,,,,,,,,,,,,,,,,,,,,,,,,,,,,,,,,,,,,,,,,,,,,,,,,,,,,,,,,,,,,,,,,f,24,Jiangtianyi,2022-04-01_18h33.47.409,emotion,2022.1.2,60.05107944563209,
94,-200,-200,-50,two,-200,-200,-50,,,,,0,36,36,93,,,,,,,,,,,right,4.790663699997822,524.6218316999948,None,524.6218316999948,None,529.4362192999979,None,529.4362192999979,None,529.4362192999979,None,531.4183754999976,531.9184834999978,531.4183754999976,531.9184834999978,531.4183754999976,531.9184834999978,529.4362192999979,None,531.9517460899981,None,531.9517460899981,None,531.9517460899981,None,0.010477189993252978,None,531.9517460899981,None,531.9517460899981,None,531.9517460899981,None,531.9517460899981,None,531.9517460899981,None,531.9517460899981,None,531.9601677999963,None,531.9601677999963,None,531.9601677999963,None,0.0027949899958912283,0.5027949899958912,531.9601677999963,None,531.9601677999963,None,531.9601677999963,None,531.9601677999963,None,531.9601677999963,None,531.9601677999963,None,533.9507369999992,533.9507369999992,-24.8,2.962,350,550,-100,,,,,,,,,,,,,,,,,,,,,,,,,,,,,,,,,,,,,,,,,,,,,,,,,,,,,,,,,,,,,,,,,,,,,,,,,,,,,,,,,,,f,24,Jiangtianyi,2022-04-01_18h33.47.409,emotion,2022.1.2,60.05107944563209,
66,-200,0,0,one,-200,0,0,,,,,0,37,37,65,,,,,,,,,,,right,1.4198647000084748,536.9659960999998,None,536.9659960999998,None,538.4153647999992,None,538.4153647999992,None,538.4153647999992,None,540.3978223999948,540.8974298999965,540.3978223999948,540.8974298999965,540.3978223999948,540.8974298999965,538.4153647999992,None,540.9309188899963,None,540.9309188899963,None,540.9309188899963,None,0.010565089993178844,None,540.9309188899963,None,540.9309188899963,None,540.9309188899963,None,540.9309188899963,None,540.9309188899963,None,540.9309188899963,None,540.9396339999948,None,540.9396339999948,None,540.9396339999948,None,0.0038538899971172214,0.5038538899971172,540.9396339999948,None,540.9396339999948,None,540.9396339999948,None,540.9396339999948,None,540.9396339999948,None,540.9396339999948,None,542.9299208999946,542.9299208999946,-49.8,2.53,150,550,-100,,,,,,,,,,,,,,,,,,,,,,,,,,,,,,,,,,,,,,,,,,,,,,,,,,,,,,,,,,,,,,,,,,,,,,,,,,,,,,,,,,,f,24,Jiangtianyi,2022-04-01_18h33.47.409,emotion,2022.1.2,60.05107944563209,
70,0,0,-200,two,0,0,-200,,,,,0,38,38,69,,,,,,,,,,,left,2.029397100006463,545.5282045999993,None,545.5282045999993,None,547.5777920999972,None,547.5777920999972,None,547.5777920999972,None,549.5604008999944,550.0600541999956,549.5604008999944,550.0600541999956,549.5604008999944,550.0600541999956,547.5777920999972,None,550.0933039900003,None,550.0933039900003,None,550.0933039900003,None,0.010736190000898205,None,550.0933039900003,None,550.0933039900003,None,550.0933039900003,None,550.0933039900003,None,550.0933039900003,None,550.0933039900003,None,550.1012981999957,None,550.1012981999957,None,550.1012981999957,None,0.004330989992013201,0.5043309899920132,550.1012981999957,None,550.1012981999957,None,550.1012981999957,None,550.1012981999957,None,550.1012981999957,None,550.1012981999957,None,552.0924565999958,552.0924565999958,-0.10000000000000142,2.576,150,550,-300,,,,,,,,,,,,,,,,,,,,,,,,,,,,,,,,,,,,,,,,,,,,,,,,,,,,,,,,,,,,,,,,,,,,,,,,,,,,,,,,,,,f,24,Jiangtianyi,2022-04-01_18h33.47.409,emotion,2022.1.2,60.05107944563209,
10,50,200,0,two,50,200,0,,,,,0,39,39,9,,,,,,,,,,,down,3.7664769000039087,554.7245356999993,None,554.7245356999993,None,558.5229097999982,None,558.5229097999982,None,558.5229097999982,None,560.5055313999983,561.0052636999972,560.5055313999983,561.0052636999972,560.5055313999983,561.0052636999972,558.5229097999982,None,561.0219447899974,None,561.0219447899974,None,561.0219447899974,None,0.010336890001781285,None,561.0219447899974,None,561.0219447899974,None,561.0219447899974,None,561.0219447899974,None,561.0219447899974,None,561.0219447899974,None,561.0303967,None,561.0303967,None,561.0303967,None,0.0026628900013747625,0.5026628900013748,561.0303967,None,561.0303967,None,561.0303967,None,561.0303967,None,561.0303967,None,561.0303967,None,563.0206885000007,563.0206885000007,-25.0,3.208,200,750,-300,,,,,,,,,,,,,,,,,,,,,,,,,,,,,,,,,,,,,,,,,,,,,,,,,,,,,,,,,,,,,,,,,,,,,,,,,,,,,,,,,,,f,24,Jiangtianyi,2022-04-01_18h33.47.409,emotion,2022.1.2,60.05107944563209,
4,50,200,0,one,50,200,0,,,,,0,40,40,3,,,,,,,,,,,down,2.3350809999974445,566.2858995999995,None,566.2858995999995,None,568.6516462,None,568.6516462,None,568.6516462,None,570.6338050999984,571.1340831999987,570.6338050999984,571.1340831999987,570.6338050999984,571.1340831999987,568.6516462,None,571.150764289999,None,571.150764289999,None,571.150764289999,None,0.010060789994895458,None,571.150764289999,None,571.150764289999,None,571.150764289999,None,571.150764289999,None,571.150764289999,None,571.150764289999,None,571.1608300999942,None,571.1608300999942,None,571.1608300999942,None,0.0016979899955913424,0.5016979899955913,571.1608300999942,None,571.1608300999942,None,571.1608300999942,None,571.1608300999942,None,571.1608300999942,None,571.1608300999942,None,573.149736899999,573.149736899999,-0.5,2.816,250,950,-300,,,,,,,,,,,,,,,,,,,,,,,,,,,,,,,,,,,,,,,,,,,,,,,,,,,,,,,,,,,,,,,,,,,,,,,,,,,,,,,,,,,f,24,Jiangtianyi,2022-04-01_18h33.47.409,emotion,2022.1.2,60.05107944563209,
14,0,50,0,one,0,50,0,,,,,0,41,41,13,,,,,,,,,,,left,3.6545278999983566,576.0160503000006,None,576.0160503000006,None,579.6965009999985,None,579.6965009999985,None,579.6965009999985,None,581.6792055999977,582.1790586999996,581.6792055999977,582.1790586999996,581.6792055999977,582.1790586999996,579.6965009999985,None,582.1957397899998,None,582.1957397899998,None,582.1957397899998,None,0.010387789996457286,None,582.1957397899998,None,582.1957397899998,None,582.1957397899998,None,582.1957397899998,None,582.1957397899998,None,582.1957397899998,None,582.2047823999965,None,582.2047823999965,None,582.2047823999965,None,0.0027897899999516085,0.5027897899999516,582.2047823999965,None,582.2047823999965,None,582.2047823999965,None,582.2047823999965,None,582.2047823999965,None,582.2047823999965,None,584.1945535999985,584.1945535999985,-25.2,2.69,250,1000,-300,,,,,,,,,,,,,,,,,,,,,,,,,,,,,,,,,,,,,,,,,,,,,,,,,,,,,,,,,,,,,,,,,,,,,,,,,,,,,,,,,,,f,24,Jiangtianyi,2022-04-01_18h33.47.409,emotion,2022.1.2,60.05107944563209,
86,-200,0,-200,one,-200,0,-200,,,,,0,42,42,85,,,,,,,,,,,down,2.1327075000008335,586.9436213999943,None,586.9436213999943,None,589.1091998999982,None,589.1091998999982,None,589.1091998999982,None,591.0916119999965,591.5913858999993,591.0916119999965,591.5913858999993,591.0916119999965,591.5913858999993,589.1091998999982,None,591.6241867899982,None,591.6241867899982,None,591.6241867899982,None,0.0103286899975501,None,591.6241867899982,None,591.6241867899982,None,591.6241867899982,None,591.6241867899982,None,591.6241867899982,None,591.6241867899982,None,591.6333505000002,None,591.6333505000002,None,591.6333505000002,None,0.00326109000161523,0.5032610900016152,591.6333505000002,None,591.6333505000002,None,591.6333505000002,None,591.6333505000002,None,591.6333505000002,None,591.6333505000002,None,593.623900300001,593.623900300001,-50.0,2.78,50,1000,-500,,,,,,,,,,,,,,,,,,,,,,,,,,,,,,,,,,,,,,,,,,,,,,,,,,,,,,,,,,,,,,,,,,,,,,,,,,,,,,,,,,,f,24,Jiangtianyi,2022-04-01_18h33.47.409,emotion,2022.1.2,60.05107944563209,
36,50,50,0,two,50,50,0,,,,,0,43,43,35,,,,,,,,,,,right,2.159681200006162,596.4555321999942,None,596.4555321999942,None,598.6383253999957,None,598.6383253999957,None,598.6383253999957,None,600.6204207999981,601.1203769999993,600.6204207999981,601.1203769999993,600.6204207999981,601.1203769999993,598.6383253999957,None,601.1538438899981,None,601.1538438899981,None,601.1538438899981,None,0.01049059000069974,None,601.1538438899981,None,601.1538438899981,None,601.1538438899981,None,601.1538438899981,None,601.1538438899981,None,601.1538438899981,None,601.1621701999975,None,601.1621701999975,None,601.1621701999975,None,0.003477589998510666,0.5034775899985107,601.1621701999975,None,601.1621701999975,None,601.1621701999975,None,601.1621701999975,None,601.1621701999975,None,601.1621701999975,None,603.1527533999979,603.1527533999979,0.0,2.686,100,1050,-500,,,,,,,,,,,,,,,,,,,,,,,,,,,,,,,,,,,,,,,,,,,,,,,,,,,,,,,,,,,,,,,,,,,,,,,,,,,,,,,,,,,f,24,Jiangtianyi,2022-04-01_18h33.47.409,emotion,2022.1.2,60.05107944563209,
68,0,-50,0,two,0,-50,0,,,,,0,44,44,67,,,,,,,,,,,down,2.721610699998564,605.9004991999973,None,605.9004991999973,None,608.6502459999974,None,608.6502459999974,None,608.6502459999974,None,610.6327999999994,611.1325080999959,610.6327999999994,611.1325080999959,610.6327999999994,611.1325080999959,608.6502459999974,None,611.1659073899966,None,611.1659073899966,None,611.1659073899966,None,0.01040638999256771,None,611.1659073899966,None,611.1659073899966,None,611.1659073899966,None,611.1659073899966,None,611.1659073899966,None,611.1659073899966,None,611.1752013000005,None,611.1752013000005,None,611.1752013000005,None,0.0038480899966089055,0.5038480899966089,611.1752013000005,None,611.1752013000005,None,611.1752013000005,None,611.1752013000005,None,611.1752013000005,None,611.1752013000005,None,613.1650051999968,613.1650051999968,9.5,2.028,100,1000,-500,,,,,,,,,,,,,,,,,,,,,,,,,,,,,,,,,,,,,,,,,,,,,,,,,,,,,,,,,,,,,,,,,,,,,,,,,,,,,,,,,,,f,24,Jiangtianyi,2022-04-01_18h33.47.409,emotion,2022.1.2,60.05107944563209,
24,200,0,0,two,200,0,0,,,,,0,45,45,23,,,,,,,,,,,left,4.809298599997419,615.2475094999972,None,615.2475094999972,None,620.0784660999998,None,620.0784660999998,None,620.0784660999998,None,622.0608329999959,622.5606767999998,622.0608329999959,622.5606767999998,622.0608329999959,622.5606767999998,620.0784660999998,None,622.5936064899972,None,622.5936064899972,None,622.5936064899972,None,0.010702589992433786,None,622.5936064899972,None,622.5936064899972,None,622.5936064899972,None,622.5936064899972,None,622.5936064899972,None,622.5936064899972,None,622.6016879999952,None,622.6016879999952,None,622.6016879999952,None,0.0038641899955109693,0.503864189995511,622.6016879999952,None,622.6016879999952,None,622.6016879999952,None,622.6016879999952,None,622.6016879999952,None,622.6016879999952,None,624.5930472999971,624.5930472999971,24.700000000000003,2.408,300,1000,-500,,,,,,,,,,,,,,,,,,,,,,,,,,,,,,,,,,,,,,,,,,,,,,,,,,,,,,,,,,,,,,,,,,,,,,,,,,,,,,,,,,,f,24,Jiangtianyi,2022-04-01_18h33.47.409,emotion,2022.1.2,60.05107944563209,
35,50,0,50,two,50,0,50,,,,,0,46,46,34,,,,,,,,,,,down,3.743054700003995,627.0587928999958,None,627.0587928999958,None,630.8235774999994,None,630.8235774999994,None,630.8235774999994,None,632.8059194999951,633.305389000001,632.8059194999951,633.305389000001,632.8059194999951,633.305389000001,630.8235774999994,None,633.3389797899974,None,633.3389797899974,None,633.3389797899974,None,0.01055168999300804,None,633.3389797899974,None,633.3389797899974,None,633.3389797899974,None,633.3389797899974,None,633.3389797899974,None,633.3389797899974,None,633.3477959000011,None,633.3477959000011,None,633.3477959000011,None,0.00390748999780044,0.5039074899978004,633.3477959000011,None,633.3477959000011,None,633.3477959000011,None,633.3477959000011,None,633.3477959000011,None,633.3477959000011,None,635.338038599999,635.338038599999,24.900000000000006,2.431,350,1000,-450,,,,,,,,,,,,,,,,,,,,,,,,,,,,,,,,,,,,,,,,,,,,,,,,,,,,,,,,,,,,,,,,,,,,,,,,,,,,,,,,,,,f,24,Jiangtianyi,2022-04-01_18h33.47.409,emotion,2022.1.2,60.05107944563209,
54,-200,0,-50,one,-200,0,-50,,,,,0,47,47,53,,,,,,,,,,,right,4.224759500008076,637.8203462999954,None,637.8203462999954,None,642.0684782999961,None,642.0684782999961,None,642.0684782999961,None,644.0508617999949,644.5506107999972,644.0508617999949,644.5506107999972,644.0508617999949,644.5506107999972,642.0684782999961,None,644.5839264899944,None,644.5839264899944,None,644.5839264899944,None,0.010236489993985742,None,644.5839264899944,None,644.5839264899944,None,644.5839264899944,None,644.5839264899944,None,644.5839264899944,None,644.5839264899944,None,644.5931799999962,None,644.5931799999962,None,644.5931799999962,None,0.0027438899924163707,0.5027438899924164,644.5931799999962,None,644.5931799999962,None,644.5931799999962,None,644.5931799999962,None,644.5931799999962,None,644.5931799999962,None,646.5828837999943,646.5828837999943,-50.0,2.689,150,1000,-500,,,,,,,,,,,,,,,,,,,,,,,,,,,,,,,,,,,,,,,,,,,,,,,,,,,,,,,,,,,,,,,,,,,,,,,,,,,,,,,,,,,f,24,Jiangtianyi,2022-04-01_18h33.47.409,emotion,2022.1.2,60.05107944563209,
40,200,200,50,one,200,200,50,,,,,0,48,48,39,,,,,,,,,,,right,2.0032238000057987,649.3307728,None,649.3307728,None,651.3642972999951,None,651.3642972999951,None,651.3642972999951,None,653.3466606000002,653.8463736999984,653.3466606000002,653.8463736999984,653.3466606000002,653.8463736999984,651.3642972999951,None,653.8798854899972,None,653.8798854899972,None,653.8798854899972,None,0.010598589993605856,None,653.8798854899972,None,653.8798854899972,None,653.8798854899972,None,653.8798854899972,None,653.8798854899972,None,653.8798854899972,None,653.8889619999973,None,653.8889619999973,None,653.8889619999973,None,0.0040187900012824684,0.5040187900012825,653.8889619999973,None,653.8889619999973,None,653.8889619999973,None,653.8889619999973,None,653.8889619999973,None,653.8889619999973,None,655.8788912999953,655.8788912999953,-0.20000000000000284,4.178,350,1200,-450,,,,,,,,,,,,,,,,,,,,,,,,,,,,,,,,,,,,,,,,,,,,,,,,,,,,,,,,,,,,,,,,,,,,,,,,,,,,,,,,,,,f,24,Jiangtianyi,2022-04-01_18h33.47.409,emotion,2022.1.2,60.05107944563209,
29,50,0,50,one,50,0,50,,,,,0,49,49,28,,,,,,,,,,,left,2.5630451000033645,660.1102914000003,None,660.1102914000003,None,662.692555499998,None,662.692555499998,None,662.692555499998,None,664.6747797999997,665.1745770999987,664.6747797999997,665.1745770999987,664.6747797999997,665.1745770999987,662.692555499998,None,665.2081568899987,None,665.2081568899987,None,665.2081568899987,None,0.010870389996853191,None,665.2081568899987,None,665.2081568899987,None,665.2081568899987,None,665.2081568899987,None,665.2081568899987,None,665.2081568899987,None,665.2163073999982,None,665.2163073999982,None,665.2163073999982,None,0.004351889998361003,0.504351889998361,665.2163073999982,None,665.2163073999982,None,665.2163073999982,None,665.2163073999982,None,665.2163073999982,None,665.2163073999982,None,667.2070687999949,667.2070687999949,25.0,2.976,400,1200,-400,,,,,,,,,,,,,,,,,,,,,,,,,,,,,,,,,,,,,,,,,,,,,,,,,,,,,,,,,,,,,,,,,,,,,,,,,,,,,,,,,,,f,24,Jiangtianyi,2022-04-01_18h33.47.409,emotion,2022.1.2,60.05107944563209,
19,0,0,50,two,0,0,50,,,,,0,50,50,18,,,,,,,,,,,right,3.370078200001444,670.239055399994,None,670.239055399994,None,673.6373237000007,None,673.6373237000007,None,673.6373237000007,None,675.6199341999964,676.1197036999947,675.6199341999964,676.1197036999947,675.6199341999964,676.1197036999947,673.6373237000007,None,676.136384789995,None,676.136384789995,None,676.136384789995,None,0.010335289989598095,None,676.136384789995,None,676.136384789995,None,676.136384789995,None,676.136384789995,None,676.136384789995,None,676.136384789995,None,676.1461071999947,None,676.1461071999947,None,676.1461071999947,None,0.0023177899929578416,0.5023177899929578,676.1461071999947,None,676.1461071999947,None,676.1461071999947,None,676.1461071999947,None,676.1461071999947,None,676.1461071999947,None,678.1354140999974,678.1354140999974,-0.10000000000000142,1.63,400,1200,-350,,,,,,,,,,,,,,,,,,,,,,,,,,,,,,,,,,,,,,,,,,,,,,,,,,,,,,,,,,,,,,,,,,,,,,,,,,,,,,,,,,,f,24,Jiangtianyi,2022-04-01_18h33.47.409,emotion,2022.1.2,60.05107944563209,
41,200,50,200,one,200,50,200,,,,,0,51,51,40,,,,,,,,,,,down,1.9258699000056367,679.8180012999946,None,679.8180012999946,None,681.7669060999979,None,681.7669060999979,None,681.7669060999979,None,683.7497899000009,684.2493606999997,683.7497899000009,684.2493606999997,683.7497899000009,684.2493606999997,681.7669060999979,None,684.2660417899999,None,684.2660417899999,None,684.2660417899999,None,0.010125390006578527,None,684.2660417899999,None,684.2660417899999,None,684.2660417899999,None,684.2660417899999,None,684.2660417899999,None,684.2660417899999,None,684.2760729000001,None,684.2760729000001,None,684.2760729000001,None,0.0017825899994932115,0.5017825899994932,684.2760729000001,None,684.2760729000001,None,684.2760729000001,None,684.2760729000001,None,684.2760729000001,None,684.2760729000001,None,686.265092900001,686.265092900001,25.0,2.115,600,1250,-150,,,,,,,,,,,,,,,,,,,,,,,,,,,,,,,,,,,,,,,,,,,,,,,,,,,,,,,,,,,,,,,,,,,,,,,,,,,,,,,,,,,f,24,Jiangtianyi,2022-04-01_18h33.47.409,emotion,2022.1.2,60.05107944563209,
31,200,50,50,two,200,50,50,,,,,0,52,52,30,,,,,,,,,,,left,2.114197200004128,688.430666100001,None,688.430666100001,None,690.5628603000005,None,690.5628603000005,None,690.5628603000005,None,692.5454102999938,693.0454400999952,692.5454102999938,693.0454400999952,692.5454102999938,693.0454400999952,690.5628603000005,None,693.0621211899954,None,693.0621211899954,None,693.0621211899954,None,0.01050758999917889,None,693.0621211899954,None,693.0621211899954,None,693.0621211899954,None,693.0621211899954,None,693.0621211899954,None,693.0621211899954,None,693.0708473999985,None,693.0708473999985,None,693.0708473999985,None,0.003883389988914132,0.5038833899889141,693.0708473999985,None,693.0708473999985,None,693.0708473999985,None,693.0708473999985,None,693.0708473999985,None,693.0708473999985,None,695.0612290999998,695.0612290999998,32.599999999999994,2.421,800,1300,-100,,,,,,,,,,,,,,,,,,,,,,,,,,,,,,,,,,,,,,,,,,,,,,,,,,,,,,,,,,,,,,,,,,,,,,,,,,,,,,,,,,,f,24,Jiangtianyi,2022-04-01_18h33.47.409,emotion,2022.1.2,60.05107944563209,
47,200,50,200,two,200,50,200,,,,,0,53,53,46,,,,,,,,,,,right,2.580723700004455,697.5422583999971,None,697.5422583999971,None,700.1421668999974,None,700.1421668999974,None,700.1421668999974,None,702.1245427999966,702.6244501999972,702.1245427999966,702.6244501999972,702.1245427999966,702.6244501999972,700.1421668999974,None,702.6576478899981,None,702.6576478899981,None,702.6576478899981,None,0.010749989996838849,None,702.6576478899981,None,702.6576478899981,None,702.6576478899981,None,702.6576478899981,None,702.6576478899981,None,702.6576478899981,None,702.6661259999964,None,702.6661259999964,None,702.6661259999964,None,0.004041289990709629,0.5040412899907096,702.6661259999964,None,702.6661259999964,None,702.6661259999964,None,702.6661259999964,None,702.6661259999964,None,702.6661259999964,None,704.6566749999984,704.6566749999984,40.0,2.869,1000,1350,100,,,,,,,,,,,,,,,,,,,,,,,,,,,,,,,,,,,,,,,,,,,,,,,,,,,,,,,,,,,,,,,,,,,,,,,,,,,,,,,,,,,f,24,Jiangtianyi,2022-04-01_18h33.47.409,emotion,2022.1.2,60.05107944563209,
6,200,0,50,one,200,0,50,,,,,0,54,54,5,,,,,,,,,,,left,3.526513500000874,707.5877534999963,None,707.5877534999963,None,711.1370327999975,None,711.1370327999975,None,711.1370327999975,None,713.1193768999947,713.6193071999951,713.1193768999947,713.6193071999951,713.1193768999947,713.6193071999951,711.1370327999975,None,713.6527635900013,None,713.6527635900013,None,713.6527635900013,None,0.010799789997690823,None,713.6527635900013,None,713.6527635900013,None,713.6527635900013,None,713.6527635900013,None,713.6527635900013,None,713.6527635900013,None,713.6617938999989,None,713.6617938999989,None,713.6617938999989,None,0.002561989997047931,0.5025619899970479,713.6617938999989,None,713.6617938999989,None,713.6617938999989,None,713.6617938999989,None,713.6617938999989,None,713.6617938999989,None,715.6518615999958,715.6518615999958,41.0,5.46,1200,1350,150,,,,,,,,,,,,,,,,,,,,,,,,,,,,,,,,,,,,,,,,,,,,,,,,,,,,,,,,,,,,,,,,,,,,,,,,,,,,,,,,,,,f,24,Jiangtianyi,2022-04-01_18h33.47.409,emotion,2022.1.2,60.05107944563209,
50,0,-200,-50,one,0,-200,-50,,,,,0,55,55,49,,,,,,,,,,,down,4.575110300000233,721.1660331999956,None,721.1660331999956,None,725.7638664999977,None,725.7638664999977,None,725.7638664999977,None,727.7462965999948,728.2461150999952,727.7462965999948,728.2461150999952,727.7462965999948,728.2461150999952,725.7638664999977,None,728.2790801900003,None,728.2790801900003,None,728.2790801900003,None,0.010406989997136407,None,728.2790801900003,None,728.2790801900003,None,728.2790801900003,None,728.2790801900003,None,728.2790801900003,None,728.2790801900003,None,728.2878784999994,None,728.2878784999994,None,728.2878784999994,None,0.0035799899997073226,0.5035799899997073,728.2878784999994,None,728.2878784999994,None,728.2878784999994,None,728.2878784999994,None,728.2878784999994,None,728.2878784999994,None,730.2785193999953,730.2785193999953,25.299999999999997,4.847,1200,1150,100,,,,,,,,,,,,,,,,,,,,,,,,,,,,,,,,,,,,,,,,,,,,,,,,,,,,,,,,,,,,,,,,,,,,,,,,,,,,,,,,,,,f,24,Jiangtianyi,2022-04-01_18h33.47.409,emotion,2022.1.2,60.05107944563209,
48,50,200,200,two,50,200,200,,,,,0,56,56,47,,,,,,,,,,,right,9.174977800001216,735.1774583999941,None,735.1774583999941,None,744.3721058999945,None,744.3721058999945,None,744.3721058999945,None,746.3542296999949,746.8539488999959,746.3542296999949,746.8539488999959,746.3542296999949,746.8539488999959,744.3721058999945,None,746.8877452900008,None,746.8877452900008,None,746.8877452900008,None,0.010399690007034224,None,746.8877452900008,None,746.8877452900008,None,746.8877452900008,None,746.8877452900008,None,746.8877452900008,None,746.8877452900008,None,746.8965222999977,None,746.8965222999977,None,746.8965222999977,None,0.0023893899997347035,0.5023893899997347,746.8965222999977,None,746.8965222999977,None,746.8965222999977,None,746.8965222999977,None,746.8965222999977,None,746.8965222999977,None,748.8866464999955,748.8866464999955,-0.10000000000000142,2.302,1250,1350,300,,,,,,,,,,,,,,,,,,,,,,,,,,,,,,,,,,,,,,,,,,,,,,,,,,,,,,,,,,,,,,,,,,,,,,,,,,,,,,,,,,,f,24,Jiangtianyi,2022-04-01_18h33.47.409,emotion,2022.1.2,60.05107944563209,
39,0,200,200,one,0,200,200,,,,,0,57,57,38,,,,,,,,,,,down,5.167051900003571,751.2511586999972,None,751.2511586999972,None,756.4500541999951,None,756.4500541999951,None,756.4500541999951,None,758.432070099996,758.9318574999998,758.432070099996,758.9318574999998,758.432070099996,758.9318574999998,756.4500541999951,None,758.965677989999,None,758.965677989999,None,758.965677989999,None,0.010860289992706385,None,758.965677989999,None,758.965677989999,None,758.965677989999,None,758.965677989999,None,758.965677989999,None,758.965677989999,None,758.9744356999945,None,758.9744356999945,None,758.9744356999945,None,0.0034755899978335947,0.5034755899978336,758.9744356999945,None,758.9744356999945,None,758.9744356999945,None,758.9744356999945,None,758.9744356999945,None,758.9744356999945,None,760.9645101999995,760.9645101999995,-25.3,3.463,1250,1550,500,,,,,,,,,,,,,,,,,,,,,,,,,,,,,,,,,,,,,,,,,,,,,,,,,,,,,,,,,,,,,,,,,,,,,,,,,,,,,,,,,,,f,24,Jiangtianyi,2022-04-01_18h33.47.409,emotion,2022.1.2,60.05107944563209,
71,0,-200,0,two,0,-200,0,,,,,0,58,58,70,,,,,,,,,,,right,2.3866617000021506,764.4797019999969,None,764.4797019999969,None,766.8951989999987,None,766.8951989999987,None,766.8951989999987,None,768.8773215999972,769.3774193999998,768.8773215999972,769.3774193999998,768.8773215999972,769.3774193999998,766.8951989999987,None,769.4108704899947,None,769.4108704899947,None,769.4108704899947,None,0.010612289996061008,None,769.4108704899947,None,769.4108704899947,None,769.4108704899947,None,769.4108704899947,None,769.4108704899947,None,769.4108704899947,None,769.419518799994,None,769.419518799994,None,769.419518799994,None,0.0036770899896509945,0.503677089989651,769.419518799994,None,769.419518799994,None,769.419518799994,None,769.419518799994,None,769.419518799994,None,769.419518799994,None,771.409598899998,771.409598899998,24.900000000000006,2.134,1250,1350,500,,,,,,,,,,,,,,,,,,,,,,,,,,,,,,,,,,,,,,,,,,,,,,,,,,,,,,,,,,,,,,,,,,,,,,,,,,,,,,,,,,,f,24,Jiangtianyi,2022-04-01_18h33.47.409,emotion,2022.1.2,60.05107944563209,
13,0,0,50,one,0,0,50,,,,,0,59,59,12,,,,,,,,,,,left,4.79359619999741,773.607443199995,None,773.607443199995,None,778.4231762999989,None,778.4231762999989,None,778.4231762999989,None,780.4059483999954,780.9052995999955,780.4059483999954,780.9052995999955,780.4059483999954,780.9052995999955,778.4231762999989,None,780.9389040899944,None,780.9389040899944,None,780.9389040899944,None,0.010813889995915815,None,780.9389040899944,None,780.9389040899944,None,780.9389040899944,None,780.9389040899944,None,780.9389040899944,None,780.9389040899944,None,780.9473753999991,None,780.9473753999991,None,780.9473753999991,None,0.004280889988876879,0.5042808899888769,780.9473753999991,None,780.9473753999991,None,780.9473753999991,None,780.9473753999991,None,780.9473753999991,None,780.9473753999991,None,782.9380464999995,782.9380464999995,0.20000000000000284,1.799,1250,1350,550,,,,,,,,,,,,,,,,,,,,,,,,,,,,,,,,,,,,,,,,,,,,,,,,,,,,,,,,,,,,,,,,,,,,,,,,,,,,,,,,,,,f,24,Jiangtianyi,2022-04-01_18h33.47.409,emotion,2022.1.2,60.05107944563209,
89,-200,-50,-200,one,-200,-50,-200,,,,,0,60,60,88,,,,,,,,,,,right,4.090235099996789,784.7869537999941,None,784.7869537999941,None,788.9019597000006,None,788.9019597000006,None,788.9019597000006,None,790.8843863000002,791.3842884999976,790.8843863000002,791.3842884999976,790.8843863000002,791.3842884999976,788.9019597000006,None,791.4009695899979,None,791.4009695899979,None,791.4009695899979,None,0.010029789998952765,None,791.4009695899979,None,791.4009695899979,None,791.4009695899979,None,791.4009695899979,None,791.4009695899979,None,791.4009695899979,None,791.4101662999965,None,791.4101662999965,None,791.4101662999965,None,0.0019657899902085774,0.5019657899902086,791.4101662999965,None,791.4101662999965,None,791.4101662999965,None,791.4101662999965,None,791.4101662999965,None,791.4101662999965,None,793.3998312999975,793.3998312999975,-50.0,2.589,1050,1300,350,,,,,,,,,,,,,,,,,,,,,,,,,,,,,,,,,,,,,,,,,,,,,,,,,,,,,,,,,,,,,,,,,,,,,,,,,,,,,,,,,,,f,24,Jiangtianyi,2022-04-01_18h33.47.409,emotion,2022.1.2,60.05107944563209,
82,0,-50,-50,two,0,-50,-50,,,,,0,61,61,81,,,,,,,,,,,right,3.68333320000238,796.0474200999961,None,796.0474200999961,None,799.7636334999988,None,799.7636334999988,None,799.7636334999988,None,801.7458568000002,802.2456844999979,801.7458568000002,802.2456844999979,801.7458568000002,802.2456844999979,799.7636334999988,None,802.2792310899997,None,802.2792310899997,None,802.2792310899997,None,0.010698289996071253,None,802.2792310899997,None,802.2792310899997,None,802.2792310899997,None,802.2792310899997,None,802.2792310899997,None,802.2792310899997,None,802.2872916999986,None,802.2872916999986,None,802.2872916999986,None,0.004070690003572963,0.504070690003573,802.2872916999986,None,802.2872916999986,None,802.2872916999986,None,802.2872916999986,None,802.2872916999986,None,802.2872916999986,None,804.2782000000007,804.2782000000007,25.599999999999994,4.736,1050,1250,300,,,,,,,,,,,,,,,,,,,,,,,,,,,,,,,,,,,,,,,,,,,,,,,,,,,,,,,,,,,,,,,,,,,,,,,,,,,,,,,,,,,f,24,Jiangtianyi,2022-04-01_18h33.47.409,emotion,2022.1.2,60.05107944563209,
28,0,50,50,one,0,50,50,,,,,0,62,62,27,,,,,,,,,,,right,9.762615100000403,809.0746986999948,None,809.0746986999948,None,818.8548477000004,None,818.8548477000004,None,818.8548477000004,None,820.8372215999989,821.3368470999994,820.8372215999989,821.3368470999994,820.8372215999989,821.3368470999994,818.8548477000004,None,821.3704242899942,None,821.3704242899942,None,821.3704242899942,None,0.010624889990140218,None,821.3704242899942,None,821.3704242899942,None,821.3704242899942,None,821.3704242899942,None,821.3704242899942,None,821.3704242899942,None,821.3786133999965,None,821.3786133999965,None,821.3786133999965,None,0.004076489989529364,0.5040764899895294,821.3786133999965,None,821.3786133999965,None,821.3786133999965,None,821.3786133999965,None,821.3786133999965,None,821.3786133999965,None,823.369369,823.369369,-25.3,2.25,1050,1300,350,,,,,,,,,,,,,,,,,,,,,,,,,,,,,,,,,,,,,,,,,,,,,,,,,,,,,,,,,,,,,,,,,,,,,,,,,,,,,,,,,,,f,24,Jiangtianyi,2022-04-01_18h33.47.409,emotion,2022.1.2,60.05107944563209,
37,200,200,0,one,200,200,0,,,,,0,63,63,36,,,,,,,,,,,left,2.8087664999984554,825.6690935999941,None,825.6690935999941,None,828.5005871999965,None,828.5005871999965,None,828.5005871999965,None,830.4825031,830.9827264999985,830.4825031,830.9827264999985,830.4825031,830.9827264999985,828.5005871999965,None,831.016028289999,None,831.016028289999,None,831.016028289999,None,0.010128989990334958,None,831.016028289999,None,831.016028289999,None,831.016028289999,None,831.016028289999,None,831.016028289999,None,831.016028289999,None,831.0250515999942,None,831.0250515999942,None,831.0250515999942,None,0.002463389995682519,0.5024633899956825,831.0250515999942,None,831.0250515999942,None,831.0250515999942,None,831.0250515999942,None,831.0250515999942,None,831.0250515999942,None,833.0152747999964,833.0152747999964,0.10000000000000142,1.728,1250,1500,350,,,,,,,,,,,,,,,,,,,,,,,,,,,,,,,,,,,,,,,,,,,,,,,,,,,,,,,,,,,,,,,,,,,,,,,,,,,,,,,,,,,f,24,Jiangtianyi,2022-04-01_18h33.47.409,emotion,2022.1.2,60.05107944563209,
55,0,-50,-200,two,0,-50,-200,,,,,0,64,64,54,,,,,,,,,,,down,4.2671045000024606,834.797332999995,None,834.797332999995,None,839.095791199994,None,839.095791199994,None,839.095791199994,None,841.0782405999998,841.5778884999963,841.0782405999998,841.5778884999963,841.0782405999998,841.5778884999963,839.095791199994,None,841.6112266899975,None,841.6112266899975,None,841.6112266899975,None,0.010242289994494058,None,841.6112266899975,None,841.6112266899975,None,841.6112266899975,None,841.6112266899975,None,841.6112266899975,None,841.6112266899975,None,841.6198481999963,None,841.6198481999963,None,841.6198481999963,None,0.002685189996554982,0.502685189996555,841.6198481999963,None,841.6198481999963,None,841.6198481999963,None,841.6198481999963,None,841.6198481999963,None,841.6198481999963,None,843.6100786999959,843.6100786999959,25.5,3.346,1250,1450,150,,,,,,,,,,,,,,,,,,,,,,,,,,,,,,,,,,,,,,,,,,,,,,,,,,,,,,,,,,,,,,,,,,,,,,,,,,,,,,,,,,,f,24,Jiangtianyi,2022-04-01_18h33.47.409,emotion,2022.1.2,60.05107944563209,
76,0,-50,-50,one,0,-50,-50,,,,,0,65,65,75,,,,,,,,,,,left,1.7477750000034575,847.0087089000008,None,847.0087089000008,None,848.774697599998,None,848.774697599998,None,848.774697599998,None,850.7570927999986,851.2570539999942,850.7570927999986,851.2570539999942,850.7570927999986,851.2570539999942,848.774697599998,None,851.2737350899945,None,851.2737350899945,None,851.2737350899945,None,0.01012538999930257,None,851.2737350899945,None,851.2737350899945,None,851.2737350899945,None,851.2737350899945,None,851.2737350899945,None,851.2737350899945,None,851.2829512999961,None,851.2829512999961,None,851.2829512999961,None,0.0026103899945155717,0.5026103899945156,851.2829512999961,None,851.2829512999961,None,851.2829512999961,None,851.2829512999961,None,851.2829512999961,None,851.2829512999961,None,853.2726933999948,853.2726933999948,24.900000000000006,1.975,1250,1400,100,,,,,,,,,,,,,,,,,,,,,,,,,,,,,,,,,,,,,,,,,,,,,,,,,,,,,,,,,,,,,,,,,,,,,,,,,,,,,,,,,,,f,24,Jiangtianyi,2022-04-01_18h33.47.409,emotion,2022.1.2,60.05107944563209,
59,-200,-50,0,two,-200,-50,0,,,,,0,66,66,58,,,,,,,,,,,down,4.3197566000017105,855.3051892000003,None,855.3051892000003,None,859.6530518,None,859.6530518,None,859.6530518,None,861.6354189999984,862.1354845999958,861.6354189999984,862.1354845999958,861.6354189999984,862.1354845999958,859.6530518,None,862.1521656899961,None,862.1521656899961,None,862.1521656899961,None,0.010077689999889117,None,862.1521656899961,None,862.1521656899961,None,862.1521656899961,None,862.1521656899961,None,862.1521656899961,None,862.1521656899961,None,862.1619562999986,None,862.1619562999986,None,862.1619562999986,None,0.0020245900013833307,0.5020245900013833,862.1619562999986,None,862.1619562999986,None,862.1619562999986,None,862.1619562999986,None,862.1619562999986,None,862.1619562999986,None,864.1514112999939,864.1514112999939,-49.5,3.672,1050,1350,100,,,,,,,,,,,,,,,,,,,,,,,,,,,,,,,,,,,,,,,,,,,,,,,,,,,,,,,,,,,,,,,,,,,,,,,,,,,,,,,,,,,f,24,Jiangtianyi,2022-04-01_18h33.47.409,emotion,2022.1.2,60.05107944563209,
8,0,200,50,two,0,200,50,,,,,0,67,67,7,,,,,,,,,,,down,3.465634100000898,867.8826885999952,None,867.8826885999952,None,871.3810854999974,None,871.3810854999974,None,871.3810854999974,None,873.3633472000001,873.8634479999964,873.3633472000001,873.8634479999964,873.3633472000001,873.8634479999964,871.3810854999974,None,873.8801290899967,None,873.8801290899967,None,873.8801290899967,None,0.010269689999404363,None,873.8801290899967,None,873.8801290899967,None,873.8801290899967,None,873.8801290899967,None,873.8801290899967,None,873.8801290899967,None,873.8894612999939,None,873.8894612999939,None,873.8894612999939,None,0.0026817899924935773,0.5026817899924936,873.8894612999939,None,873.8894612999939,None,873.8894612999939,None,873.8894612999939,None,873.8894612999939,None,873.8894612999939,None,875.8793445999981,875.8793445999981,-50.0,3.48,1050,1550,150,,,,,,,,,,,,,,,,,,,,,,,,,,,,,,,,,,,,,,,,,,,,,,,,,,,,,,,,,,,,,,,,,,,,,,,,,,,,,,,,,,,f,24,Jiangtianyi,2022-04-01_18h33.47.409,emotion,2022.1.2,60.05107944563209,
20,0,50,0,two,0,50,0,,,,,0,68,68,19,,,,,,,,,,,right,3.7799402000018745,879.4111957999994,None,879.4111957999994,None,883.2091016999984,None,883.2091016999984,None,883.2091016999984,None,885.191270700001,885.6911150999949,885.191270700001,885.6911150999949,885.191270700001,885.6911150999949,883.2091016999984,None,885.7248011899967,None,885.7248011899967,None,885.7248011899967,None,0.010466389991051983,None,885.7248011899967,None,885.7248011899967,None,885.7248011899967,None,885.7248011899967,None,885.7248011899967,None,885.7248011899967,None,885.7341257999942,None,885.7341257999942,None,885.7341257999942,None,0.002884789995732717,0.5028847899957327,885.7341257999942,None,885.7341257999942,None,885.7341257999942,None,885.7341257999942,None,885.7341257999942,None,885.7341257999942,None,887.7233450999993,887.7233450999993,-50.0,4.106,1050,1600,150,,,,,,,,,,,,,,,,,,,,,,,,,,,,,,,,,,,,,,,,,,,,,,,,,,,,,,,,,,,,,,,,,,,,,,,,,,,,,,,,,,,f,24,Jiangtianyi,2022-04-01_18h33.47.409,emotion,2022.1.2,60.05107944563209,
62,0,-50,0,one,0,-50,0,,,,,0,69,69,61,,,,,,,,,,,left,2.1316147000034107,891.8886503999965,None,891.8886503999965,None,894.0372910000006,None,894.0372910000006,None,894.0372910000006,None,896.0196550999972,896.5196937000001,896.0196550999972,896.5196937000001,896.0196550999972,896.5196937000001,894.0372910000006,None,896.5363747900003,None,896.5363747900003,None,896.5363747900003,None,0.010112590003700461,None,896.5363747900003,None,896.5363747900003,None,896.5363747900003,None,896.5363747900003,None,896.5363747900003,None,896.5363747900003,None,896.5460384999969,None,896.5460384999969,None,896.5460384999969,None,0.0020388900011312217,0.5020388900011312,896.5460384999969,None,896.5460384999969,None,896.5460384999969,None,896.5460384999969,None,896.5460384999969,None,896.5460384999969,None,898.5354718999952,898.5354718999952,0.29999999999999716,2.141,1050,1550,150,,,,,,,,,,,,,,,,,,,,,,,,,,,,,,,,,,,,,,,,,,,,,,,,,,,,,,,,,,,,,,,,,,,,,,,,,,,,,,,,,,,f,24,Jiangtianyi,2022-04-01_18h33.47.409,emotion,2022.1.2,60.05107944563209,
93,0,-200,-200,two,0,-200,-200,,,,,0,70,70,92,,,,,,,,,,,left,4.340170700001181,900.7340619999959,None,900.7340619999959,None,905.099060099994,None,905.099060099994,None,905.099060099994,None,907.0815841000003,907.5812207999988,907.0815841000003,907.5812207999988,907.0815841000003,907.5812207999988,905.099060099994,None,907.614782889995,None,907.614782889995,None,907.614782889995,None,0.010469090004335158,None,907.614782889995,None,907.614782889995,None,907.614782889995,None,907.614782889995,None,907.614782889995,None,907.614782889995,None,907.6232855999988,None,907.6232855999988,None,907.6232855999988,None,0.0038575899889110588,0.5038575899889111,907.6232855999988,None,907.6232855999988,None,907.6232855999988,None,907.6232855999988,None,907.6232855999988,None,907.6232855999988,None,909.6137486999942,909.6137486999942,24.5,2.629,1050,1350,-50,,,,,,,,,,,,,,,,,,,,,,,,,,,,,,,,,,,,,,,,,,,,,,,,,,,,,,,,,,,,,,,,,,,,,,,,,,,,,,,,,,,f,24,Jiangtianyi,2022-04-01_18h33.47.409,emotion,2022.1.2,60.05107944563209,
60,-200,0,-50,two,-200,0,-50,,,,,0,71,71,59,,,,,,,,,,,down,2.2261977000016486,912.295787199997,None,912.295787199997,None,914.5447930000009,None,914.5447930000009,None,914.5447930000009,None,916.5272538999998,917.0270505000008,916.5272538999998,917.0270505000008,916.5272538999998,917.0270505000008,914.5447930000009,None,917.060349689996,None,917.060349689996,None,917.060349689996,None,0.010821590003615711,None,917.060349689996,None,917.060349689996,None,917.060349689996,None,917.060349689996,None,917.060349689996,None,917.060349689996,None,917.0686127000008,None,917.0686127000008,None,917.0686127000008,None,0.004206789992167614,0.5042067899921676,917.0686127000008,None,917.0686127000008,None,917.0686127000008,None,917.0686127000008,None,917.0686127000008,None,917.0686127000008,None,919.0594822999992,919.0594822999992,-50.0,2.321,850,1350,-100,,,,,,,,,,,,,,,,,,,,,,,,,,,,,,,,,,,,,,,,,,,,,,,,,,,,,,,,,,,,,,,,,,,,,,,,,,,,,,,,,,,f,24,Jiangtianyi,2022-04-01_18h33.47.409,emotion,2022.1.2,60.05107944563209,
1,0,50,200,one,0,50,200,,,,,0,72,72,0,,,,,,,,,,,down,3.7356836999970255,921.4404792999994,None,921.4404792999994,None,925.2064226000002,None,925.2064226000002,None,925.2064226000002,None,927.1890703999961,927.6889546999955,927.1890703999961,927.6889546999955,927.1890703999961,927.6889546999955,925.2064226000002,None,927.7056357899958,None,927.7056357899958,None,927.7056357899958,None,0.01006768999650376,None,927.7056357899958,None,927.7056357899958,None,927.7056357899958,None,927.7056357899958,None,927.7056357899958,None,927.7056357899958,None,927.7144692000002,None,927.7144692000002,None,927.7144692000002,None,0.0024011899949982762,0.5024011899949983,927.7144692000002,None,927.7144692000002,None,927.7144692000002,None,927.7144692000002,None,927.7144692000002,None,927.7144692000002,None,929.7045396999965,929.7045396999965,-25.0,1.993,850,1400,100,,,,,,,,,,,,,,,,,,,,,,,,,,,,,,,,,,,,,,,,,,,,,,,,,,,,,,,,,,,,,,,,,,,,,,,,,,,,,,,,,,,f,24,Jiangtianyi,2022-04-01_18h33.47.409,emotion,2022.1.2,60.05107944563209,
83,-50,0,-50,two,-50,0,-50,,,,,0,73,73,82,,,,,,,,,,,left,3.0831993000028888,931.7536978999997,None,931.7536978999997,None,934.8688980000006,None,934.8688980000006,None,934.8688980000006,None,936.8515532999954,937.3513531999997,936.8515532999954,937.3513531999997,936.8515532999954,937.3513531999997,934.8688980000006,None,937.36803429,None,937.36803429,None,937.36803429,None,0.010106889996677637,None,937.36803429,None,937.36803429,None,937.36803429,None,937.36803429,None,937.36803429,None,937.36803429,None,937.3772127999982,None,937.3772127999982,None,937.3772127999982,None,0.0024169899988919497,0.502416989998892,937.3772127999982,None,937.3772127999982,None,937.3772127999982,None,937.3772127999982,None,937.3772127999982,None,937.3772127999982,None,939.3668904000006,939.3668904000006,-49.9,1.858,800,1400,50,,,,,,,,,,,,,,,,,,,,,,,,,,,,,,,,,,,,,,,,,,,,,,,,,,,,,,,,,,,,,,,,,,,,,,,,,,,,,,,,,,,f,24,Jiangtianyi,2022-04-01_18h33.47.409,emotion,2022.1.2,60.05107944563209,
65,0,-200,0,one,0,-200,0,,,,,0,74,74,64,,,,,,,,,,,down,2.533313100000669,941.2826260000002,None,941.2826260000002,None,943.8481306999965,None,943.8481306999965,None,943.8481306999965,None,945.8304955999993,946.3305053999939,945.8304955999993,946.3305053999939,945.8304955999993,946.3305053999939,943.8481306999965,None,946.3471864899941,None,946.3471864899941,None,946.3471864899941,None,0.010219989992037881,None,946.3471864899941,None,946.3471864899941,None,946.3471864899941,None,946.3471864899941,None,946.3471864899941,None,946.3471864899941,None,946.3565396999984,None,946.3565396999984,None,946.3565396999984,None,0.0023881899905973114,0.5023881899905973,946.3565396999984,None,946.3565396999984,None,946.3565396999984,None,946.3565396999984,None,946.3565396999984,None,946.3565396999984,None,948.346143799994,948.346143799994,24.400000000000006,2.882,800,1200,50,,,,,,,,,,,,,,,,,,,,,,,,,,,,,,,,,,,,,,,,,,,,,,,,,,,,,,,,,,,,,,,,,,,,,,,,,,,,,,,,,,,f,24,Jiangtianyi,2022-04-01_18h33.47.409,emotion,2022.1.2,60.05107944563209,
18,200,0,0,one,200,0,0,,,,,0,75,75,17,,,,,,,,,,,left,2.723033599999326,951.2788938999947,None,951.2788938999947,None,954.0267110999994,None,954.0267110999994,None,954.0267110999994,None,956.0094219999955,956.5089827999982,956.0094219999955,956.5089827999982,956.0094219999955,956.5089827999982,954.0267110999994,None,956.54255519,None,956.54255519,None,956.54255519,None,0.01096259000041755,None,956.54255519,None,956.54255519,None,956.54255519,None,956.54255519,None,956.54255519,None,956.54255519,None,956.5513524999988,None,956.5513524999988,None,956.5513524999988,None,0.004429089996847324,0.5044290899968473,956.5513524999988,None,956.5513524999988,None,956.5513524999988,None,956.5513524999988,None,956.5513524999988,None,956.5513524999988,None,958.5416152999969,958.5416152999969,25.0,2.253,1000,1200,50,,,,,,,,,,,,,,,,,,,,,,,,,,,,,,,,,,,,,,,,,,,,,,,,,,,,,,,,,,,,,,,,,,,,,,,,,,,,,,,,,,,f,24,Jiangtianyi,2022-04-01_18h33.47.409,emotion,2022.1.2,60.05107944563209,
16,0,0,200,one,0,0,200,,,,,0,76,76,15,,,,,,,,,,,right,4.093236900000193,960.8558424000003,None,960.8558424000003,None,964.9723864999978,None,964.9723864999978,None,964.9723864999978,None,966.9543589999957,967.4542947000009,966.9543589999957,967.4542947000009,966.9543589999957,967.4542947000009,964.9723864999978,None,967.4875567899974,None,967.4875567899974,None,967.4875567899974,None,0.010568989993771538,None,967.4875567899974,None,967.4875567899974,None,967.4875567899974,None,967.4875567899974,None,967.4875567899974,None,967.4875567899974,None,967.4958944999962,None,967.4958944999962,None,967.4958944999962,None,0.0041784899949561805,0.5041784899949562,967.4958944999962,None,967.4958944999962,None,967.4958944999962,None,967.4958944999962,None,967.4958944999962,None,967.4958944999962,None,969.4867249999952,969.4867249999952,-0.20000000000000284,1.551,1000,1200,250,,,,,,,,,,,,,,,,,,,,,,,,,,,,,,,,,,,,,,,,,,,,,,,,,,,,,,,,,,,,,,,,,,,,,,,,,,,,,,,,,,,f,24,Jiangtianyi,2022-04-01_18h33.47.409,emotion,2022.1.2,60.05107944563209,
80,-50,-200,-50,two,-50,-200,-50,,,,,0,77,77,79,,,,,,,,,,,down,2.4663831000070786,971.1012759000005,None,971.1012759000005,None,973.5848576999997,None,973.5848576999997,None,973.5848576999997,None,975.567212599999,976.0668869000001,975.567212599999,976.0668869000001,975.567212599999,976.0668869000001,973.5848576999997,None,976.1002753899986,None,976.1002753899986,None,976.1002753899986,None,0.010215790003712755,None,976.1002753899986,None,976.1002753899986,None,976.1002753899986,None,976.1002753899986,None,976.1002753899986,None,976.1002753899986,None,976.109695399995,None,976.109695399995,None,976.109695399995,None,0.0018187899986514822,0.5018187899986515,976.109695399995,None,976.109695399995,None,976.109695399995,None,976.109695399995,None,976.109695399995,None,976.109695399995,None,978.0993834999972,978.0993834999972,0.0,2.293,950,1000,200,,,,,,,,,,,,,,,,,,,,,,,,,,,,,,,,,,,,,,,,,,,,,,,,,,,,,,,,,,,,,,,,,,,,,,,,,,,,,,,,,,,f,24,Jiangtianyi,2022-04-01_18h33.47.409,emotion,2022.1.2,60.05107944563209,
73,-200,-50,-50,one,-200,-50,-50,,,,,0,78,78,72,,,,,,,,,,,right,4.251250499997695,980.4480074999956,None,980.4480074999956,None,984.729161700001,None,984.729161700001,None,984.729161700001,None,986.7121004,987.2122575999965,986.7121004,987.2122575999965,986.7121004,987.2122575999965,984.729161700001,None,987.2289386899968,None,987.2289386899968,None,987.2289386899968,None,0.00980868999613449,None,987.2289386899968,None,987.2289386899968,None,987.2289386899968,None,987.2289386899968,None,987.2289386899968,None,987.2289386899968,None,987.2385111999974,None,987.2385111999974,None,987.2385111999974,None,0.0019490899940137751,0.5019490899940138,987.2385111999974,None,987.2385111999974,None,987.2385111999974,None,987.2385111999974,None,987.2385111999974,None,987.2385111999974,None,989.2274938999981,989.2274938999981,-49.7,2.136,750,950,150,,,,,,,,,,,,,,,,,,,,,,,,,,,,,,,,,,,,,,,,,,,,,,,,,,,,,,,,,,,,,,,,,,,,,,,,,,,,,,,,,,,f,24,Jiangtianyi,2022-04-01_18h33.47.409,emotion,2022.1.2,60.05107944563209,
58,-50,-200,0,two,-50,-200,0,,,,,0,79,79,57,,,,,,,,,,,right,2.5508980000013253,991.4255206999951,None,991.4255206999951,None,994.0085906999957,None,994.0085906999957,None,994.0085906999957,None,995.9910902999982,996.4908749999959,995.9910902999982,996.4908749999959,995.9910902999982,996.4908749999959,994.0085906999957,None,996.5243712900003,None,996.5243712900003,None,996.5243712900003,None,0.010589389996312093,None,996.5243712900003,None,996.5243712900003,None,996.5243712900003,None,996.5243712900003,None,996.5243712900003,None,996.5243712900003,None,996.5336605999983,None,996.5336605999983,None,996.5336605999983,None,0.0025836900022113696,0.5025836900022114,996.5336605999983,None,996.5336605999983,None,996.5336605999983,None,996.5336605999983,None,996.5336605999983,None,996.5336605999983,None,998.5233079999962,998.5233079999962,-24.4,2.25,700,750,150,,,,,,,,,,,,,,,,,,,,,,,,,,,,,,,,,,,,,,,,,,,,,,,,,,,,,,,,,,,,,,,,,,,,,,,,,,,,,,,,,,,f,24,Jiangtianyi,2022-04-01_18h33.47.409,emotion,2022.1.2,60.05107944563209,
15,50,0,0,one,50,0,0,,,,,0,80,80,14,,,,,,,,,,,left,1.750167700003658,1000.8231961999991,None,1000.8231961999991,None,1002.6044829999955,None,1002.6044829999955,None,1002.6044829999955,None,1004.5876076999994,1005.0868973999968,1004.5876076999994,1005.0868973999968,1004.5876076999994,1005.0868973999968,1002.6044829999955,None,1005.1035784899971,None,1005.1035784899971,None,1005.1035784899971,None,0.009840389997407328,None,1005.1035784899971,None,1005.1035784899971,None,1005.1035784899971,None,1005.1035784899971,None,1005.1035784899971,None,1005.1035784899971,None,1005.113523299995,None,1005.113523299995,None,1005.113523299995,None,0.0017546899980516173,0.5017546899980516,1005.113523299995,None,1005.113523299995,None,1005.113523299995,None,1005.113523299995,None,1005.113523299995,None,1005.113523299995,None,1007.1028994999942,1007.1028994999942,-0.5,2.039,750,750,150,,,,,,,,,,,,,,,,,,,,,,,,,,,,,,,,,,,,,,,,,,,,,,,,,,,,,,,,,,,,,,,,,,,,,,,,,,,,,,,,,,,f,24,Jiangtianyi,2022-04-01_18h33.47.409,emotion,2022.1.2,60.05107944563209,
61,0,0,-50,one,0,0,-50,,,,,0,81,81,60,,,,,,,,,,,right,4.033335500003886,1009.2008894999963,None,1009.2008894999963,None,1013.266467399997,None,1013.266467399997,None,1013.266467399997,None,1015.2491268999947,1015.749000799995,1015.2491268999947,1015.749000799995,1015.2491268999947,1015.749000799995,1013.266467399997,None,1015.7656818899952,None,1015.7656818899952,None,1015.7656818899952,None,0.009550789989589248,None,1015.7656818899952,None,1015.7656818899952,None,1015.7656818899952,None,1015.7656818899952,None,1015.7656818899952,None,1015.7656818899952,None,1015.7748997999952,None,1015.7748997999952,None,1015.7748997999952,None,0.0020867899947916158,0.5020867899947916,1015.7748997999952,None,1015.7748997999952,None,1015.7748997999952,None,1015.7748997999952,None,1015.7748997999952,None,1015.7748997999952,None,1017.7647666999983,1017.7647666999983,0.29999999999999716,2.122,750,750,100,,,,,,,,,,,,,,,,,,,,,,,,,,,,,,,,,,,,,,,,,,,,,,,,,,,,,,,,,,,,,,,,,,,,,,,,,,,,,,,,,,,f,24,Jiangtianyi,2022-04-01_18h33.47.409,emotion,2022.1.2,60.05107944563209,
87,0,-200,-200,one,0,-200,-200,,,,,0,82,82,86,,,,,,,,,,,down,1.9805651999995462,1019.9459692999953,None,1019.9459692999953,None,1021.9462026999972,None,1021.9462026999972,None,1021.9462026999972,None,1023.9284993999972,1024.4285133999947,1023.9284993999972,1024.4285133999947,1023.9284993999972,1024.4285133999947,1021.9462026999972,None,1024.4614156899945,None,1024.4614156899945,None,1024.4614156899945,None,0.010624989990901668,None,1024.4614156899945,None,1024.4614156899945,None,1024.4614156899945,None,1024.4614156899945,None,1024.4614156899945,None,1024.4614156899945,None,1024.4705031999983,None,1024.4705031999983,None,1024.4705031999983,None,0.003684189992782194,0.5036841899927822,1024.4705031999983,None,1024.4705031999983,None,1024.4705031999983,None,1024.4705031999983,None,1024.4705031999983,None,1024.4705031999983,None,1026.460778499997,1026.460778499997,24.700000000000003,2.383,750,550,-100,,,,,,,,,,,,,,,,,,,,,,,,,,,,,,,,,,,,,,,,,,,,,,,,,,,,,,,,,,,,,,,,,,,,,,,,,,,,,,,,,,,f,24,Jiangtianyi,2022-04-01_18h33.47.409,emotion,2022.1.2,60.05107944563209,
74,-50,-200,-50,one,-50,-200,-50,,,,,0,83,83,73,,,,,,,,,,,left,3.3805471000014222,1028.8930962999948,None,1028.8930962999948,None,1032.2915410999994,None,1032.2915410999994,None,1032.2915410999994,None,1034.2738323999947,1034.773655799996,1034.2738323999947,1034.773655799996,1034.2738323999947,1034.773655799996,1032.2915410999994,None,1034.8067548899955,None,1034.8067548899955,None,1034.8067548899955,None,0.010576189997664187,None,1034.8067548899955,None,1034.8067548899955,None,1034.8067548899955,None,1034.8067548899955,None,1034.8067548899955,None,1034.8067548899955,None,1034.8164363999967,None,1034.8164363999967,None,1034.8164363999967,None,0.002196589994127862,0.5021965899941279,1034.8164363999967,None,1034.8164363999967,None,1034.8164363999967,None,1034.8164363999967,None,1034.8164363999967,None,1034.8164363999967,None,1036.8061297999957,1036.8061297999957,24.799999999999997,2.711,700,350,-150,,,,,,,,,,,,,,,,,,,,,,,,,,,,,,,,,,,,,,,,,,,,,,,,,,,,,,,,,,,,,,,,,,,,,,,,,,,,,,,,,,,f,24,Jiangtianyi,2022-04-01_18h33.47.409,emotion,2022.1.2,60.05107944563209,
27,50,50,200,one,50,50,200,,,,,0,84,84,26,,,,,,,,,,,down,3.7914384999967297,1039.571298099996,None,1039.571298099996,None,1043.3862991999995,None,1043.3862991999995,None,1043.3862991999995,None,1045.3688808000006,1045.8683977999972,1045.3688808000006,1045.8683977999972,1045.3688808000006,1045.8683977999972,1043.3862991999995,None,1045.9018668899982,None,1045.9018668899982,None,1045.9018668899982,None,0.0107809900000575,None,1045.9018668899982,None,1045.9018668899982,None,1045.9018668899982,None,1045.9018668899982,None,1045.9018668899982,None,1045.9018668899982,None,1045.9100435,None,1045.9100435,None,1045.9100435,None,0.004287589996238239,0.5042875899962382,1045.9100435,None,1045.9100435,None,1045.9100435,None,1045.9100435,None,1045.9100435,None,1045.9100435,None,1047.9009720999966,1047.9009720999966,-0.29999999999999716,1.634,750,400,50,,,,,,,,,,,,,,,,,,,,,,,,,,,,,,,,,,,,,,,,,,,,,,,,,,,,,,,,,,,,,,,,,,,,,,,,,,,,,,,,,,,f,24,Jiangtianyi,2022-04-01_18h33.47.409,emotion,2022.1.2,60.05107944563209,
84,-50,-50,0,two,-50,-50,0,,,,,0,85,85,83,,,,,,,,,,,left,2.8633211000051233,1049.5991869999998,None,1049.5991869999998,None,1052.4823353999964,None,1052.4823353999964,None,1052.4823353999964,None,1054.4645713999998,1054.964579899999,1054.4645713999998,1054.964579899999,1054.4645713999998,1054.964579899999,1052.4823353999964,None,1054.997700889998,None,1054.997700889998,None,1054.997700889998,None,0.010599489993182942,None,1054.997700889998,None,1054.997700889998,None,1054.997700889998,None,1054.997700889998,None,1054.997700889998,None,1054.997700889998,None,1055.0065144999971,None,1055.0065144999971,None,1055.0065144999971,None,0.0038932899915380403,0.503893289991538,1055.0065144999971,None,1055.0065144999971,None,1055.0065144999971,None,1055.0065144999971,None,1055.0065144999971,None,1055.0065144999971,None,1056.997068699995,1056.997068699995,0.10000000000000142,1.944,700,350,50,,,,,,,,,,,,,,,,,,,,,,,,,,,,,,,,,,,,,,,,,,,,,,,,,,,,,,,,,,,,,,,,,,,,,,,,,,,,,,,,,,,f,24,Jiangtianyi,2022-04-01_18h33.47.409,emotion,2022.1.2,60.05107944563209,
95,-200,-50,-200,two,-200,-50,-200,,,,,0,86,86,94,,,,,,,,,,,right,3.6268665000025067,1058.9956758999979,None,1058.9956758999979,None,1062.6443070999958,None,1062.6443070999958,None,1062.6443070999958,None,1064.6265779999958,1065.126569299995,1064.6265779999958,1065.126569299995,1064.6265779999958,1065.126569299995,1062.6443070999958,None,1065.1598588899972,None,1065.1598588899972,None,1065.1598588899972,None,0.010220290001598187,None,1065.1598588899972,None,1065.1598588899972,None,1065.1598588899972,None,1065.1598588899972,None,1065.1598588899972,None,1065.1598588899972,None,1065.168831199997,None,1065.168831199997,None,1065.168831199997,None,0.002970389999973122,0.5029703899999731,1065.168831199997,None,1065.168831199997,None,1065.168831199997,None,1065.168831199997,None,1065.168831199997,None,1065.168831199997,None,1067.1587517000007,1067.1587517000007,-50.0,1.981,500,300,-150,,,,,,,,,,,,,,,,,,,,,,,,,,,,,,,,,,,,,,,,,,,,,,,,,,,,,,,,,,,,,,,,,,,,,,,,,,,,,,,,,,,f,24,Jiangtianyi,2022-04-01_18h33.47.409,emotion,2022.1.2,60.05107944563209,
38,200,0,200,one,200,0,200,,,,,0,87,87,37,,,,,,,,,,,down,1.7886968000020715,1069.1912968999968,None,1069.1912968999968,None,1071.0071150000003,None,1071.0071150000003,None,1071.0071150000003,None,1072.9897171999983,1073.4895328999992,1072.9897171999983,1073.4895328999992,1072.9897171999983,1073.4895328999992,1071.0071150000003,None,1073.5062139899994,None,1073.5062139899994,None,1073.5062139899994,None,0.010404190004919656,None,1073.5062139899994,None,1073.5062139899994,None,1073.5062139899994,None,1073.5062139899994,None,1073.5062139899994,None,1073.5062139899994,None,1073.5151860999977,None,1073.5151860999977,None,1073.5151860999977,None,0.002669589994184207,0.5026695899941842,1073.5151860999977,None,1073.5151860999977,None,1073.5151860999977,None,1073.5151860999977,None,1073.5151860999977,None,1073.5151860999977,None,1075.505317199997,1075.505317199997,24.700000000000003,3.196,700,300,50,,,,,,,,,,,,,,,,,,,,,,,,,,,,,,,,,,,,,,,,,,,,,,,,,,,,,,,,,,,,,,,,,,,,,,,,,,,,,,,,,,,f,24,Jiangtianyi,2022-04-01_18h33.47.409,emotion,2022.1.2,60.05107944563209,
92,-200,0,-200,two,-200,0,-200,,,,,0,88,88,91,,,,,,,,,,,right,3.6732538000069326,1078.7537903999983,None,1078.7537903999983,None,1082.4522972999985,None,1082.4522972999985,None,1082.4522972999985,None,1084.4343850000005,1084.9342193999983,1084.4343850000005,1084.9342193999983,1084.4343850000005,1084.9342193999983,1082.4522972999985,None,1084.9676430899956,None,1084.9676430899956,None,1084.9676430899956,None,0.010659589992428664,None,1084.9676430899956,None,1084.9676430899956,None,1084.9676430899956,None,1084.9676430899956,None,1084.9676430899956,None,1084.9676430899956,None,1084.975927899999,None,1084.975927899999,None,1084.975927899999,None,0.004085189997567795,0.5040851899975678,1084.975927899999,None,1084.975927899999,None,1084.975927899999,None,1084.975927899999,None,1084.975927899999,None,1084.975927899999,None,1086.9667134999981,1086.9667134999981,-49.8,1.821,500,300,-150,,,,,,,,,,,,,,,,,,,,,,,,,,,,,,,,,,,,,,,,,,,,,,,,,,,,,,,,,,,,,,,,,,,,,,,,,,,,,,,,,,,f,24,Jiangtianyi,2022-04-01_18h33.47.409,emotion,2022.1.2,60.05107944563209,
53,-200,-50,0,one,-200,-50,0,,,,,0,89,89,52,,,,,,,,,,,right,4.338059800000337,1088.8481830999954,None,1088.8481830999954,None,1093.213882600001,None,1093.213882600001,None,1093.213882600001,None,1095.1959667999981,1095.6957942999943,1095.1959667999981,1095.6957942999943,1095.1959667999981,1095.6957942999943,1093.213882600001,None,1095.7295141899988,None,1095.7295141899988,None,1095.7295141899988,None,0.010843389994988684,None,1095.7295141899988,None,1095.7295141899988,None,1095.7295141899988,None,1095.7295141899988,None,1095.7295141899988,None,1095.7295141899988,None,1095.738253399999,None,1095.738253399999,None,1095.738253399999,None,0.00391488999594003,0.50391488999594,1095.738253399999,None,1095.738253399999,None,1095.738253399999,None,1095.738253399999,None,1095.738253399999,None,1095.738253399999,None,1097.7284010000003,1097.7284010000003,-49.8,2.498,300,250,-150,,,,,,,,,,,,,,,,,,,,,,,,,,,,,,,,,,,,,,,,,,,,,,,,,,,,,,,,,,,,,,,,,,,,,,,,,,,,,,,,,,,f,24,Jiangtianyi,2022-04-01_18h33.47.409,emotion,2022.1.2,60.05107944563209,
63,-50,0,0,one,-50,0,0,,,,,0,90,90,62,,,,,,,,,,,right,3.7501250999994227,1100.2774968999947,None,1100.2774968999947,None,1104.0587694999995,None,1104.0587694999995,None,1104.0587694999995,None,1106.0412058000002,1106.5412531999973,1106.0412058000002,1106.5412531999973,1106.0412058000002,1106.5412531999973,1104.0587694999995,None,1106.5579342899975,None,1106.5579342899975,None,1106.5579342899975,None,0.010540489995037206,None,1106.5579342899975,None,1106.5579342899975,None,1106.5579342899975,None,1106.5579342899975,None,1106.5579342899975,None,1106.5579342899975,None,1106.5663731999957,None,1106.5663731999957,None,1106.5663731999957,None,0.003912089996447321,0.5039120899964473,1106.5663731999957,None,1106.5663731999957,None,1106.5663731999957,None,1106.5663731999957,None,1106.5663731999957,None,1106.5663731999957,None,1108.5567034999985,1108.5567034999985,-50.0,1.791,250,250,-150,,,,,,,,,,,,,,,,,,,,,,,,,,,,,,,,,,,,,,,,,,,,,,,,,,,,,,,,,,,,,,,,,,,,,,,,,,,,,,,,,,,f,24,Jiangtianyi,2022-04-01_18h33.47.409,emotion,2022.1.2,60.05107944563209,
88,-200,-200,-50,one,-200,-200,-50,,,,,0,91,91,87,,,,,,,,,,,down,2.5920158000008087,1110.406243999998,None,1110.406243999998,None,1113.021351999996,None,1113.021351999996,None,1113.021351999996,None,1115.0039433999991,1115.5036933999945,1115.0039433999991,1115.5036933999945,1115.0039433999991,1115.5036933999945,1113.021351999996,None,1115.5203744899948,None,1115.5203744899948,None,1115.5203744899948,None,0.010185589992033783,None,1115.5203744899948,None,1115.5203744899948,None,1115.5203744899948,None,1115.5203744899948,None,1115.5203744899948,None,1115.5203744899948,None,1115.5296582999945,None,1115.5296582999945,None,1115.5296582999945,None,0.0026911899985861965,0.5026911899985862,1115.5296582999945,None,1115.5296582999945,None,1115.5296582999945,None,1115.5296582999945,None,1115.5296582999945,None,1115.5296582999945,None,1117.5193815999955,1117.5193815999955,-25.0,2.307,50,50,-200,,,,,,,,,,,,,,,,,,,,,,,,,,,,,,,,,,,,,,,,,,,,,,,,,,,,,,,,,,,,,,,,,,,,,,,,,,,,,,,,,,,f,24,Jiangtianyi,2022-04-01_18h33.47.409,emotion,2022.1.2,60.05107944563209,
75,-50,-50,-200,one,-50,-50,-200,,,,,0,92,92,74,,,,,,,,,,,down,1.4315929000003962,1119.8848052999965,None,1119.8848052999965,None,1121.334297399997,None,1121.334297399997,None,1121.334297399997,None,1123.3168175999963,1123.8166181999986,1123.3168175999963,1123.8166181999986,1123.3168175999963,1123.8166181999986,1121.334297399997,None,1123.8332992899989,None,1123.8332992899989,None,1123.8332992899989,None,0.010312990001693834,None,1123.8332992899989,None,1123.8332992899989,None,1123.8332992899989,None,1123.8332992899989,None,1123.8332992899989,None,1123.8332992899989,None,1123.8424404999969,None,1123.8424404999969,None,1123.8424404999969,None,0.0019633900010376237,0.5019633900010376,1123.8424404999969,None,1123.8424404999969,None,1123.8424404999969,None,1123.8424404999969,None,1123.8424404999969,None,1123.8424404999969,None,1125.8324257999993,1125.8324257999993,0.0,2.491,0,0,-400,,,,,,,,,,,,,,,,,,,,,,,,,,,,,,,,,,,,,,,,,,,,,,,,,,,,,,,,,,,,,,,,,,,,,,,,,,,,,,,,,,,f,24,Jiangtianyi,2022-04-01_18h33.47.409,emotion,2022.1.2,60.05107944563209,
