trialNumber,mychoice,otherchoice,stay,skip,pointsWon,otherScore,unobtained,choicepos,pos_1,otherscore,allowedkeyresp,trials_2.thisRepN,trials_2.thisTrialN,trials_2.thisN,trials_2.thisIndex,trials.thisRepN,trials.thisTrialN,trials.thisN,trials.thisIndex,image_2.started,image_2.stopped,key_resp_2.keys,key_resp_2.rt,key_resp_2.started,key_resp_2.stopped,key_resp_6.keys,key_resp_6.rt,key_resp_6.started,key_resp_6.stopped,text.started,text.stopped,left_3.started,left_3.stopped,middle_3.started,middle_3.stopped,right_3.started,right_3.stopped,otherleft_1.started,otherleft_1.stopped,othermiddle_1.started,othermiddle_1.stopped,otherright_1.started,otherright_1.stopped,text_2.started,text_2.stopped,left_4.started,left_4.stopped,right_4.started,right_4.stopped,middle_4.started,middle_4.stopped,ISI_3.started,ISI_3.stopped,mypick.started,mypick.stopped,otherpick.started,otherpick.stopped,residal.started,residal.stopped,otherleft_5.started,otherleft_5.stopped,othermiddle_5.started,othermiddle_5.stopped,otherright_5.started,otherright_5.stopped,left_5.started,left_5.stopped,right_5.started,right_5.stopped,middle_5.started,middle_5.stopped,ISI_5.started,ISI_5.stopped,mypick_1.started,mypick_1.stopped,otherpick_1.started,otherpick_1.stopped,residal_1.started,residal_1.stopped,otherleft_6.started,otherleft_6.stopped,othermiddle_6.started,othermiddle_6.stopped,otherright_6.started,otherright_6.stopped,text_3.started,text_3.stopped,rating,ratingrt,totalScore,othertotalScore,unobtainedScore,image_4.started,image_4.stopped,key_resp_3.keys,key_resp_3.rt,key_resp_3.started,key_resp_3.stopped,image_5.started,image_5.stopped,key_resp.keys,key_resp.rt,key_resp.started,key_resp.stopped,otherleft_3.started,otherleft_3.stopped,othermiddle_3.started,othermiddle_3.stopped,otherright_3.started,otherright_3.stopped,text_4.started,text_4.stopped,ISI_2.started,ISI_2.stopped,key_resp_4.keys,key_resp_4.rt,key_resp_4.started,key_resp_4.stopped,otherleft_4.started,otherleft_4.stopped,othermiddle_4.started,othermiddle_4.stopped,otherright_4.started,otherright_4.stopped,text_5.started,text_5.stopped,left.started,left.stopped,right.started,right.stopped,middle.started,middle.stopped,ISI.started,ISI.stopped,mypick_3.started,mypick_3.stopped,otherpick_3.started,otherpick_3.stopped,residal_3.started,residal_3.stopped,otherleft.started,otherleft.stopped,othermiddle.started,othermiddle.stopped,otherright.started,otherright.stopped,right_2.started,right_2.stopped,middle_2.started,middle_2.stopped,left_2.started,left_2.stopped,ISI_4.started,ISI_4.stopped,mypick_4.started,mypick_4.stopped,otherpick_4.started,otherpick_4.stopped,residal_4.started,residal_4.stopped,otherleft_2.started,otherleft_2.stopped,othermiddle_2.started,othermiddle_2.stopped,otherright_2.started,otherright_2.stopped,text_6.started,text_6.stopped,image_3.started,image_3.stopped,key_resp_9.keys,key_resp_9.rt,key_resp_9.started,key_resp_9.stopped,gender,age,participant,date,expName,psychopyVersion,frameRate,
,,,,,,,,,,,,,,,,,,,,26.745273400010774,None,space,6.1159523999958765,26.745273400010774,None,,,,,,,,,,,,,,,,,,,,,,,,,,,,,,,,,,,,,,,,,,,,,,,,,,,,,,,,,,,,,,,,,,,,,,,,,,,,,,,,,,,,,,,,,,,,,,,,,,,,,,,,,,,,,,,,,,,,,,,,,,,,,,,,,,,,,,,,,,,,,,,,,,,,,,f,25,lihan,2022_Apr_01_1644,emotion,2021.1.4,60.667389815100144,
52,-50,-200,0,one,-50,-200,0,,,,,0,0,0,51,,,,,,,,,,,left,1.865055799979018,33.027748900000006,None,33.027748900000006,None,34.91792599999462,None,34.91792599999462,None,34.91792599999462,None,36.90932900001644,37.40920500000357,36.90932900001644,37.40920500000357,36.90932900001644,37.40920500000357,34.91792599999462,None,37.44223552000476,None,37.44223552000476,None,37.44223552000476,None,0.011156419990584254,None,37.44223552000476,None,37.44223552000476,None,37.44223552000476,None,37.44223552000476,None,37.44223552000476,None,37.44223552000476,None,37.451438200019766,None,37.451438200019766,None,37.451438200019766,None,0.00266451999777928,0.5026645199977793,37.451438200019766,None,37.451438200019766,None,37.451438200019766,None,37.451438200019766,None,37.451438200019766,None,37.451438200019766,None,39.442261100019095,39.442261100019095,25.0,3.083,150,-200,0,,,,,,,,,,,,,,,,,,,,,,,,,,,,,,,,,,,,,,,,,,,,,,,,,,,,,,,,,,,,,,,,,,,,,,,,,,,,,,,,,,,f,25,lihan,2022_Apr_01_1644,emotion,2021.1.4,60.667389815100144,
84,-50,-50,0,two,-50,-50,0,,,,,0,1,1,83,,,,,,,,,,,down,1.8963823999802116,42.64020360002178,None,42.64020360002178,None,44.56389630000922,None,44.56389630000922,None,44.56389630000922,None,46.543415299995104,47.05719550000504,46.543415299995104,47.05719550000504,46.543415299995104,47.05719550000504,44.56389630000922,None,47.07371076000563,None,47.07371076000563,None,47.07371076000563,None,0.009159259992884472,None,47.07371076000563,None,47.07371076000563,None,47.07371076000563,None,47.07371076000563,None,47.07371076000563,None,47.07371076000563,None,47.08569659999921,None,47.08569659999921,None,47.08569659999921,None,0.0011481599940452725,0.5011481599940453,47.08569659999921,None,47.08569659999921,None,47.08569659999921,None,47.08569659999921,None,47.08569659999921,None,47.08569659999921,None,49.07342060000519,49.07342060000519,-0.10000000000000142,1.815,100,-250,0,,,,,,,,,,,,,,,,,,,,,,,,,,,,,,,,,,,,,,,,,,,,,,,,,,,,,,,,,,,,,,,,,,,,,,,,,,,,,,,,,,,f,25,lihan,2022_Apr_01_1644,emotion,2021.1.4,60.667389815100144,
66,-200,0,0,one,-200,0,0,,,,,0,2,2,65,,,,,,,,,,,down,1.9533502999984194,50.95165289999568,None,50.95165289999568,None,52.92282010000781,None,52.92282010000781,None,52.92282010000781,None,54.906067300005816,55.40586210001493,54.906067300005816,55.40586210001493,54.906067300005816,55.40586210001493,52.92282010000781,None,55.422377360015524,None,55.422377360015524,None,55.422377360015524,None,0.008538960013538599,None,55.422377360015524,None,55.422377360015524,None,55.422377360015524,None,55.422377360015524,None,55.422377360015524,None,55.422377360015524,None,55.43350330000976,None,55.43350330000976,None,55.43350330000976,None,0.0007674600055906922,0.5007674600055907,55.43350330000976,None,55.43350330000976,None,55.43350330000976,None,55.43350330000976,None,55.43350330000976,None,55.43350330000976,None,57.42185860002064,57.42185860002064,-10.0,4.86,-100,-250,0,,,,,,,,,,,,,,,,,,,,,,,,,,,,,,,,,,,,,,,,,,,,,,,,,,,,,,,,,,,,,,,,,,,,,,,,,,,,,,,,,,,f,25,lihan,2022_Apr_01_1644,emotion,2021.1.4,60.667389815100144,
73,-200,-50,-50,one,-200,-50,-50,,,,,0,3,3,72,,,,,,,,,,,down,5.510977700003423,62.336217200005194,None,62.336217200005194,None,67.87671010001213,None,67.87671010001213,None,67.87671010001213,None,69.85269610001706,70.35271800000919,69.85269610001706,70.35271800000919,69.85269610001706,70.35271800000919,67.87671010001213,None,70.38578246000398,None,70.38578246000398,None,70.38578246000398,None,0.011639060016022995,None,70.38578246000398,None,70.38578246000398,None,70.38578246000398,None,70.38578246000398,None,70.38578246000398,None,70.38578246000398,None,70.39423570001964,None,70.39423570001964,None,70.39423570001964,None,0.005092459992738441,0.5050924599927384,70.39423570001964,None,70.39423570001964,None,70.39423570001964,None,70.39423570001964,None,70.39423570001964,None,70.39423570001964,None,72.38549099999364,72.38549099999364,-23.8,2.386,-300,-300,-50,,,,,,,,,,,,,,,,,,,,,,,,,,,,,,,,,,,,,,,,,,,,,,,,,,,,,,,,,,,,,,,,,,,,,,,,,,,,,,,,,,,f,25,lihan,2022_Apr_01_1644,emotion,2021.1.4,60.667389815100144,
88,-200,-200,-50,one,-200,-200,-50,,,,,0,4,4,87,,,,,,,,,,,down,4.3526756999781355,74.8288999000215,None,74.8288999000215,None,79.20683740000823,None,79.20683740000823,None,79.20683740000823,None,81.18394730001455,81.6838165000081,81.18394730001455,81.6838165000081,81.18394730001455,81.6838165000081,79.20683740000823,None,81.71705516001967,None,81.71705516001967,None,81.71705516001967,None,0.011003760009771213,None,81.71705516001967,None,81.71705516001967,None,81.71705516001967,None,81.71705516001967,None,81.71705516001967,None,81.71705516001967,None,81.72692980000284,None,81.72692980000284,None,81.72692980000284,None,0.004227060009725392,0.5042270600097254,81.72692980000284,None,81.72692980000284,None,81.72692980000284,None,81.72692980000284,None,81.72692980000284,None,81.72692980000284,None,83.7166639000061,83.7166639000061,-0.6000000000000014,3.756,-500,-500,-100,,,,,,,,,,,,,,,,,,,,,,,,,,,,,,,,,,,,,,,,,,,,,,,,,,,,,,,,,,,,,,,,,,,,,,,,,,,,,,,,,,,f,25,lihan,2022_Apr_01_1644,emotion,2021.1.4,60.667389815100144,
46,200,200,50,two,200,200,50,,,,,0,5,5,45,,,,,,,,,,,right,2.0251122000045143,87.53119330000482,None,87.53119330000482,None,89.59080940001877,None,89.59080940001877,None,89.59080940001877,None,91.56531420000829,92.06521349999821,91.56531420000829,92.06521349999821,91.56531420000829,92.06521349999821,89.59080940001877,None,92.09827906000137,None,92.09827906000137,None,92.09827906000137,None,0.011138659989228472,None,92.09827906000137,None,92.09827906000137,None,92.09827906000137,None,92.09827906000137,None,92.09827906000137,None,92.09827906000137,None,92.10776760001318,None,92.10776760001318,None,92.10776760001318,None,0.00426146000972949,0.5042614600097295,92.10776760001318,None,92.10776760001318,None,92.10776760001318,None,92.10776760001318,None,92.10776760001318,None,92.10776760001318,None,94.09802170001785,94.09802170001785,0.6000000000000014,3.586,-300,-300,-50,,,,,,,,,,,,,,,,,,,,,,,,,,,,,,,,,,,,,,,,,,,,,,,,,,,,,,,,,,,,,,,,,,,,,,,,,,,,,,,,,,,f,25,lihan,2022_Apr_01_1644,emotion,2021.1.4,60.667389815100144,
45,0,200,200,two,0,200,200,,,,,0,6,6,44,,,,,,,,,,,right,1.823526199994376,97.746261399996,None,97.746261399996,None,99.60282010000083,None,99.60282010000083,None,99.60282010000083,None,101.57994369999506,102.07982840001932,101.57994369999506,102.07982840001932,101.57994369999506,102.07982840001932,99.60282010000083,None,102.11283776000201,None,102.11283776000201,None,102.11283776000201,None,0.011267360037891194,None,102.11283776000201,None,102.11283776000201,None,102.11283776000201,None,102.11283776000201,None,102.11283776000201,None,102.11283776000201,None,102.12242729999707,None,102.12242729999707,None,102.12242729999707,None,0.004243759991368279,0.5042437599913683,102.12242729999707,None,102.12242729999707,None,102.12242729999707,None,102.12242729999707,None,102.12242729999707,None,102.12242729999707,None,104.11274219999905,104.11274219999905,0.29999999999999716,3.702,-300,-100,150,,,,,,,,,,,,,,,,,,,,,,,,,,,,,,,,,,,,,,,,,,,,,,,,,,,,,,,,,,,,,,,,,,,,,,,,,,,,,,,,,,,f,25,lihan,2022_Apr_01_1644,emotion,2021.1.4,60.667389815100144,
25,200,50,50,one,200,50,50,,,,,0,7,7,24,,,,,,,,,,,left,3.8290136999858078,107.87312870001188,None,107.87312870001188,None,111.72819029999664,None,111.72819029999664,None,111.72819029999664,None,113.71059679999598,114.21078500000294,113.71059679999598,114.21078500000294,113.71059679999598,114.21078500000294,111.72819029999664,None,114.22730026000355,None,114.22730026000355,None,114.22730026000355,None,0.00945586001034826,None,114.22730026000355,None,114.22730026000355,None,114.22730026000355,None,114.22730026000355,None,114.22730026000355,None,114.22730026000355,None,114.23950990001322,None,114.23950990001322,None,114.23950990001322,None,0.002248660020995885,0.5022486600209959,114.23950990001322,None,114.23950990001322,None,114.23950990001322,None,114.23950990001322,None,114.23950990001322,None,114.23950990001322,None,116.22708519999287,116.22708519999287,21.099999999999994,1.538,-100,-50,200,,,,,,,,,,,,,,,,,,,,,,,,,,,,,,,,,,,,,,,,,,,,,,,,,,,,,,,,,,,,,,,,,,,,,,,,,,,,,,,,,,,f,25,lihan,2022_Apr_01_1644,emotion,2021.1.4,60.667389815100144,
53,-200,-50,0,one,-200,-50,0,,,,,0,8,8,52,,,,,,,,,,,left,1.5209314999810886,117.82528260000981,None,117.82528260000981,None,119.37638390000211,None,119.37638390000211,None,119.37638390000211,None,121.35933209999348,121.85922499999288,121.35933209999348,121.85922499999288,121.35933209999348,121.85922499999288,119.37638390000211,None,121.87574025999348,None,121.87574025999348,None,121.87574025999348,None,0.007952760002808645,None,121.87574025999348,None,121.87574025999348,None,121.87574025999348,None,121.87574025999348,None,121.87574025999348,None,121.87574025999348,None,121.89035729999887,None,121.89035729999887,None,121.89035729999887,None,0.014593119965866208,0.5145931199658662,121.89035729999887,None,121.89035729999887,None,121.89035729999887,None,121.89035729999887,None,121.89035729999887,None,121.89035729999887,None,123.8753316999937,123.8753316999937,-7.899999999999999,2.878,-300,-100,200,,,,,,,,,,,,,,,,,,,,,,,,,,,,,,,,,,,,,,,,,,,,,,,,,,,,,,,,,,,,,,,,,,,,,,,,,,,,,,,,,,,f,25,lihan,2022_Apr_01_1644,emotion,2021.1.4,60.667389815100144,
68,0,-50,0,two,0,-50,0,,,,,0,9,9,67,,,,,,,,,,,left,2.645602099975804,126.80696830002125,None,126.80696830002125,None,129.48065430001589,None,129.48065430001589,None,129.48065430001589,None,131.45736180001404,131.95700890000444,131.45736180001404,131.95700890000444,131.45736180001404,131.95700890000444,129.48065430001589,None,131.99013956000854,None,131.99013956000854,None,131.99013956000854,None,0.011547760019311681,None,131.99013956000854,None,131.99013956000854,None,131.99013956000854,None,131.99013956000854,None,131.99013956000854,None,131.99013956000854,None,131.99956009999732,None,131.99956009999732,None,131.99956009999732,None,0.004530160018475726,0.5045301600184757,131.99956009999732,None,131.99956009999732,None,131.99956009999732,None,131.99956009999732,None,131.99956009999732,None,131.99956009999732,None,133.99021350001567,133.99021350001567,5.399999999999999,1.902,-300,-150,200,,,,,,,,,,,,,,,,,,,,,,,,,,,,,,,,,,,,,,,,,,,,,,,,,,,,,,,,,,,,,,,,,,,,,,,,,,,,,,,,,,,f,25,lihan,2022_Apr_01_1644,emotion,2021.1.4,60.667389815100144,
11,200,50,0,two,200,50,0,,,,,0,10,10,10,,,,,,,,,,,left,1.1476099000137765,135.95535880001262,None,135.95535880001262,None,137.1271764000121,None,137.1271764000121,None,137.1271764000121,None,139.10569700002088,139.60577419999754,139.10569700002088,139.60577419999754,139.10569700002088,139.60577419999754,137.1271764000121,None,139.63892715999683,None,139.63892715999683,None,139.63892715999683,None,0.011458260007202625,None,139.63892715999683,None,139.63892715999683,None,139.63892715999683,None,139.63892715999683,None,139.63892715999683,None,139.63892715999683,None,139.64887150001596,None,139.64887150001596,None,139.64887150001596,None,0.004436660005012527,0.5044366600050125,139.64887150001596,None,139.64887150001596,None,139.64887150001596,None,139.64887150001596,None,139.64887150001596,None,139.64887150001596,None,141.64132170000812,141.64132170000812,24.900000000000006,1.508,-100,-100,200,,,,,,,,,,,,,,,,,,,,,,,,,,,,,,,,,,,,,,,,,,,,,,,,,,,,,,,,,,,,,,,,,,,,,,,,,,,,,,,,,,,f,25,lihan,2022_Apr_01_1644,emotion,2021.1.4,60.667389815100144,
47,200,50,200,two,200,50,200,,,,,0,11,11,46,,,,,,,,,,,left,1.3687868999841157,143.20783480000682,None,143.20783480000682,None,144.61003589999746,None,144.61003589999746,None,144.61003589999746,None,146.58769600000232,147.0876063000178,146.58769600000232,147.0876063000178,146.58769600000232,147.0876063000178,144.61003589999746,None,147.120801160016,None,147.120801160016,None,147.120801160016,None,0.011533660028362647,None,147.120801160016,None,147.120801160016,None,147.120801160016,None,147.120801160016,None,147.120801160016,None,147.120801160016,None,147.13105090000317,None,147.13105090000317,None,147.13105090000317,None,0.003948660014430061,0.5039486600144301,147.13105090000317,None,147.13105090000317,None,147.13105090000317,None,147.13105090000317,None,147.13105090000317,None,147.13105090000317,None,149.12103740000748,149.12103740000748,24.200000000000003,1.955,100,-50,400,,,,,,,,,,,,,,,,,,,,,,,,,,,,,,,,,,,,,,,,,,,,,,,,,,,,,,,,,,,,,,,,,,,,,,,,,,,,,,,,,,,f,25,lihan,2022_Apr_01_1644,emotion,2021.1.4,60.667389815100144,
85,-200,-200,0,one,-200,-200,0,,,,,0,12,12,84,,,,,,,,,,,down,2.361581599980127,151.13086110001314,None,151.13086110001314,None,153.52004190001753,None,153.52004190001753,None,153.52004190001753,None,155.5026323000202,156.00252650000039,155.5026323000202,156.00252650000039,155.5026323000202,156.00252650000039,153.52004190001753,None,156.0357096599968,None,156.0357096599968,None,156.0357096599968,None,0.011204659997019917,None,156.0357096599968,None,156.0357096599968,None,156.0357096599968,None,156.0357096599968,None,156.0357096599968,None,156.0357096599968,None,156.04566600002,None,156.04566600002,None,156.04566600002,None,0.0041954600310418755,0.5041954600310419,156.04566600002,None,156.04566600002,None,156.04566600002,None,156.04566600002,None,156.04566600002,None,156.04566600002,None,158.03545840000152,158.03545840000152,0.0,2.072,-100,-250,400,,,,,,,,,,,,,,,,,,,,,,,,,,,,,,,,,,,,,,,,,,,,,,,,,,,,,,,,,,,,,,,,,,,,,,,,,,,,,,,,,,,f,25,lihan,2022_Apr_01_1644,emotion,2021.1.4,60.667389815100144,
96,-50,-200,-200,two,-50,-200,-200,,,,,0,13,13,95,,,,,,,,,,,left,1.6588814999850001,160.1669028000033,None,160.1669028000033,None,161.85597410000628,None,161.85597410000628,None,161.85597410000628,None,163.83434110000962,164.33403319999343,163.83434110000962,164.33403319999343,163.83434110000962,164.33403319999343,161.85597410000628,None,164.36724226001243,None,164.36724226001243,None,164.36724226001243,None,0.011178060027305037,None,164.36724226001243,None,164.36724226001243,None,164.36724226001243,None,164.36724226001243,None,164.36724226001243,None,164.36724226001243,None,164.37691829999676,None,164.37691829999676,None,164.37691829999676,None,0.004099459998542443,0.5040994599985424,164.37691829999676,None,164.37691829999676,None,164.37691829999676,None,164.37691829999676,None,164.37691829999676,None,164.37691829999676,None,166.36709090002114,166.36709090002114,10.600000000000001,1.292,-150,-450,200,,,,,,,,,,,,,,,,,,,,,,,,,,,,,,,,,,,,,,,,,,,,,,,,,,,,,,,,,,,,,,,,,,,,,,,,,,,,,,,,,,,f,25,lihan,2022_Apr_01_1644,emotion,2021.1.4,60.667389815100144,
15,50,0,0,one,50,0,0,,,,,0,14,14,14,,,,,,,,,,,left,3.7876329999999143,167.71547550000832,None,167.71547550000832,None,171.53925770000205,None,171.53925770000205,None,171.53925770000205,None,173.51576870001736,174.01537150001968,173.51576870001736,174.01537150001968,173.51576870001736,174.01537150001968,171.53925770000205,None,174.0485810600134,None,174.0485810600134,None,174.0485810600134,None,0.01173166002263315,None,174.0485810600134,None,174.0485810600134,None,174.0485810600134,None,174.0485810600134,None,174.0485810600134,None,174.0485810600134,None,174.05793430001359,None,174.05793430001359,None,174.05793430001359,None,0.00458136000088416,0.5045813600008842,174.05793430001359,None,174.05793430001359,None,174.05793430001359,None,174.05793430001359,None,174.05793430001359,None,174.05793430001359,None,176.04892739999923,176.04892739999923,6.700000000000003,4.125,-100,-450,200,,,,,,,,,,,,,,,,,,,,,,,,,,,,,,,,,,,,,,,,,,,,,,,,,,,,,,,,,,,,,,,,,,,,,,,,,,,,,,,,,,,f,25,lihan,2022_Apr_01_1644,emotion,2021.1.4,60.667389815100144,
64,0,0,-200,one,0,0,-200,,,,,0,15,15,63,,,,,,,,,,,left,3.8675672999816015,180.22512869999628,None,180.22512869999628,None,184.1143767000176,None,184.1143767000176,None,184.1143767000176,None,186.09658270000364,186.59662440000102,186.09658270000364,186.59662440000102,186.09658270000364,186.59662440000102,184.1143767000176,None,186.62962405999716,None,186.62962405999716,None,186.62962405999716,None,0.01137165998807177,None,186.62962405999716,None,186.62962405999716,None,186.62962405999716,None,186.62962405999716,None,186.62962405999716,None,186.62962405999716,None,186.63962240002002,None,186.63962240002002,None,186.63962240002002,None,0.004254659987054765,0.5042546599870548,186.63962240002002,None,186.63962240002002,None,186.63962240002002,None,186.63962240002002,None,186.63962240002002,None,186.63962240002002,None,188.62942870002007,188.62942870002007,0.20000000000000284,5.347,-100,-450,0,,,,,,,,,,,,,,,,,,,,,,,,,,,,,,,,,,,,,,,,,,,,,,,,,,,,,,,,,,,,,,,,,,,,,,,,,,,,,,,,,,,f,25,lihan,2022_Apr_01_1644,emotion,2021.1.4,60.667389815100144,
67,0,0,-50,two,0,0,-50,,,,,0,16,16,66,,,,,,,,,,,left,2.2265797999862116,194.04102689999854,None,194.04102689999854,None,196.29439550000825,None,196.29439550000825,None,196.29439550000825,None,198.27753590000793,198.77741790001164,198.27753590000793,198.77741790001164,198.27753590000793,198.77741790001164,196.29439550000825,None,198.79393316001224,None,198.79393316001224,None,198.79393316001224,None,0.00960705999750644,None,198.79393316001224,None,198.79393316001224,None,198.79393316001224,None,198.79393316001224,None,198.79393316001224,None,198.79393316001224,None,198.8039716000203,None,198.8039716000203,None,198.8039716000203,None,0.0031791600049473345,0.5031791600049473,198.8039716000203,None,198.8039716000203,None,198.8039716000203,None,198.8039716000203,None,198.8039716000203,None,198.8039716000203,None,200.79363309999462,200.79363309999462,0.29999999999999716,1.856,-100,-450,-50,,,,,,,,,,,,,,,,,,,,,,,,,,,,,,,,,,,,,,,,,,,,,,,,,,,,,,,,,,,,,,,,,,,,,,,,,,,,,,,,,,,f,25,lihan,2022_Apr_01_1644,emotion,2021.1.4,60.667389815100144,
82,0,-50,-50,two,0,-50,-50,,,,,0,17,17,81,,,,,,,,,,,left,6.857238799973857,202.70857760001672,None,202.70857760001672,None,209.60065959999338,None,209.60065959999338,None,209.60065959999338,None,211.57746870000847,212.09146510000573,211.57746870000847,212.09146510000573,211.57746870000847,212.09146510000573,209.60065959999338,None,212.10798036000634,None,212.10798036000634,None,212.10798036000634,None,0.011550060007721186,None,212.10798036000634,None,212.10798036000634,None,212.10798036000634,None,212.10798036000634,None,212.10798036000634,None,212.10798036000634,None,212.1171081000066,None,212.1171081000066,None,212.1171081000066,None,0.004039260005811229,0.5040392600058112,212.1171081000066,None,212.1171081000066,None,212.1171081000066,None,212.1171081000066,None,212.1171081000066,None,212.1171081000066,None,214.10772930001258,214.10772930001258,4.700000000000003,1.254,-100,-500,-100,,,,,,,,,,,,,,,,,,,,,,,,,,,,,,,,,,,,,,,,,,,,,,,,,,,,,,,,,,,,,,,,,,,,,,,,,,,,,,,,,,,f,25,lihan,2022_Apr_01_1644,emotion,2021.1.4,60.667389815100144,
65,0,-200,0,one,0,-200,0,,,,,0,18,18,64,,,,,,,,,,,left,1.3224617000087164,215.42271490002167,None,215.42271490002167,None,216.77868210000452,None,216.77868210000452,None,216.77868210000452,None,218.756853400002,219.2567457999976,218.756853400002,219.2567457999976,218.756853400002,219.2567457999976,216.77868210000452,None,219.2899320600176,None,219.2899320600176,None,219.2899320600176,None,0.011484760005259886,None,219.2899320600176,None,219.2899320600176,None,219.2899320600176,None,219.2899320600176,None,219.2899320600176,None,219.2899320600176,None,219.2999739999941,None,219.2999739999941,None,219.2999739999941,None,0.004423560050781816,0.5044235600507818,219.2999739999941,None,219.2999739999941,None,219.2999739999941,None,219.2999739999941,None,219.2999739999941,None,219.2999739999941,None,221.29066490000696,221.29066490000696,38.0,2.844,-100,-700,-100,,,,,,,,,,,,,,,,,,,,,,,,,,,,,,,,,,,,,,,,,,,,,,,,,,,,,,,,,,,,,,,,,,,,,,,,,,,,,,,,,,,f,25,lihan,2022_Apr_01_1644,emotion,2021.1.4,60.667389815100144,
20,0,50,0,two,0,50,0,,,,,0,19,19,19,,,,,,,,,,,left,3.6741745000181254,224.19045330001973,None,224.19045330001973,None,227.89491020000423,None,227.89491020000423,None,227.89491020000423,None,229.87135810000473,230.3710476999986,229.87135810000473,230.3710476999986,229.87135810000473,230.3710476999986,227.89491020000423,None,230.40412596001116,None,230.40412596001116,None,230.40412596001116,None,0.011549760005436838,None,230.40412596001116,None,230.40412596001116,None,230.40412596001116,None,230.40412596001116,None,230.40412596001116,None,230.40412596001116,None,230.41455620000488,None,230.41455620000488,None,230.41455620000488,None,0.004334560013376176,0.5043345600133762,230.41455620000488,None,230.41455620000488,None,230.41455620000488,None,230.41455620000488,None,230.41455620000488,None,230.41455620000488,None,232.40631930000382,232.40631930000382,-4.700000000000003,1.777,-100,-650,-100,,,,,,,,,,,,,,,,,,,,,,,,,,,,,,,,,,,,,,,,,,,,,,,,,,,,,,,,,,,,,,,,,,,,,,,,,,,,,,,,,,,f,25,lihan,2022_Apr_01_1644,emotion,2021.1.4,60.667389815100144,
29,50,0,50,one,50,0,50,,,,,0,20,20,28,,,,,,,,,,,right,1.266745400003856,234.23818280000705,None,234.23818280000705,None,235.52392969999346,None,235.52392969999346,None,235.52392969999346,None,237.5028297000099,238.00267770001665,237.5028297000099,238.00267770001665,237.5028297000099,238.00267770001665,235.52392969999346,None,238.03591595999606,None,238.03591595999606,None,238.03591595999606,None,0.011231259995838627,None,238.03591595999606,None,238.03591595999606,None,238.03591595999606,None,238.03591595999606,None,238.03591595999606,None,238.03591595999606,None,238.04633380001178,None,238.04633380001178,None,238.04633380001178,None,0.004077560006408021,0.504077560006408,238.04633380001178,None,238.04633380001178,None,238.04633380001178,None,238.04633380001178,None,238.04633380001178,None,238.04633380001178,None,240.03569370001787,240.03569370001787,-5.200000000000003,1.746,-50,-650,-50,,,,,,,,,,,,,,,,,,,,,,,,,,,,,,,,,,,,,,,,,,,,,,,,,,,,,,,,,,,,,,,,,,,,,,,,,,,,,,,,,,,f,25,lihan,2022_Apr_01_1644,emotion,2021.1.4,60.667389815100144,
1,0,50,200,one,0,50,200,,,,,0,21,21,0,,,,,,,,,,,right,2.434004000009736,241.83840930002043,None,241.83840930002043,None,244.3015693000052,None,244.3015693000052,None,244.3015693000052,None,246.28733510000166,None,246.28733510000166,None,246.28733510000166,None,244.3015693000052,None,246.80116796000803,None,246.80116796000803,None,246.80116796000803,None,0.008878560009179637,None,246.80116796000803,None,246.80116796000803,None,246.80116796000803,None,246.80116796000803,None,246.80116796000803,None,246.80116796000803,None,246.8144477000169,None,246.8144477000169,None,246.8144477000169,None,0.016066119977040216,0.5160661199770402,246.8144477000169,None,246.8144477000169,None,246.8144477000169,None,246.8144477000169,None,246.8144477000169,None,246.8144477000169,None,248.80088090000208,248.80088090000208,2.700000000000003,1.359,-50,-600,150,,,,,,,,,,,,,,,,,,,,,,,,,,,,,,,,,,,,,,,,,,,,,,,,,,,,,,,,,,,,,,,,,,,,,,,,,,,,,,,,,,,f,25,lihan,2022_Apr_01_1644,emotion,2021.1.4,60.667389815100144,
95,-200,-50,-200,two,-200,-50,-200,,,,,0,22,22,94,,,,,,,,,,,right,1.436501500022132,250.2154005000193,None,250.2154005000193,None,251.66691050000372,None,251.66691050000372,None,251.66691050000372,None,253.6498504000192,254.1497306000092,253.6498504000192,254.1497306000092,253.6498504000192,254.1497306000092,251.66691050000372,None,254.1662458600098,None,254.1662458600098,None,254.1662458600098,None,0.009311060013715178,None,254.1662458600098,None,254.1662458600098,None,254.1662458600098,None,254.1662458600098,None,254.1662458600098,None,254.1662458600098,None,254.1774159000197,None,254.1774159000197,None,254.1774159000197,None,0.0014932600024621934,0.5014932600024622,254.1774159000197,None,254.1774159000197,None,254.1774159000197,None,254.1774159000197,None,254.1774159000197,None,254.1774159000197,None,256.16593190000276,256.16593190000276,-4.899999999999999,1.889,-250,-650,-50,,,,,,,,,,,,,,,,,,,,,,,,,,,,,,,,,,,,,,,,,,,,,,,,,,,,,,,,,,,,,,,,,,,,,,,,,,,,,,,,,,,f,25,lihan,2022_Apr_01_1644,emotion,2021.1.4,60.667389815100144,
6,200,0,50,one,200,0,50,,,,,0,23,23,5,,,,,,,,,,,down,4.585314099997049,258.1141218999983,None,258.1141218999983,None,262.719740200002,None,262.719740200002,None,262.719740200002,None,264.69776850001654,265.19767399999546,264.69776850001654,265.19767399999546,264.69776850001654,265.19767399999546,262.719740200002,None,265.2308402600087,None,265.2308402600087,None,265.2308402600087,None,0.011399060022085905,None,265.2308402600087,None,265.2308402600087,None,265.2308402600087,None,265.2308402600087,None,265.2308402600087,None,265.2308402600087,None,265.24059750000015,None,265.24059750000015,None,265.24059750000015,None,0.004391560010844842,0.5043915600108448,265.24059750000015,None,265.24059750000015,None,265.24059750000015,None,265.24059750000015,None,265.24059750000015,None,265.24059750000015,None,267.2314706000034,267.2314706000034,49.5,1.728,-50,-650,0,,,,,,,,,,,,,,,,,,,,,,,,,,,,,,,,,,,,,,,,,,,,,,,,,,,,,,,,,,,,,,,,,,,,,,,,,,,,,,,,,,,f,25,lihan,2022_Apr_01_1644,emotion,2021.1.4,60.667389815100144,
51,-50,0,-200,one,-50,0,-200,,,,,0,24,24,50,,,,,,,,,,,right,1.8264198999968357,269.01369170000544,None,269.01369170000544,None,270.8671546000114,None,270.8671546000114,None,270.8671546000114,None,272.8461623000039,273.3460347999935,272.8461623000039,273.3460347999935,272.8461623000039,273.3460347999935,270.8671546000114,None,273.37933216001545,None,273.37933216001545,None,273.37933216001545,None,0.009758160013007,None,273.37933216001545,None,273.37933216001545,None,273.37933216001545,None,273.37933216001545,None,273.37933216001545,None,273.37933216001545,None,273.4055209000071,None,273.4055209000071,None,273.4055209000071,None,0.010878219996811822,0.5108782199968118,273.4055209000071,None,273.4055209000071,None,273.4055209000071,None,273.4055209000071,None,273.4055209000071,None,273.4055209000071,None,275.37999200000195,275.37999200000195,-6.399999999999999,1.578,-100,-650,-200,,,,,,,,,,,,,,,,,,,,,,,,,,,,,,,,,,,,,,,,,,,,,,,,,,,,,,,,,,,,,,,,,,,,,,,,,,,,,,,,,,,f,25,lihan,2022_Apr_01_1644,emotion,2021.1.4,60.667389815100144,
4,50,200,0,one,50,200,0,,,,,0,25,25,3,,,,,,,,,,,down,2.2174419999937527,277.0283657000109,None,277.0283657000109,None,279.2673655000108,None,279.2673655000108,None,279.2673655000108,None,281.2444627000077,281.74442610002006,281.2444627000077,281.74442610002006,281.2444627000077,281.74442610002006,279.2673655000108,None,281.777589960015,None,281.777589960015,None,281.777589960015,None,0.01143826002953574,None,281.777589960015,None,281.777589960015,None,281.777589960015,None,281.777589960015,None,281.777589960015,None,281.777589960015,None,281.78788910000003,None,281.78788910000003,None,281.78788910000003,None,0.004155860049650073,0.5041558600496501,281.78788910000003,None,281.78788910000003,None,281.78788910000003,None,281.78788910000003,None,281.78788910000003,None,281.78788910000003,None,283.7783316000132,283.7783316000132,-3.5,1.511,-50,-450,-200,,,,,,,,,,,,,,,,,,,,,,,,,,,,,,,,,,,,,,,,,,,,,,,,,,,,,,,,,,,,,,,,,,,,,,,,,,,,,,,,,,,f,25,lihan,2022_Apr_01_1644,emotion,2021.1.4,60.667389815100144,
63,-50,0,0,one,-50,0,0,,,,,0,26,26,62,,,,,,,,,,,right,2.0755389999831095,285.3441618999932,None,285.3441618999932,None,287.4499761000043,None,287.4499761000043,None,287.4499761000043,None,289.4289980000176,289.94275620000553,289.4289980000176,289.94275620000553,289.4289980000176,289.94275620000553,287.4499761000043,None,289.9592714600061,None,289.9592714600061,None,289.9592714600061,None,0.011311559996102005,None,289.9592714600061,None,289.9592714600061,None,289.9592714600061,None,289.9592714600061,None,289.9592714600061,None,289.9592714600061,None,289.96949320001295,None,289.96949320001295,None,289.96949320001295,None,0.004386560001876205,0.5043865600018762,289.96949320001295,None,289.96949320001295,None,289.96949320001295,None,289.96949320001295,None,289.96949320001295,None,289.96949320001295,None,291.9599281999981,291.9599281999981,-2.3999999999999986,1.533,-100,-450,-200,,,,,,,,,,,,,,,,,,,,,,,,,,,,,,,,,,,,,,,,,,,,,,,,,,,,,,,,,,,,,,,,,,,,,,,,,,,,,,,,,,,f,25,lihan,2022_Apr_01_1644,emotion,2021.1.4,60.667389815100144,
18,200,0,0,one,200,0,0,,,,,0,27,27,17,,,,,,,,,,,left,0.8778929999971297,293.557630299998,None,293.557630299998,None,294.4650851000042,None,294.4650851000042,None,294.4650851000042,None,296.4415238999936,296.94139710001764,296.4415238999936,296.94139710001764,296.4415238999936,296.94139710001764,294.4650851000042,None,296.97465966000743,None,296.97465966000743,None,296.97465966000743,None,0.011703360010869801,None,296.97465966000743,None,296.97465966000743,None,296.97465966000743,None,296.97465966000743,None,296.97465966000743,None,296.97465966000743,None,296.9845215000096,None,296.9845215000096,None,296.9845215000096,None,0.004732160014100373,0.5047321600141004,296.9845215000096,None,296.9845215000096,None,296.9845215000096,None,296.9845215000096,None,296.9845215000096,None,296.9845215000096,None,298.97436500000185,298.97436500000185,29.299999999999997,1.439,100,-450,-200,,,,,,,,,,,,,,,,,,,,,,,,,,,,,,,,,,,,,,,,,,,,,,,,,,,,,,,,,,,,,,,,,,,,,,,,,,,,,,,,,,,f,25,lihan,2022_Apr_01_1644,emotion,2021.1.4,60.667389815100144,
76,0,-50,-50,one,0,-50,-50,,,,,0,28,28,75,,,,,,,,,,,left,1.917365899978904,300.46649330001674,None,300.46649330001674,None,302.4106962000078,None,302.4106962000078,None,302.4106962000078,None,304.38992630000575,304.88986090000253,304.38992630000575,304.88986090000253,304.38992630000575,304.88986090000253,302.4106962000078,None,304.92303676000154,None,304.92303676000154,None,304.92303676000154,None,0.011164760042447597,None,304.92303676000154,None,304.92303676000154,None,304.92303676000154,None,304.92303676000154,None,304.92303676000154,None,304.92303676000154,None,304.9322998000134,None,304.9322998000134,None,304.9322998000134,None,0.004222560033667833,0.5042225600336678,304.9322998000134,None,304.9322998000134,None,304.9322998000134,None,304.9322998000134,None,304.9322998000134,None,304.9322998000134,None,306.92287249999936,306.92287249999936,6.399999999999999,1.034,100,-500,-250,,,,,,,,,,,,,,,,,,,,,,,,,,,,,,,,,,,,,,,,,,,,,,,,,,,,,,,,,,,,,,,,,,,,,,,,,,,,,,,,,,,f,25,lihan,2022_Apr_01_1644,emotion,2021.1.4,60.667389815100144,
62,0,-50,0,one,0,-50,0,,,,,0,29,29,61,,,,,,,,,,,left,1.6775190999906044,308.01114760001656,None,308.01114760001656,None,309.7059591000143,None,309.7059591000143,None,309.7059591000143,None,311.68833760000416,312.18818680002005,311.68833760000416,312.18818680002005,311.68833760000416,312.18818680002005,309.7059591000143,None,312.22122346000685,None,312.22122346000685,None,312.22122346000685,None,0.011074359994381666,None,312.22122346000685,None,312.22122346000685,None,312.22122346000685,None,312.22122346000685,None,312.22122346000685,None,312.22122346000685,None,312.2307058000006,None,312.2307058000006,None,312.2307058000006,None,0.00330425999709405,0.503304259997094,312.2307058000006,None,312.2307058000006,None,312.2307058000006,None,312.2307058000006,None,312.2307058000006,None,312.2307058000006,None,314.22107610001694,314.22107610001694,7.5,1.078,100,-550,-250,,,,,,,,,,,,,,,,,,,,,,,,,,,,,,,,,,,,,,,,,,,,,,,,,,,,,,,,,,,,,,,,,,,,,,,,,,,,,,,,,,,f,25,lihan,2022_Apr_01_1644,emotion,2021.1.4,60.667389815100144,
35,50,0,50,two,50,0,50,,,,,0,30,30,34,,,,,,,,,,,left,1.1755564000050072,315.3530028999958,None,315.3530028999958,None,316.5542134999996,None,316.5542134999996,None,316.5542134999996,None,318.53686140000354,319.0367541000014,318.53686140000354,319.0367541000014,318.53686140000354,319.0367541000014,316.5542134999996,None,319.053269360002,None,319.053269360002,None,319.053269360002,None,0.009259960002964363,None,319.053269360002,None,319.053269360002,None,319.053269360002,None,319.053269360002,None,319.053269360002,None,319.053269360002,None,319.0658164000197,None,319.0658164000197,None,319.0658164000197,None,0.0007461599889211357,0.5007461599889211,319.0658164000197,None,319.0658164000197,None,319.0658164000197,None,319.0658164000197,None,319.0658164000197,None,319.0658164000197,None,321.0529824999976,321.0529824999976,4.899999999999999,2.106,150,-550,-200,,,,,,,,,,,,,,,,,,,,,,,,,,,,,,,,,,,,,,,,,,,,,,,,,,,,,,,,,,,,,,,,,,,,,,,,,,,,,,,,,,,f,25,lihan,2022_Apr_01_1644,emotion,2021.1.4,60.667389815100144,
31,200,50,50,two,200,50,50,,,,,0,31,31,30,,,,,,,,,,,left,1.5570553000143263,323.2181252000155,None,323.2181252000155,None,324.8092118000204,None,324.8092118000204,None,324.8092118000204,None,326.78529400000116,327.2860387999972,326.78529400000116,327.2860387999972,326.78529400000116,327.2860387999972,324.8092118000204,None,327.3186089600116,None,327.3186089600116,None,327.3186089600116,None,0.011409060010919347,None,327.3186089600116,None,327.3186089600116,None,327.3186089600116,None,327.3186089600116,None,327.3186089600116,None,327.3186089600116,None,327.32831630000146,None,327.32831630000146,None,327.32831630000146,None,0.00421546000870876,0.5042154600087088,327.32831630000146,None,327.32831630000146,None,327.32831630000146,None,327.32831630000146,None,327.32831630000146,None,327.32831630000146,None,329.31817549999687,329.31817549999687,12.700000000000003,1.132,350,-500,-150,,,,,,,,,,,,,,,,,,,,,,,,,,,,,,,,,,,,,,,,,,,,,,,,,,,,,,,,,,,,,,,,,,,,,,,,,,,,,,,,,,,f,25,lihan,2022_Apr_01_1644,emotion,2021.1.4,60.667389815100144,
9,50,0,200,two,50,0,200,,,,,0,32,32,8,,,,,,,,,,,left,0.6176657000032719,330.5505383000127,None,330.5505383000127,None,331.18459750001784,None,331.18459750001784,None,331.18459750001784,None,333.1673745000153,333.66742919999524,333.1673745000153,333.66742919999524,333.1673745000153,333.66742919999524,331.18459750001784,None,333.6839444599958,None,333.6839444599958,None,333.6839444599958,None,0.009615360002499074,None,333.6839444599958,None,333.6839444599958,None,333.6839444599958,None,333.6839444599958,None,333.6839444599958,None,333.6839444599958,None,333.6940186000138,None,333.6940186000138,None,333.6940186000138,None,0.00298125998233445,0.5029812599823344,333.6940186000138,None,333.6940186000138,None,333.6940186000138,None,333.6940186000138,None,333.6940186000138,None,333.6940186000138,None,335.68381529999897,335.68381529999897,6.200000000000003,1.36,400,-500,50,,,,,,,,,,,,,,,,,,,,,,,,,,,,,,,,,,,,,,,,,,,,,,,,,,,,,,,,,,,,,,,,,,,,,,,,,,,,,,,,,,,f,25,lihan,2022_Apr_01_1644,emotion,2021.1.4,60.667389815100144,
3,50,0,200,one,50,0,200,,,,,0,33,33,2,,,,,,,,,,,down,0.42224840002018027,337.09827680001035,None,337.09827680001035,None,337.55625809999765,None,337.55625809999765,None,337.55625809999765,None,339.5328989000118,340.0328870000085,339.5328989000118,340.0328870000085,339.5328989000118,340.0328870000085,337.55625809999765,None,340.06611905999887,None,340.06611905999887,None,340.06611905999887,None,0.011434159998316318,None,340.06611905999887,None,340.06611905999887,None,340.06611905999887,None,340.06611905999887,None,340.06611905999887,None,340.06611905999887,None,340.07552519999444,None,340.07552519999444,None,340.07552519999444,None,0.004276960011338815,0.5042769600113388,340.07552519999444,None,340.07552519999444,None,340.07552519999444,None,340.07552519999444,None,340.07552519999444,None,340.07552519999444,None,342.06584359999397,342.06584359999397,10.600000000000001,1.344,450,-500,250,,,,,,,,,,,,,,,,,,,,,,,,,,,,,,,,,,,,,,,,,,,,,,,,,,,,,,,,,,,,,,,,,,,,,,,,,,,,,,,,,,,f,25,lihan,2022_Apr_01_1644,emotion,2021.1.4,60.667389815100144,
2,0,200,50,one,0,200,50,,,,,0,34,34,1,,,,,,,,,,,down,0.7945034000149462,343.4644111999951,None,343.4644111999951,None,344.29045610001776,None,344.29045610001776,None,344.29045610001776,None,346.2650132999988,346.7649360000214,346.2650132999988,346.7649360000214,346.2650132999988,346.7649360000214,344.29045610001776,None,346.79811306000045,None,346.79811306000045,None,346.79811306000045,None,0.011577160010347143,None,346.79811306000045,None,346.79811306000045,None,346.79811306000045,None,346.79811306000045,None,346.79811306000045,None,346.79811306000045,None,346.8066712,None,346.8066712,None,346.8066712,None,0.00512365999747999,0.50512365999748,346.8066712,None,346.8066712,None,346.8066712,None,346.8066712,None,346.8066712,None,346.8066712,None,348.7978631000151,348.7978631000151,-12.799999999999997,1.338,450,-300,300,,,,,,,,,,,,,,,,,,,,,,,,,,,,,,,,,,,,,,,,,,,,,,,,,,,,,,,,,,,,,,,,,,,,,,,,,,,,,,,,,,,f,25,lihan,2022_Apr_01_1644,emotion,2021.1.4,60.667389815100144,
87,0,-200,-200,one,0,-200,-200,,,,,0,35,35,86,,,,,,,,,,,right,3.176921400008723,350.1907793999999,None,350.1907793999999,None,353.40118580000126,None,353.40118580000126,None,353.40118580000126,None,355.37988150000456,355.87945900001796,355.37988150000456,355.87945900001796,355.37988150000456,355.87945900001796,353.40118580000126,None,355.9127662599989,None,355.9127662599989,None,355.9127662599989,None,0.011535260011442006,None,355.9127662599989,None,355.9127662599989,None,355.9127662599989,None,355.9127662599989,None,355.9127662599989,None,355.9127662599989,None,355.92288729999564,None,355.92288729999564,None,355.92288729999564,None,0.0035688600037246943,0.5035688600037247,355.92288729999564,None,355.92288729999564,None,355.92288729999564,None,355.92288729999564,None,355.92288729999564,None,355.92288729999564,None,357.91254750001826,357.91254750001826,24.099999999999994,1.151,450,-500,100,,,,,,,,,,,,,,,,,,,,,,,,,,,,,,,,,,,,,,,,,,,,,,,,,,,,,,,,,,,,,,,,,,,,,,,,,,,,,,,,,,,f,25,lihan,2022_Apr_01_1644,emotion,2021.1.4,60.667389815100144,
16,0,0,200,one,0,0,200,,,,,0,36,36,15,,,,,,,,,,,right,1.759031599998707,359.131506500009,None,359.131506500009,None,360.91397160000633,None,360.91397160000633,None,360.91397160000633,None,362.8959603999974,363.39496649999637,362.8959603999974,363.39496649999637,362.8959603999974,363.39496649999637,360.91397160000633,None,363.4281676600134,None,363.4281676600134,None,363.4281676600134,None,0.01183836004929617,None,363.4281676600134,None,363.4281676600134,None,363.4281676600134,None,363.4281676600134,None,363.4281676600134,None,363.4281676600134,None,363.4373988000152,None,363.4373988000152,None,363.4373988000152,None,0.004540460009593517,0.5045404600095935,363.4373988000152,None,363.4373988000152,None,363.4373988000152,None,363.4373988000152,None,363.4373988000152,None,363.4373988000152,None,365.4288753000146,365.4288753000146,0.29999999999999716,1.342,450,-500,300,,,,,,,,,,,,,,,,,,,,,,,,,,,,,,,,,,,,,,,,,,,,,,,,,,,,,,,,,,,,,,,,,,,,,,,,,,,,,,,,,,,f,25,lihan,2022_Apr_01_1644,emotion,2021.1.4,60.667389815100144,
37,200,200,0,one,200,200,0,,,,,0,37,37,36,,,,,,,,,,,right,0.9375105999934021,366.8406571999949,None,366.8406571999949,None,367.7994441000046,None,367.7994441000046,None,367.7994441000046,None,369.77705380000407,370.276992900006,369.77705380000407,370.276992900006,369.77705380000407,370.276992900006,367.7994441000046,None,370.31012076001787,None,370.31012076001787,None,370.31012076001787,None,0.011291860020719469,None,370.31012076001787,None,370.31012076001787,None,370.31012076001787,None,370.31012076001787,None,370.31012076001787,None,370.31012076001787,None,370.3191311999981,None,370.3191311999981,None,370.3191311999981,None,0.004614460020093247,0.5046144600200932,370.3191311999981,None,370.3191311999981,None,370.3191311999981,None,370.3191311999981,None,370.3191311999981,None,370.3191311999981,None,372.3098941000062,372.3098941000062,0.5,1.641,650,-300,300,,,,,,,,,,,,,,,,,,,,,,,,,,,,,,,,,,,,,,,,,,,,,,,,,,,,,,,,,,,,,,,,,,,,,,,,,,,,,,,,,,,f,25,lihan,2022_Apr_01_1644,emotion,2021.1.4,60.667389815100144,
23,0,200,0,two,0,200,0,,,,,0,38,38,22,,,,,,,,,,,right,1.4401447999989614,374.0079326000123,None,374.0079326000123,None,375.48160190001363,None,375.48160190001363,None,375.48160190001363,None,377.45885950000957,377.9586312000174,377.45885950000957,377.9586312000174,377.45885950000957,377.9586312000174,375.48160190001363,None,377.9916989600082,None,377.9916989600082,None,377.9916989600082,None,0.01148725999519229,None,377.9916989600082,None,377.9916989600082,None,377.9916989600082,None,377.9916989600082,None,377.9916989600082,None,377.9916989600082,None,378.00203470001,None,378.00203470001,None,378.00203470001,None,0.004284660011762753,0.5042846600117628,378.00203470001,None,378.00203470001,None,378.00203470001,None,378.00203470001,None,378.00203470001,None,378.00203470001,None,379.99199690000387,379.99199690000387,-9.0,0.85,650,-100,300,,,,,,,,,,,,,,,,,,,,,,,,,,,,,,,,,,,,,,,,,,,,,,,,,,,,,,,,,,,,,,,,,,,,,,,,,,,,,,,,,,,f,25,lihan,2022_Apr_01_1644,emotion,2021.1.4,60.667389815100144,
36,50,50,0,two,50,50,0,,,,,0,39,39,35,,,,,,,,,,,left,1.1963103000016417,380.89497870000196,None,380.89497870000196,None,382.1115695000044,None,382.1115695000044,None,382.1115695000044,None,384.0908745000197,384.5908030999999,384.0908745000197,384.5908030999999,384.0908745000197,384.5908030999999,382.1115695000044,None,384.6240816599951,None,384.6240816599951,None,384.6240816599951,None,0.011467259988421574,None,384.6240816599951,None,384.6240816599951,None,384.6240816599951,None,384.6240816599951,None,384.6240816599951,None,384.6240816599951,None,384.63376190001145,None,384.63376190001145,None,384.63376190001145,None,0.004375160002382472,0.5043751600023825,384.63376190001145,None,384.63376190001145,None,384.63376190001145,None,384.63376190001145,None,384.63376190001145,None,384.63376190001145,None,386.62370080000255,386.62370080000255,0.10000000000000142,1.081,700,-50,300,,,,,,,,,,,,,,,,,,,,,,,,,,,,,,,,,,,,,,,,,,,,,,,,,,,,,,,,,,,,,,,,,,,,,,,,,,,,,,,,,,,f,25,lihan,2022_Apr_01_1644,emotion,2021.1.4,60.667389815100144,
17,0,200,0,one,0,200,0,,,,,0,40,40,16,,,,,,,,,,,left,5.05323029999272,387.7597367000126,None,387.7597367000126,None,392.83947930001887,None,392.83947930001887,None,392.83947930001887,None,394.8221549000009,395.32187770001474,394.8221549000009,395.32187770001474,394.8221549000009,395.32187770001474,392.83947930001887,None,395.3551028600108,None,395.3551028600108,None,395.3551028600108,None,0.011325960047543049,None,395.3551028600108,None,395.3551028600108,None,395.3551028600108,None,395.3551028600108,None,395.3551028600108,None,395.3551028600108,None,395.36495820002165,None,395.36495820002165,None,395.36495820002165,None,0.0042334600002504885,0.5042334600002505,395.36495820002165,None,395.36495820002165,None,395.36495820002165,None,395.36495820002165,None,395.36495820002165,None,395.36495820002165,None,397.35502590000397,397.35502590000397,-25.1,1.222,700,150,300,,,,,,,,,,,,,,,,,,,,,,,,,,,,,,,,,,,,,,,,,,,,,,,,,,,,,,,,,,,,,,,,,,,,,,,,,,,,,,,,,,,f,25,lihan,2022_Apr_01_1644,emotion,2021.1.4,60.667389815100144,
42,50,200,200,one,50,200,200,,,,,0,41,41,41,,,,,,,,,,,left,6.466566599992802,398.63644329999806,None,398.63644329999806,None,405.1227771000122,None,405.1227771000122,None,405.1227771000122,None,407.10271209999337,407.6029089000076,407.10271209999337,407.6029089000076,407.10271209999337,407.6029089000076,405.1227771000122,None,407.636028660016,None,407.636028660016,None,407.636028660016,None,0.010602460009977221,None,407.636028660016,None,407.636028660016,None,407.636028660016,None,407.636028660016,None,407.636028660016,None,407.636028660016,None,407.64562090000254,None,407.64562090000254,None,407.64562090000254,None,0.004231760045513511,0.5042317600455135,407.64562090000254,None,407.64562090000254,None,407.64562090000254,None,407.64562090000254,None,407.64562090000254,None,407.64562090000254,None,409.6356010000163,409.6356010000163,-6.600000000000001,1.067,750,350,500,,,,,,,,,,,,,,,,,,,,,,,,,,,,,,,,,,,,,,,,,,,,,,,,,,,,,,,,,,,,,,,,,,,,,,,,,,,,,,,,,,,f,25,lihan,2022_Apr_01_1644,emotion,2021.1.4,60.667389815100144,
57,-50,0,-200,two,-50,0,-200,,,,,0,42,42,56,,,,,,,,,,,left,1.7792541999951936,410.76758630000404,None,410.76758630000404,None,412.57220520000556,None,412.57220520000556,None,412.57220520000556,None,414.551595500001,415.05145460000494,414.551595500001,415.05145460000494,414.551595500001,415.05145460000494,412.57220520000556,None,415.0845679599937,None,415.0845679599937,None,415.0845679599937,None,0.011211159988306463,None,415.0845679599937,None,415.0845679599937,None,415.0845679599937,None,415.0845679599937,None,415.0845679599937,None,415.0845679599937,None,415.09437209999305,None,415.09437209999305,None,415.09437209999305,None,0.004344259999925271,0.5043442599999253,415.09437209999305,None,415.09437209999305,None,415.09437209999305,None,415.09437209999305,None,415.09437209999305,None,415.09437209999305,None,417.0843823000032,417.0843823000032,-6.399999999999999,1.936,700,350,300,,,,,,,,,,,,,,,,,,,,,,,,,,,,,,,,,,,,,,,,,,,,,,,,,,,,,,,,,,,,,,,,,,,,,,,,,,,,,,,,,,,f,25,lihan,2022_Apr_01_1644,emotion,2021.1.4,60.667389815100144,
5,200,50,0,one,200,50,0,,,,,0,43,43,4,,,,,,,,,,,down,1.4201578999927733,419.08300000001327,None,419.08300000001327,None,420.5339309000119,None,420.5339309000119,None,420.5339309000119,None,422.51623050001217,423.01653459999943,422.51623050001217,423.01653459999943,422.51623050001217,423.01653459999943,420.5339309000119,None,423.03304986,None,423.03304986,None,423.03304986,None,0.009294560004491359,None,423.03304986,None,423.03304986,None,423.03304986,None,423.03304986,None,423.03304986,None,423.03304986,None,423.04533880000236,None,423.04533880000236,None,423.04533880000236,None,0.0010850599792320281,0.501085059979232,423.04533880000236,None,423.04533880000236,None,423.04533880000236,None,423.04533880000236,None,423.04533880000236,None,423.04533880000236,None,425.03375299999607,425.03375299999607,15.700000000000003,0.813,900,400,300,,,,,,,,,,,,,,,,,,,,,,,,,,,,,,,,,,,,,,,,,,,,,,,,,,,,,,,,,,,,,,,,,,,,,,,,,,,,,,,,,,,f,25,lihan,2022_Apr_01_1644,emotion,2021.1.4,60.667389815100144,
55,0,-50,-200,two,0,-50,-200,,,,,0,44,44,54,,,,,,,,,,,down,0.9154816000082064,425.8992823000008,None,425.8992823000008,None,426.84843179999734,None,426.84843179999734,None,426.84843179999734,None,428.8154387999966,429.31530760001624,428.8154387999966,429.31530760001624,428.8154387999966,429.31530760001624,426.84843179999734,None,429.34829566001133,None,429.34829566001133,None,429.34829566001133,None,0.011347360006766394,None,429.34829566001133,None,429.34829566001133,None,429.34829566001133,None,429.34829566001133,None,429.34829566001133,None,429.34829566001133,None,429.35879640001804,None,429.35879640001804,None,429.35879640001804,None,0.004331460018875077,0.5043314600188751,429.35879640001804,None,429.35879640001804,None,429.35879640001804,None,429.35879640001804,None,429.35879640001804,None,429.35879640001804,None,431.3479442000098,431.3479442000098,5.299999999999997,1.494,900,350,100,,,,,,,,,,,,,,,,,,,,,,,,,,,,,,,,,,,,,,,,,,,,,,,,,,,,,,,,,,,,,,,,,,,,,,,,,,,,,,,,,,,f,25,lihan,2022_Apr_01_1644,emotion,2021.1.4,60.667389815100144,
38,200,0,200,one,200,0,200,,,,,0,45,45,37,,,,,,,,,,,down,2.2772625999932643,432.89658440000494,None,432.89658440000494,None,435.20746780000627,None,435.20746780000627,None,435.20746780000627,None,437.1804378000088,437.6803164000157,437.1804378000088,437.6803164000157,437.1804378000088,437.6803164000157,435.20746780000627,None,437.71343066001134,None,437.71343066001134,None,437.71343066001134,None,0.011576260003494099,None,437.71343066001134,None,437.71343066001134,None,437.71343066001134,None,437.71343066001134,None,437.71343066001134,None,437.71343066001134,None,437.72272469999734,None,437.72272469999734,None,437.72272469999734,None,0.004317259998060763,0.5043172599980608,437.72272469999734,None,437.72272469999734,None,437.72272469999734,None,437.72272469999734,None,437.72272469999734,None,437.72272469999734,None,439.71310500000254,439.71310500000254,21.200000000000003,1.747,1100,350,300,,,,,,,,,,,,,,,,,,,,,,,,,,,,,,,,,,,,,,,,,,,,,,,,,,,,,,,,,,,,,,,,,,,,,,,,,,,,,,,,,,,f,25,lihan,2022_Apr_01_1644,emotion,2021.1.4,60.667389815100144,
26,50,200,50,one,50,200,50,,,,,0,46,46,25,,,,,,,,,,,down,0.8995728000008967,441.5128237000026,None,441.5128237000026,None,442.4297397000191,None,442.4297397000191,None,442.4297397000191,None,444.4138266000082,444.92893399999593,444.4138266000082,444.92893399999593,444.4138266000082,444.92893399999593,442.4297397000191,None,444.9454492599965,None,444.9454492599965,None,444.9454492599965,None,0.011571759998332709,None,444.9454492599965,None,444.9454492599965,None,444.9454492599965,None,444.9454492599965,None,444.9454492599965,None,444.9454492599965,None,444.95511420001276,None,444.95511420001276,None,444.95511420001276,None,0.004863759997533634,0.5048637599975336,444.95511420001276,None,444.95511420001276,None,444.95511420001276,None,444.95511420001276,None,444.95511420001276,None,444.95511420001276,None,446.94613880000543,446.94613880000543,-9.5,0.93,1150,550,350,,,,,,,,,,,,,,,,,,,,,,,,,,,,,,,,,,,,,,,,,,,,,,,,,,,,,,,,,,,,,,,,,,,,,,,,,,,,,,,,,,,f,25,lihan,2022_Apr_01_1644,emotion,2021.1.4,60.667389815100144,
81,-50,-50,-200,two,-50,-50,-200,,,,,0,47,47,80,,,,,,,,,,,down,0.9990832000039518,447.9343153999944,None,447.9343153999944,None,448.9673857000016,None,448.9673857000016,None,448.9673857000016,None,450.94520660000853,451.4453966000001,450.94520660000853,451.4453966000001,450.94520660000853,451.4453966000001,448.9673857000016,None,451.47831126001836,None,451.47831126001836,None,451.47831126001836,None,0.008667060028528795,None,451.47831126001836,None,451.47831126001836,None,451.47831126001836,None,451.47831126001836,None,451.47831126001836,None,451.47831126001836,None,451.49158689999604,None,451.49158689999604,None,451.49158689999604,None,0.016267519997199997,0.5162675199972,451.49158689999604,None,451.49158689999604,None,451.49158689999604,None,451.49158689999604,None,451.49158689999604,None,451.49158689999604,None,453.4771845000214,453.4771845000214,-0.10000000000000142,1.499,1100,500,150,,,,,,,,,,,,,,,,,,,,,,,,,,,,,,,,,,,,,,,,,,,,,,,,,,,,,,,,,,,,,,,,,,,,,,,,,,,,,,,,,,,f,25,lihan,2022_Apr_01_1644,emotion,2021.1.4,60.667389815100144,
44,200,0,200,two,200,0,200,,,,,0,48,48,43,,,,,,,,,,,down,0.7873012000054587,455.04416520000086,None,455.04416520000086,None,455.8652968000097,None,455.8652968000097,None,455.8652968000097,None,457.843020100001,458.3429126999981,457.843020100001,458.3429126999981,457.843020100001,458.3429126999981,455.8652968000097,None,458.376147060006,None,458.376147060006,None,458.376147060006,None,0.01164716001949273,None,458.376147060006,None,458.376147060006,None,458.376147060006,None,458.376147060006,None,458.376147060006,None,458.376147060006,None,458.38628470001277,None,458.38628470001277,None,458.38628470001277,None,0.004546860000118613,0.5045468600001186,458.38628470001277,None,458.38628470001277,None,458.38628470001277,None,458.38628470001277,None,458.38628470001277,None,458.38628470001277,None,460.37695510001504,460.37695510001504,24.400000000000006,1.202,1300,500,350,,,,,,,,,,,,,,,,,,,,,,,,,,,,,,,,,,,,,,,,,,,,,,,,,,,,,,,,,,,,,,,,,,,,,,,,,,,,,,,,,,,f,25,lihan,2022_Apr_01_1644,emotion,2021.1.4,60.667389815100144,
83,-50,0,-50,two,-50,0,-50,,,,,0,49,49,82,,,,,,,,,,,down,2.0272869000036735,461.63414589999593,None,461.63414589999593,None,463.6802433000121,None,463.6802433000121,None,463.6802433000121,None,465.6580714000156,466.15805140000884,465.6580714000156,466.15805140000884,465.6580714000156,466.15805140000884,463.6802433000121,None,466.1912195600074,None,466.1912195600074,None,466.1912195600074,None,0.011196559993550181,None,466.1912195600074,None,466.1912195600074,None,466.1912195600074,None,466.1912195600074,None,466.1912195600074,None,466.1912195600074,None,466.20096550000017,None,466.20096550000017,None,466.20096550000017,None,0.00434876000508666,0.5043487600050867,466.20096550000017,None,466.20096550000017,None,466.20096550000017,None,466.20096550000017,None,466.20096550000017,None,466.20096550000017,None,468.19099040000583,468.19099040000583,-3.799999999999997,1.897,1250,500,300,,,,,,,,,,,,,,,,,,,,,,,,,,,,,,,,,,,,,,,,,,,,,,,,,,,,,,,,,,,,,,,,,,,,,,,,,,,,,,,,,,,f,25,lihan,2022_Apr_01_1644,emotion,2021.1.4,60.667389815100144,
8,0,200,50,two,0,200,50,,,,,0,50,50,7,,,,,,,,,,,down,3.4078662000247277,470.1768369000056,None,470.1768369000056,None,473.6072050000075,None,473.6072050000075,None,473.6072050000075,None,475.59067000000505,476.10584610002115,475.59067000000505,476.10584610002115,475.59067000000505,476.10584610002115,473.6072050000075,None,476.1223613600217,None,476.1223613600217,None,476.1223613600217,None,0.01157176002743654,None,476.1223613600217,None,476.1223613600217,None,476.1223613600217,None,476.1223613600217,None,476.1223613600217,None,476.1223613600217,None,476.13113009999506,None,476.13113009999506,None,476.13113009999506,None,0.005095360014820471,0.5050953600148205,476.13113009999506,None,476.13113009999506,None,476.13113009999506,None,476.13113009999506,None,476.13113009999506,None,476.13113009999506,None,478.12242060000426,478.12242060000426,-7.600000000000001,1.883,1250,700,350,,,,,,,,,,,,,,,,,,,,,,,,,,,,,,,,,,,,,,,,,,,,,,,,,,,,,,,,,,,,,,,,,,,,,,,,,,,,,,,,,,,f,25,lihan,2022_Apr_01_1644,emotion,2021.1.4,60.667389815100144,
61,0,0,-50,one,0,0,-50,,,,,0,51,51,60,,,,,,,,,,,down,0.8466784999764059,480.0593257000146,None,480.0593257000146,None,480.9225146000099,None,480.9225146000099,None,480.9225146000099,None,482.90479610001785,483.4046399999934,482.90479610001785,483.4046399999934,482.90479610001785,483.4046399999934,480.9225146000099,None,483.4377461600146,None,483.4377461600146,None,483.4377461600146,None,0.011588160006795079,None,483.4377461600146,None,483.4377461600146,None,483.4377461600146,None,483.4377461600146,None,483.4377461600146,None,483.4377461600146,None,483.44778499999666,None,483.44778499999666,None,483.44778499999666,None,0.004625560017302632,0.5046255600173026,483.44778499999666,None,483.44778499999666,None,483.44778499999666,None,483.44778499999666,None,483.44778499999666,None,483.44778499999666,None,485.4375667000131,485.4375667000131,0.29999999999999716,1.94,1250,700,300,,,,,,,,,,,,,,,,,,,,,,,,,,,,,,,,,,,,,,,,,,,,,,,,,,,,,,,,,,,,,,,,,,,,,,,,,,,,,,,,,,,f,25,lihan,2022_Apr_01_1644,emotion,2021.1.4,60.667389815100144,
58,-50,-200,0,two,-50,-200,0,,,,,0,52,52,57,,,,,,,,,,,down,0.611634500004584,487.4355722000182,None,487.4355722000182,None,488.0703875000181,None,488.0703875000181,None,488.0703875000181,None,490.0534558999934,490.5533665000112,490.0534558999934,490.5533665000112,490.0534558999934,490.5533665000112,488.0703875000181,None,490.56988176001175,None,490.56988176001175,None,490.56988176001175,None,0.009544060012558475,None,490.56988176001175,None,490.56988176001175,None,490.56988176001175,None,490.56988176001175,None,490.56988176001175,None,490.56988176001175,None,490.5830716000055,None,490.5830716000055,None,490.5830716000055,None,1.566001446917653e-05,0.5000156600144692,490.5830716000055,None,490.5830716000055,None,490.5830716000055,None,490.5830716000055,None,490.5830716000055,None,490.5830716000055,None,492.56947050002054,492.56947050002054,6.899999999999999,1.368,1200,500,300,,,,,,,,,,,,,,,,,,,,,,,,,,,,,,,,,,,,,,,,,,,,,,,,,,,,,,,,,,,,,,,,,,,,,,,,,,,,,,,,,,,f,25,lihan,2022_Apr_01_1644,emotion,2021.1.4,60.667389815100144,
12,200,0,50,two,200,0,50,,,,,0,53,53,11,,,,,,,,,,,down,2.004261199996108,493.9936185000115,None,493.9936185000115,None,496.0191160000104,None,496.0191160000104,None,496.0191160000104,None,498.0017687000218,498.50167120000697,498.0017687000218,498.50167120000697,498.0017687000218,498.50167120000697,496.0191160000104,None,498.51818646000754,None,498.51818646000754,None,498.51818646000754,None,0.009425960015505552,None,498.51818646000754,None,498.51818646000754,None,498.51818646000754,None,498.51818646000754,None,498.51818646000754,None,498.51818646000754,None,498.53149379999377,None,498.53149379999377,None,498.53149379999377,None,0.0003304599958937615,0.5003304599958938,498.53149379999377,None,498.53149379999377,None,498.53149379999377,None,498.53149379999377,None,498.53149379999377,None,498.53149379999377,None,500.51771869999357,500.51771869999357,11.700000000000003,1.067,1400,500,350,,,,,,,,,,,,,,,,,,,,,,,,,,,,,,,,,,,,,,,,,,,,,,,,,,,,,,,,,,,,,,,,,,,,,,,,,,,,,,,,,,,f,25,lihan,2022_Apr_01_1644,emotion,2021.1.4,60.667389815100144,
79,-200,-50,-50,two,-200,-50,-50,,,,,0,54,54,78,,,,,,,,,,,down,1.3872311000013724,501.6377265000192,None,501.6377265000192,None,503.0561851999955,None,503.0561851999955,None,503.0561851999955,None,505.03367309999885,505.53353570000036,505.03367309999885,505.53353570000036,505.03367309999885,505.53353570000036,503.0561851999955,None,505.56682026001215,None,505.56682026001215,None,505.56682026001215,None,0.011289960006251931,None,505.56682026001215,None,505.56682026001215,None,505.56682026001215,None,505.56682026001215,None,505.56682026001215,None,505.56682026001215,None,505.5766682999965,None,505.5766682999965,None,505.5766682999965,None,0.0036903600266668946,0.5036903600266669,505.5766682999965,None,505.5766682999965,None,505.5766682999965,None,505.5766682999965,None,505.5766682999965,None,505.5766682999965,None,507.56657920000725,507.56657920000725,-4.399999999999999,4.008,1200,450,300,,,,,,,,,,,,,,,,,,,,,,,,,,,,,,,,,,,,,,,,,,,,,,,,,,,,,,,,,,,,,,,,,,,,,,,,,,,,,,,,,,,f,25,lihan,2022_Apr_01_1644,emotion,2021.1.4,60.667389815100144,
30,50,50,0,one,50,50,0,,,,,0,55,55,29,,,,,,,,,,,down,0.8997482999984641,511.6330650000018,None,511.6330650000018,None,512.5497633000195,None,512.5497633000195,None,512.5497633000195,None,514.5317801000201,515.0317575999943,514.5317801000201,515.0317575999943,514.5317801000201,515.0317575999943,512.5497633000195,None,515.0649334599933,None,515.0649334599933,None,515.0649334599933,None,0.011352559988154098,None,515.0649334599933,None,515.0649334599933,None,515.0649334599933,None,515.0649334599933,None,515.0649334599933,None,515.0649334599933,None,515.0748568999988,None,515.0748568999988,None,515.0748568999988,None,0.004107960005057976,0.504107960005058,515.0748568999988,None,515.0748568999988,None,515.0748568999988,None,515.0748568999988,None,515.0748568999988,None,515.0748568999988,None,517.0646815999935,517.0646815999935,0.29999999999999716,1.725,1250,500,300,,,,,,,,,,,,,,,,,,,,,,,,,,,,,,,,,,,,,,,,,,,,,,,,,,,,,,,,,,,,,,,,,,,,,,,,,,,,,,,,,,,f,25,lihan,2022_Apr_01_1644,emotion,2021.1.4,60.667389815100144,
77,-50,0,-50,one,-50,0,-50,,,,,0,56,56,76,,,,,,,,,,,down,0.7966471000108868,518.843855300016,None,518.843855300016,None,519.6678401000099,None,519.6678401000099,None,519.6678401000099,None,521.6470818000089,522.1469497999933,521.6470818000089,522.1469497999933,521.6470818000089,522.1469497999933,519.6678401000099,None,522.1803129600215,None,522.1803129600215,None,522.1803129600215,None,0.0108353600371629,None,522.1803129600215,None,522.1803129600215,None,522.1803129600215,None,522.1803129600215,None,522.1803129600215,None,522.1803129600215,None,522.1902051999932,None,522.1902051999932,None,522.1902051999932,None,0.003344460012158379,0.5033444600121584,522.1902051999932,None,522.1902051999932,None,522.1902051999932,None,522.1902051999932,None,522.1902051999932,None,522.1902051999932,None,524.1798803000129,524.1798803000129,-2.8999999999999986,1.652,1200,500,250,,,,,,,,,,,,,,,,,,,,,,,,,,,,,,,,,,,,,,,,,,,,,,,,,,,,,,,,,,,,,,,,,,,,,,,,,,,,,,,,,,,f,25,lihan,2022_Apr_01_1644,emotion,2021.1.4,60.667389815100144,
34,0,50,50,two,0,50,50,,,,,0,57,57,33,,,,,,,,,,,down,1.8102468999859411,525.8876175000041,None,525.8876175000041,None,527.7181782000116,None,527.7181782000116,None,527.7181782000116,None,529.6954682000214,530.1954336000199,529.6954682000214,530.1954336000199,529.6954682000214,530.1954336000199,527.7181782000116,None,530.2286539600085,None,530.2286539600085,None,530.2286539600085,None,0.011509260017191991,None,530.2286539600085,None,530.2286539600085,None,530.2286539600085,None,530.2286539600085,None,530.2286539600085,None,530.2286539600085,None,530.2385040000081,None,530.2385040000081,None,530.2385040000081,None,0.004254360042978078,0.5042543600429781,530.2385040000081,None,530.2385040000081,None,530.2385040000081,None,530.2385040000081,None,530.2385040000081,None,530.2385040000081,None,532.2280911999987,532.2280911999987,-0.29999999999999716,2.229,1200,550,300,,,,,,,,,,,,,,,,,,,,,,,,,,,,,,,,,,,,,,,,,,,,,,,,,,,,,,,,,,,,,,,,,,,,,,,,,,,,,,,,,,,f,25,lihan,2022_Apr_01_1644,emotion,2021.1.4,60.667389815100144,
54,-200,0,-50,one,-200,0,-50,,,,,0,58,58,53,,,,,,,,,,,down,2.1368636999977753,534.5142043000087,None,534.5142043000087,None,536.6772279000143,None,536.6772279000143,None,536.6772279000143,None,538.6603978000057,539.1603493000148,538.6603978000057,539.1603493000148,538.6603978000057,539.1603493000148,536.6772279000143,None,539.1768645600154,None,539.1768645600154,None,539.1768645600154,None,0.009295060008298606,None,539.1768645600154,None,539.1768645600154,None,539.1768645600154,None,539.1768645600154,None,539.1768645600154,None,539.1768645600154,None,539.1897702999995,None,539.1897702999995,None,539.1897702999995,None,0.00040896001155488193,0.5004089600115549,539.1897702999995,None,539.1897702999995,None,539.1897702999995,None,539.1897702999995,None,539.1897702999995,None,539.1897702999995,None,541.1763778000022,541.1763778000022,-5.799999999999997,4.881,1000,550,250,,,,,,,,,,,,,,,,,,,,,,,,,,,,,,,,,,,,,,,,,,,,,,,,,,,,,,,,,,,,,,,,,,,,,,,,,,,,,,,,,,,f,25,lihan,2022_Apr_01_1644,emotion,2021.1.4,60.667389815100144,
78,-50,-50,0,one,-50,-50,0,,,,,0,59,59,77,,,,,,,,,,,down,3.0532684000208974,546.1240801000095,None,546.1240801000095,None,549.196901599993,None,549.196901599993,None,549.196901599993,None,551.1747123000096,551.6744699999981,551.1747123000096,551.6744699999981,551.1747123000096,551.6744699999981,549.196901599993,None,551.7077943600219,None,551.7077943600219,None,551.7077943600219,None,0.011341860052198172,None,551.7077943600219,None,551.7077943600219,None,551.7077943600219,None,551.7077943600219,None,551.7077943600219,None,551.7077943600219,None,551.7177522999991,None,551.7177522999991,None,551.7177522999991,None,0.004154260008363053,0.504154260008363,551.7177522999991,None,551.7177522999991,None,551.7177522999991,None,551.7177522999991,None,551.7177522999991,None,551.7177522999991,None,553.7073083000141,553.7073083000141,0.29999999999999716,1.609,950,500,250,,,,,,,,,,,,,,,,,,,,,,,,,,,,,,,,,,,,,,,,,,,,,,,,,,,,,,,,,,,,,,,,,,,,,,,,,,,,,,,,,,,f,25,lihan,2022_Apr_01_1644,emotion,2021.1.4,60.667389815100144,
59,-200,-50,0,two,-200,-50,0,,,,,0,60,60,58,,,,,,,,,,,down,2.4415812000224832,555.3676404000144,None,555.3676404000144,None,557.845078000013,None,557.845078000013,None,557.845078000013,None,559.822690800007,560.3226955000137,559.822690800007,560.3226955000137,559.822690800007,560.3226955000137,557.845078000013,None,560.3560190600023,None,560.3560190600023,None,560.3560190600023,None,0.011422659998061135,None,560.3560190600023,None,560.3560190600023,None,560.3560190600023,None,560.3560190600023,None,560.3560190600023,None,560.3560190600023,None,560.3655633000017,None,560.3655633000017,None,560.3655633000017,None,0.00443175999680534,0.5044317599968053,560.3655633000017,None,560.3655633000017,None,560.3655633000017,None,560.3655633000017,None,560.3655633000017,None,560.3655633000017,None,562.3559219000163,562.3559219000163,-3.8999999999999986,1.328,750,450,250,,,,,,,,,,,,,,,,,,,,,,,,,,,,,,,,,,,,,,,,,,,,,,,,,,,,,,,,,,,,,,,,,,,,,,,,,,,,,,,,,,,f,25,lihan,2022_Apr_01_1644,emotion,2021.1.4,60.667389815100144,
50,0,-200,-50,one,0,-200,-50,,,,,0,61,61,49,,,,,,,,,,,down,5.181320900010178,563.7539642000047,None,563.7539642000047,None,568.9601622000046,None,568.9601622000046,None,568.9601622000046,None,570.9401070000022,571.4538857000007,570.9401070000022,571.4538857000007,570.9401070000022,571.4538857000007,568.9601622000046,None,571.4704009600013,None,571.4704009600013,None,571.4704009600013,None,0.011458160006441176,None,571.4704009600013,None,571.4704009600013,None,571.4704009600013,None,571.4704009600013,None,571.4704009600013,None,571.4704009600013,None,571.4804263999977,None,571.4804263999977,None,571.4804263999977,None,0.004128359985770658,0.5041283599857707,571.4804263999977,None,571.4804263999977,None,571.4804263999977,None,571.4804263999977,None,571.4804263999977,None,571.4804263999977,None,573.4710132000037,573.4710132000037,25.200000000000003,2.465,750,250,200,,,,,,,,,,,,,,,,,,,,,,,,,,,,,,,,,,,,,,,,,,,,,,,,,,,,,,,,,,,,,,,,,,,,,,,,,,,,,,,,,,,f,25,lihan,2022_Apr_01_1644,emotion,2021.1.4,60.667389815100144,
10,50,200,0,two,50,200,0,,,,,0,62,62,9,,,,,,,,,,,down,1.191985699988436,576.0352639000048,None,576.0352639000048,None,577.257861399994,None,577.257861399994,None,577.257861399994,None,579.2357009999978,579.7356510999962,579.2357009999978,579.7356510999962,579.2357009999978,579.7356510999962,577.257861399994,None,579.7688068600168,None,579.7688068600168,None,579.7688068600168,None,0.011525160021847114,None,579.7688068600168,None,579.7688068600168,None,579.7688068600168,None,579.7688068600168,None,579.7688068600168,None,579.7688068600168,None,579.778596499993,None,579.778596499993,None,579.778596499993,None,0.004549060016870499,0.5045490600168705,579.778596499993,None,579.778596499993,None,579.778596499993,None,579.778596499993,None,579.778596499993,None,579.778596499993,None,581.7696258000215,581.7696258000215,-11.700000000000003,2.937,800,450,200,,,,,,,,,,,,,,,,,,,,,,,,,,,,,,,,,,,,,,,,,,,,,,,,,,,,,,,,,,,,,,,,,,,,,,,,,,,,,,,,,,,f,25,lihan,2022_Apr_01_1644,emotion,2021.1.4,60.667389815100144,
74,-50,-200,-50,one,-50,-200,-50,,,,,0,63,63,73,,,,,,,,,,,left,0.9123558000137564,584.7662614000146,None,584.7662614000146,None,585.7034372000198,None,585.7034372000198,None,585.7034372000198,None,587.6841656000179,588.183664000011,587.6841656000179,588.183664000011,587.6841656000179,588.183664000011,585.7034372000198,None,588.2169660600106,None,588.2169660600106,None,588.2169660600106,None,0.01164736002101563,None,588.2169660600106,None,588.2169660600106,None,588.2169660600106,None,588.2169660600106,None,588.2169660600106,None,588.2169660600106,None,588.2272655999986,None,588.2272655999986,None,588.2272655999986,None,0.0041321600147057325,0.5041321600147057,588.2272655999986,None,588.2272655999986,None,588.2272655999986,None,588.2272655999986,None,588.2272655999986,None,588.2272655999986,None,590.2169271000021,590.2169271000021,6.899999999999999,1.22,750,250,150,,,,,,,,,,,,,,,,,,,,,,,,,,,,,,,,,,,,,,,,,,,,,,,,,,,,,,,,,,,,,,,,,,,,,,,,,,,,,,,,,,,f,25,lihan,2022_Apr_01_1644,emotion,2021.1.4,60.667389815100144,
92,-200,0,-200,two,-200,0,-200,,,,,0,64,64,91,,,,,,,,,,,left,0.6224691999959759,591.4894750000094,None,591.4894750000094,None,592.1341183000186,None,592.1341183000186,None,592.1341183000186,None,594.1161604000081,594.6159769000078,594.1161604000081,594.6159769000078,594.1161604000081,594.6159769000078,592.1341183000186,None,594.6493042599963,None,594.6493042599963,None,594.6493042599963,None,0.011305260006338358,None,594.6493042599963,None,594.6493042599963,None,594.6493042599963,None,594.6493042599963,None,594.6493042599963,None,594.6493042599963,None,594.6592972000071,None,594.6592972000071,None,594.6592972000071,None,0.004468059982173145,0.5044680599821731,594.6592972000071,None,594.6592972000071,None,594.6592972000071,None,594.6592972000071,None,594.6592972000071,None,594.6592972000071,None,596.6498419000127,596.6498419000127,-16.299999999999997,2.687,550,250,-50,,,,,,,,,,,,,,,,,,,,,,,,,,,,,,,,,,,,,,,,,,,,,,,,,,,,,,,,,,,,,,,,,,,,,,,,,,,,,,,,,,,f,25,lihan,2022_Apr_01_1644,emotion,2021.1.4,60.667389815100144,
39,0,200,200,one,0,200,200,,,,,0,65,65,38,,,,,,,,,,,left,0.8947169999883045,599.3969388999976,None,599.3969388999976,None,600.320177400019,None,600.320177400019,None,600.320177400019,None,602.2980381000089,602.7974590999947,602.2980381000089,602.7974590999947,602.2980381000089,602.7974590999947,600.320177400019,None,602.830877360006,None,602.830877360006,None,602.830877360006,None,0.01112566000665538,None,602.830877360006,None,602.830877360006,None,602.830877360006,None,602.830877360006,None,602.830877360006,None,602.830877360006,None,602.8492245000089,None,602.8492245000089,None,602.8492245000089,None,0.004121060017496347,0.5041210600174963,602.8492245000089,None,602.8492245000089,None,602.8492245000089,None,602.8492245000089,None,602.8492245000089,None,602.8492245000089,None,604.831325600011,604.831325600011,-15.399999999999999,2.362,550,450,150,,,,,,,,,,,,,,,,,,,,,,,,,,,,,,,,,,,,,,,,,,,,,,,,,,,,,,,,,,,,,,,,,,,,,,,,,,,,,,,,,,,f,25,lihan,2022_Apr_01_1644,emotion,2021.1.4,60.667389815100144,
22,0,0,200,two,0,0,200,,,,,0,66,66,21,,,,,,,,,,,left,0.5548100000014529,607.2643531000067,None,607.2643531000067,None,607.8534501999966,None,607.8534501999966,None,607.8534501999966,None,609.8294999000209,610.3295158999972,609.8294999000209,610.3295158999972,609.8294999000209,610.3295158999972,607.8534501999966,None,610.3624810600217,None,610.3624810600217,None,610.3624810600217,None,0.011499260028358549,None,610.3624810600217,None,610.3624810600217,None,610.3624810600217,None,610.3624810600217,None,610.3624810600217,None,610.3624810600217,None,610.3722857999965,None,610.3722857999965,None,610.3722857999965,None,0.0043502600165084004,0.5043502600165084,610.3722857999965,None,610.3722857999965,None,610.3722857999965,None,610.3722857999965,None,610.3722857999965,None,610.3722857999965,None,612.3624693000165,612.3624693000165,-0.20000000000000284,1.484,550,450,350,,,,,,,,,,,,,,,,,,,,,,,,,,,,,,,,,,,,,,,,,,,,,,,,,,,,,,,,,,,,,,,,,,,,,,,,,,,,,,,,,,,f,25,lihan,2022_Apr_01_1644,emotion,2021.1.4,60.667389815100144,
13,0,0,50,one,0,0,50,,,,,0,67,67,12,,,,,,,,,,,left,0.8799987999955192,613.9111378999951,None,613.9111378999951,None,614.815282800002,None,614.815282800002,None,614.815282800002,None,616.7949603000015,617.294813400018,616.7949603000015,617.294813400018,616.7949603000015,617.294813400018,614.815282800002,None,617.3279562599986,None,617.3279562599986,None,617.3279562599986,None,0.011463959992397577,None,617.3279562599986,None,617.3279562599986,None,617.3279562599986,None,617.3279562599986,None,617.3279562599986,None,617.3279562599986,None,617.3382348000014,None,617.3382348000014,None,617.3382348000014,None,0.004154560010647401,0.5041545600106474,617.3382348000014,None,617.3382348000014,None,617.3382348000014,None,617.3382348000014,None,617.3382348000014,None,617.3382348000014,None,619.3278448000201,619.3278448000201,-0.29999999999999716,1.435,550,450,400,,,,,,,,,,,,,,,,,,,,,,,,,,,,,,,,,,,,,,,,,,,,,,,,,,,,,,,,,,,,,,,,,,,,,,,,,,,,,,,,,,,f,25,lihan,2022_Apr_01_1644,emotion,2021.1.4,60.667389815100144,
72,-200,0,0,two,-200,0,0,,,,,0,68,68,71,,,,,,,,,,,left,0.8047050999884959,620.8263344000152,None,620.8263344000152,None,621.6662733000121,None,621.6662733000121,None,621.6662733000121,None,623.6436971999938,624.143298800016,623.6436971999938,624.143298800016,623.6436971999938,624.143298800016,621.6662733000121,None,624.1767624599946,None,624.1767624599946,None,624.1767624599946,None,0.011516359983943403,None,624.1767624599946,None,624.1767624599946,None,624.1767624599946,None,624.1767624599946,None,624.1767624599946,None,624.1767624599946,None,624.1862389000016,None,624.1862389000016,None,624.1862389000016,None,0.004788959980942309,0.5047889599809423,624.1862389000016,None,624.1862389000016,None,624.1862389000016,None,624.1862389000016,None,624.1862389000016,None,624.1862389000016,None,626.1764847000013,626.1764847000013,-50.0,3.785,350,450,400,,,,,,,,,,,,,,,,,,,,,,,,,,,,,,,,,,,,,,,,,,,,,,,,,,,,,,,,,,,,,,,,,,,,,,,,,,,,,,,,,,,f,25,lihan,2022_Apr_01_1644,emotion,2021.1.4,60.667389815100144,
90,-50,-200,-200,one,-50,-200,-200,,,,,0,69,69,89,,,,,,,,,,,left,2.6713059000030626,630.0183066000172,None,630.0183066000172,None,632.7122785999964,None,632.7122785999964,None,632.7122785999964,None,634.691238600004,635.1912448999938,634.691238600004,635.1912448999938,634.691238600004,635.1912448999938,632.7122785999964,None,635.2243217599956,None,635.2243217599956,None,635.2243217599956,None,0.011214659985853359,None,635.2243217599956,None,635.2243217599956,None,635.2243217599956,None,635.2243217599956,None,635.2243217599956,None,635.2243217599956,None,635.2346849000023,None,635.2346849000023,None,635.2346849000023,None,0.004060759994899854,0.5040607599948999,635.2346849000023,None,635.2346849000023,None,635.2346849000023,None,635.2346849000023,None,635.2346849000023,None,635.2346849000023,None,637.2244961000106,637.2244961000106,8.100000000000001,0.985,300,250,200,,,,,,,,,,,,,,,,,,,,,,,,,,,,,,,,,,,,,,,,,,,,,,,,,,,,,,,,,,,,,,,,,,,,,,,,,,,,,,,,,,,f,25,lihan,2022_Apr_01_1644,emotion,2021.1.4,60.667389815100144,
24,200,0,0,two,200,0,0,,,,,0,70,70,23,,,,,,,,,,,left,1.2816832999815233,638.2729811000172,None,638.2729811000172,None,639.5821321000112,None,639.5821321000112,None,639.5821321000112,None,641.5574499000213,642.0566929000197,641.5574499000213,642.0566929000197,641.5574499000213,642.0566929000197,639.5821321000112,None,642.0895849600114,None,642.0895849600114,None,642.0895849600114,None,0.011507660005008802,None,642.0895849600114,None,642.0895849600114,None,642.0895849600114,None,642.0895849600114,None,642.0895849600114,None,642.0895849600114,None,642.0997374000144,None,642.0997374000144,None,642.0997374000144,None,0.0043718600063584745,0.5043718600063585,642.0997374000144,None,642.0997374000144,None,642.0997374000144,None,642.0997374000144,None,642.0997374000144,None,642.0997374000144,None,644.0897783999972,644.0897783999972,49.400000000000006,1.151,500,250,200,,,,,,,,,,,,,,,,,,,,,,,,,,,,,,,,,,,,,,,,,,,,,,,,,,,,,,,,,,,,,,,,,,,,,,,,,,,,,,,,,,,f,25,lihan,2022_Apr_01_1644,emotion,2021.1.4,60.667389815100144,
48,50,200,200,two,50,200,200,,,,,0,71,71,47,,,,,,,,,,,left,0.7160024000040721,645.2914631000021,None,645.2914631000021,None,646.0276269000024,None,646.0276269000024,None,646.0276269000024,None,648.0056729000062,648.5051717000024,648.0056729000062,648.5051717000024,648.0056729000062,648.5051717000024,646.0276269000024,None,648.5386323600163,None,648.5386323600163,None,648.5386323600163,None,0.010951760021271184,None,648.5386323600163,None,648.5386323600163,None,648.5386323600163,None,648.5386323600163,None,648.5386323600163,None,648.5386323600163,None,648.5485865999945,None,648.5485865999945,None,648.5485865999945,None,0.003730260010343045,0.503730260010343,648.5485865999945,None,648.5485865999945,None,648.5485865999945,None,648.5485865999945,None,648.5485865999945,None,648.5485865999945,None,650.5382325999963,650.5382325999963,-11.600000000000001,1.204,550,450,400,,,,,,,,,,,,,,,,,,,,,,,,,,,,,,,,,,,,,,,,,,,,,,,,,,,,,,,,,,,,,,,,,,,,,,,,,,,,,,,,,,,f,25,lihan,2022_Apr_01_1644,emotion,2021.1.4,60.667389815100144,
91,-200,-200,0,two,-200,-200,0,,,,,0,72,72,90,,,,,,,,,,,left,0.7382458999927621,651.8032613999967,None,651.8032613999967,None,652.5622610000137,None,652.5622610000137,None,652.5622610000137,None,654.5374259999953,655.0372206000029,654.5374259999953,655.0372206000029,654.5374259999953,655.0372206000029,652.5622610000137,None,655.0705896600178,None,655.0705896600178,None,655.0705896600178,None,0.011237860016990453,None,655.0705896600178,None,655.0705896600178,None,655.0705896600178,None,655.0705896600178,None,655.0705896600178,None,655.0705896600178,None,655.0797750000202,None,655.0797750000202,None,655.0797750000202,None,0.0045296600146684796,0.5045296600146685,655.0797750000202,None,655.0797750000202,None,655.0797750000202,None,655.0797750000202,None,655.0797750000202,None,655.0797750000202,None,657.0713707999967,657.0713707999967,0.10000000000000142,1.715,350,250,400,,,,,,,,,,,,,,,,,,,,,,,,,,,,,,,,,,,,,,,,,,,,,,,,,,,,,,,,,,,,,,,,,,,,,,,,,,,,,,,,,,,f,25,lihan,2022_Apr_01_1644,emotion,2021.1.4,60.667389815100144,
94,-200,-200,-50,two,-200,-200,-50,,,,,0,73,73,93,,,,,,,,,,,right,1.6896519000001717,658.8518347000063,None,658.8518347000063,None,660.5729951999965,None,660.5729951999965,None,660.5729951999965,None,662.552574900008,663.0526183000184,662.552574900008,663.0526183000184,662.552574900008,663.0526183000184,660.5729951999965,None,663.0857894600107,None,663.0857894600107,None,663.0857894600107,None,0.011398560018278658,None,663.0857894600107,None,663.0857894600107,None,663.0857894600107,None,663.0857894600107,None,663.0857894600107,None,663.0857894600107,None,663.0957483999955,None,663.0957483999955,None,663.0957483999955,None,0.003927159996237606,0.5039271599962376,663.0957483999955,None,663.0957483999955,None,663.0957483999955,None,663.0957483999955,None,663.0957483999955,None,663.0957483999955,None,665.0854644000065,665.0854644000065,0.5,2.18,150,50,350,,,,,,,,,,,,,,,,,,,,,,,,,,,,,,,,,,,,,,,,,,,,,,,,,,,,,,,,,,,,,,,,,,,,,,,,,,,,,,,,,,,f,25,lihan,2022_Apr_01_1644,emotion,2021.1.4,60.667389815100144,
60,-200,0,-50,two,-200,0,-50,,,,,0,74,74,59,,,,,,,,,,,right,0.5580381999898236,667.3211280000105,None,667.3211280000105,None,667.9015980999975,None,667.9015980999975,None,667.9015980999975,None,669.8843766000064,670.3843240000133,669.8843766000064,670.3843240000133,669.8843766000064,670.3843240000133,667.9015980999975,None,670.4008392600139,None,670.4008392600139,None,670.4008392600139,None,0.009134860010817647,None,670.4008392600139,None,670.4008392600139,None,670.4008392600139,None,670.4008392600139,None,670.4008392600139,None,670.4008392600139,None,670.4139912000101,None,670.4139912000101,None,670.4139912000101,None,0.016353420011000708,0.5163534200110007,670.4139912000101,None,670.4139912000101,None,670.4139912000101,None,670.4139912000101,None,670.4139912000101,None,670.4139912000101,None,672.3840707000054,672.3840707000054,-20.5,1.5,-50,50,300,,,,,,,,,,,,,,,,,,,,,,,,,,,,,,,,,,,,,,,,,,,,,,,,,,,,,,,,,,,,,,,,,,,,,,,,,,,,,,,,,,,f,25,lihan,2022_Apr_01_1644,emotion,2021.1.4,60.667389815100144,
80,-50,-200,-50,two,-50,-200,-50,,,,,0,75,75,79,,,,,,,,,,,left,0.5412803000072017,673.9658869999985,None,673.9658869999985,None,674.5412603000004,None,674.5412603000004,None,674.5412603000004,None,676.5163369000074,677.0162585999933,676.5163369000074,677.0162585999933,676.5163369000074,677.0162585999933,674.5412603000004,None,677.0494106600148,None,677.0494106600148,None,677.0494106600148,None,0.011261460022069514,None,677.0494106600148,None,677.0494106600148,None,677.0494106600148,None,677.0494106600148,None,677.0494106600148,None,677.0494106600148,None,677.0593032000179,None,677.0593032000179,None,677.0593032000179,None,0.003482860018266365,0.5034828600182664,677.0593032000179,None,677.0593032000179,None,677.0593032000179,None,677.0593032000179,None,677.0593032000179,None,677.0593032000179,None,679.0493253000022,679.0493253000022,18.400000000000006,2.83,-100,-150,250,,,,,,,,,,,,,,,,,,,,,,,,,,,,,,,,,,,,,,,,,,,,,,,,,,,,,,,,,,,,,,,,,,,,,,,,,,,,,,,,,,,f,25,lihan,2022_Apr_01_1644,emotion,2021.1.4,60.667389815100144,
71,0,-200,0,two,0,-200,0,,,,,0,76,76,70,,,,,,,,,,,left,1.277468400017824,681.9339212000195,None,681.9339212000195,None,683.2372183999978,None,683.2372183999978,None,683.2372183999978,None,685.2152591000195,685.7148714000068,685.2152591000195,685.7148714000068,685.2152591000195,685.7148714000068,683.2372183999978,None,685.7477892600203,None,685.7477892600203,None,685.7477892600203,None,0.01132286002393812,None,685.7477892600203,None,685.7477892600203,None,685.7477892600203,None,685.7477892600203,None,685.7477892600203,None,685.7477892600203,None,685.7579543000029,None,685.7579543000029,None,685.7579543000029,None,0.004408760054502636,0.5044087600545026,685.7579543000029,None,685.7579543000029,None,685.7579543000029,None,685.7579543000029,None,685.7579543000029,None,685.7579543000029,None,687.7477967000159,687.7477967000159,21.599999999999994,2.931,-100,-350,250,,,,,,,,,,,,,,,,,,,,,,,,,,,,,,,,,,,,,,,,,,,,,,,,,,,,,,,,,,,,,,,,,,,,,,,,,,,,,,,,,,,f,25,lihan,2022_Apr_01_1644,emotion,2021.1.4,60.667389815100144,
56,0,-200,-50,two,0,-200,-50,,,,,0,77,77,55,,,,,,,,,,,down,1.286119600001257,690.7321463999979,None,690.7321463999979,None,692.0536790000042,None,692.0536790000042,None,692.0536790000042,None,694.0297455000109,694.5295007000095,694.0297455000109,694.5295007000095,694.0297455000109,694.5295007000095,692.0536790000042,None,694.5630573599977,None,694.5630573599977,None,694.5630573599977,None,0.011134359985589981,None,694.5630573599977,None,694.5630573599977,None,694.5630573599977,None,694.5630573599977,None,694.5630573599977,None,694.5630573599977,None,694.5732575000147,None,694.5732575000147,None,694.5732575000147,None,0.0039008599997032434,0.5039008599997032,694.5732575000147,None,694.5732575000147,None,694.5732575000147,None,694.5732575000147,None,694.5732575000147,None,694.5732575000147,None,696.5625244000112,696.5625244000112,23.599999999999994,1.583,-100,-550,200,,,,,,,,,,,,,,,,,,,,,,,,,,,,,,,,,,,,,,,,,,,,,,,,,,,,,,,,,,,,,,,,,,,,,,,,,,,,,,,,,,,f,25,lihan,2022_Apr_01_1644,emotion,2021.1.4,60.667389815100144,
93,0,-200,-200,two,0,-200,-200,,,,,0,78,78,92,,,,,,,,,,,down,0.5497198000084609,698.2004714000213,None,698.2004714000213,None,698.7790124000167,None,698.7790124000167,None,698.7790124000167,None,700.7615637000126,701.2616309000005,700.7615637000126,701.2616309000005,700.7615637000126,701.2616309000005,698.7790124000167,None,701.278146160001,None,701.278146160001,None,701.278146160001,None,0.009374159999424592,None,701.278146160001,None,701.278146160001,None,701.278146160001,None,701.278146160001,None,701.278146160001,None,701.278146160001,None,701.2912089000165,None,701.2912089000165,None,701.2912089000165,None,0.016437819984275848,0.5164378199842758,701.2912089000165,None,701.2912089000165,None,701.2912089000165,None,701.2912089000165,None,701.2912089000165,None,701.2912089000165,None,703.2613147000084,703.2613147000084,27.700000000000003,1.264,-100,-750,0,,,,,,,,,,,,,,,,,,,,,,,,,,,,,,,,,,,,,,,,,,,,,,,,,,,,,,,,,,,,,,,,,,,,,,,,,,,,,,,,,,,f,25,lihan,2022_Apr_01_1644,emotion,2021.1.4,60.667389815100144,
41,200,50,200,one,200,50,200,,,,,0,79,79,40,,,,,,,,,,,down,0.8054049999918789,704.5984961000213,None,704.5984961000213,None,705.4323113000137,None,705.4323113000137,None,705.4323113000137,None,707.4104879999941,707.9104425999976,707.4104879999941,707.9104425999976,707.4104879999941,707.9104425999976,705.4323113000137,None,707.9435205600079,None,707.9435205600079,None,707.9435205600079,None,0.011439060006523505,None,707.9435205600079,None,707.9435205600079,None,707.9435205600079,None,707.9435205600079,None,707.9435205600079,None,707.9435205600079,None,707.9538672000053,None,707.9538672000053,None,707.9538672000053,None,0.0042470600455999374,0.5042470600455999,707.9538672000053,None,707.9538672000053,None,707.9538672000053,None,707.9538672000053,None,707.9538672000053,None,707.9538672000053,None,709.9444014000183,709.9444014000183,11.0,0.791,100,-700,200,,,,,,,,,,,,,,,,,,,,,,,,,,,,,,,,,,,,,,,,,,,,,,,,,,,,,,,,,,,,,,,,,,,,,,,,,,,,,,,,,,,f,25,lihan,2022_Apr_01_1644,emotion,2021.1.4,60.667389815100144,
28,0,50,50,one,0,50,50,,,,,0,80,80,27,,,,,,,,,,,down,0.6882492000004277,710.7917469000095,None,710.7917469000095,None,711.5062354000111,None,711.5062354000111,None,711.5062354000111,None,713.4923879000125,713.9925159999984,713.4923879000125,713.9925159999984,713.4923879000125,713.9925159999984,711.5062354000111,None,714.009031259999,None,714.009031259999,None,714.009031259999,None,0.0114796599955298,None,714.009031259999,None,714.009031259999,None,714.009031259999,None,714.009031259999,None,714.009031259999,None,714.009031259999,None,714.0182766999933,None,714.0182766999933,None,714.0182766999933,None,0.004119260003790259,0.5041192600037903,714.0182766999933,None,714.0182766999933,None,714.0182766999933,None,714.0182766999933,None,714.0182766999933,None,714.0182766999933,None,716.0089265000133,716.0089265000133,-10.0,0.847,100,-650,250,,,,,,,,,,,,,,,,,,,,,,,,,,,,,,,,,,,,,,,,,,,,,,,,,,,,,,,,,,,,,,,,,,,,,,,,,,,,,,,,,,,f,25,lihan,2022_Apr_01_1644,emotion,2021.1.4,60.667389815100144,
32,50,200,50,two,50,200,50,,,,,0,81,81,31,,,,,,,,,,,down,0.8914895000052638,716.9091961999948,None,716.9091961999948,None,717.8257916000148,None,717.8257916000148,None,717.8257916000148,None,719.8079997000168,720.3079122000199,719.8079997000168,720.3079122000199,719.8079997000168,720.3079122000199,717.8257916000148,None,720.3439519599982,None,720.3439519599982,None,720.3439519599982,None,0.001359059999231249,None,720.3439519599982,None,720.3439519599982,None,720.3439519599982,None,720.3439519599982,None,720.3439519599982,None,720.3439519599982,None,720.36551220002,None,720.36551220002,None,720.36551220002,None,0.008783119963482022,0.508783119963482,720.36551220002,None,720.36551220002,None,720.36551220002,None,720.36551220002,None,720.36551220002,None,720.36551220002,None,722.3574355000164,722.3574355000164,-14.399999999999999,1.143,150,-450,300,,,,,,,,,,,,,,,,,,,,,,,,,,,,,,,,,,,,,,,,,,,,,,,,,,,,,,,,,,,,,,,,,,,,,,,,,,,,,,,,,,,f,25,lihan,2022_Apr_01_1644,emotion,2021.1.4,60.667389815100144,
70,0,0,-200,two,0,0,-200,,,,,0,82,82,69,,,,,,,,,,,down,0.3660964999871794,723.5554928000201,None,723.5554928000201,None,723.9424044000043,None,723.9424044000043,None,723.9424044000043,None,725.9232467999973,726.4232805000211,725.9232467999973,726.4232805000211,725.9232467999973,726.4232805000211,723.9424044000043,None,726.4563518600102,None,726.4563518600102,None,726.4563518600102,None,0.011412560008466244,None,726.4563518600102,None,726.4563518600102,None,726.4563518600102,None,726.4563518600102,None,726.4563518600102,None,726.4563518600102,None,726.4671583000163,None,726.4671583000163,None,726.4671583000163,None,0.0044601600093301386,0.5044601600093301,726.4671583000163,None,726.4671583000163,None,726.4671583000163,None,726.4671583000163,None,726.4671583000163,None,726.4671583000163,None,728.456330999994,728.456330999994,0.20000000000000284,1.849,150,-450,100,,,,,,,,,,,,,,,,,,,,,,,,,,,,,,,,,,,,,,,,,,,,,,,,,,,,,,,,,,,,,,,,,,,,,,,,,,,,,,,,,,,f,25,lihan,2022_Apr_01_1644,emotion,2021.1.4,60.667389815100144,
33,50,50,200,two,50,50,200,,,,,0,83,83,32,,,,,,,,,,,down,2.364779499999713,730.3564063000085,None,730.3564063000085,None,732.7425352999999,None,732.7425352999999,None,732.7425352999999,None,734.7217936000088,735.2216521000082,734.7217936000088,735.2216521000082,734.7217936000088,735.2216521000082,732.7425352999999,None,735.2549539600062,None,735.2549539600062,None,735.2549539600062,None,0.011103760014520958,None,735.2549539600062,None,735.2549539600062,None,735.2549539600062,None,735.2549539600062,None,735.2549539600062,None,735.2549539600062,None,735.2649578000128,None,735.2649578000128,None,735.2649578000128,None,0.004306160000851378,0.5043061600008514,735.2649578000128,None,735.2649578000128,None,735.2649578000128,None,735.2649578000128,None,735.2649578000128,None,735.2649578000128,None,737.2545187000069,737.2545187000069,0.20000000000000284,2.403,200,-400,300,,,,,,,,,,,,,,,,,,,,,,,,,,,,,,,,,,,,,,,,,,,,,,,,,,,,,,,,,,,,,,,,,,,,,,,,,,,,,,,,,,,f,25,lihan,2022_Apr_01_1644,emotion,2021.1.4,60.667389815100144,
19,0,0,50,two,0,0,50,,,,,0,84,84,18,,,,,,,,,,,left,0.9966114000126254,739.7153015999938,None,739.7153015999938,None,740.744259900006,None,740.744259900006,None,740.744259900006,None,742.7201856000174,743.2202260000049,742.7201856000174,743.2202260000049,742.7201856000174,743.2202260000049,740.744259900006,None,743.2538017600222,None,743.2538017600222,None,743.2538017600222,None,0.011659360025078058,None,743.2538017600222,None,743.2538017600222,None,743.2538017600222,None,743.2538017600222,None,743.2538017600222,None,743.2538017600222,None,743.2630915000045,None,743.2630915000045,None,743.2630915000045,None,0.005319660034729168,0.5053196600347292,743.2630915000045,None,743.2630915000045,None,743.2630915000045,None,743.2630915000045,None,743.2630915000045,None,743.2630915000045,None,745.252990900015,745.252990900015,-0.20000000000000284,1.808,200,-400,350,,,,,,,,,,,,,,,,,,,,,,,,,,,,,,,,,,,,,,,,,,,,,,,,,,,,,,,,,,,,,,,,,,,,,,,,,,,,,,,,,,,f,25,lihan,2022_Apr_01_1644,emotion,2021.1.4,60.667389815100144,
7,0,50,200,two,0,50,200,,,,,0,85,85,6,,,,,,,,,,,left,1.004921399988234,747.1178497000074,None,747.1178497000074,None,748.1531165000051,None,748.1531165000051,None,748.1531165000051,None,750.137586900004,750.6520063000207,750.137586900004,750.6520063000207,750.137586900004,750.6520063000207,748.1531165000051,None,750.6685215600213,None,750.6685215600213,None,750.6685215600213,None,0.011563360021682456,None,750.6685215600213,None,750.6685215600213,None,750.6685215600213,None,750.6685215600213,None,750.6685215600213,None,750.6685215600213,None,750.6784109,None,750.6784109,None,750.6784109,None,0.004225560056511313,0.5042255600565113,750.6784109,None,750.6784109,None,750.6784109,None,750.6784109,None,750.6784109,None,750.6784109,None,752.6682680000085,752.6682680000085,-11.700000000000003,1.037,200,-350,550,,,,,,,,,,,,,,,,,,,,,,,,,,,,,,,,,,,,,,,,,,,,,,,,,,,,,,,,,,,,,,,,,,,,,,,,,,,,,,,,,,,f,25,lihan,2022_Apr_01_1644,emotion,2021.1.4,60.667389815100144,
21,50,0,0,two,50,0,0,,,,,0,86,86,20,,,,,,,,,,,left,3.6121759000234306,753.774192700017,None,753.774192700017,None,757.4103303000156,None,757.4103303000156,None,757.4103303000156,None,759.3835301000217,759.8834007999976,759.3835301000217,759.8834007999976,759.3835301000217,759.8834007999976,757.4103303000156,None,759.9166935600136,None,759.9166935600136,None,759.9166935600136,None,0.011506060021929443,None,759.9166935600136,None,759.9166935600136,None,759.9166935600136,None,759.9166935600136,None,759.9166935600136,None,759.9166935600136,None,759.9270712000143,None,759.9270712000143,None,759.9270712000143,None,0.0042170600208919495,0.504217060020892,759.9270712000143,None,759.9270712000143,None,759.9270712000143,None,759.9270712000143,None,759.9270712000143,None,759.9270712000143,None,761.9161773000087,761.9161773000087,-7.600000000000001,2.757,250,-350,550,,,,,,,,,,,,,,,,,,,,,,,,,,,,,,,,,,,,,,,,,,,,,,,,,,,,,,,,,,,,,,,,,,,,,,,,,,,,,,,,,,,f,25,lihan,2022_Apr_01_1644,emotion,2021.1.4,60.667389815100144,
69,-50,0,0,two,-50,0,0,,,,,0,87,87,68,,,,,,,,,,,left,1.2236850000044797,764.7279210000124,None,764.7279210000124,None,765.9715853999951,None,765.9715853999951,None,765.9715853999951,None,767.9484719000175,768.448225900007,767.9484719000175,768.448225900007,767.9484719000175,768.448225900007,765.9715853999951,None,768.4815811600041,None,768.4815811600041,None,768.4815811600041,None,0.011054060014430434,None,768.4815811600041,None,768.4815811600041,None,768.4815811600041,None,768.4815811600041,None,768.4815811600041,None,768.4815811600041,None,768.4905894999974,None,768.4905894999974,None,768.4905894999974,None,0.0040181599906645715,0.5040181599906646,768.4905894999974,None,768.4905894999974,None,768.4905894999974,None,768.4905894999974,None,768.4905894999974,None,768.4905894999974,None,770.4816444000171,770.4816444000171,-3.6000000000000014,0.958,200,-350,550,,,,,,,,,,,,,,,,,,,,,,,,,,,,,,,,,,,,,,,,,,,,,,,,,,,,,,,,,,,,,,,,,,,,,,,,,,,,,,,,,,,f,25,lihan,2022_Apr_01_1644,emotion,2021.1.4,60.667389815100144,
86,-200,0,-200,one,-200,0,-200,,,,,0,88,88,85,,,,,,,,,,,down,2.0804253999958746,771.4962744000077,None,771.4962744000077,None,773.6007589999936,None,773.6007589999936,None,773.6007589999936,None,775.5802483000152,776.0803012000106,775.5802483000152,776.0803012000106,775.5802483000152,776.0803012000106,773.6007589999936,None,776.1134286600194,None,776.1134286600194,None,776.1134286600194,None,0.011340960016241297,None,776.1134286600194,None,776.1134286600194,None,776.1134286600194,None,776.1134286600194,None,776.1134286600194,None,776.1134286600194,None,776.1230554000067,None,776.1230554000067,None,776.1230554000067,None,0.004244760028086603,0.5042447600280866,776.1230554000067,None,776.1230554000067,None,776.1230554000067,None,776.1230554000067,None,776.1230554000067,None,776.1230554000067,None,778.1132104000135,778.1132104000135,-48.8,1.311,0,-350,350,,,,,,,,,,,,,,,,,,,,,,,,,,,,,,,,,,,,,,,,,,,,,,,,,,,,,,,,,,,,,,,,,,,,,,,,,,,,,,,,,,,f,25,lihan,2022_Apr_01_1644,emotion,2021.1.4,60.667389815100144,
49,0,-50,-200,one,0,-50,-200,,,,,0,89,89,48,,,,,,,,,,,down,0.48478300002170727,779.4800816000206,None,779.4800816000206,None,779.9965314000146,None,779.9965314000146,None,779.9965314000146,None,781.9799382000056,None,781.9799382000056,None,781.9799382000056,None,779.9965314000146,None,782.4955410600145,None,782.4955410600145,None,782.4955410600145,None,0.010085960006108508,None,782.4955410600145,None,782.4955410600145,None,782.4955410600145,None,782.4955410600145,None,782.4955410600145,None,782.4955410600145,None,782.505806000001,None,782.505806000001,None,782.505806000001,None,0.0034089600085280836,0.5034089600085281,782.505806000001,None,782.505806000001,None,782.505806000001,None,782.505806000001,None,782.505806000001,None,782.505806000001,None,784.4953398999933,784.4953398999933,5.299999999999997,0.848,0,-400,150,,,,,,,,,,,,,,,,,,,,,,,,,,,,,,,,,,,,,,,,,,,,,,,,,,,,,,,,,,,,,,,,,,,,,,,,,,,,,,,,,,,f,25,lihan,2022_Apr_01_1644,emotion,2021.1.4,60.667389815100144,
14,0,50,0,one,0,50,0,,,,,0,90,90,13,,,,,,,,,,,down,1.6004997999989428,785.3956037000171,None,785.3956037000171,None,787.0157408000086,None,787.0157408000086,None,787.0157408000086,None,788.994400800002,789.4942394999962,788.994400800002,789.4942394999962,788.994400800002,789.4942394999962,787.0157408000086,None,789.5276005600084,None,789.5276005600084,None,789.5276005600084,None,0.011509860021760687,None,789.5276005600084,None,789.5276005600084,None,789.5276005600084,None,789.5276005600084,None,789.5276005600084,None,789.5276005600084,None,789.5370170999959,None,789.5370170999959,None,789.5370170999959,None,0.00437395999324508,0.5043739599932451,789.5370170999959,None,789.5370170999959,None,789.5370170999959,None,789.5370170999959,None,789.5370170999959,None,789.5370170999959,None,791.5272538000136,791.5272538000136,-4.299999999999997,1.398,0,-350,150,,,,,,,,,,,,,,,,,,,,,,,,,,,,,,,,,,,,,,,,,,,,,,,,,,,,,,,,,,,,,,,,,,,,,,,,,,,,,,,,,,,f,25,lihan,2022_Apr_01_1644,emotion,2021.1.4,60.667389815100144,
27,50,50,200,one,50,50,200,,,,,0,91,91,26,,,,,,,,,,,down,4.180289000010816,792.9793703000178,None,792.9793703000178,None,797.17618520002,None,797.17618520002,None,797.17618520002,None,799.1590792000061,799.6586768999987,799.1590792000061,799.6586768999987,799.1590792000061,799.6586768999987,797.17618520002,None,799.6751921599993,None,799.6751921599993,None,799.6751921599993,None,0.00906916000531055,None,799.6751921599993,None,799.6751921599993,None,799.6751921599993,None,799.6751921599993,None,799.6751921599993,None,799.6751921599993,None,799.6873950000154,None,799.6873950000154,None,799.6873950000154,None,0.0008167600026354194,0.5008167600026354,799.6873950000154,None,799.6873950000154,None,799.6873950000154,None,799.6873950000154,None,799.6873950000154,None,799.6873950000154,None,801.6753390000085,801.6753390000085,0.10000000000000142,1.395,50,-300,350,,,,,,,,,,,,,,,,,,,,,,,,,,,,,,,,,,,,,,,,,,,,,,,,,,,,,,,,,,,,,,,,,,,,,,,,,,,,,,,,,,,f,25,lihan,2022_Apr_01_1644,emotion,2021.1.4,60.667389815100144,
89,-200,-50,-200,one,-200,-50,-200,,,,,0,92,92,88,,,,,,,,,,,down,5.4277536000008695,803.124430099997,None,803.124430099997,None,808.5780005000124,None,808.5780005000124,None,808.5780005000124,None,810.5568180000118,811.056501300016,810.5568180000118,811.056501300016,810.5568180000118,811.056501300016,808.5780005000124,None,811.0897856599971,None,811.0897856599971,None,811.0897856599971,None,0.011431360006099567,None,811.0897856599971,None,811.0897856599971,None,811.0897856599971,None,811.0897856599971,None,811.0897856599971,None,811.0897856599971,None,811.0998349000001,None,811.0998349000001,None,811.0998349000001,None,0.00364055999671109,0.5036405599967111,811.0998349000001,None,811.0998349000001,None,811.0998349000001,None,811.0998349000001,None,811.0998349000001,None,811.0998349000001,None,813.0894920999999,813.0894920999999,-3.0,1.24,-150,-350,150,,,,,,,,,,,,,,,,,,,,,,,,,,,,,,,,,,,,,,,,,,,,,,,,,,,,,,,,,,,,,,,,,,,,,,,,,,,,,,,,,,,f,25,lihan,2022_Apr_01_1644,emotion,2021.1.4,60.667389815100144,
75,-50,-50,-200,one,-50,-50,-200,,,,,0,93,93,74,,,,,,,,,,,down,0.8359089000150561,814.3876229000161,None,814.3876229000161,None,815.255658900016,None,815.255658900016,None,815.255658900016,None,817.2387995000172,817.7388098000083,817.2387995000172,817.7388098000083,817.2387995000172,817.7388098000083,815.255658900016,None,817.7553250600089,None,817.7553250600089,None,817.7553250600089,None,0.009237960010068491,None,817.7553250600089,None,817.7553250600089,None,817.7553250600089,None,817.7553250600089,None,817.7553250600089,None,817.7553250600089,None,817.7685529000009,None,817.7685529000009,None,817.7685529000009,None,0.0001560600067023188,0.5001560600067023,817.7685529000009,None,817.7685529000009,None,817.7685529000009,None,817.7685529000009,None,817.7685529000009,None,817.7685529000009,None,819.7549887000059,819.7549887000059,-0.29999999999999716,2.258,-200,-400,-50,,,,,,,,,,,,,,,,,,,,,,,,,,,,,,,,,,,,,,,,,,,,,,,,,,,,,,,,,,,,,,,,,,,,,,,,,,,,,,,,,,,f,25,lihan,2022_Apr_01_1644,emotion,2021.1.4,60.667389815100144,
