trialNumber,mychoice,otherchoice,stay,skip,pointsWon,otherScore,unobtained,choicepos,pos_1,otherscore,allowedkeyresp,trials_2.thisRepN,trials_2.thisTrialN,trials_2.thisN,trials_2.thisIndex,trials.thisRepN,trials.thisTrialN,trials.thisN,trials.thisIndex,image_2.started,image_2.stopped,key_resp_2.keys,key_resp_2.rt,key_resp_2.started,key_resp_2.stopped,key_resp_6.keys,key_resp_6.rt,key_resp_6.started,key_resp_6.stopped,text.started,text.stopped,left_3.started,left_3.stopped,middle_3.started,middle_3.stopped,right_3.started,right_3.stopped,otherleft_1.started,otherleft_1.stopped,othermiddle_1.started,othermiddle_1.stopped,otherright_1.started,otherright_1.stopped,text_2.started,text_2.stopped,left_4.started,left_4.stopped,right_4.started,right_4.stopped,middle_4.started,middle_4.stopped,ISI_3.started,ISI_3.stopped,mypick.started,mypick.stopped,otherpick.started,otherpick.stopped,residal.started,residal.stopped,otherleft_5.started,otherleft_5.stopped,othermiddle_5.started,othermiddle_5.stopped,otherright_5.started,otherright_5.stopped,left_5.started,left_5.stopped,right_5.started,right_5.stopped,middle_5.started,middle_5.stopped,ISI_5.started,ISI_5.stopped,mypick_1.started,mypick_1.stopped,otherpick_1.started,otherpick_1.stopped,residal_1.started,residal_1.stopped,otherleft_6.started,otherleft_6.stopped,othermiddle_6.started,othermiddle_6.stopped,otherright_6.started,otherright_6.stopped,text_3.started,text_3.stopped,rating,ratingrt,totalScore,othertotalScore,unobtainedScore,image_4.started,image_4.stopped,key_resp_3.keys,key_resp_3.rt,key_resp_3.started,key_resp_3.stopped,image_5.started,image_5.stopped,key_resp.keys,key_resp.rt,key_resp.started,key_resp.stopped,otherleft_3.started,otherleft_3.stopped,othermiddle_3.started,othermiddle_3.stopped,otherright_3.started,otherright_3.stopped,text_4.started,text_4.stopped,ISI_2.started,ISI_2.stopped,key_resp_4.keys,key_resp_4.rt,key_resp_4.started,key_resp_4.stopped,otherleft_4.started,otherleft_4.stopped,othermiddle_4.started,othermiddle_4.stopped,otherright_4.started,otherright_4.stopped,text_5.started,text_5.stopped,left.started,left.stopped,right.started,right.stopped,middle.started,middle.stopped,ISI.started,ISI.stopped,mypick_3.started,mypick_3.stopped,otherpick_3.started,otherpick_3.stopped,residal_3.started,residal_3.stopped,otherleft.started,otherleft.stopped,othermiddle.started,othermiddle.stopped,otherright.started,otherright.stopped,right_2.started,right_2.stopped,middle_2.started,middle_2.stopped,left_2.started,left_2.stopped,ISI_4.started,ISI_4.stopped,mypick_4.started,mypick_4.stopped,otherpick_4.started,otherpick_4.stopped,residal_4.started,residal_4.stopped,otherleft_2.started,otherleft_2.stopped,othermiddle_2.started,othermiddle_2.stopped,otherright_2.started,otherright_2.stopped,text_6.started,text_6.stopped,image_3.started,image_3.stopped,key_resp_9.keys,key_resp_9.rt,key_resp_9.started,key_resp_9.stopped,gender,age,participant,date,expName,psychopyVersion,frameRate,
,,,,,,,,,,,,,,,,,,,,31.43768369999998,None,space,12.060033700000076,31.43768369999998,None,,,,,,,,,,,,,,,,,,,,,,,,,,,,,,,,,,,,,,,,,,,,,,,,,,,,,,,,,,,,,,,,,,,,,,,,,,,,,,,,,,,,,,,,,,,,,,,,,,,,,,,,,,,,,,,,,,,,,,,,,,,,,,,,,,,,,,,,,,,,,,,,,,,,,,f,24,lijia,2022-04-01_09h03.20.991,emotion,2022.1.2,60.06673414166093,
48,50,200,200,two,50,200,200,,,,,0,0,0,47,,,,,,,,,,,right,4.978414499999872,43.55630599999995,None,43.55630599999995,None,48.56384769999977,None,48.56384769999977,None,48.56384769999977,None,50.54597469999999,51.045821799999885,50.54597469999999,51.045821799999885,50.54597469999999,51.045821799999885,48.56384769999977,None,51.07942225999996,None,51.07942225999996,None,51.07942225999996,None,0.0018157599997721263,None,51.07942225999996,None,51.07942225999996,None,51.07942225999996,None,51.07942225999996,None,51.07942225999996,None,51.07942225999996,None,51.097820200000115,None,51.097820200000115,None,51.097820200000115,None,0.010312120000435243,0.5103121200004352,51.097820200000115,None,51.097820200000115,None,51.097820200000115,None,51.097820200000115,None,51.097820200000115,None,51.097820200000115,None,53.07857719999993,53.07857719999993,0.0,5.42,250,200,200,,,,,,,,,,,,,,,,,,,,,,,,,,,,,,,,,,,,,,,,,,,,,,,,,,,,,,,,,,,,,,,,,,,,,,,,,,,,,,,,,,,f,24,lijia,2022-04-01_09h03.20.991,emotion,2022.1.2,60.06673414166093,
32,50,200,50,two,50,200,50,,,,,0,1,1,31,,,,,,,,,,,right,5.76599060000035,58.609226500000204,None,58.609226500000204,None,64.40651990000015,None,64.40651990000015,None,64.40651990000015,None,66.3889178999998,66.88881249999986,66.3889178999998,66.88881249999986,66.3889178999998,66.88881249999986,64.40651990000015,None,66.9222589600001,None,66.9222589600001,None,66.9222589600001,None,0.005202559999816003,None,66.9222589600001,None,66.9222589600001,None,66.9222589600001,None,66.9222589600001,None,66.9222589600001,None,66.9222589600001,None,66.93647439999995,None,66.93647439999995,None,66.93647439999995,None,0.013812320000397449,0.5138123200003974,66.93647439999995,None,66.93647439999995,None,66.93647439999995,None,66.93647439999995,None,66.93647439999995,None,66.93647439999995,None,68.92120079999995,68.92120079999995,0.10000000000000142,7.072,300,400,250,,,,,,,,,,,,,,,,,,,,,,,,,,,,,,,,,,,,,,,,,,,,,,,,,,,,,,,,,,,,,,,,,,,,,,,,,,,,,,,,,,,f,24,lijia,2022-04-01_09h03.20.991,emotion,2022.1.2,60.06673414166093,
14,0,50,0,one,0,50,0,,,,,0,2,2,13,,,,,,,,,,,down,8.164719100000184,76.0677756,None,76.0677756,None,84.26421179999988,None,84.26421179999988,None,84.26421179999988,None,86.24674000000005,86.7464986,86.24674000000005,86.7464986,86.24674000000005,86.7464986,84.26421179999988,None,86.77986036000011,None,86.77986036000011,None,86.77986036000011,None,0.010780159999740135,None,86.77986036000011,None,86.77986036000011,None,86.77986036000011,None,86.77986036000011,None,86.77986036000011,None,86.77986036000011,None,86.7878811999999,None,86.7878811999999,None,86.7878811999999,None,0.004056060000038997,0.504056060000039,86.7878811999999,None,86.7878811999999,None,86.7878811999999,None,86.7878811999999,None,86.7878811999999,None,86.7878811999999,None,88.77858199999991,88.77858199999991,0.0,5.598,300,450,250,,,,,,,,,,,,,,,,,,,,,,,,,,,,,,,,,,,,,,,,,,,,,,,,,,,,,,,,,,,,,,,,,,,,,,,,,,,,,,,,,,,f,24,lijia,2022-04-01_09h03.20.991,emotion,2022.1.2,60.06673414166093,
81,-50,-50,-200,two,-50,-50,-200,,,,,0,3,3,80,,,,,,,,,,,right,5.001512400000138,94.42651609999984,None,94.42651609999984,None,99.45732970000017,None,99.45732970000017,None,99.45732970000017,None,101.43982450000021,101.9394440000001,101.43982450000021,101.9394440000001,101.43982450000021,101.9394440000001,99.45732970000017,None,101.97292136000006,None,101.97292136000006,None,101.97292136000006,None,0.009441359999527776,None,101.97292136000006,None,101.97292136000006,None,101.97292136000006,None,101.97292136000006,None,101.97292136000006,None,101.97292136000006,None,101.98266340000009,None,101.98266340000009,None,101.98266340000009,None,0.0015387599996756762,0.5015387599996757,101.98266340000009,None,101.98266340000009,None,101.98266340000009,None,101.98266340000009,None,101.98266340000009,None,101.98266340000009,None,103.97214399999984,103.97214399999984,1.3999999999999986,4.84,250,400,50,,,,,,,,,,,,,,,,,,,,,,,,,,,,,,,,,,,,,,,,,,,,,,,,,,,,,,,,,,,,,,,,,,,,,,,,,,,,,,,,,,,f,24,lijia,2022-04-01_09h03.20.991,emotion,2022.1.2,60.06673414166093,
12,200,0,50,two,200,0,50,,,,,0,4,4,11,,,,,,,,,,,right,2.13417840000011,108.86970079999992,None,108.86970079999992,None,111.03526860000011,None,111.03526860000011,None,111.03526860000011,None,113.01793820000012,113.51761739999984,113.01793820000012,113.51761739999984,113.01793820000012,113.51761739999984,111.03526860000011,None,113.53427975999985,None,113.53427975999985,None,113.53427975999985,None,0.010210459999598243,None,113.53427975999985,None,113.53427975999985,None,113.53427975999985,None,113.53427975999985,None,113.53427975999985,None,113.53427975999985,None,113.54238309999982,None,113.54238309999982,None,113.54238309999982,None,0.0033046599992303527,0.5033046599992304,113.54238309999982,None,113.54238309999982,None,113.54238309999982,None,113.54238309999982,None,113.54238309999982,None,113.54238309999982,None,115.53352519999999,115.53352519999999,2.5,2.807,450,400,100,,,,,,,,,,,,,,,,,,,,,,,,,,,,,,,,,,,,,,,,,,,,,,,,,,,,,,,,,,,,,,,,,,,,,,,,,,,,,,,,,,,f,24,lijia,2022-04-01_09h03.20.991,emotion,2022.1.2,60.06673414166093,
85,-200,-200,0,one,-200,-200,0,,,,,0,5,5,84,,,,,,,,,,,right,1.871102300000075,118.39828390000002,None,118.39828390000002,None,120.29798879999998,None,120.29798879999998,None,120.29798879999998,None,122.28025410000009,122.77999739999996,122.28025410000009,122.77999739999996,122.28025410000009,122.77999739999996,120.29798879999998,None,122.81354915999982,None,122.81354915999982,None,122.81354915999982,None,0.01035275999993246,None,122.81354915999982,None,122.81354915999982,None,122.81354915999982,None,122.81354915999982,None,122.81354915999982,None,122.81354915999982,None,122.82214509999994,None,122.82214509999994,None,122.82214509999994,None,0.0027284599991617142,0.5027284599991617,122.82214509999994,None,122.82214509999994,None,122.82214509999994,None,122.82214509999994,None,122.82214509999994,None,122.82214509999994,None,124.81227080000008,124.81227080000008,-1.8999999999999986,3.4,250,200,100,,,,,,,,,,,,,,,,,,,,,,,,,,,,,,,,,,,,,,,,,,,,,,,,,,,,,,,,,,,,,,,,,,,,,,,,,,,,,,,,,,,f,24,lijia,2022-04-01_09h03.20.991,emotion,2022.1.2,60.06673414166093,
29,50,0,50,one,50,0,50,,,,,0,6,6,28,,,,,,,,,,,down,3.267628400000376,128.26152030000003,None,128.26152030000003,None,131.55944550000004,None,131.55944550000004,None,131.55944550000004,None,133.54174650000004,134.04164159999982,133.54174650000004,134.04164159999982,133.54174650000004,134.04164159999982,131.55944550000004,None,134.07489195999977,None,134.07489195999977,None,134.07489195999977,None,0.010825759999534057,None,134.07489195999977,None,134.07489195999977,None,134.07489195999977,None,134.07489195999977,None,134.07489195999977,None,134.07489195999977,None,134.08318379999992,None,134.08318379999992,None,134.08318379999992,None,0.003982459999861021,0.503982459999861,134.08318379999992,None,134.08318379999992,None,134.08318379999992,None,134.08318379999992,None,134.08318379999992,None,134.08318379999992,None,136.07418009999992,136.07418009999992,1.7000000000000028,3.187,300,200,150,,,,,,,,,,,,,,,,,,,,,,,,,,,,,,,,,,,,,,,,,,,,,,,,,,,,,,,,,,,,,,,,,,,,,,,,,,,,,,,,,,,f,24,lijia,2022-04-01_09h03.20.991,emotion,2022.1.2,60.06673414166093,
93,0,-200,-200,two,0,-200,-200,,,,,0,7,7,92,,,,,,,,,,,down,3.757560800000192,139.3217122000001,None,139.3217122000001,None,143.1041180000002,None,143.1041180000002,None,143.1041180000002,None,145.08672750000005,145.58645690000003,145.08672750000005,145.58645690000003,145.08672750000005,145.58645690000003,143.1041180000002,None,145.60311926000003,None,145.60311926000003,None,145.60311926000003,None,0.010173859999667911,None,145.60311926000003,None,145.60311926000003,None,145.60311926000003,None,145.60311926000003,None,145.60311926000003,None,145.60311926000003,None,145.61213559999987,None,145.61213559999987,None,145.61213559999987,None,0.001966859999811277,0.5019668599998113,145.61213559999987,None,145.61213559999987,None,145.61213559999987,None,145.61213559999987,None,145.61213559999987,None,145.61213559999987,None,147.6021464999999,147.6021464999999,2.200000000000003,4.515,300,0,-50,,,,,,,,,,,,,,,,,,,,,,,,,,,,,,,,,,,,,,,,,,,,,,,,,,,,,,,,,,,,,,,,,,,,,,,,,,,,,,,,,,,f,24,lijia,2022-04-01_09h03.20.991,emotion,2022.1.2,60.06673414166093,
50,0,-200,-50,one,0,-200,-50,,,,,0,8,8,49,,,,,,,,,,,right,4.683883200000309,152.16707619999988,None,152.16707619999988,None,156.8813553,None,156.8813553,None,156.8813553,None,158.86372290000008,159.3635605999998,158.86372290000008,159.3635605999998,158.86372290000008,159.3635605999998,156.8813553,None,159.39692896000014,None,159.39692896000014,None,159.39692896000014,None,0.010636060000251746,None,159.39692896000014,None,159.39692896000014,None,159.39692896000014,None,159.39692896000014,None,159.39692896000014,None,159.39692896000014,None,159.4054083000001,None,159.4054083000001,None,159.4054083000001,None,0.003888460000325722,0.5038884600003257,159.4054083000001,None,159.4054083000001,None,159.4054083000001,None,159.4054083000001,None,159.4054083000001,None,159.4054083000001,None,161.39594380000017,161.39594380000017,3.3999999999999986,2.808,300,-200,-100,,,,,,,,,,,,,,,,,,,,,,,,,,,,,,,,,,,,,,,,,,,,,,,,,,,,,,,,,,,,,,,,,,,,,,,,,,,,,,,,,,,f,24,lijia,2022-04-01_09h03.20.991,emotion,2022.1.2,60.06673414166093,
91,-200,-200,0,two,-200,-200,0,,,,,0,9,9,90,,,,,,,,,,,right,1.9564120000000003,164.26081429999977,None,164.26081429999977,None,166.24387479999996,None,166.24387479999996,None,166.24387479999996,None,168.22624559999986,168.72598400000015,168.22624559999986,168.72598400000015,168.22624559999986,168.72598400000015,166.24387479999996,None,168.75934276000015,None,168.75934276000015,None,168.75934276000015,None,0.01055895999979839,None,168.75934276000015,None,168.75934276000015,None,168.75934276000015,None,168.75934276000015,None,168.75934276000015,None,168.75934276000015,None,168.7677394000002,None,168.7677394000002,None,168.7677394000002,None,0.003834759999790549,0.5038347599997905,168.7677394000002,None,168.7677394000002,None,168.7677394000002,None,168.7677394000002,None,168.7677394000002,None,168.7677394000002,None,170.75824909999983,170.75824909999983,0.0,5.024,100,-400,-100,,,,,,,,,,,,,,,,,,,,,,,,,,,,,,,,,,,,,,,,,,,,,,,,,,,,,,,,,,,,,,,,,,,,,,,,,,,,,,,,,,,f,24,lijia,2022-04-01_09h03.20.991,emotion,2022.1.2,60.06673414166093,
88,-200,-200,-50,one,-200,-200,-50,,,,,0,10,10,87,,,,,,,,,,,right,1.8655855000001793,175.8393519000001,None,175.8393519000001,None,177.72199749999982,None,177.72199749999982,None,177.72199749999982,None,179.70433259999982,180.2042104000002,179.70433259999982,180.2042104000002,179.70433259999982,180.2042104000002,177.72199749999982,None,180.23743156000018,None,180.23743156000018,None,180.23743156000018,None,0.010554559999491175,None,180.23743156000018,None,180.23743156000018,None,180.23743156000018,None,180.23743156000018,None,180.23743156000018,None,180.23743156000018,None,180.24618950000013,None,180.24618950000013,None,180.24618950000013,None,0.002753859999756969,0.502753859999757,180.24618950000013,None,180.24618950000013,None,180.24618950000013,None,180.24618950000013,None,180.24618950000013,None,180.24618950000013,None,182.23671719999993,182.23671719999993,1.3999999999999986,3.887,-100,-600,-150,,,,,,,,,,,,,,,,,,,,,,,,,,,,,,,,,,,,,,,,,,,,,,,,,,,,,,,,,,,,,,,,,,,,,,,,,,,,,,,,,,,f,24,lijia,2022-04-01_09h03.20.991,emotion,2022.1.2,60.06673414166093,
69,-50,0,0,two,-50,0,0,,,,,0,11,11,68,,,,,,,,,,,right,1.4342492000000675,186.1835259999998,None,186.1835259999998,None,187.6338823000001,None,187.6338823000001,None,187.6338823000001,None,189.6164303999999,190.1162002000001,189.6164303999999,190.1162002000001,189.6164303999999,190.1162002000001,187.6338823000001,None,190.14958865999978,None,190.14958865999978,None,190.14958865999978,None,0.010905159999310854,None,190.14958865999978,None,190.14958865999978,None,190.14958865999978,None,190.14958865999978,None,190.14958865999978,None,190.14958865999978,None,190.1577557999999,None,190.1577557999999,None,190.1577557999999,None,0.00441945999955351,0.5044194599995535,190.1577557999999,None,190.1577557999999,None,190.1577557999999,None,190.1577557999999,None,190.1577557999999,None,190.1577557999999,None,192.14870729999984,192.14870729999984,-1.5,3.793,-150,-600,-150,,,,,,,,,,,,,,,,,,,,,,,,,,,,,,,,,,,,,,,,,,,,,,,,,,,,,,,,,,,,,,,,,,,,,,,,,,,,,,,,,,,f,24,lijia,2022-04-01_09h03.20.991,emotion,2022.1.2,60.06673414166093,
75,-50,-50,-200,one,-50,-50,-200,,,,,0,12,12,74,,,,,,,,,,,down,2.680487500000254,195.9966846000002,None,195.9966846000002,None,198.69575669999995,None,198.69575669999995,None,198.69575669999995,None,200.67814480000015,201.17809690000013,200.67814480000015,201.17809690000013,200.67814480000015,201.17809690000013,198.69575669999995,None,201.19475926000013,None,201.19475926000013,None,201.19475926000013,None,0.010170360000302026,None,201.19475926000013,None,201.19475926000013,None,201.19475926000013,None,201.19475926000013,None,201.19475926000013,None,201.19475926000013,None,201.20408309999993,None,201.20408309999993,None,201.20408309999993,None,0.002406659999905969,0.502406659999906,201.20408309999993,None,201.20408309999993,None,201.20408309999993,None,201.20408309999993,None,201.20408309999993,None,201.20408309999993,None,203.1936756,203.1936756,0.0,6.877,-200,-650,-350,,,,,,,,,,,,,,,,,,,,,,,,,,,,,,,,,,,,,,,,,,,,,,,,,,,,,,,,,,,,,,,,,,,,,,,,,,,,,,,,,,,f,24,lijia,2022-04-01_09h03.20.991,emotion,2022.1.2,60.06673414166093,
45,0,200,200,two,0,200,200,,,,,0,13,13,44,,,,,,,,,,,right,1.4774632000003294,210.12369510000008,None,210.12369510000008,None,211.62308040000016,None,211.62308040000016,None,211.62308040000016,None,213.60534439999992,214.10521590000008,213.60534439999992,214.10521590000008,213.60534439999992,214.10521590000008,211.62308040000016,None,214.13873686000005,None,214.13873686000005,None,214.13873686000005,None,0.010579059999599849,None,214.13873686000005,None,214.13873686000005,None,214.13873686000005,None,214.13873686000005,None,214.13873686000005,None,214.13873686000005,None,214.14696330000015,None,214.14696330000015,None,214.14696330000015,None,0.004031060000215803,0.5040310600002158,214.14696330000015,None,214.14696330000015,None,214.14696330000015,None,214.14696330000015,None,214.14696330000015,None,214.14696330000015,None,216.1378623999999,216.1378623999999,0.10000000000000142,10.052,-200,-450,-150,,,,,,,,,,,,,,,,,,,,,,,,,,,,,,,,,,,,,,,,,,,,,,,,,,,,,,,,,,,,,,,,,,,,,,,,,,,,,,,,,,,f,24,lijia,2022-04-01_09h03.20.991,emotion,2022.1.2,60.06673414166093,
60,-200,0,-50,two,-200,0,-50,,,,,0,14,14,59,,,,,,,,,,,right,4.1238852999999835,226.2490057,None,226.2490057,None,230.39799679999987,None,230.39799679999987,None,230.39799679999987,None,232.3804667999998,232.88041999999996,232.3804667999998,232.88041999999996,232.3804667999998,232.88041999999996,230.39799679999987,None,232.89708235999996,None,232.89708235999996,None,232.89708235999996,None,0.010325759999886941,None,232.89708235999996,None,232.89708235999996,None,232.89708235999996,None,232.89708235999996,None,232.89708235999996,None,232.89708235999996,None,232.9052929999998,None,232.9052929999998,None,232.9052929999998,None,0.003318559999570425,0.5033185599995704,232.9052929999998,None,232.9052929999998,None,232.9052929999998,None,232.9052929999998,None,232.9052929999998,None,232.9052929999998,None,234.8960791999998,234.8960791999998,-1.2000000000000028,3.515,-400,-450,-200,,,,,,,,,,,,,,,,,,,,,,,,,,,,,,,,,,,,,,,,,,,,,,,,,,,,,,,,,,,,,,,,,,,,,,,,,,,,,,,,,,,f,24,lijia,2022-04-01_09h03.20.991,emotion,2022.1.2,60.06673414166093,
65,0,-200,0,one,0,-200,0,,,,,0,15,15,64,,,,,,,,,,,down,2.91592350000019,238.4609733000002,None,238.4609733000002,None,241.40982010000016,None,241.40982010000016,None,241.40982010000016,None,243.3922894000002,243.89197299999978,243.3922894000002,243.89197299999978,243.3922894000002,243.89197299999978,241.40982010000016,None,243.92534705999986,None,243.92534705999986,None,243.92534705999986,None,0.010760659999505151,None,243.92534705999986,None,243.92534705999986,None,243.92534705999986,None,243.92534705999986,None,243.92534705999986,None,243.92534705999986,None,243.9337660000001,None,243.9337660000001,None,243.9337660000001,None,0.003707159999976284,0.5037071599999763,243.9337660000001,None,243.9337660000001,None,243.9337660000001,None,243.9337660000001,None,243.9337660000001,None,243.9337660000001,None,245.9243637999998,245.9243637999998,1.8999999999999986,3.833,-400,-650,-200,,,,,,,,,,,,,,,,,,,,,,,,,,,,,,,,,,,,,,,,,,,,,,,,,,,,,,,,,,,,,,,,,,,,,,,,,,,,,,,,,,,f,24,lijia,2022-04-01_09h03.20.991,emotion,2022.1.2,60.06673414166093,
53,-200,-50,0,one,-200,-50,0,,,,,0,16,16,52,,,,,,,,,,,right,1.286881099999846,249.8214082999998,None,249.8214082999998,None,251.1384039999998,None,251.1384039999998,None,251.1384039999998,None,253.12115409999979,253.6208247999998,253.12115409999979,253.6208247999998,253.12115409999979,253.6208247999998,251.1384039999998,None,253.6374871599998,None,253.6374871599998,None,253.6374871599998,None,0.010394959999302955,None,253.6374871599998,None,253.6374871599998,None,253.6374871599998,None,253.6374871599998,None,253.6374871599998,None,253.6374871599998,None,253.6465401999999,None,253.6465401999999,None,253.6465401999999,None,0.002773359999537206,0.5027733599995372,253.6465401999999,None,253.6465401999999,None,253.6465401999999,None,253.6465401999999,None,253.6465401999999,None,253.6465401999999,None,255.63621460000013,255.63621460000013,-1.7000000000000028,2.228,-600,-700,-200,,,,,,,,,,,,,,,,,,,,,,,,,,,,,,,,,,,,,,,,,,,,,,,,,,,,,,,,,,,,,,,,,,,,,,,,,,,,,,,,,,,f,24,lijia,2022-04-01_09h03.20.991,emotion,2022.1.2,60.06673414166093,
54,-200,0,-50,one,-200,0,-50,,,,,0,17,17,53,,,,,,,,,,,down,1.4694917000001624,257.9187364999998,None,257.9187364999998,None,259.41833769999994,None,259.41833769999994,None,259.41833769999994,None,261.4005763,261.90031880000015,261.4005763,261.90031880000015,261.4005763,261.90031880000015,259.41833769999994,None,261.93357055999985,None,261.93357055999985,None,261.93357055999985,None,0.010683959999369108,None,261.93357055999985,None,261.93357055999985,None,261.93357055999985,None,261.93357055999985,None,261.93357055999985,None,261.93357055999985,None,261.9415006999998,None,261.9415006999998,None,261.9415006999998,None,0.0038404599995374156,0.5038404599995374,261.9415006999998,None,261.9415006999998,None,261.9415006999998,None,261.9415006999998,None,261.9415006999998,None,261.9415006999998,None,263.9329336999999,263.9329336999999,-0.20000000000000284,3.464,-800,-700,-250,,,,,,,,,,,,,,,,,,,,,,,,,,,,,,,,,,,,,,,,,,,,,,,,,,,,,,,,,,,,,,,,,,,,,,,,,,,,,,,,,,,f,24,lijia,2022-04-01_09h03.20.991,emotion,2022.1.2,60.06673414166093,
57,-50,0,-200,two,-50,0,-200,,,,,0,18,18,56,,,,,,,,,,,right,1.4479246000000785,267.4474411000001,None,267.4474411000001,None,268.91407919999983,None,268.91407919999983,None,268.91407919999983,None,270.8964368000002,271.39625879999994,270.8964368000002,271.39625879999994,270.8964368000002,271.39625879999994,268.91407919999983,None,271.4293176600001,None,271.4293176600001,None,271.4293176600001,None,0.010425360000226647,None,271.4293176600001,None,271.4293176600001,None,271.4293176600001,None,271.4293176600001,None,271.4293176600001,None,271.4293176600001,None,271.43817179999996,None,271.43817179999996,None,271.43817179999996,None,0.0036751599996023288,0.5036751599996023,271.43817179999996,None,271.43817179999996,None,271.43817179999996,None,271.43817179999996,None,271.43817179999996,None,271.43817179999996,None,273.42820230000007,273.42820230000007,-1.0,16.15,-850,-700,-450,,,,,,,,,,,,,,,,,,,,,,,,,,,,,,,,,,,,,,,,,,,,,,,,,,,,,,,,,,,,,,,,,,,,,,,,,,,,,,,,,,,f,24,lijia,2022-04-01_09h03.20.991,emotion,2022.1.2,60.06673414166093,
25,200,50,50,one,200,50,50,,,,,0,19,19,24,,,,,,,,,,,right,1.1229348000001664,289.6365086999999,None,289.6365086999999,None,290.78739300000007,None,290.78739300000007,None,290.78739300000007,None,292.76983729999984,293.26943100000017,292.76983729999984,293.26943100000017,292.76983729999984,293.26943100000017,290.78739300000007,None,293.30281936,None,293.30281936,None,293.30281936,None,0.010574259999884816,None,293.30281936,None,293.30281936,None,293.30281936,None,293.30281936,None,293.30281936,None,293.30281936,None,293.31093139999984,None,293.31093139999984,None,293.31093139999984,None,0.004129160000047705,0.5041291600000477,293.31093139999984,None,293.31093139999984,None,293.31093139999984,None,293.31093139999984,None,293.31093139999984,None,293.31093139999984,None,295.30194630000005,295.30194630000005,0.8999999999999986,2.568,-650,-650,-400,,,,,,,,,,,,,,,,,,,,,,,,,,,,,,,,,,,,,,,,,,,,,,,,,,,,,,,,,,,,,,,,,,,,,,,,,,,,,,,,,,,f,24,lijia,2022-04-01_09h03.20.991,emotion,2022.1.2,60.06673414166093,
79,-200,-50,-50,two,-200,-50,-50,,,,,0,20,20,78,,,,,,,,,,,down,2.713694399999895,297.9328793999998,None,297.9328793999998,None,300.6662394,None,300.6662394,None,300.6662394,None,302.6486258,303.14798599999995,302.6486258,303.14798599999995,302.6486258,303.14798599999995,300.6662394,None,303.1815934600001,None,303.1815934600001,None,303.1815934600001,None,0.01015955999992002,None,303.1815934600001,None,303.1815934600001,None,303.1815934600001,None,303.1815934600001,None,303.1815934600001,None,303.1815934600001,None,303.1903035999999,None,303.1903035999999,None,303.1903035999999,None,0.002736359999744309,0.5027363599997443,303.1903035999999,None,303.1903035999999,None,303.1903035999999,None,303.1903035999999,None,303.1903035999999,None,303.1903035999999,None,305.1808550999999,305.1808550999999,0.0,2.894,-850,-700,-450,,,,,,,,,,,,,,,,,,,,,,,,,,,,,,,,,,,,,,,,,,,,,,,,,,,,,,,,,,,,,,,,,,,,,,,,,,,,,,,,,,,f,24,lijia,2022-04-01_09h03.20.991,emotion,2022.1.2,60.06673414166093,
5,200,50,0,one,200,50,0,,,,,0,21,21,4,,,,,,,,,,,right,1.5132641000000149,308.1292075000001,None,308.1292075000001,None,309.6622305000001,None,309.6622305000001,None,309.6622305000001,None,311.6443840000002,312.14429710000013,311.6443840000002,312.14429710000013,311.6443840000002,312.14429710000013,309.6622305000001,None,312.1774324599998,None,312.1774324599998,None,312.1774324599998,None,0.010570659999757481,None,312.1774324599998,None,312.1774324599998,None,312.1774324599998,None,312.1774324599998,None,312.1774324599998,None,312.1774324599998,None,312.1860766,None,312.1860766,None,312.1860766,None,0.003922959999727027,0.503922959999727,312.1860766,None,312.1860766,None,312.1860766,None,312.1860766,None,312.1860766,None,312.1860766,None,314.17664990000003,314.17664990000003,1.0,2.222,-650,-650,-450,,,,,,,,,,,,,,,,,,,,,,,,,,,,,,,,,,,,,,,,,,,,,,,,,,,,,,,,,,,,,,,,,,,,,,,,,,,,,,,,,,,f,24,lijia,2022-04-01_09h03.20.991,emotion,2022.1.2,60.06673414166093,
89,-200,-50,-200,one,-200,-50,-200,,,,,0,22,22,88,,,,,,,,,,,down,2.1485634000000573,316.4579982,None,316.4579982,None,318.6244157000001,None,318.6244157000001,None,318.6244157000001,None,320.6069432999998,321.10697560000017,320.6069432999998,321.10697560000017,320.6069432999998,321.10697560000017,318.6244157000001,None,321.12363796000017,None,321.12363796000017,None,321.12363796000017,None,0.009554459999890241,None,321.12363796000017,None,321.12363796000017,None,321.12363796000017,None,321.12363796000017,None,321.12363796000017,None,321.12363796000017,None,321.13275280000016,None,321.13275280000016,None,321.13275280000016,None,0.001870260000032431,0.5018702600000324,321.13275280000016,None,321.13275280000016,None,321.13275280000016,None,321.13275280000016,None,321.13275280000016,None,321.13275280000016,None,323.12257039999986,323.12257039999986,-0.8999999999999986,3.407,-850,-700,-650,,,,,,,,,,,,,,,,,,,,,,,,,,,,,,,,,,,,,,,,,,,,,,,,,,,,,,,,,,,,,,,,,,,,,,,,,,,,,,,,,,,f,24,lijia,2022-04-01_09h03.20.991,emotion,2022.1.2,60.06673414166093,
13,0,0,50,one,0,0,50,,,,,0,23,23,12,,,,,,,,,,,right,1.4794067000002542,326.58678150000014,None,326.58678150000014,None,328.0871539999998,None,328.0871539999998,None,328.0871539999998,None,330.06932499999994,330.56942949999984,330.06932499999994,330.56942949999984,330.06932499999994,330.56942949999984,328.0871539999998,None,330.60255995999995,None,330.60255995999995,None,330.60255995999995,None,0.010922460000074352,None,330.60255995999995,None,330.60255995999995,None,330.60255995999995,None,330.60255995999995,None,330.60255995999995,None,330.60255995999995,None,330.61012389999996,None,330.61012389999996,None,330.61012389999996,None,0.00470495999979903,0.504704959999799,330.61012389999996,None,330.61012389999996,None,330.61012389999996,None,330.61012389999996,None,330.61012389999996,None,330.61012389999996,None,332.60157849999996,332.60157849999996,0.8999999999999986,2.411,-850,-700,-600,,,,,,,,,,,,,,,,,,,,,,,,,,,,,,,,,,,,,,,,,,,,,,,,,,,,,,,,,,,,,,,,,,,,,,,,,,,,,,,,,,,f,24,lijia,2022-04-01_09h03.20.991,emotion,2022.1.2,60.06673414166093,
43,200,200,0,two,200,200,0,,,,,0,24,24,42,,,,,,,,,,,down,5.319982800000162,335.0672042000001,None,335.0672042000001,None,340.41493420000006,None,340.41493420000006,None,340.41493420000006,None,342.39720050000005,342.8971563,342.39720050000005,342.8971563,342.39720050000005,342.8971563,340.41493420000006,None,342.93004395999986,None,342.93004395999986,None,342.93004395999986,None,0.010664959999758139,None,342.93004395999986,None,342.93004395999986,None,342.93004395999986,None,342.93004395999986,None,342.93004395999986,None,342.93004395999986,None,342.9380900000001,None,342.9380900000001,None,342.9380900000001,None,0.0041921599995475844,0.5041921599995476,342.9380900000001,None,342.9380900000001,None,342.9380900000001,None,342.9380900000001,None,342.9380900000001,None,342.9380900000001,None,344.92939879999994,344.92939879999994,0.0,4.512,-650,-500,-600,,,,,,,,,,,,,,,,,,,,,,,,,,,,,,,,,,,,,,,,,,,,,,,,,,,,,,,,,,,,,,,,,,,,,,,,,,,,,,,,,,,f,24,lijia,2022-04-01_09h03.20.991,emotion,2022.1.2,60.06673414166093,
10,50,200,0,two,50,200,0,,,,,0,25,25,9,,,,,,,,,,,right,3.22578330000033,349.4939813000001,None,349.4939813000001,None,352.7426664999998,None,352.7426664999998,None,352.7426664999998,None,354.72503629999983,355.22459879999997,354.72503629999983,355.22459879999997,354.72503629999983,355.22459879999997,352.7426664999998,None,355.25809666000004,None,355.25809666000004,None,355.25809666000004,None,0.010664660000202275,None,355.25809666000004,None,355.25809666000004,None,355.25809666000004,None,355.25809666000004,None,355.25809666000004,None,355.25809666000004,None,355.2662405000001,None,355.2662405000001,None,355.2662405000001,None,0.003940659999898344,0.5039406599998983,355.2662405000001,None,355.2662405000001,None,355.2662405000001,None,355.2662405000001,None,355.2662405000001,None,355.2662405000001,None,357.25730909999993,357.25730909999993,-1.5,2.113,-600,-300,-600,,,,,,,,,,,,,,,,,,,,,,,,,,,,,,,,,,,,,,,,,,,,,,,,,,,,,,,,,,,,,,,,,,,,,,,,,,,,,,,,,,,f,24,lijia,2022-04-01_09h03.20.991,emotion,2022.1.2,60.06673414166093,
18,200,0,0,one,200,0,0,,,,,0,26,26,17,,,,,,,,,,,right,5.012990799999898,359.4225842999999,None,359.4225842999999,None,364.45414010000013,None,364.45414010000013,None,364.45414010000013,None,366.43634470000006,366.9359258999998,366.43634470000006,366.9359258999998,366.43634470000006,366.9359258999998,364.45414010000013,None,366.96953516,None,366.96953516,None,366.96953516,None,0.01105916000005891,None,366.96953516,None,366.96953516,None,366.96953516,None,366.96953516,None,366.96953516,None,366.96953516,None,366.9774478999998,None,366.9774478999998,None,366.9774478999998,None,0.0045845599997846875,0.5045845599997847,366.9774478999998,None,366.9774478999998,None,366.9774478999998,None,366.9774478999998,None,366.9774478999998,None,366.9774478999998,None,368.9684143999998,368.9684143999998,2.700000000000003,3.383,-400,-300,-600,,,,,,,,,,,,,,,,,,,,,,,,,,,,,,,,,,,,,,,,,,,,,,,,,,,,,,,,,,,,,,,,,,,,,,,,,,,,,,,,,,,f,24,lijia,2022-04-01_09h03.20.991,emotion,2022.1.2,60.06673414166093,
59,-200,-50,0,two,-200,-50,0,,,,,0,27,27,58,,,,,,,,,,,down,1.5319500000000517,372.40122740000015,None,372.40122740000015,None,373.9498434000002,None,373.9498434000002,None,373.9498434000002,None,375.9320207999999,376.43196769999986,375.9320207999999,376.43196769999986,375.9320207999999,376.43196769999986,373.9498434000002,None,376.4651434600002,None,376.4651434600002,None,376.4651434600002,None,0.010823860000073182,None,376.4651434600002,None,376.4651434600002,None,376.4651434600002,None,376.4651434600002,None,376.4651434600002,None,376.4651434600002,None,376.47299599999997,None,376.47299599999997,None,376.47299599999997,None,0.004292860000077781,0.5042928600000778,376.47299599999997,None,376.47299599999997,None,376.47299599999997,None,376.47299599999997,None,376.47299599999997,None,376.47299599999997,None,378.4643464999999,378.4643464999999,-2.1000000000000014,3.07,-600,-350,-600,,,,,,,,,,,,,,,,,,,,,,,,,,,,,,,,,,,,,,,,,,,,,,,,,,,,,,,,,,,,,,,,,,,,,,,,,,,,,,,,,,,f,24,lijia,2022-04-01_09h03.20.991,emotion,2022.1.2,60.06673414166093,
15,50,0,0,one,50,0,0,,,,,0,28,28,14,,,,,,,,,,,right,3.197535600000265,381.5948659999999,None,381.5948659999999,None,384.8112590999999,None,384.8112590999999,None,384.8112590999999,None,386.7933855000001,387.29336839999996,386.7933855000001,387.29336839999996,386.7933855000001,387.29336839999996,384.8112590999999,None,387.3269932599998,None,387.3269932599998,None,387.3269932599998,None,0.010795659999530471,None,387.3269932599998,None,387.3269932599998,None,387.3269932599998,None,387.3269932599998,None,387.3269932599998,None,387.3269932599998,None,387.3349357000002,None,387.3349357000002,None,387.3349357000002,None,0.0044848600000477745,0.5044848600000478,387.3349357000002,None,387.3349357000002,None,387.3349357000002,None,387.3349357000002,None,387.3349357000002,None,387.3349357000002,None,389.32594419999987,389.32594419999987,1.0,3.345,-550,-350,-600,,,,,,,,,,,,,,,,,,,,,,,,,,,,,,,,,,,,,,,,,,,,,,,,,,,,,,,,,,,,,,,,,,,,,,,,,,,,,,,,,,,f,24,lijia,2022-04-01_09h03.20.991,emotion,2022.1.2,60.06673414166093,
83,-50,0,-50,two,-50,0,-50,,,,,0,29,29,82,,,,,,,,,,,left,2.7111987000002955,392.72419020000007,None,392.72419020000007,None,395.4564816000002,None,395.4564816000002,None,395.4564816000002,None,397.43897179999976,397.9388568999998,397.43897179999976,397.9388568999998,397.43897179999976,397.9388568999998,395.4564816000002,None,397.9555192599998,None,397.9555192599998,None,397.9555192599998,None,0.010519559999465855,None,397.9555192599998,None,397.9555192599998,None,397.9555192599998,None,397.9555192599998,None,397.9555192599998,None,397.9555192599998,None,397.9638163999998,None,397.9638163999998,None,397.9638163999998,None,0.004202059999897756,0.5042020599998978,397.9638163999998,None,397.9638163999998,None,397.9638163999998,None,397.9638163999998,None,397.9638163999998,None,397.9638163999998,None,399.9541215999998,399.9541215999998,-0.20000000000000284,3.178,-600,-350,-650,,,,,,,,,,,,,,,,,,,,,,,,,,,,,,,,,,,,,,,,,,,,,,,,,,,,,,,,,,,,,,,,,,,,,,,,,,,,,,,,,,,f,24,lijia,2022-04-01_09h03.20.991,emotion,2022.1.2,60.06673414166093,
64,0,0,-200,one,0,0,-200,,,,,0,30,30,63,,,,,,,,,,,right,2.650308600000244,403.18625329999986,None,403.18625329999986,None,405.86855060000016,None,405.86855060000016,None,405.86855060000016,None,407.85072919999993,408.3504785,407.85072919999993,408.3504785,407.85072919999993,408.3504785,405.86855060000016,None,408.3839706599999,None,408.3839706599999,None,408.3839706599999,None,0.010659060000307363,None,408.3839706599999,None,408.3839706599999,None,408.3839706599999,None,408.3839706599999,None,408.3839706599999,None,408.3839706599999,None,408.3919181000001,None,408.3919181000001,None,408.3919181000001,None,0.004237659999944299,0.5042376599999443,408.3919181000001,None,408.3919181000001,None,408.3919181000001,None,408.3919181000001,None,408.3919181000001,None,408.3919181000001,None,410.38312640000004,410.38312640000004,1.0,4.042,-600,-350,-850,,,,,,,,,,,,,,,,,,,,,,,,,,,,,,,,,,,,,,,,,,,,,,,,,,,,,,,,,,,,,,,,,,,,,,,,,,,,,,,,,,,f,24,lijia,2022-04-01_09h03.20.991,emotion,2022.1.2,60.06673414166093,
17,0,200,0,one,0,200,0,,,,,0,31,31,16,,,,,,,,,,,down,4.287178699999913,414.4814201999998,None,414.4814201999998,None,418.7958257999999,None,418.7958257999999,None,418.7958257999999,None,420.7784735,421.27812589999985,420.7784735,421.27812589999985,420.7784735,421.27812589999985,418.7958257999999,None,421.31125816,None,421.31125816,None,421.31125816,None,0.011083359999702225,None,421.31125816,None,421.31125816,None,421.31125816,None,421.31125816,None,421.31125816,None,421.31125816,None,421.31923670000015,None,421.31923670000015,None,421.31923670000015,None,0.00466495999990002,0.5046649599999,421.31923670000015,None,421.31923670000015,None,421.31923670000015,None,421.31923670000015,None,421.31923670000015,None,421.31923670000015,None,423.31044919999977,423.31044919999977,-1.3999999999999986,2.092,-600,-150,-850,,,,,,,,,,,,,,,,,,,,,,,,,,,,,,,,,,,,,,,,,,,,,,,,,,,,,,,,,,,,,,,,,,,,,,,,,,,,,,,,,,,f,24,lijia,2022-04-01_09h03.20.991,emotion,2022.1.2,60.06673414166093,
80,-50,-200,-50,two,-50,-200,-50,,,,,0,32,32,79,,,,,,,,,,,down,3.221672699999999,425.4592047000001,None,425.4592047000001,None,428.7080974999999,None,428.7080974999999,None,428.7080974999999,None,430.69062239999994,431.19029219999993,430.69062239999994,431.19029219999993,430.69062239999994,431.19029219999993,428.7080974999999,None,431.22335765999986,None,431.22335765999986,None,431.22335765999986,None,0.01070505999996385,None,431.22335765999986,None,431.22335765999986,None,431.22335765999986,None,431.22335765999986,None,431.22335765999986,None,431.22335765999986,None,431.2315216000002,None,431.2315216000002,None,431.2315216000002,None,0.00402085999985502,0.504020859999855,431.2315216000002,None,431.2315216000002,None,431.2315216000002,None,431.2315216000002,None,431.2315216000002,None,431.2315216000002,None,433.22295010000016,433.22295010000016,0.7999999999999972,2.133,-650,-350,-900,,,,,,,,,,,,,,,,,,,,,,,,,,,,,,,,,,,,,,,,,,,,,,,,,,,,,,,,,,,,,,,,,,,,,,,,,,,,,,,,,,,f,24,lijia,2022-04-01_09h03.20.991,emotion,2022.1.2,60.06673414166093,
90,-50,-200,-200,one,-50,-200,-200,,,,,0,33,33,89,,,,,,,,,,,right,1.7685147000001962,435.42060420000007,None,435.42060420000007,None,437.2209735000001,None,437.2209735000001,None,437.2209735000001,None,439.20339030000014,439.7031741999999,439.20339030000014,439.7031741999999,439.20339030000014,439.7031741999999,437.2209735000001,None,439.73664265999986,None,439.73664265999986,None,439.73664265999986,None,0.010698559999582358,None,439.73664265999986,None,439.73664265999986,None,439.73664265999986,None,439.73664265999986,None,439.73664265999986,None,439.73664265999986,None,439.7450647999999,None,439.7450647999999,None,439.7450647999999,None,0.002889259999847127,0.5028892599998471,439.7450647999999,None,439.7450647999999,None,439.7450647999999,None,439.7450647999999,None,439.7450647999999,None,439.7450647999999,None,441.7356451999999,441.7356451999999,1.2000000000000028,2.553,-700,-550,-1100,,,,,,,,,,,,,,,,,,,,,,,,,,,,,,,,,,,,,,,,,,,,,,,,,,,,,,,,,,,,,,,,,,,,,,,,,,,,,,,,,,,f,24,lijia,2022-04-01_09h03.20.991,emotion,2022.1.2,60.06673414166093,
19,0,0,50,two,0,0,50,,,,,0,34,34,18,,,,,,,,,,,down,1.2690213000000767,444.3496384,None,444.3496384,None,445.6504424,None,445.6504424,None,445.6504424,None,447.63287709999986,448.1327087999998,447.63287709999986,448.1327087999998,447.63287709999986,448.1327087999998,445.6504424,None,448.16582265999995,None,448.16582265999995,None,448.16582265999995,None,0.010911059999671124,None,448.16582265999995,None,448.16582265999995,None,448.16582265999995,None,448.16582265999995,None,448.16582265999995,None,448.16582265999995,None,448.17365689999997,None,448.17365689999997,None,448.17365689999997,None,0.004633959999864601,0.5046339599998646,448.17365689999997,None,448.17365689999997,None,448.17365689999997,None,448.17365689999997,None,448.17365689999997,None,448.17365689999997,None,450.1651075,450.1651075,0.8999999999999986,3.725,-700,-550,-1050,,,,,,,,,,,,,,,,,,,,,,,,,,,,,,,,,,,,,,,,,,,,,,,,,,,,,,,,,,,,,,,,,,,,,,,,,,,,,,,,,,,f,24,lijia,2022-04-01_09h03.20.991,emotion,2022.1.2,60.06673414166093,
70,0,0,-200,two,0,0,-200,,,,,0,35,35,69,,,,,,,,,,,right,2.5359222000001864,453.94644000000017,None,453.94644000000017,None,456.5119211000001,None,456.5119211000001,None,456.5119211000001,None,458.49449360000017,458.99434359999987,458.49449360000017,458.99434359999987,458.49449360000017,458.99434359999987,456.5119211000001,None,459.01100595999986,None,459.01100595999986,None,459.01100595999986,None,0.010095859999637469,None,459.01100595999986,None,459.01100595999986,None,459.01100595999986,None,459.01100595999986,None,459.01100595999986,None,459.01100595999986,None,459.0196047999998,None,459.0196047999998,None,459.0196047999998,None,0.0026361599993833806,0.5026361599993834,459.0196047999998,None,459.0196047999998,None,459.0196047999998,None,459.0196047999998,None,459.0196047999998,None,459.0196047999998,None,461.0101703,461.0101703,0.0,9.225,-700,-550,-1250,,,,,,,,,,,,,,,,,,,,,,,,,,,,,,,,,,,,,,,,,,,,,,,,,,,,,,,,,,,,,,,,,,,,,,,,,,,,,,,,,,,f,24,lijia,2022-04-01_09h03.20.991,emotion,2022.1.2,60.06673414166093,
28,0,50,50,one,0,50,50,,,,,0,36,36,27,,,,,,,,,,,down,2.2127720000003137,470.2890705,None,470.2890705,None,472.5216341999999,None,472.5216341999999,None,472.5216341999999,None,474.5040211999999,475.0036811,474.5040211999999,475.0036811,474.5040211999999,475.0036811,472.5216341999999,None,475.03728186000006,None,475.03728186000006,None,475.03728186000006,None,0.010936759999822243,None,475.03728186000006,None,475.03728186000006,None,475.03728186000006,None,475.03728186000006,None,475.03728186000006,None,475.03728186000006,None,475.04546130000017,None,475.04546130000017,None,475.04546130000017,None,0.004151359999923443,0.5041513599999234,475.04546130000017,None,475.04546130000017,None,475.04546130000017,None,475.04546130000017,None,475.04546130000017,None,475.04546130000017,None,477.03593039999987,477.03593039999987,0.0,5.821,-700,-500,-1200,,,,,,,,,,,,,,,,,,,,,,,,,,,,,,,,,,,,,,,,,,,,,,,,,,,,,,,,,,,,,,,,,,,,,,,,,,,,,,,,,,,f,24,lijia,2022-04-01_09h03.20.991,emotion,2022.1.2,60.06673414166093,
1,0,50,200,one,0,50,200,,,,,0,37,37,0,,,,,,,,,,,down,3.0022822999999335,482.9157911000002,None,482.9157911000002,None,485.9486370999998,None,485.9486370999998,None,485.9486370999998,None,487.93128079999997,488.43114049999986,487.93128079999997,488.43114049999986,487.93128079999997,488.43114049999986,485.9486370999998,None,488.44780285999985,None,488.44780285999985,None,488.44780285999985,None,0.01019765999944866,None,488.44780285999985,None,488.44780285999985,None,488.44780285999985,None,488.44780285999985,None,488.44780285999985,None,488.44780285999985,None,488.4568688999998,None,488.4568688999998,None,488.4568688999998,None,0.002735959999881743,0.5027359599998817,488.4568688999998,None,488.4568688999998,None,488.4568688999998,None,488.4568688999998,None,488.4568688999998,None,488.4568688999998,None,490.44686869999987,490.44686869999987,-0.6000000000000014,4.648,-700,-450,-1000,,,,,,,,,,,,,,,,,,,,,,,,,,,,,,,,,,,,,,,,,,,,,,,,,,,,,,,,,,,,,,,,,,,,,,,,,,,,,,,,,,,f,24,lijia,2022-04-01_09h03.20.991,emotion,2022.1.2,60.06673414166093,
6,200,0,50,one,200,0,50,,,,,0,38,38,5,,,,,,,,,,,right,3.159118099999887,495.1455560999998,None,495.1455560999998,None,498.32637810000006,None,498.32637810000006,None,498.32637810000006,None,500.3090360000001,500.80866849999984,500.3090360000001,500.80866849999984,500.3090360000001,500.80866849999984,498.32637810000006,None,500.84184085999976,None,500.84184085999976,None,500.84184085999976,None,0.01085105999982261,None,500.84184085999976,None,500.84184085999976,None,500.84184085999976,None,500.84184085999976,None,500.84184085999976,None,500.84184085999976,None,500.84994240000015,None,500.84994240000015,None,500.84994240000015,None,0.004465759999675356,0.5044657599996754,500.84994240000015,None,500.84994240000015,None,500.84994240000015,None,500.84994240000015,None,500.84994240000015,None,500.84994240000015,None,502.8410819999999,502.8410819999999,1.0,2.087,-500,-450,-950,,,,,,,,,,,,,,,,,,,,,,,,,,,,,,,,,,,,,,,,,,,,,,,,,,,,,,,,,,,,,,,,,,,,,,,,,,,,,,,,,,,f,24,lijia,2022-04-01_09h03.20.991,emotion,2022.1.2,60.06673414166093,
71,0,-200,0,two,0,-200,0,,,,,0,39,39,70,,,,,,,,,,,down,3.1728198000000702,504.9892162000001,None,504.9892162000001,None,508.1888103000001,None,508.1888103000001,None,508.1888103000001,None,510.17118170000003,510.67095100000006,510.17118170000003,510.67095100000006,510.17118170000003,510.67095100000006,508.1888103000001,None,510.7039759599999,None,510.7039759599999,None,510.7039759599999,None,0.010868859999391134,None,510.7039759599999,None,510.7039759599999,None,510.7039759599999,None,510.7039759599999,None,510.7039759599999,None,510.7039759599999,None,510.7120396,None,510.7120396,None,510.7120396,None,0.004550659999949858,0.5045506599999499,510.7120396,None,510.7120396,None,510.7120396,None,510.7120396,None,510.7120396,None,510.7120396,None,512.7030927999999,512.7030927999999,0.7000000000000028,2.989,-500,-650,-950,,,,,,,,,,,,,,,,,,,,,,,,,,,,,,,,,,,,,,,,,,,,,,,,,,,,,,,,,,,,,,,,,,,,,,,,,,,,,,,,,,,f,24,lijia,2022-04-01_09h03.20.991,emotion,2022.1.2,60.06673414166093,
82,0,-50,-50,two,0,-50,-50,,,,,0,40,40,81,,,,,,,,,,,right,1.6800603000001502,515.7504789999998,None,515.7504789999998,None,517.451047,None,517.451047,None,517.451047,None,519.4333326000001,519.9335052000001,519.4333326000001,519.9335052000001,519.4333326000001,519.9335052000001,517.451047,None,519.9501675600002,None,519.9501675600002,None,519.9501675600002,None,0.010469759999978123,None,519.9501675600002,None,519.9501675600002,None,519.9501675600002,None,519.9501675600002,None,519.9501675600002,None,519.9501675600002,None,519.9588678999999,None,519.9588678999999,None,519.9588678999999,None,0.0035239599997112236,0.5035239599997112,519.9588678999999,None,519.9588678999999,None,519.9588678999999,None,519.9588678999999,None,519.9588678999999,None,519.9588678999999,None,521.9493332000002,521.9493332000002,0.6000000000000014,4.446,-500,-700,-1000,,,,,,,,,,,,,,,,,,,,,,,,,,,,,,,,,,,,,,,,,,,,,,,,,,,,,,,,,,,,,,,,,,,,,,,,,,,,,,,,,,,f,24,lijia,2022-04-01_09h03.20.991,emotion,2022.1.2,60.06673414166093,
73,-200,-50,-50,one,-200,-50,-50,,,,,0,41,41,72,,,,,,,,,,,left,1.9801494000003004,526.4468160000001,None,526.4468160000001,None,528.4460208999999,None,528.4460208999999,None,528.4460208999999,None,530.4287067,530.9282406000002,530.4287067,530.9282406000002,530.4287067,530.9282406000002,528.4460208999999,None,530.96168306,None,530.96168306,None,530.96168306,None,0.01058045999980095,None,530.96168306,None,530.96168306,None,530.96168306,None,530.96168306,None,530.96168306,None,530.96168306,None,530.9699261999999,None,530.9699261999999,None,530.9699261999999,None,0.0037457600001289393,0.5037457600001289,530.9699261999999,None,530.9699261999999,None,530.9699261999999,None,530.9699261999999,None,530.9699261999999,None,530.9699261999999,None,532.9608179000002,532.9608179000002,-1.7000000000000028,2.259,-700,-750,-1050,,,,,,,,,,,,,,,,,,,,,,,,,,,,,,,,,,,,,,,,,,,,,,,,,,,,,,,,,,,,,,,,,,,,,,,,,,,,,,,,,,,f,24,lijia,2022-04-01_09h03.20.991,emotion,2022.1.2,60.06673414166093,
95,-200,-50,-200,two,-200,-50,-200,,,,,0,42,42,94,,,,,,,,,,,down,2.0719366000002992,535.2761648999999,None,535.2761648999999,None,537.3752539000002,None,537.3752539000002,None,537.3752539000002,None,539.3578686000001,539.8577694,539.3578686000001,539.8577694,539.3578686000001,539.8577694,537.3752539000002,None,539.8744317600001,None,539.8744317600001,None,539.8744317600001,None,0.009681760000148643,None,539.8744317600001,None,539.8744317600001,None,539.8744317600001,None,539.8744317600001,None,539.8744317600001,None,539.8744317600001,None,539.8837302000002,None,539.8837302000002,None,539.8837302000002,None,0.002071659999728581,0.5020716599997286,539.8837302000002,None,539.8837302000002,None,539.8837302000002,None,539.8837302000002,None,539.8837302000002,None,539.8837302000002,None,541.8735029,541.8735029,-0.10000000000000142,4.025,-900,-800,-1250,,,,,,,,,,,,,,,,,,,,,,,,,,,,,,,,,,,,,,,,,,,,,,,,,,,,,,,,,,,,,,,,,,,,,,,,,,,,,,,,,,,f,24,lijia,2022-04-01_09h03.20.991,emotion,2022.1.2,60.06673414166093,
21,50,0,0,two,50,0,0,,,,,0,43,43,20,,,,,,,,,,,right,1.049616799999967,545.9547472999998,None,545.9547472999998,None,547.0211844999999,None,547.0211844999999,None,547.0211844999999,None,549.0033364000001,549.5033487999999,549.0033364000001,549.5033487999999,549.0033364000001,549.5033487999999,547.0211844999999,None,549.5362989600001,None,549.5362989600001,None,549.5362989600001,None,0.010763060000499536,None,549.5362989600001,None,549.5362989600001,None,549.5362989600001,None,549.5362989600001,None,549.5362989600001,None,549.5362989600001,None,549.5442314000002,None,549.5442314000002,None,549.5442314000002,None,0.004263660000560776,0.5042636600005608,549.5442314000002,None,549.5442314000002,None,549.5442314000002,None,549.5442314000002,None,549.5442314000002,None,549.5442314000002,None,551.5355365,551.5355365,-0.10000000000000142,3.19,-850,-800,-1250,,,,,,,,,,,,,,,,,,,,,,,,,,,,,,,,,,,,,,,,,,,,,,,,,,,,,,,,,,,,,,,,,,,,,,,,,,,,,,,,,,,f,24,lijia,2022-04-01_09h03.20.991,emotion,2022.1.2,60.06673414166093,
9,50,0,200,two,50,0,200,,,,,0,44,44,8,,,,,,,,,,,right,1.3046915000004446,554.7832161000001,None,554.7832161000001,None,556.1170272999998,None,556.1170272999998,None,556.1170272999998,None,558.0992534000002,558.5991260000001,558.0992534000002,558.5991260000001,558.0992534000002,558.5991260000001,556.1170272999998,None,558.6325062600001,None,558.6325062600001,None,558.6325062600001,None,0.01101866000044538,None,558.6325062600001,None,558.6325062600001,None,558.6325062600001,None,558.6325062600001,None,558.6325062600001,None,558.6325062600001,None,558.6396614999999,None,558.6396614999999,None,558.6396614999999,None,0.004636159999790834,0.5046361599997908,558.6396614999999,None,558.6396614999999,None,558.6396614999999,None,558.6396614999999,None,558.6396614999999,None,558.6396614999999,None,560.631613,560.631613,-1.2999999999999972,2.068,-800,-800,-1050,,,,,,,,,,,,,,,,,,,,,,,,,,,,,,,,,,,,,,,,,,,,,,,,,,,,,,,,,,,,,,,,,,,,,,,,,,,,,,,,,,,f,24,lijia,2022-04-01_09h03.20.991,emotion,2022.1.2,60.06673414166093,
37,200,200,0,one,200,200,0,,,,,0,45,45,36,,,,,,,,,,,right,2.111027500000091,562.7626577999999,None,562.7626577999999,None,564.8962744,None,564.8962744,None,564.8962744,None,566.8786851999998,567.3786267,566.8786851999998,567.3786267,566.8786851999998,567.3786267,564.8962744,None,567.3952890600001,None,567.3952890600001,None,567.3952890600001,None,0.010426360000110435,None,567.3952890600001,None,567.3952890600001,None,567.3952890600001,None,567.3952890600001,None,567.3952890600001,None,567.3952890600001,None,567.4033832999999,None,567.4033832999999,None,567.4033832999999,None,0.003478060000361438,0.5034780600003614,567.4033832999999,None,567.4033832999999,None,567.4033832999999,None,567.4033832999999,None,567.4033832999999,None,567.4033832999999,None,569.3939885,569.3939885,0.0,2.588,-600,-600,-1050,,,,,,,,,,,,,,,,,,,,,,,,,,,,,,,,,,,,,,,,,,,,,,,,,,,,,,,,,,,,,,,,,,,,,,,,,,,,,,,,,,,f,24,lijia,2022-04-01_09h03.20.991,emotion,2022.1.2,60.06673414166093,
41,200,50,200,one,200,50,200,,,,,0,46,46,40,,,,,,,,,,,right,1.5385838000001968,572.0418927999999,None,572.0418927999999,None,573.6090478000001,None,573.6090478000001,None,573.6090478000001,None,575.5915605,576.0911977000001,575.5915605,576.0911977000001,575.5915605,576.0911977000001,573.6090478000001,None,576.1246758600003,None,576.1246758600003,None,576.1246758600003,None,0.010816760000579961,None,576.1246758600003,None,576.1246758600003,None,576.1246758600003,None,576.1246758600003,None,576.1246758600003,None,576.1246758600003,None,576.1329354999998,None,576.1329354999998,None,576.1329354999998,None,0.004422360000262415,0.5044223600002624,576.1329354999998,None,576.1329354999998,None,576.1329354999998,None,576.1329354999998,None,576.1329354999998,None,576.1329354999998,None,578.1235490999998,578.1235490999998,0.7999999999999972,7.276,-400,-550,-850,,,,,,,,,,,,,,,,,,,,,,,,,,,,,,,,,,,,,,,,,,,,,,,,,,,,,,,,,,,,,,,,,,,,,,,,,,,,,,,,,,,f,24,lijia,2022-04-01_09h03.20.991,emotion,2022.1.2,60.06673414166093,
84,-50,-50,0,two,-50,-50,0,,,,,0,47,47,83,,,,,,,,,,,right,1.0288998000000902,585.4536558,None,585.4536558,None,586.50299,None,586.50299,None,586.50299,None,588.4857047,588.9852488000001,588.4857047,588.9852488000001,588.4857047,588.9852488000001,586.50299,None,589.01859356,None,589.01859356,None,589.01859356,None,0.010689759999422677,None,589.01859356,None,589.01859356,None,589.01859356,None,589.01859356,None,589.01859356,None,589.01859356,None,589.0266452000001,None,589.0266452000001,None,589.0266452000001,None,0.004007160000128351,0.5040071600001284,589.0266452000001,None,589.0266452000001,None,589.0266452000001,None,589.0266452000001,None,589.0266452000001,None,589.0266452000001,None,591.0176204999998,591.0176204999998,1.2000000000000028,3.883,-450,-600,-850,,,,,,,,,,,,,,,,,,,,,,,,,,,,,,,,,,,,,,,,,,,,,,,,,,,,,,,,,,,,,,,,,,,,,,,,,,,,,,,,,,,f,24,lijia,2022-04-01_09h03.20.991,emotion,2022.1.2,60.06673414166093,
23,0,200,0,two,0,200,0,,,,,0,48,48,22,,,,,,,,,,,right,1.1762433000003512,594.9503890999999,None,594.9503890999999,None,596.1485831999998,None,596.1485831999998,None,596.1485831999998,None,598.1312349999998,598.6308097000001,598.1312349999998,598.6308097000001,598.1312349999998,598.6308097000001,596.1485831999998,None,598.6644018600002,None,598.6644018600002,None,598.6644018600002,None,0.01092796000011731,None,598.6644018600002,None,598.6644018600002,None,598.6644018600002,None,598.6644018600002,None,598.6644018600002,None,598.6644018600002,None,598.6724955,None,598.6724955,None,598.6724955,None,0.004206359999898268,0.5042063599998983,598.6724955,None,598.6724955,None,598.6724955,None,598.6724955,None,598.6724955,None,598.6724955,None,600.6633998000002,600.6633998000002,0.0,2.745,-450,-400,-850,,,,,,,,,,,,,,,,,,,,,,,,,,,,,,,,,,,,,,,,,,,,,,,,,,,,,,,,,,,,,,,,,,,,,,,,,,,,,,,,,,,f,24,lijia,2022-04-01_09h03.20.991,emotion,2022.1.2,60.06673414166093,
3,50,0,200,one,50,0,200,,,,,0,49,49,2,,,,,,,,,,,down,1.241105900000548,603.4617876000002,None,603.4617876000002,None,604.7283109,None,604.7283109,None,604.7283109,None,606.7104657,607.2102113999999,606.7104657,607.2102113999999,606.7104657,607.2102113999999,604.7283109,None,607.2437901599999,None,607.2437901599999,None,607.2437901599999,None,0.010779559999718913,None,607.2437901599999,None,607.2437901599999,None,607.2437901599999,None,607.2437901599999,None,607.2437901599999,None,607.2437901599999,None,607.2520936999999,None,607.2520936999999,None,607.2520936999999,None,0.004314560000238998,0.504314560000239,607.2520936999999,None,607.2520936999999,None,607.2520936999999,None,607.2520936999999,None,607.2520936999999,None,607.2520936999999,None,609.2427931000002,609.2427931000002,0.5,2.911,-400,-400,-650,,,,,,,,,,,,,,,,,,,,,,,,,,,,,,,,,,,,,,,,,,,,,,,,,,,,,,,,,,,,,,,,,,,,,,,,,,,,,,,,,,,f,24,lijia,2022-04-01_09h03.20.991,emotion,2022.1.2,60.06673414166093,
72,-200,0,0,two,-200,0,0,,,,,0,50,50,71,,,,,,,,,,,right,0.9138026000000536,612.2082184000001,None,612.2082184000001,None,613.1409871000001,None,613.1409871000001,None,613.1409871000001,None,615.1233977000002,615.6229695000002,615.1233977000002,615.6229695000002,615.1233977000002,615.6229695000002,613.1409871000001,None,615.6566158600001,None,615.6566158600001,None,615.6566158600001,None,0.010868860000300629,None,615.6566158600001,None,615.6566158600001,None,615.6566158600001,None,615.6566158600001,None,615.6566158600001,None,615.6566158600001,None,615.6647115999999,None,615.6647115999999,None,615.6647115999999,None,0.004274359999726585,0.5042743599997266,615.6647115999999,None,615.6647115999999,None,615.6647115999999,None,615.6647115999999,None,615.6647115999999,None,615.6647115999999,None,617.6557186999999,617.6557186999999,-1.8999999999999986,1.846,-600,-400,-650,,,,,,,,,,,,,,,,,,,,,,,,,,,,,,,,,,,,,,,,,,,,,,,,,,,,,,,,,,,,,,,,,,,,,,,,,,,,,,,,,,,f,24,lijia,2022-04-01_09h03.20.991,emotion,2022.1.2,60.06673414166093,
34,0,50,50,two,0,50,50,,,,,0,51,51,33,,,,,,,,,,,down,1.0969033000001218,619.5546026000002,None,619.5546026000002,None,620.6710997999999,None,620.6710997999999,None,620.6710997999999,None,622.6533642999998,623.1532416,622.6533642999998,623.1532416,622.6533642999998,623.1532416,620.6710997999999,None,623.18663446,None,623.18663446,None,623.18663446,None,0.01101835999998002,None,623.18663446,None,623.18663446,None,623.18663446,None,623.18663446,None,623.18663446,None,623.18663446,None,623.1949977999998,None,623.1949977999998,None,623.1949977999998,None,0.004023960000267834,0.5040239600002678,623.1949977999998,None,623.1949977999998,None,623.1949977999998,None,623.1949977999998,None,623.1949977999998,None,623.1949977999998,None,625.1852562999998,625.1852562999998,-2.5,1.928,-600,-350,-600,,,,,,,,,,,,,,,,,,,,,,,,,,,,,,,,,,,,,,,,,,,,,,,,,,,,,,,,,,,,,,,,,,,,,,,,,,,,,,,,,,,f,24,lijia,2022-04-01_09h03.20.991,emotion,2022.1.2,60.06673414166093,
40,200,200,50,one,200,200,50,,,,,0,52,52,39,,,,,,,,,,,right,2.021007300000292,627.1676854000002,None,627.1676854000002,None,629.2169100000001,None,629.2169100000001,None,629.2169100000001,None,631.1994909999999,631.6994447000002,631.1994909999999,631.6994447000002,631.1994909999999,631.6994447000002,629.2169100000001,None,631.7161070600002,None,631.7161070600002,None,631.7161070600002,None,0.010367459999542916,None,631.7161070600002,None,631.7161070600002,None,631.7161070600002,None,631.7161070600002,None,631.7161070600002,None,631.7161070600002,None,631.7243604,None,631.7243604,None,631.7243604,None,0.0031071600005816435,0.5031071600005816,631.7243604,None,631.7243604,None,631.7243604,None,631.7243604,None,631.7243604,None,631.7243604,None,633.7150529999999,633.7150529999999,-0.10000000000000142,2.991,-400,-150,-550,,,,,,,,,,,,,,,,,,,,,,,,,,,,,,,,,,,,,,,,,,,,,,,,,,,,,,,,,,,,,,,,,,,,,,,,,,,,,,,,,,,f,24,lijia,2022-04-01_09h03.20.991,emotion,2022.1.2,60.06673414166093,
11,200,50,0,two,200,50,0,,,,,0,53,53,10,,,,,,,,,,,right,1.0783147000001918,636.7638240000001,None,636.7638240000001,None,637.8630837999999,None,637.8630837999999,None,637.8630837999999,None,639.8454390000002,640.3452192,639.8454390000002,640.3452192,639.8454390000002,640.3452192,637.8630837999999,None,640.3786829600001,None,640.3786829600001,None,640.3786829600001,None,0.010610360000555374,None,640.3786829600001,None,640.3786829600001,None,640.3786829600001,None,640.3786829600001,None,640.3786829600001,None,640.3786829600001,None,640.3866720000001,None,640.3866720000001,None,640.3866720000001,None,0.004100060000382655,0.5041000600003827,640.3866720000001,None,640.3866720000001,None,640.3866720000001,None,640.3866720000001,None,640.3866720000001,None,640.3866720000001,None,642.3778613999998,642.3778613999998,0.0,4.104,-200,-100,-550,,,,,,,,,,,,,,,,,,,,,,,,,,,,,,,,,,,,,,,,,,,,,,,,,,,,,,,,,,,,,,,,,,,,,,,,,,,,,,,,,,,f,24,lijia,2022-04-01_09h03.20.991,emotion,2022.1.2,60.06673414166093,
16,0,0,200,one,0,0,200,,,,,0,54,54,15,,,,,,,,,,,right,1.139326500000152,646.5412955000002,None,646.5412955000002,None,647.7086476,None,647.7086476,None,647.7086476,None,649.6911372,650.1909280999998,649.6911372,650.1909280999998,649.6911372,650.1909280999998,647.7086476,None,650.22413876,None,650.22413876,None,650.22413876,None,0.010940059999938967,None,650.22413876,None,650.22413876,None,650.22413876,None,650.22413876,None,650.22413876,None,650.22413876,None,650.2316673999999,None,650.2316673999999,None,650.2316673999999,None,0.004430760000104783,0.5044307600001048,650.2316673999999,None,650.2316673999999,None,650.2316673999999,None,650.2316673999999,None,650.2316673999999,None,650.2316673999999,None,652.2234472,652.2234472,0.7000000000000028,2.91,-200,-100,-350,,,,,,,,,,,,,,,,,,,,,,,,,,,,,,,,,,,,,,,,,,,,,,,,,,,,,,,,,,,,,,,,,,,,,,,,,,,,,,,,,,,f,24,lijia,2022-04-01_09h03.20.991,emotion,2022.1.2,60.06673414166093,
74,-50,-200,-50,one,-50,-200,-50,,,,,0,55,55,73,,,,,,,,,,,right,1.2376960999999937,655.1885831999998,None,655.1885831999998,None,656.4547202000003,None,656.4547202000003,None,656.4547202000003,None,658.4372553000003,658.9372089999997,658.4372553000003,658.9372089999997,658.4372553000003,658.9372089999997,656.4547202000003,None,658.9538713599998,None,658.9538713599998,None,658.9538713599998,None,0.010081159999572264,None,658.9538713599998,None,658.9538713599998,None,658.9538713599998,None,658.9538713599998,None,658.9538713599998,None,658.9538713599998,None,658.9627614000001,None,658.9627614000001,None,658.9627614000001,None,0.0022592599998461083,0.5022592599998461,658.9627614000001,None,658.9627614000001,None,658.9627614000001,None,658.9627614000001,None,658.9627614000001,None,658.9627614000001,None,660.9528342000003,660.9528342000003,1.2999999999999972,3.104,-250,-300,-400,,,,,,,,,,,,,,,,,,,,,,,,,,,,,,,,,,,,,,,,,,,,,,,,,,,,,,,,,,,,,,,,,,,,,,,,,,,,,,,,,,,f,24,lijia,2022-04-01_09h03.20.991,emotion,2022.1.2,60.06673414166093,
33,50,50,200,two,50,50,200,,,,,0,56,56,32,,,,,,,,,,,right,1.539913599999636,664.1166764,None,664.1166764,None,665.6837423999996,None,665.6837423999996,None,665.6837423999996,None,667.6662196999996,668.1662122999996,667.6662196999996,668.1662122999996,667.6662196999996,668.1662122999996,665.6837423999996,None,668.1828746599997,None,668.1828746599997,None,668.1828746599997,None,0.010213060000751284,None,668.1828746599997,None,668.1828746599997,None,668.1828746599997,None,668.1828746599997,None,668.1828746599997,None,668.1828746599997,None,668.1907951000003,None,668.1907951000003,None,668.1907951000003,None,0.003686359998937405,0.5036863599989374,668.1907951000003,None,668.1907951000003,None,668.1907951000003,None,668.1907951000003,None,668.1907951000003,None,668.1907951000003,None,670.1816262000002,670.1816262000002,0.8999999999999986,3.231,-200,-250,-200,,,,,,,,,,,,,,,,,,,,,,,,,,,,,,,,,,,,,,,,,,,,,,,,,,,,,,,,,,,,,,,,,,,,,,,,,,,,,,,,,,,f,24,lijia,2022-04-01_09h03.20.991,emotion,2022.1.2,60.06673414166093,
49,0,-50,-200,one,0,-50,-200,,,,,0,57,57,48,,,,,,,,,,,right,1.8192182000002504,673.4637279999997,None,673.4637279999997,None,675.3130252000001,None,675.3130252000001,None,675.3130252000001,None,677.2954473,677.7948514999998,677.2954473,677.7948514999998,677.2954473,677.7948514999998,675.3130252000001,None,677.8284263600001,None,677.8284263600001,None,677.8284263600001,None,0.010729960000389838,None,677.8284263600001,None,677.8284263600001,None,677.8284263600001,None,677.8284263600001,None,677.8284263600001,None,677.8284263600001,None,677.8365965000003,None,677.8365965000003,None,677.8365965000003,None,0.003981560000283935,0.5039815600002839,677.8365965000003,None,677.8365965000003,None,677.8365965000003,None,677.8365965000003,None,677.8365965000003,None,677.8365965000003,None,679.8272397000001,679.8272397000001,0.7000000000000028,3.17,-200,-300,-400,,,,,,,,,,,,,,,,,,,,,,,,,,,,,,,,,,,,,,,,,,,,,,,,,,,,,,,,,,,,,,,,,,,,,,,,,,,,,,,,,,,f,24,lijia,2022-04-01_09h03.20.991,emotion,2022.1.2,60.06673414166093,
27,50,50,200,one,50,50,200,,,,,0,58,58,26,,,,,,,,,,,right,1.1497736999999688,683.0581484000004,None,683.0581484000004,None,684.2251292999999,None,684.2251292999999,None,684.2251292999999,None,686.2079999999996,686.7077163000004,686.2079999999996,686.7077163000004,686.2079999999996,686.7077163000004,684.2251292999999,None,686.7243786600004,None,686.7243786600004,None,686.7243786600004,None,0.010467560000506637,None,686.7243786600004,None,686.7243786600004,None,686.7243786600004,None,686.7243786600004,None,686.7243786600004,None,686.7243786600004,None,686.7329932000002,None,686.7329932000002,None,686.7329932000002,None,0.0026702600007411093,0.5026702600007411,686.7329932000002,None,686.7329932000002,None,686.7329932000002,None,686.7329932000002,None,686.7329932000002,None,686.7329932000002,None,688.7234208999998,688.7234208999998,0.5,5.661,-150,-250,-200,,,,,,,,,,,,,,,,,,,,,,,,,,,,,,,,,,,,,,,,,,,,,,,,,,,,,,,,,,,,,,,,,,,,,,,,,,,,,,,,,,,f,24,lijia,2022-04-01_09h03.20.991,emotion,2022.1.2,60.06673414166093,
96,-50,-200,-200,two,-50,-200,-200,,,,,0,59,59,95,,,,,,,,,,,right,1.0786782000004678,694.4370632,None,694.4370632,None,695.5368169000003,None,695.5368169000003,None,695.5368169000003,None,697.5192016999999,698.0189824999998,697.5192016999999,698.0189824999998,697.5192016999999,698.0189824999998,695.5368169000003,None,698.0525957600005,None,698.0525957600005,None,698.0525957600005,None,0.010733060000347905,None,698.0525957600005,None,698.0525957600005,None,698.0525957600005,None,698.0525957600005,None,698.0525957600005,None,698.0525957600005,None,698.061334,None,698.061334,None,698.061334,None,0.003424059999815654,0.5034240599998157,698.061334,None,698.061334,None,698.061334,None,698.061334,None,698.061334,None,698.061334,None,700.0516809000001,700.0516809000001,1.0,2.743,-200,-450,-400,,,,,,,,,,,,,,,,,,,,,,,,,,,,,,,,,,,,,,,,,,,,,,,,,,,,,,,,,,,,,,,,,,,,,,,,,,,,,,,,,,,f,24,lijia,2022-04-01_09h03.20.991,emotion,2022.1.2,60.06673414166093,
66,-200,0,0,one,-200,0,0,,,,,0,60,60,65,,,,,,,,,,,right,1.2639763000006496,702.8503235999997,None,702.8503235999997,None,704.1331743999999,None,704.1331743999999,None,704.1331743999999,None,706.1156498,706.6152319000003,706.1156498,706.6152319000003,706.1156498,706.6152319000003,704.1331743999999,None,706.6487607600004,None,706.6487607600004,None,706.6487607600004,None,0.010708159999921918,None,706.6487607600004,None,706.6487607600004,None,706.6487607600004,None,706.6487607600004,None,706.6487607600004,None,706.6487607600004,None,706.6569963000002,None,706.6569963000002,None,706.6569963000002,None,0.003580159999728494,0.5035801599997285,706.6569963000002,None,706.6569963000002,None,706.6569963000002,None,706.6569963000002,None,706.6569963000002,None,706.6569963000002,None,708.647927,708.647927,-1.2999999999999972,3.53,-400,-450,-400,,,,,,,,,,,,,,,,,,,,,,,,,,,,,,,,,,,,,,,,,,,,,,,,,,,,,,,,,,,,,,,,,,,,,,,,,,,,,,,,,,,f,24,lijia,2022-04-01_09h03.20.991,emotion,2022.1.2,60.06673414166093,
86,-200,0,-200,one,-200,0,-200,,,,,0,61,61,85,,,,,,,,,,,right,1.2277764999998908,712.2295206999997,None,712.2295206999997,None,713.4789946000001,None,713.4789946000001,None,713.4789946000001,None,715.4610368000003,715.9612244999998,715.4610368000003,715.9612244999998,715.4610368000003,715.9612244999998,713.4789946000001,None,715.9946245599997,None,715.9946245599997,None,715.9946245599997,None,0.01089505999971152,None,715.9946245599997,None,715.9946245599997,None,715.9946245599997,None,715.9946245599997,None,715.9946245599997,None,715.9946245599997,None,716.0029027,None,716.0029027,None,716.0029027,None,0.004300159999729658,0.5043001599997297,716.0029027,None,716.0029027,None,716.0029027,None,716.0029027,None,716.0029027,None,716.0029027,None,717.9934156999998,717.9934156999998,-4.200000000000003,3.496,-600,-450,-600,,,,,,,,,,,,,,,,,,,,,,,,,,,,,,,,,,,,,,,,,,,,,,,,,,,,,,,,,,,,,,,,,,,,,,,,,,,,,,,,,,,f,24,lijia,2022-04-01_09h03.20.991,emotion,2022.1.2,60.06673414166093,
62,0,-50,0,one,0,-50,0,,,,,0,62,62,61,,,,,,,,,,,right,2.6794980000004216,721.5419132999996,None,721.5419132999996,None,724.2406506999996,None,724.2406506999996,None,724.2406506999996,None,726.2230828000002,726.7228072999997,726.2230828000002,726.7228072999997,726.2230828000002,726.7228072999997,724.2406506999996,None,726.7562557599997,None,726.7562557599997,None,726.7562557599997,None,0.010931259998869791,None,726.7562557599997,None,726.7562557599997,None,726.7562557599997,None,726.7562557599997,None,726.7562557599997,None,726.7562557599997,None,726.7641051999999,None,726.7641051999999,None,726.7641051999999,None,0.0046378599990930525,0.504637859999093,726.7641051999999,None,726.7641051999999,None,726.7641051999999,None,726.7641051999999,None,726.7641051999999,None,726.7641051999999,None,728.75522,728.75522,-2.1000000000000014,2.741,-600,-500,-600,,,,,,,,,,,,,,,,,,,,,,,,,,,,,,,,,,,,,,,,,,,,,,,,,,,,,,,,,,,,,,,,,,,,,,,,,,,,,,,,,,,f,24,lijia,2022-04-01_09h03.20.991,emotion,2022.1.2,60.06673414166093,
58,-50,-200,0,two,-50,-200,0,,,,,0,63,63,57,,,,,,,,,,,right,1.2891521000001376,731.5541987999995,None,731.5541987999995,None,732.8702346999999,None,732.8702346999999,None,732.8702346999999,None,734.8526228000001,735.3520700999998,734.8526228000001,735.3520700999998,734.8526228000001,735.3520700999998,732.8702346999999,None,735.3856773600003,None,735.3856773600003,None,735.3856773600003,None,0.010591160000331001,None,735.3856773600003,None,735.3856773600003,None,735.3856773600003,None,735.3856773600003,None,735.3856773600003,None,735.3856773600003,None,735.3938189999999,None,735.3938189999999,None,735.3938189999999,None,0.003947760000301059,0.5039477600003011,735.3938189999999,None,735.3938189999999,None,735.3938189999999,None,735.3938189999999,None,735.3938189999999,None,735.3938189999999,None,737.3847704,737.3847704,-1.8999999999999986,2.692,-650,-700,-600,,,,,,,,,,,,,,,,,,,,,,,,,,,,,,,,,,,,,,,,,,,,,,,,,,,,,,,,,,,,,,,,,,,,,,,,,,,,,,,,,,,f,24,lijia,2022-04-01_09h03.20.991,emotion,2022.1.2,60.06673414166093,
56,0,-200,-50,two,0,-200,-50,,,,,0,64,64,55,,,,,,,,,,,right,1.2993908999997075,740.1330581000002,None,740.1330581000002,None,741.4493654999997,None,741.4493654999997,None,741.4493654999997,None,743.4317942999996,743.9316221999998,743.4317942999996,743.9316221999998,743.4317942999996,743.9316221999998,741.4493654999997,None,743.96500176,None,743.96500176,None,743.96500176,None,0.010901459999331564,None,743.96500176,None,743.96500176,None,743.96500176,None,743.96500176,None,743.96500176,None,743.96500176,None,743.9730317000003,None,743.9730317000003,None,743.9730317000003,None,0.004471559999728925,0.5044715599997289,743.9730317000003,None,743.9730317000003,None,743.9730317000003,None,743.9730317000003,None,743.9730317000003,None,743.9730317000003,None,745.9644509,745.9644509,-1.0,4.336,-650,-900,-650,,,,,,,,,,,,,,,,,,,,,,,,,,,,,,,,,,,,,,,,,,,,,,,,,,,,,,,,,,,,,,,,,,,,,,,,,,,,,,,,,,,f,24,lijia,2022-04-01_09h03.20.991,emotion,2022.1.2,60.06673414166093,
78,-50,-50,0,one,-50,-50,0,,,,,0,65,65,77,,,,,,,,,,,right,1.1798631999999998,750.3609511000004,None,750.3609511000004,None,751.5617221000002,None,751.5617221000002,None,751.5617221000002,None,753.5441331000002,754.0439433000001,753.5441331000002,754.0439433000001,753.5441331000002,754.0439433000001,751.5617221000002,None,754.0770812599997,None,754.0770812599997,None,754.0770812599997,None,0.010678059999008838,None,754.0770812599997,None,754.0770812599997,None,754.0770812599997,None,754.0770812599997,None,754.0770812599997,None,754.0770812599997,None,754.0855101999996,None,754.0855101999996,None,754.0855101999996,None,0.003873859999657725,0.5038738599996577,754.0855101999996,None,754.0855101999996,None,754.0855101999996,None,754.0855101999996,None,754.0855101999996,None,754.0855101999996,None,756.0760435000002,756.0760435000002,-2.1000000000000014,2.202,-700,-950,-650,,,,,,,,,,,,,,,,,,,,,,,,,,,,,,,,,,,,,,,,,,,,,,,,,,,,,,,,,,,,,,,,,,,,,,,,,,,,,,,,,,,f,24,lijia,2022-04-01_09h03.20.991,emotion,2022.1.2,60.06673414166093,
76,0,-50,-50,one,0,-50,-50,,,,,0,66,66,75,,,,,,,,,,,right,1.058629099999962,758.3410597000002,None,758.3410597000002,None,759.4245706000002,None,759.4245706000002,None,759.4245706000002,None,761.4071725000003,761.9069682999998,761.4071725000003,761.9069682999998,761.4071725000003,761.9069682999998,759.4245706000002,None,761.9236306599998,None,761.9236306599998,None,761.9236306599998,None,0.01034015999903204,None,761.9236306599998,None,761.9236306599998,None,761.9236306599998,None,761.9236306599998,None,761.9236306599998,None,761.9236306599998,None,761.9327592999998,None,761.9327592999998,None,761.9327592999998,None,0.002686060000087309,0.5026860600000873,761.9327592999998,None,761.9327592999998,None,761.9327592999998,None,761.9327592999998,None,761.9327592999998,None,761.9327592999998,None,763.9225186000003,763.9225186000003,-1.2000000000000028,3.088,-700,-1000,-700,,,,,,,,,,,,,,,,,,,,,,,,,,,,,,,,,,,,,,,,,,,,,,,,,,,,,,,,,,,,,,,,,,,,,,,,,,,,,,,,,,,f,24,lijia,2022-04-01_09h03.20.991,emotion,2022.1.2,60.06673414166093,
46,200,200,50,two,200,200,50,,,,,0,67,67,45,,,,,,,,,,,right,1.2065086000002339,767.0702377999996,None,767.0702377999996,None,768.3039683999996,None,768.3039683999996,None,768.3039683999996,None,770.2864582000002,770.7861473000003,770.2864582000002,770.7861473000003,770.2864582000002,770.7861473000003,768.3039683999996,None,770.8195911599998,None,770.8195911599998,None,770.8195911599998,None,0.010659959999429702,None,770.8195911599998,None,770.8195911599998,None,770.8195911599998,None,770.8195911599998,None,770.8195911599998,None,770.8195911599998,None,770.8280255,None,770.8280255,None,770.8280255,None,0.003910159999577445,0.5039101599995774,770.8280255,None,770.8280255,None,770.8280255,None,770.8280255,None,770.8280255,None,770.8280255,None,772.8182788000004,772.8182788000004,-1.5,3.963,-500,-800,-650,,,,,,,,,,,,,,,,,,,,,,,,,,,,,,,,,,,,,,,,,,,,,,,,,,,,,,,,,,,,,,,,,,,,,,,,,,,,,,,,,,,f,24,lijia,2022-04-01_09h03.20.991,emotion,2022.1.2,60.06673414166093,
4,50,200,0,one,50,200,0,,,,,0,68,68,3,,,,,,,,,,,right,1.2474770999997418,776.8332667000004,None,776.8332667000004,None,778.0996121999997,None,778.0996121999997,None,778.0996121999997,None,780.0820469999999,780.5818565,780.0820469999999,780.5818565,780.0820469999999,780.5818565,778.0996121999997,None,780.6150461600002,None,780.6150461600002,None,780.6150461600002,None,0.010921959999905084,None,780.6150461600002,None,780.6150461600002,None,780.6150461600002,None,780.6150461600002,None,780.6150461600002,None,780.6150461600002,None,780.6231465000001,None,780.6231465000001,None,780.6231465000001,None,0.004113559999495919,0.5041135599994959,780.6231465000001,None,780.6231465000001,None,780.6231465000001,None,780.6231465000001,None,780.6231465000001,None,780.6231465000001,None,782.6141043999996,782.6141043999996,-3.5,2.51,-450,-600,-650,,,,,,,,,,,,,,,,,,,,,,,,,,,,,,,,,,,,,,,,,,,,,,,,,,,,,,,,,,,,,,,,,,,,,,,,,,,,,,,,,,,f,24,lijia,2022-04-01_09h03.20.991,emotion,2022.1.2,60.06673414166093,
20,0,50,0,two,0,50,0,,,,,0,69,69,19,,,,,,,,,,,right,1.3018266000008225,785.1796532999997,None,785.1796532999997,None,786.5125134999998,None,786.5125134999998,None,786.5125134999998,None,788.4949704999999,788.9946186999996,788.4949704999999,788.9946186999996,788.4949704999999,788.9946186999996,786.5125134999998,None,789.0276852600002,None,789.0276852600002,None,789.0276852600002,None,0.011120760000267182,None,789.0276852600002,None,789.0276852600002,None,789.0276852600002,None,789.0276852600002,None,789.0276852600002,None,789.0276852600002,None,789.0356168999997,None,789.0356168999997,None,789.0356168999997,None,0.004703260000496812,0.5047032600004968,789.0356168999997,None,789.0356168999997,None,789.0356168999997,None,789.0356168999997,None,789.0356168999997,None,789.0356168999997,None,791.0269498999996,791.0269498999996,-2.200000000000003,2.491,-450,-550,-650,,,,,,,,,,,,,,,,,,,,,,,,,,,,,,,,,,,,,,,,,,,,,,,,,,,,,,,,,,,,,,,,,,,,,,,,,,,,,,,,,,,f,24,lijia,2022-04-01_09h03.20.991,emotion,2022.1.2,60.06673414166093,
42,50,200,200,one,50,200,200,,,,,0,70,70,41,,,,,,,,,,,right,1.2925374000005831,793.5758806000003,None,793.5758806000003,None,794.8920740000003,None,794.8920740000003,None,794.8920740000003,None,796.874503,797.3740564,796.874503,797.3740564,796.874503,797.3740564,794.8920740000003,None,797.4076695599999,None,797.4076695599999,None,797.4076695599999,None,0.00983445999918331,None,797.4076695599999,None,797.4076695599999,None,797.4076695599999,None,797.4076695599999,None,797.4076695599999,None,797.4076695599999,None,797.4169148999999,None,797.4169148999999,None,797.4169148999999,None,0.002218659999925876,0.5022186599999259,797.4169148999999,None,797.4169148999999,None,797.4169148999999,None,797.4169148999999,None,797.4169148999999,None,797.4169148999999,None,799.4061973999997,799.4061973999997,-2.5,1.765,-400,-350,-450,,,,,,,,,,,,,,,,,,,,,,,,,,,,,,,,,,,,,,,,,,,,,,,,,,,,,,,,,,,,,,,,,,,,,,,,,,,,,,,,,,,f,24,lijia,2022-04-01_09h03.20.991,emotion,2022.1.2,60.06673414166093,
30,50,50,0,one,50,50,0,,,,,0,71,71,29,,,,,,,,,,,right,0.8895505000000412,801.2223078999996,None,801.2223078999996,None,802.1386971000002,None,802.1386971000002,None,802.1386971000002,None,804.1208876999999,804.6205158000002,804.1208876999999,804.6205158000002,804.1208876999999,804.6205158000002,802.1386971000002,None,804.65425566,None,804.65425566,None,804.65425566,None,0.010976560000017344,None,804.65425566,None,804.65425566,None,804.65425566,None,804.65425566,None,804.65425566,None,804.65425566,None,804.6623772000003,None,804.6623772000003,None,804.6623772000003,None,0.004357159999926807,0.5043571599999268,804.6623772000003,None,804.6623772000003,None,804.6623772000003,None,804.6623772000003,None,804.6623772000003,None,804.6623772000003,None,806.6531003,806.6531003,-2.1000000000000014,2.327,-350,-300,-450,,,,,,,,,,,,,,,,,,,,,,,,,,,,,,,,,,,,,,,,,,,,,,,,,,,,,,,,,,,,,,,,,,,,,,,,,,,,,,,,,,,f,24,lijia,2022-04-01_09h03.20.991,emotion,2022.1.2,60.06673414166093,
38,200,0,200,one,200,0,200,,,,,0,72,72,37,,,,,,,,,,,right,3.5900743000001967,809.0355063999996,None,809.0355063999996,None,812.6504327000002,None,812.6504327000002,None,812.6504327000002,None,814.6327259,815.1324986,814.6327259,815.1324986,814.6327259,815.1324986,812.6504327000002,None,815.1660855599996,None,815.1660855599996,None,815.1660855599996,None,0.01088565999907587,None,815.1660855599996,None,815.1660855599996,None,815.1660855599996,None,815.1660855599996,None,815.1660855599996,None,815.1660855599996,None,815.1743383000003,None,815.1743383000003,None,815.1743383000003,None,0.003879659999256546,0.5038796599992565,815.1743383000003,None,815.1743383000003,None,815.1743383000003,None,815.1743383000003,None,815.1743383000003,None,815.1743383000003,None,817.1651459000004,817.1651459000004,-1.3999999999999986,3.475,-150,-300,-250,,,,,,,,,,,,,,,,,,,,,,,,,,,,,,,,,,,,,,,,,,,,,,,,,,,,,,,,,,,,,,,,,,,,,,,,,,,,,,,,,,,f,24,lijia,2022-04-01_09h03.20.991,emotion,2022.1.2,60.06673414166093,
39,0,200,200,one,0,200,200,,,,,0,73,73,38,,,,,,,,,,,right,2.7419975000002523,820.6967039000001,None,820.6967039000001,None,823.4622693000001,None,823.4622693000001,None,823.4622693000001,None,825.4448837999998,825.9446939999998,825.4448837999998,825.9446939999998,825.4448837999998,825.9446939999998,823.4622693000001,None,825.9613563599999,None,825.9613563599999,None,825.9613563599999,None,0.01001066000026185,None,825.9613563599999,None,825.9613563599999,None,825.9613563599999,None,825.9613563599999,None,825.9613563599999,None,825.9613563599999,None,825.9703103000002,None,825.9703103000002,None,825.9703103000002,None,0.002622559999508667,0.5026225599995087,825.9703103000002,None,825.9703103000002,None,825.9703103000002,None,825.9703103000002,None,825.9703103000002,None,825.9703103000002,None,827.9602913999997,827.9602913999997,-3.1000000000000014,1.98,-150,-100,-50,,,,,,,,,,,,,,,,,,,,,,,,,,,,,,,,,,,,,,,,,,,,,,,,,,,,,,,,,,,,,,,,,,,,,,,,,,,,,,,,,,,f,24,lijia,2022-04-01_09h03.20.991,emotion,2022.1.2,60.06673414166093,
87,0,-200,-200,one,0,-200,-200,,,,,0,74,74,86,,,,,,,,,,,right,2.4414637999998376,829.9924652999998,None,829.9924652999998,None,832.4581254000004,None,832.4581254000004,None,832.4581254000004,None,834.4408555,834.9406274000003,834.4408555,834.9406274000003,834.4408555,834.9406274000003,832.4581254000004,None,834.9572897600003,None,834.9572897600003,None,834.9572897600003,None,0.010355160000472097,None,834.9572897600003,None,834.9572897600003,None,834.9572897600003,None,834.9572897600003,None,834.9572897600003,None,834.9572897600003,None,834.9666514,None,834.9666514,None,834.9666514,None,0.001936359999490378,0.5019363599994904,834.9666514,None,834.9666514,None,834.9666514,None,834.9666514,None,834.9666514,None,834.9666514,None,836.9561605999997,836.9561605999997,-1.8999999999999986,2.442,-150,-300,-250,,,,,,,,,,,,,,,,,,,,,,,,,,,,,,,,,,,,,,,,,,,,,,,,,,,,,,,,,,,,,,,,,,,,,,,,,,,,,,,,,,,f,24,lijia,2022-04-01_09h03.20.991,emotion,2022.1.2,60.06673414166093,
92,-200,0,-200,two,-200,0,-200,,,,,0,75,75,91,,,,,,,,,,,right,3.41906839999956,839.4548495999998,None,839.4548495999998,None,842.9034554999998,None,842.9034554999998,None,842.9034554999998,None,844.8861101000002,845.3854104000002,844.8861101000002,845.3854104000002,844.8861101000002,845.3854104000002,842.9034554999998,None,845.4189938600005,None,845.4189938600005,None,845.4189938600005,None,0.010152159999051946,None,845.4189938600005,None,845.4189938600005,None,845.4189938600005,None,845.4189938600005,None,845.4189938600005,None,845.4189938600005,None,845.4278539999996,None,845.4278539999996,None,845.4278539999996,None,0.00329916000009689,0.5032991600000969,845.4278539999996,None,845.4278539999996,None,845.4278539999996,None,845.4278539999996,None,845.4278539999996,None,845.4278539999996,None,847.4181792999998,847.4181792999998,-6.100000000000001,1.902,-350,-300,-450,,,,,,,,,,,,,,,,,,,,,,,,,,,,,,,,,,,,,,,,,,,,,,,,,,,,,,,,,,,,,,,,,,,,,,,,,,,,,,,,,,,f,24,lijia,2022-04-01_09h03.20.991,emotion,2022.1.2,60.06673414166093,
22,0,0,200,two,0,0,200,,,,,0,76,76,21,,,,,,,,,,,right,2.2774433000004137,849.3827138999995,None,849.3827138999995,None,851.6826514000004,None,851.6826514000004,None,851.6826514000004,None,853.6651593999995,854.1648198000003,853.6651593999995,854.1648198000003,853.6651593999995,854.1648198000003,851.6826514000004,None,854.1984427600003,None,854.1984427600003,None,854.1984427600003,None,0.010881560000598256,None,854.1984427600003,None,854.1984427600003,None,854.1984427600003,None,854.1984427600003,None,854.1984427600003,None,854.1984427600003,None,854.2061442000004,None,854.2061442000004,None,854.2061442000004,None,0.004547659999843745,0.5045476599998437,854.2061442000004,None,854.2061442000004,None,854.2061442000004,None,854.2061442000004,None,854.2061442000004,None,854.2061442000004,None,856.1972538999999,856.1972538999999,-2.299999999999997,2.619,-350,-300,-250,,,,,,,,,,,,,,,,,,,,,,,,,,,,,,,,,,,,,,,,,,,,,,,,,,,,,,,,,,,,,,,,,,,,,,,,,,,,,,,,,,,f,24,lijia,2022-04-01_09h03.20.991,emotion,2022.1.2,60.06673414166093,
31,200,50,50,two,200,50,50,,,,,0,77,77,30,,,,,,,,,,,right,1.6842970999996396,858.8786483000003,None,858.8786483000003,None,860.5953179999997,None,860.5953179999997,None,860.5953179999997,None,862.5779106,863.0774897000001,862.5779106,863.0774897000001,862.5779106,863.0774897000001,860.5953179999997,None,863.11107216,None,863.11107216,None,863.11107216,None,0.010776260000056936,None,863.11107216,None,863.11107216,None,863.11107216,None,863.11107216,None,863.11107216,None,863.11107216,None,863.1190911000003,None,863.1190911000003,None,863.1190911000003,None,0.004266360000656277,0.5042663600006563,863.1190911000003,None,863.1190911000003,None,863.1190911000003,None,863.1190911000003,None,863.1190911000003,None,863.1190911000003,None,865.1100771000001,865.1100771000001,-2.0,3.405,-150,-250,-200,,,,,,,,,,,,,,,,,,,,,,,,,,,,,,,,,,,,,,,,,,,,,,,,,,,,,,,,,,,,,,,,,,,,,,,,,,,,,,,,,,,f,24,lijia,2022-04-01_09h03.20.991,emotion,2022.1.2,60.06673414166093,
68,0,-50,0,two,0,-50,0,,,,,0,78,78,67,,,,,,,,,,,right,1.1403775000007954,868.5741139000002,None,868.5741139000002,None,869.7413641000003,None,869.7413641000003,None,869.7413641000003,None,871.7234408000004,872.2237130000003,871.7234408000004,872.2237130000003,871.7234408000004,872.2237130000003,869.7413641000003,None,872.2403753600004,None,872.2403753600004,None,872.2403753600004,None,0.010426060000099824,None,872.2403753600004,None,872.2403753600004,None,872.2403753600004,None,872.2403753600004,None,872.2403753600004,None,872.2403753600004,None,872.2488364000001,None,872.2488364000001,None,872.2488364000001,None,0.0040817600001901155,0.5040817600001901,872.2488364000001,None,872.2488364000001,None,872.2488364000001,None,872.2488364000001,None,872.2488364000001,None,872.2488364000001,None,874.2394402,874.2394402,-1.7000000000000028,3.559,-150,-300,-200,,,,,,,,,,,,,,,,,,,,,,,,,,,,,,,,,,,,,,,,,,,,,,,,,,,,,,,,,,,,,,,,,,,,,,,,,,,,,,,,,,,f,24,lijia,2022-04-01_09h03.20.991,emotion,2022.1.2,60.06673414166093,
77,-50,0,-50,one,-50,0,-50,,,,,0,79,79,76,,,,,,,,,,,right,1.3827450999997382,877.8543892999996,None,877.8543892999996,None,879.2539207,None,879.2539207,None,879.2539207,None,881.2359544000001,881.7358364000002,881.2359544000001,881.7358364000002,881.2359544000001,881.7358364000002,879.2539207,None,881.7690614599999,None,881.7690614599999,None,881.7690614599999,None,0.010881659998631221,None,881.7690614599999,None,881.7690614599999,None,881.7690614599999,None,881.7690614599999,None,881.7690614599999,None,881.7690614599999,None,881.7771537999997,None,881.7771537999997,None,881.7771537999997,None,0.0045560599992313655,0.5045560599992314,881.7771537999997,None,881.7771537999997,None,881.7771537999997,None,881.7771537999997,None,881.7771537999997,None,881.7771537999997,None,883.7683396000002,883.7683396000002,-3.6000000000000014,2.276,-200,-300,-250,,,,,,,,,,,,,,,,,,,,,,,,,,,,,,,,,,,,,,,,,,,,,,,,,,,,,,,,,,,,,,,,,,,,,,,,,,,,,,,,,,,f,24,lijia,2022-04-01_09h03.20.991,emotion,2022.1.2,60.06673414166093,
26,50,200,50,one,50,200,50,,,,,0,80,80,25,,,,,,,,,,,right,1.3418566999998802,886.1005563999997,None,886.1005563999997,None,887.4666389000004,None,887.4666389000004,None,887.4666389000004,None,889.4491873999996,889.9486694999996,889.4491873999996,889.9486694999996,889.4491873999996,889.9486694999996,887.4666389000004,None,889.9819415599998,None,889.9819415599998,None,889.9819415599998,None,0.010801559998981247,None,889.9819415599998,None,889.9819415599998,None,889.9819415599998,None,889.9819415599998,None,889.9819415599998,None,889.9819415599998,None,889.9900127000001,None,889.9900127000001,None,889.9900127000001,None,0.004139659999054857,0.5041396599990549,889.9900127000001,None,889.9900127000001,None,889.9900127000001,None,889.9900127000001,None,889.9900127000001,None,889.9900127000001,None,891.9810955000003,891.9810955000003,-4.200000000000003,1.957,-150,-100,-200,,,,,,,,,,,,,,,,,,,,,,,,,,,,,,,,,,,,,,,,,,,,,,,,,,,,,,,,,,,,,,,,,,,,,,,,,,,,,,,,,,,f,24,lijia,2022-04-01_09h03.20.991,emotion,2022.1.2,60.06673414166093,
47,200,50,200,two,200,50,200,,,,,0,81,81,46,,,,,,,,,,,right,1.118662800000493,893.9960074999999,None,893.9960074999999,None,895.1466334999996,None,895.1466334999996,None,895.1466334999996,None,897.1288795999999,897.6287795999997,897.1288795999999,897.6287795999997,897.1288795999999,897.6287795999997,895.1466334999996,None,897.6621765600005,None,897.6621765600005,None,897.6621765600005,None,0.010453159999997297,None,897.6621765600005,None,897.6621765600005,None,897.6621765600005,None,897.6621765600005,None,897.6621765600005,None,897.6621765600005,None,897.6710440999996,None,897.6710440999996,None,897.6710440999996,None,0.0027669600003719097,0.5027669600003719,897.6710440999996,None,897.6710440999996,None,897.6710440999996,None,897.6710440999996,None,897.6710440999996,None,897.6710440999996,None,899.6611771999997,899.6611771999997,-2.8999999999999986,2.61,50,-50,0,,,,,,,,,,,,,,,,,,,,,,,,,,,,,,,,,,,,,,,,,,,,,,,,,,,,,,,,,,,,,,,,,,,,,,,,,,,,,,,,,,,f,24,lijia,2022-04-01_09h03.20.991,emotion,2022.1.2,60.06673414166093,
94,-200,-200,-50,two,-200,-200,-50,,,,,0,82,82,93,,,,,,,,,,,right,1.9688945999996577,902.3264442,None,902.3264442,None,904.325581,None,904.325581,None,904.325581,None,906.3079558,906.8077776,906.3079558,906.8077776,906.3079558,906.8077776,904.325581,None,906.8410553599999,None,906.8410553599999,None,906.8410553599999,None,0.01062155999989045,None,906.8410553599999,None,906.8410553599999,None,906.8410553599999,None,906.8410553599999,None,906.8410553599999,None,906.8410553599999,None,906.8491830000003,None,906.8491830000003,None,906.8491830000003,None,0.0037989600004948443,0.5037989600004948,906.8491830000003,None,906.8491830000003,None,906.8491830000003,None,906.8491830000003,None,906.8491830000003,None,906.8491830000003,None,908.8404438999996,908.8404438999996,-1.8999999999999986,2.178,-150,-250,-50,,,,,,,,,,,,,,,,,,,,,,,,,,,,,,,,,,,,,,,,,,,,,,,,,,,,,,,,,,,,,,,,,,,,,,,,,,,,,,,,,,,f,24,lijia,2022-04-01_09h03.20.991,emotion,2022.1.2,60.06673414166093,
35,50,0,50,two,50,0,50,,,,,0,83,83,34,,,,,,,,,,,right,1.2992203000003428,911.0722690000002,None,911.0722690000002,None,912.3887576999996,None,912.3887576999996,None,912.3887576999996,None,914.3708458000001,914.8707828999995,914.3708458000001,914.8707828999995,914.3708458000001,914.8707828999995,912.3887576999996,None,914.9042523600003,None,914.9042523600003,None,914.9042523600003,None,0.010906260000410839,None,914.9042523600003,None,914.9042523600003,None,914.9042523600003,None,914.9042523600003,None,914.9042523600003,None,914.9042523600003,None,914.9122285000003,None,914.9122285000003,None,914.9122285000003,None,0.004574460000185354,0.5045744600001854,914.9122285000003,None,914.9122285000003,None,914.9122285000003,None,914.9122285000003,None,914.9122285000003,None,914.9122285000003,None,916.9031201999996,916.9031201999996,-1.8999999999999986,5.794,-100,-250,0,,,,,,,,,,,,,,,,,,,,,,,,,,,,,,,,,,,,,,,,,,,,,,,,,,,,,,,,,,,,,,,,,,,,,,,,,,,,,,,,,,,f,24,lijia,2022-04-01_09h03.20.991,emotion,2022.1.2,60.06673414166093,
7,0,50,200,two,0,50,200,,,,,0,84,84,6,,,,,,,,,,,right,1.8746694999999818,922.7504859999999,None,922.7504859999999,None,924.6499053999996,None,924.6499053999996,None,924.6499053999996,None,926.6318824,927.1321856000004,926.6318824,927.1321856000004,926.6318824,927.1321856000004,924.6499053999996,None,927.1650262599999,None,927.1650262599999,None,927.1650262599999,None,0.010880060000090452,None,927.1650262599999,None,927.1650262599999,None,927.1650262599999,None,927.1650262599999,None,927.1650262599999,None,927.1650262599999,None,927.1730656,None,927.1730656,None,927.1730656,None,0.004524559999481426,0.5045245599994814,927.1730656,None,927.1730656,None,927.1730656,None,927.1730656,None,927.1730656,None,927.1730656,None,929.1641910999997,929.1641910999997,-1.5,3.056,-100,-200,200,,,,,,,,,,,,,,,,,,,,,,,,,,,,,,,,,,,,,,,,,,,,,,,,,,,,,,,,,,,,,,,,,,,,,,,,,,,,,,,,,,,f,24,lijia,2022-04-01_09h03.20.991,emotion,2022.1.2,60.06673414166093,
52,-50,-200,0,one,-50,-200,0,,,,,0,85,85,51,,,,,,,,,,,right,1.3484387999997125,932.2784914000003,None,932.2784914000003,None,933.6456322000004,None,933.6456322000004,None,933.6456322000004,None,935.6280661999999,936.1280392999997,935.6280661999999,936.1280392999997,935.6280661999999,936.1280392999997,933.6456322000004,None,936.1447016599998,None,936.1447016599998,None,936.1447016599998,None,0.010131060000276193,None,936.1447016599998,None,936.1447016599998,None,936.1447016599998,None,936.1447016599998,None,936.1447016599998,None,936.1447016599998,None,936.1529627,None,936.1529627,None,936.1529627,None,0.0028468599994084798,0.5028468599994085,936.1529627,None,936.1529627,None,936.1529627,None,936.1529627,None,936.1529627,None,936.1529627,None,938.1436874000001,938.1436874000001,-1.7000000000000028,2.405,-150,-400,200,,,,,,,,,,,,,,,,,,,,,,,,,,,,,,,,,,,,,,,,,,,,,,,,,,,,,,,,,,,,,,,,,,,,,,,,,,,,,,,,,,,f,24,lijia,2022-04-01_09h03.20.991,emotion,2022.1.2,60.06673414166093,
51,-50,0,-200,one,-50,0,-200,,,,,0,86,86,50,,,,,,,,,,,right,2.929824599999847,940.6082348,None,940.6082348,None,943.5577721999998,None,943.5577721999998,None,943.5577721999998,None,945.5400853000001,946.0401601000003,945.5400853000001,946.0401601000003,945.5400853000001,946.0401601000003,943.5577721999998,None,946.0568224600004,None,946.0568224600004,None,946.0568224600004,None,0.010397060000286729,None,946.0568224600004,None,946.0568224600004,None,946.0568224600004,None,946.0568224600004,None,946.0568224600004,None,946.0568224600004,None,946.0646479999996,None,946.0646479999996,None,946.0646479999996,None,0.00393186000019341,0.5039318600001934,946.0646479999996,None,946.0646479999996,None,946.0646479999996,None,946.0646479999996,None,946.0646479999996,None,946.0646479999996,None,948.0559525999997,948.0559525999997,-1.5,2.51,-200,-400,0,,,,,,,,,,,,,,,,,,,,,,,,,,,,,,,,,,,,,,,,,,,,,,,,,,,,,,,,,,,,,,,,,,,,,,,,,,,,,,,,,,,f,24,lijia,2022-04-01_09h03.20.991,emotion,2022.1.2,60.06673414166093,
8,0,200,50,two,0,200,50,,,,,0,87,87,7,,,,,,,,,,,right,1.3409586999996463,950.6213883999999,None,950.6213883999999,None,951.9872574000001,None,951.9872574000001,None,951.9872574000001,None,953.9696431000002,954.4697047999998,953.9696431000002,954.4697047999998,953.9696431000002,954.4697047999998,951.9872574000001,None,954.4863671599999,None,954.4863671599999,None,954.4863671599999,None,0.010357059999478224,None,954.4863671599999,None,954.4863671599999,None,954.4863671599999,None,954.4863671599999,None,954.4863671599999,None,954.4863671599999,None,954.4945784000001,None,954.4945784000001,None,954.4945784000001,None,0.004076059999533754,0.5040760599995338,954.4945784000001,None,954.4945784000001,None,954.4945784000001,None,954.4945784000001,None,954.4945784000001,None,954.4945784000001,None,956.4850334000002,956.4850334000002,-3.3999999999999986,1.682,-200,-200,50,,,,,,,,,,,,,,,,,,,,,,,,,,,,,,,,,,,,,,,,,,,,,,,,,,,,,,,,,,,,,,,,,,,,,,,,,,,,,,,,,,,f,24,lijia,2022-04-01_09h03.20.991,emotion,2022.1.2,60.06673414166093,
2,0,200,50,one,0,200,50,,,,,0,88,88,1,,,,,,,,,,,right,1.0925109999998313,958.2177648999996,None,958.2177648999996,None,959.3340994999999,None,959.3340994999999,None,959.3340994999999,None,961.3163560000003,961.8163348999997,961.3163560000003,961.8163348999997,961.3163560000003,961.8163348999997,959.3340994999999,None,961.8492017600004,None,961.8492017600004,None,961.8492017600004,None,0.010983660000420059,None,961.8492017600004,None,961.8492017600004,None,961.8492017600004,None,961.8492017600004,None,961.8492017600004,None,961.8492017600004,None,961.8570989999998,None,961.8570989999998,None,961.8570989999998,None,0.004574460000185354,0.5045744600001854,961.8570989999998,None,961.8570989999998,None,961.8570989999998,None,961.8570989999998,None,961.8570989999998,None,961.8570989999998,None,963.8486543999998,963.8486543999998,-7.799999999999997,1.877,-200,0,100,,,,,,,,,,,,,,,,,,,,,,,,,,,,,,,,,,,,,,,,,,,,,,,,,,,,,,,,,,,,,,,,,,,,,,,,,,,,,,,,,,,f,24,lijia,2022-04-01_09h03.20.991,emotion,2022.1.2,60.06673414166093,
61,0,0,-50,one,0,0,-50,,,,,0,89,89,60,,,,,,,,,,,right,1.1372227000001658,965.7810294000001,None,965.7810294000001,None,966.9472884999996,None,966.9472884999996,None,966.9472884999996,None,968.9298572999996,969.4292855000003,968.9298572999996,969.4292855000003,968.9298572999996,969.4292855000003,966.9472884999996,None,969.4626798600004,None,969.4626798600004,None,969.4626798600004,None,0.010710760000620212,None,969.4626798600004,None,969.4626798600004,None,969.4626798600004,None,969.4626798600004,None,969.4626798600004,None,969.4626798600004,None,969.4707477000002,None,969.4707477000002,None,969.4707477000002,None,0.004318259999308793,0.5043182599993088,969.4707477000002,None,969.4707477000002,None,969.4707477000002,None,969.4707477000002,None,969.4707477000002,None,969.4707477000002,None,971.4619857999996,971.4619857999996,-6.399999999999999,3.215,-200,0,50,,,,,,,,,,,,,,,,,,,,,,,,,,,,,,,,,,,,,,,,,,,,,,,,,,,,,,,,,,,,,,,,,,,,,,,,,,,,,,,,,,,f,24,lijia,2022-04-01_09h03.20.991,emotion,2022.1.2,60.06673414166093,
55,0,-50,-200,two,0,-50,-200,,,,,0,90,90,54,,,,,,,,,,,right,0.950744400000076,974.7270245999998,None,974.7270245999998,None,975.7098495,None,975.7098495,None,975.7098495,None,977.6924597999996,978.1918599,977.6924597999996,978.1918599,977.6924597999996,978.1918599,975.7098495,None,978.2254874599996,None,978.2254874599996,None,978.2254874599996,None,0.01089175999914005,None,978.2254874599996,None,978.2254874599996,None,978.2254874599996,None,978.2254874599996,None,978.2254874599996,None,978.2254874599996,None,978.2335790999996,None,978.2335790999996,None,978.2335790999996,None,0.004393259999233123,0.5043932599992331,978.2335790999996,None,978.2335790999996,None,978.2335790999996,None,978.2335790999996,None,978.2335790999996,None,978.2335790999996,None,980.2247072,980.2247072,-4.299999999999997,2.273,-200,-50,-150,,,,,,,,,,,,,,,,,,,,,,,,,,,,,,,,,,,,,,,,,,,,,,,,,,,,,,,,,,,,,,,,,,,,,,,,,,,,,,,,,,,f,24,lijia,2022-04-01_09h03.20.991,emotion,2022.1.2,60.06673414166093,
63,-50,0,0,one,-50,0,0,,,,,0,91,91,62,,,,,,,,,,,right,1.1687959000000774,982.5559712000004,None,982.5559712000004,None,983.7560505000001,None,983.7560505000001,None,983.7560505000001,None,985.7387265999996,986.2385125000001,985.7387265999996,986.2385125000001,985.7387265999996,986.2385125000001,983.7560505000001,None,986.2551748600001,None,986.2551748600001,None,986.2551748600001,None,0.01054655999996612,None,986.2551748600001,None,986.2551748600001,None,986.2551748600001,None,986.2551748600001,None,986.2551748600001,None,986.2551748600001,None,986.2632752,None,986.2632752,None,986.2632752,None,0.0041880599992509815,0.504188059999251,986.2632752,None,986.2632752,None,986.2632752,None,986.2632752,None,986.2632752,None,986.2632752,None,988.2544422000001,988.2544422000001,-2.3999999999999986,2.061,-250,-50,-150,,,,,,,,,,,,,,,,,,,,,,,,,,,,,,,,,,,,,,,,,,,,,,,,,,,,,,,,,,,,,,,,,,,,,,,,,,,,,,,,,,,f,24,lijia,2022-04-01_09h03.20.991,emotion,2022.1.2,60.06673414166093,
67,0,0,-50,two,0,0,-50,,,,,0,92,92,66,,,,,,,,,,,right,1.4868153000006714,990.3697340999997,None,990.3697340999997,None,991.8856364000003,None,991.8856364000003,None,991.8856364000003,None,993.868297,994.3681741,993.868297,994.3681741,993.868297,994.3681741,991.8856364000003,None,994.3848364600001,None,994.3848364600001,None,994.3848364600001,None,0.010486860000128218,None,994.3848364600001,None,994.3848364600001,None,994.3848364600001,None,994.3848364600001,None,994.3848364600001,None,994.3848364600001,None,994.3929771000003,None,994.3929771000003,None,994.3929771000003,None,0.00421615999948699,0.504216159999487,994.3929771000003,None,994.3929771000003,None,994.3929771000003,None,994.3929771000003,None,994.3929771000003,None,994.3929771000003,None,996.3838985000002,996.3838985000002,-2.8999999999999986,2.606,-250,-50,-200,,,,,,,,,,,,,,,,,,,,,,,,,,,,,,,,,,,,,,,,,,,,,,,,,,,,,,,,,,,,,,,,,,,,,,,,,,,,,,,,,,,f,24,lijia,2022-04-01_09h03.20.991,emotion,2022.1.2,60.06673414166093,
24,200,0,0,two,200,0,0,,,,,0,93,93,23,,,,,,,,,,,right,1.176083700000163,999.0482788999998,None,999.0482788999998,None,1000.2489551999997,None,1000.2489551999997,None,1000.2489551999997,None,1002.2312760000004,1002.7308807,1002.2312760000004,1002.7308807,1002.2312760000004,1002.7308807,1000.2489551999997,None,1002.7643990600002,None,1002.7643990600002,None,1002.7643990600002,None,0.010956259999147733,None,1002.7643990600002,None,1002.7643990600002,None,1002.7643990600002,None,1002.7643990600002,None,1002.7643990600002,None,1002.7643990600002,None,1002.7725073000001,None,1002.7725073000001,None,1002.7725073000001,None,0.004718959999991057,0.5047189599999911,1002.7725073000001,None,1002.7725073000001,None,1002.7725073000001,None,1002.7725073000001,None,1002.7725073000001,None,1002.7725073000001,None,1004.7634618000002,1004.7634618000002,-2.299999999999997,2.555,-50,-50,-200,,,,,,,,,,,,,,,,,,,,,,,,,,,,,,,,,,,,,,,,,,,,,,,,,,,,,,,,,,,,,,,,,,,,,,,,,,,,,,,,,,,f,24,lijia,2022-04-01_09h03.20.991,emotion,2022.1.2,60.06673414166093,
44,200,0,200,two,200,0,200,,,,,0,94,94,43,,,,,,,,,,,right,1.2919388999998773,1007.3779586,None,1007.3779586,None,1008.6947799999998,None,1008.6947799999998,None,1008.6947799999998,None,1010.6771416000001,1011.1772570000003,1010.6771416000001,1011.1772570000003,1010.6771416000001,1011.1772570000003,1008.6947799999998,None,1011.1939193600003,None,1011.1939193600003,None,1011.1939193600003,None,0.0103882599996723,None,1011.1939193600003,None,1011.1939193600003,None,1011.1939193600003,None,1011.1939193600003,None,1011.1939193600003,None,1011.1939193600003,None,1011.202276,None,1011.202276,None,1011.202276,None,0.0038981600000624894,0.5038981600000625,1011.202276,None,1011.202276,None,1011.202276,None,1011.202276,None,1011.202276,None,1011.202276,None,1013.1928975000001,1013.1928975000001,-2.299999999999997,5.026,150,-50,0,,,,,,,,,,,,,,,,,,,,,,,,,,,,,,,,,,,,,,,,,,,,,,,,,,,,,,,,,,,,,,,,,,,,,,,,,,,,,,,,,,,f,24,lijia,2022-04-01_09h03.20.991,emotion,2022.1.2,60.06673414166093,
