trialNumber,mychoice,otherchoice,stay,skip,pointsWon,otherScore,unobtained,choicepos,pos_1,otherscore,allowedkeyresp,trials_2.thisRepN,trials_2.thisTrialN,trials_2.thisN,trials_2.thisIndex,trials.thisRepN,trials.thisTrialN,trials.thisN,trials.thisIndex,image_2.started,image_2.stopped,key_resp_2.keys,key_resp_2.rt,key_resp_2.started,key_resp_2.stopped,key_resp_6.keys,key_resp_6.rt,key_resp_6.started,key_resp_6.stopped,text.started,text.stopped,left_3.started,left_3.stopped,middle_3.started,middle_3.stopped,right_3.started,right_3.stopped,otherleft_1.started,otherleft_1.stopped,othermiddle_1.started,othermiddle_1.stopped,otherright_1.started,otherright_1.stopped,text_2.started,text_2.stopped,left_4.started,left_4.stopped,right_4.started,right_4.stopped,middle_4.started,middle_4.stopped,ISI_3.started,ISI_3.stopped,mypick.started,mypick.stopped,otherpick.started,otherpick.stopped,residal.started,residal.stopped,otherleft_5.started,otherleft_5.stopped,othermiddle_5.started,othermiddle_5.stopped,otherright_5.started,otherright_5.stopped,left_5.started,left_5.stopped,right_5.started,right_5.stopped,middle_5.started,middle_5.stopped,ISI_5.started,ISI_5.stopped,mypick_1.started,mypick_1.stopped,otherpick_1.started,otherpick_1.stopped,residal_1.started,residal_1.stopped,otherleft_6.started,otherleft_6.stopped,othermiddle_6.started,othermiddle_6.stopped,otherright_6.started,otherright_6.stopped,text_3.started,text_3.stopped,rating,ratingrt,totalScore,othertotalScore,unobtainedScore,image_4.started,image_4.stopped,key_resp_3.keys,key_resp_3.rt,key_resp_3.started,key_resp_3.stopped,image_5.started,image_5.stopped,key_resp.keys,key_resp.rt,key_resp.started,key_resp.stopped,otherleft_3.started,otherleft_3.stopped,othermiddle_3.started,othermiddle_3.stopped,otherright_3.started,otherright_3.stopped,text_4.started,text_4.stopped,ISI_2.started,ISI_2.stopped,key_resp_4.keys,key_resp_4.rt,key_resp_4.started,key_resp_4.stopped,otherleft_4.started,otherleft_4.stopped,othermiddle_4.started,othermiddle_4.stopped,otherright_4.started,otherright_4.stopped,text_5.started,text_5.stopped,left.started,left.stopped,right.started,right.stopped,middle.started,middle.stopped,ISI.started,ISI.stopped,mypick_3.started,mypick_3.stopped,otherpick_3.started,otherpick_3.stopped,residal_3.started,residal_3.stopped,otherleft.started,otherleft.stopped,othermiddle.started,othermiddle.stopped,otherright.started,otherright.stopped,right_2.started,right_2.stopped,middle_2.started,middle_2.stopped,left_2.started,left_2.stopped,ISI_4.started,ISI_4.stopped,mypick_4.started,mypick_4.stopped,otherpick_4.started,otherpick_4.stopped,residal_4.started,residal_4.stopped,otherleft_2.started,otherleft_2.stopped,othermiddle_2.started,othermiddle_2.stopped,otherright_2.started,otherright_2.stopped,text_6.started,text_6.stopped,image_3.started,image_3.stopped,key_resp_9.keys,key_resp_9.rt,key_resp_9.started,key_resp_9.stopped,gender,age,participant,date,expName,psychopyVersion,frameRate,
,,,,,,,,,,,,,,,,,,,,30.594277100026375,None,space,7.67001280002296,30.594277100026375,None,,,,,,,,,,,,,,,,,,,,,,,,,,,,,,,,,,,,,,,,,,,,,,,,,,,,,,,,,,,,,,,,,,,,,,,,,,,,,,,,,,,,,,,,,,,,,,,,,,,,,,,,,,,,,,,,,,,,,,,,,,,,,,,,,,,,,,,,,,,,,,,,,,,,,,f,28,lilihong,2022_Apr_01_1456,emotion,2021.1.4,60.91050236602098,
69,-50,0,0,two,-50,0,0,,,,,0,0,0,68,,,,,,,,,,,down,1.7100854000018444,38.35332860000199,None,38.35332860000199,None,40.09449690001202,None,40.09449690001202,None,40.09449690001202,None,42.067039400018984,42.56711660002475,42.067039400018984,42.56711660002475,42.067039400018984,42.56711660002475,40.09449690001202,None,42.60055439000716,None,42.60055439000716,None,42.60055439000716,None,0.006178089999593794,None,42.60055439000716,None,42.60055439000716,None,42.60055439000716,None,42.60055439000716,None,42.60055439000716,None,42.60055439000716,None,42.61739820000366,None,42.61739820000366,None,42.61739820000366,None,0.012688079994404688,0.5126880799944047,42.61739820000366,None,42.61739820000366,None,42.61739820000366,None,42.61739820000366,None,42.61739820000366,None,42.61739820000366,None,44.600032100017415,44.600032100017415,-38.4,4.159,150,0,0,,,,,,,,,,,,,,,,,,,,,,,,,,,,,,,,,,,,,,,,,,,,,,,,,,,,,,,,,,,,,,,,,,,,,,,,,,,,,,,,,,,f,28,lilihong,2022_Apr_01_1456,emotion,2021.1.4,60.91050236602098,
31,200,50,50,two,200,50,50,,,,,0,1,1,30,,,,,,,,,,,down,3.3943498999869917,48.847584700008156,None,48.847584700008156,None,52.265794900013134,None,52.265794900013134,None,52.265794900013134,None,54.2481126000057,54.748093900008826,54.2481126000057,54.748093900008826,54.2481126000057,54.748093900008826,52.265794900013134,None,54.764796590007606,None,54.764796590007606,None,54.764796590007606,None,0.006638589984504506,None,54.764796590007606,None,54.764796590007606,None,54.764796590007606,None,54.764796590007606,None,54.764796590007606,None,54.764796590007606,None,54.779836800007615,None,54.779836800007615,None,54.779836800007615,None,0.015007779991719872,0.5150077799917199,54.779836800007615,None,54.779836800007615,None,54.779836800007615,None,54.779836800007615,None,54.779836800007615,None,54.779836800007615,None,56.76409660000354,56.76409660000354,42.8,3.259,350,50,50,,,,,,,,,,,,,,,,,,,,,,,,,,,,,,,,,,,,,,,,,,,,,,,,,,,,,,,,,,,,,,,,,,,,,,,,,,,,,,,,,,,f,28,lilihong,2022_Apr_01_1456,emotion,2021.1.4,60.91050236602098,
88,-200,-200,-50,one,-200,-200,-50,,,,,0,2,2,87,,,,,,,,,,,right,5.834154200012563,60.07916980001028,None,60.07916980001028,None,65.93587770001614,None,65.93587770001614,None,65.93587770001614,None,67.91199160000542,68.4120822000259,67.91199160000542,68.4120822000259,67.91199160000542,68.4120822000259,65.93587770001614,None,68.44551239000866,None,68.44551239000866,None,68.44551239000866,None,0.008290589990792796,None,68.44551239000866,None,68.44551239000866,None,68.44551239000866,None,68.44551239000866,None,68.44551239000866,None,68.44551239000866,None,68.45951880002394,None,68.45951880002394,None,68.45951880002394,None,0.015882680017966777,0.5158826800179668,68.45951880002394,None,68.45951880002394,None,68.45951880002394,None,68.45951880002394,None,68.45951880002394,None,68.45951880002394,None,70.44486320001306,70.44486320001306,-30.0,5.923,150,-150,0,,,,,,,,,,,,,,,,,,,,,,,,,,,,,,,,,,,,,,,,,,,,,,,,,,,,,,,,,,,,,,,,,,,,,,,,,,,,,,,,,,,f,28,lilihong,2022_Apr_01_1456,emotion,2021.1.4,60.91050236602098,
56,0,-200,-50,two,0,-200,-50,,,,,0,3,3,55,,,,,,,,,,,down,4.1162238999968395,76.46177829999942,None,76.46177829999942,None,80.5989706000255,None,80.5989706000255,None,80.5989706000255,None,82.57581780001055,83.07548870000755,82.57581780001055,83.07548870000755,82.57581780001055,83.07548870000755,80.5989706000255,None,83.10921859000227,None,83.10921859000227,None,83.10921859000227,None,0.011429089994635433,None,83.10921859000227,None,83.10921859000227,None,83.10921859000227,None,83.10921859000227,None,83.10921859000227,None,83.10921859000227,None,83.11849860000075,None,83.11849860000075,None,83.11849860000075,None,0.004492289968766272,0.5044922899687663,83.11849860000075,None,83.11849860000075,None,83.11849860000075,None,83.11849860000075,None,83.11849860000075,None,83.11849860000075,None,85.10895980001078,85.10895980001078,41.099999999999994,3.7,150,-350,-50,,,,,,,,,,,,,,,,,,,,,,,,,,,,,,,,,,,,,,,,,,,,,,,,,,,,,,,,,,,,,,,,,,,,,,,,,,,,,,,,,,,f,28,lilihong,2022_Apr_01_1456,emotion,2021.1.4,60.91050236602098,
85,-200,-200,0,one,-200,-200,0,,,,,0,4,4,84,,,,,,,,,,,right,3.8206950000021607,88.87358740001218,None,88.87358740001218,None,92.73245970002608,None,92.73245970002608,None,92.73245970002608,None,94.70710650002002,95.20681940001668,94.70710650002002,95.20681940001668,94.70710650002002,95.20681940001668,92.73245970002608,None,95.24020219001686,None,95.24020219001686,None,95.24020219001686,None,0.011387890001060441,None,95.24020219001686,None,95.24020219001686,None,95.24020219001686,None,95.24020219001686,None,95.24020219001686,None,95.24020219001686,None,95.24971740000183,None,95.24971740000183,None,95.24971740000183,None,0.004660389997297898,0.5046603899972979,95.24971740000183,None,95.24971740000183,None,95.24971740000183,None,95.24971740000183,None,95.24971740000183,None,95.24971740000183,None,97.2397389000107,97.2397389000107,-19.3,3.961,-50,-550,-50,,,,,,,,,,,,,,,,,,,,,,,,,,,,,,,,,,,,,,,,,,,,,,,,,,,,,,,,,,,,,,,,,,,,,,,,,,,,,,,,,,,f,28,lilihong,2022_Apr_01_1456,emotion,2021.1.4,60.91050236602098,
29,50,0,50,one,50,0,50,,,,,0,5,5,28,,,,,,,,,,,right,4.620173799979966,101.25423420002335,None,101.25423420002335,None,105.89315040002111,None,105.89315040002111,None,105.89315040002111,None,107.87095030001365,108.37069710000651,107.87095030001365,108.37069710000651,107.87095030001365,108.37069710000651,105.89315040002111,None,108.40438729001907,None,108.40438729001907,None,108.40438729001907,None,0.011470589990494773,None,108.40438729001907,None,108.40438729001907,None,108.40438729001907,None,108.40438729001907,None,108.40438729001907,None,108.40438729001907,None,108.41393480001716,None,108.41393480001716,None,108.41393480001716,None,0.0052425900066737086,0.5052425900066737,108.41393480001716,None,108.41393480001716,None,108.41393480001716,None,108.41393480001716,None,108.41393480001716,None,108.41393480001716,None,110.40379980002763,110.40379980002763,5.299999999999997,5.163,0,-550,0,,,,,,,,,,,,,,,,,,,,,,,,,,,,,,,,,,,,,,,,,,,,,,,,,,,,,,,,,,,,,,,,,,,,,,,,,,,,,,,,,,,f,28,lilihong,2022_Apr_01_1456,emotion,2021.1.4,60.91050236602098,
18,200,0,0,one,200,0,0,,,,,0,6,6,17,,,,,,,,,,,down,1.7712461999908555,115.6195471000101,None,115.6195471000101,None,117.42399590002606,None,117.42399590002606,None,117.42399590002606,None,119.40203830000246,119.90193130000262,119.40203830000246,119.90193130000262,119.40203830000246,119.90193130000262,117.42399590002606,None,119.93530799001455,None,119.93530799001455,None,119.93530799001455,None,0.011649989988654852,None,119.93530799001455,None,119.93530799001455,None,119.93530799001455,None,119.93530799001455,None,119.93530799001455,None,119.93530799001455,None,119.94495010000537,None,119.94495010000537,None,119.94495010000537,None,0.00432818997069262,0.5043281899706926,119.94495010000537,None,119.94495010000537,None,119.94495010000537,None,119.94495010000537,None,119.94495010000537,None,119.94495010000537,None,121.93477290001465,121.93477290001465,14.400000000000006,3.785,200,-550,0,,,,,,,,,,,,,,,,,,,,,,,,,,,,,,,,,,,,,,,,,,,,,,,,,,,,,,,,,,,,,,,,,,,,,,,,,,,,,,,,,,,f,28,lilihong,2022_Apr_01_1456,emotion,2021.1.4,60.91050236602098,
74,-50,-200,-50,one,-50,-200,-50,,,,,0,7,7,73,,,,,,,,,,,down,4.579692100000102,125.78240300001926,None,125.78240300001926,None,130.38806890000706,None,130.38806890000706,None,130.38806890000706,None,132.3659979000222,132.86603430000832,132.3659979000222,132.86603430000832,132.3659979000222,132.86603430000832,130.38806890000706,None,132.89929909001222,None,132.89929909001222,None,132.89929909001222,None,0.0036880899860989302,None,132.89929909001222,None,132.89929909001222,None,132.89929909001222,None,132.89929909001222,None,132.89929909001222,None,132.89929909001222,None,132.92937940001138,None,132.92937940001138,None,132.92937940001138,None,0.004466679994948208,0.5044666799949482,132.92937940001138,None,132.92937940001138,None,132.92937940001138,None,132.92937940001138,None,132.92937940001138,None,132.92937940001138,None,134.91540650001843,134.91540650001843,12.0,2.737,150,-750,-50,,,,,,,,,,,,,,,,,,,,,,,,,,,,,,,,,,,,,,,,,,,,,,,,,,,,,,,,,,,,,,,,,,,,,,,,,,,,,,,,,,,f,28,lilihong,2022_Apr_01_1456,emotion,2021.1.4,60.91050236602098,
73,-200,-50,-50,one,-200,-50,-50,,,,,0,8,8,72,,,,,,,,,,,down,3.29374480000115,137.7134756000014,None,137.7134756000014,None,141.03611929999897,None,141.03611929999897,None,141.03611929999897,None,143.01365850001457,143.51361380002345,143.01365850001457,143.51361380002345,143.01365850001457,143.51361380002345,141.03611929999897,None,143.54812468999882,None,143.54812468999882,None,143.54812468999882,None,0.009060689975740388,None,143.54812468999882,None,143.54812468999882,None,143.54812468999882,None,143.54812468999882,None,143.54812468999882,None,143.54812468999882,None,143.56023940001614,None,143.56023940001614,None,143.56023940001614,None,0.01660668000113219,0.5166066800011322,143.56023940001614,None,143.56023940001614,None,143.56023940001614,None,143.56023940001614,None,143.56023940001614,None,143.56023940001614,None,145.5469079000177,145.5469079000177,-33.2,2.65,-50,-800,-100,,,,,,,,,,,,,,,,,,,,,,,,,,,,,,,,,,,,,,,,,,,,,,,,,,,,,,,,,,,,,,,,,,,,,,,,,,,,,,,,,,,f,28,lilihong,2022_Apr_01_1456,emotion,2021.1.4,60.91050236602098,
7,0,50,200,two,0,50,200,,,,,0,9,9,6,,,,,,,,,,,right,2.9788592999975663,148.26201920001768,None,148.26201920001768,None,151.2664648000209,None,151.2664648000209,None,151.2664648000209,None,153.24539070000174,153.74524170000223,153.24539070000174,153.74524170000223,153.24539070000174,153.74524170000223,151.2664648000209,None,153.77863319001045,None,153.77863319001045,None,153.77863319001045,None,0.011409889993956313,None,153.77863319001045,None,153.77863319001045,None,153.77863319001045,None,153.77863319001045,None,153.77863319001045,None,153.77863319001045,None,153.7881073000026,None,153.7881073000026,None,153.7881073000026,None,0.004266089992597699,0.5042660899925977,153.7881073000026,None,153.7881073000026,None,153.7881073000026,None,153.7881073000026,None,153.7881073000026,None,153.7881073000026,None,155.77803440002026,155.77803440002026,30.200000000000003,2.746,-50,-750,100,,,,,,,,,,,,,,,,,,,,,,,,,,,,,,,,,,,,,,,,,,,,,,,,,,,,,,,,,,,,,,,,,,,,,,,,,,,,,,,,,,,f,28,lilihong,2022_Apr_01_1456,emotion,2021.1.4,60.91050236602098,
87,0,-200,-200,one,0,-200,-200,,,,,0,10,10,86,,,,,,,,,,,down,3.911597400001483,158.60006720002275,None,158.60006720002275,None,162.53419440001016,None,162.53419440001016,None,162.53419440001016,None,164.50979609999922,165.00971160002518,164.50979609999922,165.00971160002518,164.50979609999922,165.00971160002518,162.53419440001016,None,165.04306489000447,None,165.04306489000447,None,165.04306489000447,None,0.011583089974010363,None,165.04306489000447,None,165.04306489000447,None,165.04306489000447,None,165.04306489000447,None,165.04306489000447,None,165.04306489000447,None,165.0524661000236,None,165.0524661000236,None,165.0524661000236,None,0.004595889971824363,0.5045958899718244,165.0524661000236,None,165.0524661000236,None,165.0524661000236,None,165.0524661000236,None,165.0524661000236,None,165.0524661000236,None,167.04269120001118,167.04269120001118,31.900000000000006,3.166,-50,-950,-100,,,,,,,,,,,,,,,,,,,,,,,,,,,,,,,,,,,,,,,,,,,,,,,,,,,,,,,,,,,,,,,,,,,,,,,,,,,,,,,,,,,f,28,lilihong,2022_Apr_01_1456,emotion,2021.1.4,60.91050236602098,
36,50,50,0,two,50,50,0,,,,,0,11,11,35,,,,,,,,,,,left,2.5759585999767296,170.26222490001237,None,170.26222490001237,None,172.86312390002422,None,172.86312390002422,None,172.86312390002422,None,174.841467500024,175.34098360000644,174.841467500024,175.34098360000644,174.841467500024,175.34098360000644,172.86312390002422,None,175.37435079000426,None,175.37435079000426,None,175.37435079000426,None,0.011567589972401038,None,175.37435079000426,None,175.37435079000426,None,175.37435079000426,None,175.37435079000426,None,175.37435079000426,None,175.37435079000426,None,175.38413360001869,None,175.38413360001869,None,175.38413360001869,None,0.004620689986040816,0.5046206899860408,175.38413360001869,None,175.38413360001869,None,175.38413360001869,None,175.38413360001869,None,175.38413360001869,None,175.38413360001869,None,177.3739447000262,177.3739447000262,25.0,2.875,0,-900,-100,,,,,,,,,,,,,,,,,,,,,,,,,,,,,,,,,,,,,,,,,,,,,,,,,,,,,,,,,,,,,,,,,,,,,,,,,,,,,,,,,,,f,28,lilihong,2022_Apr_01_1456,emotion,2021.1.4,60.91050236602098,
75,-50,-50,-200,one,-50,-50,-200,,,,,0,12,12,74,,,,,,,,,,,down,3.077663100004429,180.3050179000129,None,180.3050179000129,None,183.42139470000984,None,183.42139470000984,None,183.42139470000984,None,185.38901100002113,185.88891910001985,185.38901100002113,185.88891910001985,185.38901100002113,185.88891910001985,183.42139470000984,None,185.92227319000523,None,185.92227319000523,None,185.92227319000523,None,0.010993089992552996,None,185.92227319000523,None,185.92227319000523,None,185.92227319000523,None,185.92227319000523,None,185.92227319000523,None,185.92227319000523,None,185.93152770001325,None,185.93152770001325,None,185.93152770001325,None,0.004416289972141385,0.5044162899721414,185.93152770001325,None,185.93152770001325,None,185.93152770001325,None,185.93152770001325,None,185.93152770001325,None,185.93152770001325,None,187.92183910001768,187.92183910001768,12.0,3.32,-50,-950,-300,,,,,,,,,,,,,,,,,,,,,,,,,,,,,,,,,,,,,,,,,,,,,,,,,,,,,,,,,,,,,,,,,,,,,,,,,,,,,,,,,,,f,28,lilihong,2022_Apr_01_1456,emotion,2021.1.4,60.91050236602098,
26,50,200,50,one,50,200,50,,,,,0,13,13,25,,,,,,,,,,,right,3.9942612999875564,191.30339220000315,None,191.30339220000315,None,195.32853650001925,None,195.32853650001925,None,195.32853650001925,None,197.3033354000072,197.80333970001084,197.3033354000072,197.80333970001084,197.3033354000072,197.80333970001084,195.32853650001925,None,197.83662119002548,None,197.83662119002548,None,197.83662119002548,None,0.011617890006164089,None,197.83662119002548,None,197.83662119002548,None,197.83662119002548,None,197.83662119002548,None,197.83662119002548,None,197.83662119002548,None,197.84543720001238,None,197.84543720001238,None,197.84543720001238,None,0.004079189995536581,0.5040791899955366,197.84543720001238,None,197.84543720001238,None,197.84543720001238,None,197.84543720001238,None,197.84543720001238,None,197.84543720001238,None,199.83630240001366,199.83630240001366,6.600000000000001,3.092,0,-750,-250,,,,,,,,,,,,,,,,,,,,,,,,,,,,,,,,,,,,,,,,,,,,,,,,,,,,,,,,,,,,,,,,,,,,,,,,,,,,,,,,,,,f,28,lilihong,2022_Apr_01_1456,emotion,2021.1.4,60.91050236602098,
79,-200,-50,-50,two,-200,-50,-50,,,,,0,14,14,78,,,,,,,,,,,down,5.816886200016597,202.9839719000156,None,202.9839719000156,None,208.81843579999986,None,208.81843579999986,None,208.81843579999986,None,210.80086130002746,211.3006203000259,210.80086130002746,211.3006203000259,210.80086130002746,211.3006203000259,208.81843579999986,None,211.33353679002613,None,211.33353679002613,None,211.33353679002613,None,0.011785990005591884,None,211.33353679002613,None,211.33353679002613,None,211.33353679002613,None,211.33353679002613,None,211.33353679002613,None,211.33353679002613,None,211.34288240000024,None,211.34288240000024,None,211.34288240000024,None,0.004246590018738061,0.5042465900187381,211.34288240000024,None,211.34288240000024,None,211.34288240000024,None,211.34288240000024,None,211.34288240000024,None,211.34288240000024,None,213.3332178000128,213.3332178000128,-38.8,2.716,-200,-800,-300,,,,,,,,,,,,,,,,,,,,,,,,,,,,,,,,,,,,,,,,,,,,,,,,,,,,,,,,,,,,,,,,,,,,,,,,,,,,,,,,,,,f,28,lilihong,2022_Apr_01_1456,emotion,2021.1.4,60.91050236602098,
59,-200,-50,0,two,-200,-50,0,,,,,0,15,15,58,,,,,,,,,,,down,3.903529000002891,216.10316420000163,None,216.10316420000163,None,220.0369034000032,None,220.0369034000032,None,220.0369034000032,None,222.0179168000177,222.53168060001917,222.0179168000177,222.53168060001917,222.0179168000177,222.53168060001917,220.0369034000032,None,222.54838329001797,None,222.54838329001797,None,222.54838329001797,None,0.011620990000665188,None,222.54838329001797,None,222.54838329001797,None,222.54838329001797,None,222.54838329001797,None,222.54838329001797,None,222.54838329001797,None,222.55818590000854,None,222.55818590000854,None,222.55818590000854,None,0.004309990006731823,0.5043099900067318,222.55818590000854,None,222.55818590000854,None,222.55818590000854,None,222.55818590000854,None,222.55818590000854,None,222.55818590000854,None,224.54879380000057,224.54879380000057,-46.2,3.349,-400,-850,-300,,,,,,,,,,,,,,,,,,,,,,,,,,,,,,,,,,,,,,,,,,,,,,,,,,,,,,,,,,,,,,,,,,,,,,,,,,,,,,,,,,,f,28,lilihong,2022_Apr_01_1456,emotion,2021.1.4,60.91050236602098,
86,-200,0,-200,one,-200,0,-200,,,,,0,16,16,85,,,,,,,,,,,down,3.858960899990052,227.96299690002343,None,227.96299690002343,None,231.85103610000806,None,231.85103610000806,None,231.85103610000806,None,233.82949230002123,234.32937120000133,233.82949230002123,234.32937120000133,233.82949230002123,234.32937120000133,231.85103610000806,None,234.36271689001006,None,234.36271689001006,None,234.36271689001006,None,0.011422289971960708,None,234.36271689001006,None,234.36271689001006,None,234.36271689001006,None,234.36271689001006,None,234.36271689001006,None,234.36271689001006,None,234.37320660002297,None,234.37320660002297,None,234.37320660002297,None,0.004445689992280677,0.5044456899922807,234.37320660002297,None,234.37320660002297,None,234.37320660002297,None,234.37320660002297,None,234.37320660002297,None,234.37320660002297,None,236.3622815000126,236.3622815000126,-39.4,6.183,-600,-850,-500,,,,,,,,,,,,,,,,,,,,,,,,,,,,,,,,,,,,,,,,,,,,,,,,,,,,,,,,,,,,,,,,,,,,,,,,,,,,,,,,,,,f,28,lilihong,2022_Apr_01_1456,emotion,2021.1.4,60.91050236602098,
41,200,50,200,one,200,50,200,,,,,0,17,17,40,,,,,,,,,,,down,2.285527500003809,242.6010174000112,None,242.6010174000112,None,244.9102530000091,None,244.9102530000091,None,244.9102530000091,None,246.89358390000416,247.3934560000198,246.89358390000416,247.3934560000198,246.89358390000416,247.3934560000198,244.9102530000091,None,247.4101586900186,None,247.4101586900186,None,247.4101586900186,None,0.009600190009223297,None,247.4101586900186,None,247.4101586900186,None,247.4101586900186,None,247.4101586900186,None,247.4101586900186,None,247.4101586900186,None,247.42232640000293,None,247.42232640000293,None,247.42232640000293,None,0.0006011899968143553,0.5006011899968144,247.42232640000293,None,247.42232640000293,None,247.42232640000293,None,247.42232640000293,None,247.42232640000293,None,247.42232640000293,None,249.40974560001632,249.40974560001632,33.3,3.795,-400,-800,-300,,,,,,,,,,,,,,,,,,,,,,,,,,,,,,,,,,,,,,,,,,,,,,,,,,,,,,,,,,,,,,,,,,,,,,,,,,,,,,,,,,,f,28,lilihong,2022_Apr_01_1456,emotion,2021.1.4,60.91050236602098,
42,50,200,200,one,50,200,200,,,,,0,18,18,41,,,,,,,,,,,left,5.148071900010109,253.2593178000243,None,253.2593178000243,None,258.4253862000187,None,258.4253862000187,None,258.4253862000187,None,260.4096065000049,260.92415730000357,260.4096065000049,260.92415730000357,260.4096065000049,260.92415730000357,258.4253862000187,None,260.94085999000237,None,260.94085999000237,None,260.94085999000237,None,0.011527489958098158,None,260.94085999000237,None,260.94085999000237,None,260.94085999000237,None,260.94085999000237,None,260.94085999000237,None,260.94085999000237,None,260.95019709999906,None,260.95019709999906,None,260.95019709999906,None,0.004172889981418848,0.5041728899814188,260.95019709999906,None,260.95019709999906,None,260.95019709999906,None,260.95019709999906,None,260.95019709999906,None,260.95019709999906,None,262.9402453000075,262.9402453000075,-14.700000000000003,2.485,-350,-600,-100,,,,,,,,,,,,,,,,,,,,,,,,,,,,,,,,,,,,,,,,,,,,,,,,,,,,,,,,,,,,,,,,,,,,,,,,,,,,,,,,,,,f,28,lilihong,2022_Apr_01_1456,emotion,2021.1.4,60.91050236602098,
61,0,0,-50,one,0,0,-50,,,,,0,19,19,60,,,,,,,,,,,down,2.724530199979199,265.4782549000229,None,265.4782549000229,None,268.2283500000194,None,268.2283500000194,None,268.2283500000194,None,270.2056455000129,270.70554660001653,270.2056455000129,270.70554660001653,270.2056455000129,270.70554660001653,268.2283500000194,None,270.7388686900202,None,270.7388686900202,None,270.7388686900202,None,0.011691989988321438,None,270.7388686900202,None,270.7388686900202,None,270.7388686900202,None,270.7388686900202,None,270.7388686900202,None,270.7388686900202,None,270.7488712000195,None,270.7488712000195,None,270.7488712000195,None,0.004581290006171912,0.5045812900061719,270.7488712000195,None,270.7488712000195,None,270.7488712000195,None,270.7488712000195,None,270.7488712000195,None,270.7488712000195,None,272.73848530001123,272.73848530001123,8.899999999999999,4.628,-350,-600,-150,,,,,,,,,,,,,,,,,,,,,,,,,,,,,,,,,,,,,,,,,,,,,,,,,,,,,,,,,,,,,,,,,,,,,,,,,,,,,,,,,,,f,28,lilihong,2022_Apr_01_1456,emotion,2021.1.4,60.91050236602098,
67,0,0,-50,two,0,0,-50,,,,,0,20,20,66,,,,,,,,,,,right,5.6061572000035085,277.4209656000021,None,277.4209656000021,None,283.0563772000023,None,283.0563772000023,None,283.0563772000023,None,285.03701,285.55270190001465,285.03701,285.55270190001465,285.03701,285.55270190001465,283.0563772000023,None,285.56940459001345,None,285.56940459001345,None,285.56940459001345,None,0.011704089993145317,None,285.56940459001345,None,285.56940459001345,None,285.56940459001345,None,285.56940459001345,None,285.56940459001345,None,285.56940459001345,None,285.57930550002493,None,285.57930550002493,None,285.57930550002493,None,0.0043962899944745,0.5043962899944745,285.57930550002493,None,285.57930550002493,None,285.57930550002493,None,285.57930550002493,None,285.57930550002493,None,285.57930550002493,None,287.568645500025,287.568645500025,8.0,2.313,-350,-600,-200,,,,,,,,,,,,,,,,,,,,,,,,,,,,,,,,,,,,,,,,,,,,,,,,,,,,,,,,,,,,,,,,,,,,,,,,,,,,,,,,,,,f,28,lilihong,2022_Apr_01_1456,emotion,2021.1.4,60.91050236602098,
55,0,-50,-200,two,0,-50,-200,,,,,0,21,21,54,,,,,,,,,,,down,15.774864199978765,289.9402464000159,None,289.9402464000159,None,305.73470920001273,None,305.73470920001273,None,305.73470920001273,None,307.71487160000834,308.2148318000254,307.71487160000834,308.2148318000254,307.71487160000834,308.2148318000254,305.73470920001273,None,308.2489169900189,None,308.2489169900189,None,308.2489169900189,None,0.008701290003955364,None,308.2489169900189,None,308.2489169900189,None,308.2489169900189,None,308.2489169900189,None,308.2489169900189,None,308.2489169900189,None,308.2620569000137,None,308.2620569000137,None,308.2620569000137,None,0.00019868998788297176,0.500198689987883,308.2620569000137,None,308.2620569000137,None,308.2620569000137,None,308.2620569000137,None,308.2620569000137,None,308.2620569000137,None,310.2477232000092,310.2477232000092,7.600000000000001,5.225,-350,-650,-400,,,,,,,,,,,,,,,,,,,,,,,,,,,,,,,,,,,,,,,,,,,,,,,,,,,,,,,,,,,,,,,,,,,,,,,,,,,,,,,,,,,f,28,lilihong,2022_Apr_01_1456,emotion,2021.1.4,60.91050236602098,
94,-200,-200,-50,two,-200,-200,-50,,,,,0,22,22,93,,,,,,,,,,,right,7.359984400012763,315.52464430002146,None,315.52464430002146,None,322.9142832000216,None,322.9142832000216,None,322.9142832000216,None,324.8948650000093,325.3947602000262,324.8948650000093,325.3947602000262,324.8948650000093,325.3947602000262,322.9142832000216,None,325.42798089001445,None,325.42798089001445,None,325.42798089001445,None,0.0112161900033243,None,325.42798089001445,None,325.42798089001445,None,325.42798089001445,None,325.42798089001445,None,325.42798089001445,None,325.42798089001445,None,325.43661870001233,None,325.43661870001233,None,325.43661870001233,None,0.003644490003352985,0.503644490003353,325.43661870001233,None,325.43661870001233,None,325.43661870001233,None,325.43661870001233,None,325.43661870001233,None,325.43661870001233,None,327.44329339002144,None,-41.0,3.007,-550,-850,-450,,,,,,,,,,,,,,,,,,,,,,,,,,,,,,,,,,,,,,,,,,,,,,,,,,,,,,,,,,,,,,,,,,,,,,,,,,,,,,,,,,,f,28,lilihong,2022_Apr_01_1456,emotion,2021.1.4,60.91050236602098,
27,50,50,200,one,50,50,200,,,,,0,23,23,26,,,,,,,,,,,down,3.869739200017648,330.4954351000197,None,330.4954351000197,None,334.39900550001767,None,334.39900550001767,None,334.39900550001767,None,336.37670310001704,336.87563710001996,336.37670310001704,336.87563710001996,336.37670310001704,336.87563710001996,334.39900550001767,None,336.90946309001885,None,336.90946309001885,None,336.90946309001885,None,0.009275889984564856,None,336.90946309001885,None,336.90946309001885,None,336.90946309001885,None,336.90946309001885,None,336.90946309001885,None,336.90946309001885,None,336.92057120002573,None,336.92057120002573,None,336.92057120002573,None,0.001511990005383268,0.5015119900053833,336.92057120002573,None,336.92057120002573,None,336.92057120002573,None,336.92057120002573,None,336.92057120002573,None,336.92057120002573,None,338.90881410002476,338.90881410002476,-19.9,2.606,-500,-800,-250,,,,,,,,,,,,,,,,,,,,,,,,,,,,,,,,,,,,,,,,,,,,,,,,,,,,,,,,,,,,,,,,,,,,,,,,,,,,,,,,,,,f,28,lilihong,2022_Apr_01_1456,emotion,2021.1.4,60.91050236602098,
23,0,200,0,two,0,200,0,,,,,0,24,24,22,,,,,,,,,,,down,4.967286899976898,341.5731349000125,None,341.5731349000125,None,346.56398550001904,None,346.56398550001904,None,346.56398550001904,None,348.54010170002584,349.04009310001857,348.54010170002584,349.04009310001857,348.54010170002584,349.04009310001857,346.56398550001904,None,349.0734459900239,None,349.0734459900239,None,349.0734459900239,None,0.011677189992042258,None,349.0734459900239,None,349.0734459900239,None,349.0734459900239,None,349.0734459900239,None,349.0734459900239,None,349.0734459900239,None,349.0831446000084,None,349.0831446000084,None,349.0831446000084,None,0.004600290005328134,0.5046002900053281,349.0831446000084,None,349.0831446000084,None,349.0831446000084,None,349.0831446000084,None,349.0831446000084,None,349.0831446000084,None,351.0730103000242,351.0730103000242,20.599999999999994,4.591,-500,-600,-250,,,,,,,,,,,,,,,,,,,,,,,,,,,,,,,,,,,,,,,,,,,,,,,,,,,,,,,,,,,,,,,,,,,,,,,,,,,,,,,,,,,f,28,lilihong,2022_Apr_01_1456,emotion,2021.1.4,60.91050236602098,
54,-200,0,-50,one,-200,0,-50,,,,,0,25,25,53,,,,,,,,,,,down,2.394123200007016,355.72048410002026,None,355.72048410002026,None,358.1437232000171,None,358.1437232000171,None,358.1437232000171,None,360.12127970001893,360.621051300026,360.12127970001893,360.621051300026,360.12127970001893,360.621051300026,358.1437232000171,None,360.65499079001603,None,360.65499079001603,None,360.65499079001603,None,0.011481989989988506,None,360.65499079001603,None,360.65499079001603,None,360.65499079001603,None,360.65499079001603,None,360.65499079001603,None,360.65499079001603,None,360.66463340001064,None,360.66463340001064,None,360.66463340001064,None,0.00406008999561891,0.5040600899956189,360.66463340001064,None,360.66463340001064,None,360.66463340001064,None,360.66463340001064,None,360.66463340001064,None,360.66463340001064,None,362.65407120002783,362.65407120002783,-33.2,5.55,-700,-600,-300,,,,,,,,,,,,,,,,,,,,,,,,,,,,,,,,,,,,,,,,,,,,,,,,,,,,,,,,,,,,,,,,,,,,,,,,,,,,,,,,,,,f,28,lilihong,2022_Apr_01_1456,emotion,2021.1.4,60.91050236602098,
81,-50,-50,-200,two,-50,-50,-200,,,,,0,26,26,80,,,,,,,,,,,right,8.642475600005127,368.25963900002535,None,368.25963900002535,None,376.93978130002506,None,376.93978130002506,None,376.93978130002506,None,378.91759890000685,379.4171411000134,378.91759890000685,379.4171411000134,378.91759890000685,379.4171411000134,376.93978130002506,None,379.45058869001224,None,379.45058869001224,None,379.45058869001224,None,0.011324789986247197,None,379.45058869001224,None,379.45058869001224,None,379.45058869001224,None,379.45058869001224,None,379.45058869001224,None,379.45058869001224,None,379.4606870000134,None,379.4606870000134,None,379.4606870000134,None,0.003869189997203648,0.5038691899972036,379.4606870000134,None,379.4606870000134,None,379.4606870000134,None,379.4606870000134,None,379.4606870000134,None,379.4606870000134,None,381.45030350002344,381.45030350002344,7.899999999999999,9.558,-750,-650,-500,,,,,,,,,,,,,,,,,,,,,,,,,,,,,,,,,,,,,,,,,,,,,,,,,,,,,,,,,,,,,,,,,,,,,,,,,,,,,,,,,,,f,28,lilihong,2022_Apr_01_1456,emotion,2021.1.4,60.91050236602098,
89,-200,-50,-200,one,-200,-50,-200,,,,,0,27,27,88,,,,,,,,,,,down,5.776641400007065,391.0635326000047,None,391.0635326000047,None,396.872460100014,None,396.872460100014,None,396.872460100014,None,398.846964700002,399.3473430000013,398.846964700002,399.3473430000013,398.846964700002,399.3473430000013,396.872460100014,None,399.38024049000234,None,399.38024049000234,None,399.38024049000234,None,0.011648489977233112,None,399.38024049000234,None,399.38024049000234,None,399.38024049000234,None,399.38024049000234,None,399.38024049000234,None,399.38024049000234,None,399.3895893000008,None,399.3895893000008,None,399.3895893000008,None,0.004283289978047833,0.5042832899780478,399.3895893000008,None,399.3895893000008,None,399.3895893000008,None,399.3895893000008,None,399.3895893000008,None,399.3895893000008,None,401.3798366000119,401.3798366000119,-14.5,2.491,-950,-700,-700,,,,,,,,,,,,,,,,,,,,,,,,,,,,,,,,,,,,,,,,,,,,,,,,,,,,,,,,,,,,,,,,,,,,,,,,,,,,,,,,,,,f,28,lilihong,2022_Apr_01_1456,emotion,2021.1.4,60.91050236602098,
10,50,200,0,two,50,200,0,,,,,0,28,28,9,,,,,,,,,,,right,2.4100783000176307,403.9275774000271,None,403.9275774000271,None,406.362031800003,None,406.362031800003,None,406.362031800003,None,408.34476200002246,408.8447347000183,408.34476200002246,408.8447347000183,408.34476200002246,408.8447347000183,406.362031800003,None,408.8614373900171,None,408.8614373900171,None,408.8614373900171,None,0.009764589980477467,None,408.8614373900171,None,408.8614373900171,None,408.8614373900171,None,408.8614373900171,None,408.8614373900171,None,408.8614373900171,None,408.87101080000866,None,408.87101080000866,None,408.87101080000866,None,0.0031011899991426617,0.5031011899991427,408.87101080000866,None,408.87101080000866,None,408.87101080000866,None,408.87101080000866,None,408.87101080000866,None,408.87101080000866,None,410.8612332000048,410.8612332000048,-20.5,2.338,-900,-500,-700,,,,,,,,,,,,,,,,,,,,,,,,,,,,,,,,,,,,,,,,,,,,,,,,,,,,,,,,,,,,,,,,,,,,,,,,,,,,,,,,,,,f,28,lilihong,2022_Apr_01_1456,emotion,2021.1.4,60.91050236602098,
92,-200,0,-200,two,-200,0,-200,,,,,0,29,29,91,,,,,,,,,,,down,5.309178800001973,413.2525453000271,None,413.2525453000271,None,418.58272480001324,None,418.58272480001324,None,418.58272480001324,None,420.55933230000664,421.0592488000111,420.55933230000664,421.0592488000111,420.55933230000664,421.0592488000111,418.58272480001324,None,421.09242529001205,None,421.09242529001205,None,421.09242529001205,None,0.011618889984674752,None,421.09242529001205,None,421.09242529001205,None,421.09242529001205,None,421.09242529001205,None,421.09242529001205,None,421.09242529001205,None,421.1028859000071,None,421.1028859000071,None,421.1028859000071,None,0.004314289981266484,0.5043142899812665,421.1028859000071,None,421.1028859000071,None,421.1028859000071,None,421.1028859000071,None,421.1028859000071,None,421.1028859000071,None,423.0921888000157,423.0921888000157,-21.4,3.668,-1100,-500,-900,,,,,,,,,,,,,,,,,,,,,,,,,,,,,,,,,,,,,,,,,,,,,,,,,,,,,,,,,,,,,,,,,,,,,,,,,,,,,,,,,,,f,28,lilihong,2022_Apr_01_1456,emotion,2021.1.4,60.91050236602098,
9,50,0,200,two,50,0,200,,,,,0,30,30,8,,,,,,,,,,,left,2.5896080000093207,426.8187956000038,None,426.8187956000038,None,429.4295028000197,None,429.4295028000197,None,429.4295028000197,None,431.40720020001754,431.90693630001624,431.40720020001754,431.90693630001624,431.40720020001754,431.90693630001624,429.4295028000197,None,431.94035679001246,None,431.94035679001246,None,431.94035679001246,None,0.011643489997368306,None,431.94035679001246,None,431.94035679001246,None,431.94035679001246,None,431.94035679001246,None,431.94035679001246,None,431.94035679001246,None,431.9493872000021,None,431.9493872000021,None,431.9493872000021,None,0.004482789983740076,0.5044827899837401,431.9493872000021,None,431.9493872000021,None,431.9493872000021,None,431.9493872000021,None,431.9493872000021,None,431.9493872000021,None,433.9399240000057,433.9399240000057,-39.5,2.724,-1050,-500,-700,,,,,,,,,,,,,,,,,,,,,,,,,,,,,,,,,,,,,,,,,,,,,,,,,,,,,,,,,,,,,,,,,,,,,,,,,,,,,,,,,,,f,28,lilihong,2022_Apr_01_1456,emotion,2021.1.4,60.91050236602098,
24,200,0,0,two,200,0,0,,,,,0,31,31,23,,,,,,,,,,,left,7.587393599998904,436.7209342000133,None,436.7209342000133,None,444.3378148000047,None,444.3378148000047,None,444.3378148000047,None,446.32047770000645,446.8208141000068,446.32047770000645,446.8208141000068,446.32047770000645,446.8208141000068,444.3378148000047,None,446.8375167900056,None,446.8375167900056,None,446.8375167900056,None,0.009564489970216528,None,446.8375167900056,None,446.8375167900056,None,446.8375167900056,None,446.8375167900056,None,446.8375167900056,None,446.8375167900056,None,446.85031580002396,None,446.85031580002396,None,446.85031580002396,None,0.000765089993365109,0.5007650899933651,446.85031580002396,None,446.85031580002396,None,446.85031580002396,None,446.85031580002396,None,446.85031580002396,None,446.85031580002396,None,448.83697230002144,448.83697230002144,20.5,14.181,-850,-500,-700,,,,,,,,,,,,,,,,,,,,,,,,,,,,,,,,,,,,,,,,,,,,,,,,,,,,,,,,,,,,,,,,,,,,,,,,,,,,,,,,,,,f,28,lilihong,2022_Apr_01_1456,emotion,2021.1.4,60.91050236602098,
65,0,-200,0,one,0,-200,0,,,,,0,32,32,64,,,,,,,,,,,left,2.0235367999994196,463.0831548999995,None,463.0831548999995,None,465.1347628000076,None,465.1347628000076,None,465.1347628000076,None,467.11643340002047,467.6166124000156,467.11643340002047,467.6166124000156,467.11643340002047,467.6166124000156,465.1347628000076,None,467.65007939001663,None,467.65007939001663,None,467.65007939001663,None,0.011570489994483069,None,467.65007939001663,None,467.65007939001663,None,467.65007939001663,None,467.65007939001663,None,467.65007939001663,None,467.65007939001663,None,467.660383200011,None,467.660383200011,None,467.660383200011,None,0.004643589985789731,0.5046435899857897,467.660383200011,None,467.660383200011,None,467.660383200011,None,467.660383200011,None,467.660383200011,None,467.660383200011,None,469.65021560000605,469.65021560000605,5.899999999999999,3.839,-850,-700,-700,,,,,,,,,,,,,,,,,,,,,,,,,,,,,,,,,,,,,,,,,,,,,,,,,,,,,,,,,,,,,,,,,,,,,,,,,,,,,,,,,,,f,28,lilihong,2022_Apr_01_1456,emotion,2021.1.4,60.91050236602098,
43,200,200,0,two,200,200,0,,,,,0,33,33,42,,,,,,,,,,,down,2.425229800021043,473.5417483000201,None,473.5417483000201,None,475.989153100003,None,475.989153100003,None,475.989153100003,None,477.964655400021,478.46455950001837,477.964655400021,478.46455950001837,477.964655400021,478.46455950001837,475.989153100003,None,478.4979302900145,None,478.4979302900145,None,478.4979302900145,None,0.011587489978410304,None,478.4979302900145,None,478.4979302900145,None,478.4979302900145,None,478.4979302900145,None,478.4979302900145,None,478.4979302900145,None,478.5076664000226,None,478.5076664000226,None,478.5076664000226,None,0.004295989987440407,0.5042959899874404,478.5076664000226,None,478.5076664000226,None,478.5076664000226,None,478.5076664000226,None,478.5076664000226,None,478.5076664000226,None,480.49860660001286,480.49860660001286,12.799999999999997,4.056,-650,-500,-700,,,,,,,,,,,,,,,,,,,,,,,,,,,,,,,,,,,,,,,,,,,,,,,,,,,,,,,,,,,,,,,,,,,,,,,,,,,,,,,,,,,f,28,lilihong,2022_Apr_01_1456,emotion,2021.1.4,60.91050236602098,
12,200,0,50,two,200,0,50,,,,,0,34,34,11,,,,,,,,,,,down,1.7790806999837514,484.6116083000088,None,484.6116083000088,None,486.4181162000168,None,486.4181162000168,None,486.4181162000168,None,488.39595050000935,488.89565300001414,488.39595050000935,488.89565300001414,488.39595050000935,488.89565300001414,486.4181162000168,None,488.92938109002426,None,488.92938109002426,None,488.92938109002426,None,0.006254189996980131,None,488.92938109002426,None,488.92938109002426,None,488.92938109002426,None,488.92938109002426,None,488.92938109002426,None,488.92938109002426,None,488.95121290002135,None,488.95121290002135,None,488.95121290002135,None,0.010325480048777536,0.5103254800487775,488.95121290002135,None,488.95121290002135,None,488.95121290002135,None,488.95121290002135,None,488.95121290002135,None,488.95121290002135,None,490.9288291000121,490.9288291000121,20.5,2.796,-450,-500,-650,,,,,,,,,,,,,,,,,,,,,,,,,,,,,,,,,,,,,,,,,,,,,,,,,,,,,,,,,,,,,,,,,,,,,,,,,,,,,,,,,,,f,28,lilihong,2022_Apr_01_1456,emotion,2021.1.4,60.91050236602098,
40,200,200,50,one,200,200,50,,,,,0,35,35,39,,,,,,,,,,,right,2.0854779999936,493.8101389000076,None,493.8101389000076,None,495.9179012000095,None,495.9179012000095,None,495.9179012000095,None,497.8940604000236,498.3939895000076,497.8940604000236,498.3939895000076,497.8940604000236,498.3939895000076,495.9179012000095,None,498.42733668999864,None,498.42733668999864,None,498.42733668999864,None,0.011612089962000027,None,498.42733668999864,None,498.42733668999864,None,498.42733668999864,None,498.42733668999864,None,498.42733668999864,None,498.42733668999864,None,498.4372004000179,None,498.4372004000179,None,498.4372004000179,None,0.004688390006776899,0.5046883900067769,498.4372004000179,None,498.4372004000179,None,498.4372004000179,None,498.4372004000179,None,498.4372004000179,None,498.4372004000179,None,500.4273567000055,500.4273567000055,18.200000000000003,3.19,-250,-300,-600,,,,,,,,,,,,,,,,,,,,,,,,,,,,,,,,,,,,,,,,,,,,,,,,,,,,,,,,,,,,,,,,,,,,,,,,,,,,,,,,,,,f,28,lilihong,2022_Apr_01_1456,emotion,2021.1.4,60.91050236602098,
90,-50,-200,-200,one,-50,-200,-200,,,,,0,36,36,89,,,,,,,,,,,right,1.5843049999966752,503.6810944000026,None,503.6810944000026,None,505.29806840000674,None,505.29806840000674,None,505.29806840000674,None,507.27544510000735,507.77532820001943,507.27544510000735,507.77532820001943,507.27544510000735,507.77532820001943,505.29806840000674,None,507.8088124900067,None,507.8088124900067,None,507.8088124900067,None,0.01154368999414146,None,507.8088124900067,None,507.8088124900067,None,507.8088124900067,None,507.8088124900067,None,507.8088124900067,None,507.8088124900067,None,507.81834160001017,None,507.81834160001017,None,507.81834160001017,None,0.004409489978570491,0.5044094899785705,507.81834160001017,None,507.81834160001017,None,507.81834160001017,None,507.81834160001017,None,507.81834160001017,None,507.81834160001017,None,509.8084113000077,509.8084113000077,20.400000000000006,4.462,-300,-500,-800,,,,,,,,,,,,,,,,,,,,,,,,,,,,,,,,,,,,,,,,,,,,,,,,,,,,,,,,,,,,,,,,,,,,,,,,,,,,,,,,,,,f,28,lilihong,2022_Apr_01_1456,emotion,2021.1.4,60.91050236602098,
82,0,-50,-50,two,0,-50,-50,,,,,0,37,37,81,,,,,,,,,,,left,4.1087506000185385,514.3246957000229,None,514.3246957000229,None,518.4638758000219,None,518.4638758000219,None,518.4638758000219,None,520.441581400024,520.9561858000234,520.441581400024,520.9561858000234,520.441581400024,520.9561858000234,518.4638758000219,None,520.9728884900221,None,520.9728884900221,None,520.9728884900221,None,0.011548290000064299,None,520.9728884900221,None,520.9728884900221,None,520.9728884900221,None,520.9728884900221,None,520.9728884900221,None,520.9728884900221,None,520.9824315000151,None,520.9824315000151,None,520.9824315000151,None,0.00436078998609446,0.5043607899860945,520.9824315000151,None,520.9824315000151,None,520.9824315000151,None,520.9824315000151,None,520.9824315000151,None,520.9824315000151,None,522.9724312000035,522.9724312000035,16.099999999999994,3.068,-300,-550,-850,,,,,,,,,,,,,,,,,,,,,,,,,,,,,,,,,,,,,,,,,,,,,,,,,,,,,,,,,,,,,,,,,,,,,,,,,,,,,,,,,,,f,28,lilihong,2022_Apr_01_1456,emotion,2021.1.4,60.91050236602098,
84,-50,-50,0,two,-50,-50,0,,,,,0,38,38,83,,,,,,,,,,,left,2.097704900021199,526.10412980002,None,526.10412980002,None,528.2256741000165,None,528.2256741000165,None,528.2256741000165,None,530.204421900009,530.7043462000147,530.204421900009,530.7043462000147,530.204421900009,530.7043462000147,528.2256741000165,None,530.7376437900064,None,530.7376437900064,None,530.7376437900064,None,0.011661389988148585,None,530.7376437900064,None,530.7376437900064,None,530.7376437900064,None,530.7376437900064,None,530.7376437900064,None,530.7376437900064,None,530.7470400000166,None,530.7470400000166,None,530.7470400000166,None,0.00436528999125585,0.5043652899912558,530.7470400000166,None,530.7470400000166,None,530.7470400000166,None,530.7470400000166,None,530.7470400000166,None,530.7470400000166,None,532.7372847000079,532.7372847000079,-31.3,7.385,-350,-600,-850,,,,,,,,,,,,,,,,,,,,,,,,,,,,,,,,,,,,,,,,,,,,,,,,,,,,,,,,,,,,,,,,,,,,,,,,,,,,,,,,,,,f,28,lilihong,2022_Apr_01_1456,emotion,2021.1.4,60.91050236602098,
39,0,200,200,one,0,200,200,,,,,0,39,39,38,,,,,,,,,,,left,4.295847400004277,540.184525300021,None,540.184525300021,None,544.5072930000024,None,544.5072930000024,None,544.5072930000024,None,546.4845790000109,546.9842610000051,546.4845790000109,546.9842610000051,546.4845790000109,546.9842610000051,544.5072930000024,None,547.017681990005,None,547.017681990005,None,547.017681990005,None,0.011311589973047376,None,547.017681990005,None,547.017681990005,None,547.017681990005,None,547.017681990005,None,547.017681990005,None,547.017681990005,None,547.027238300012,None,547.027238300012,None,547.027238300012,None,0.0035852899600286037,0.5035852899600286,547.027238300012,None,547.027238300012,None,547.027238300012,None,547.027238300012,None,547.027238300012,None,547.027238300012,None,549.0173261000018,549.0173261000018,-50.0,3.813,-350,-400,-650,,,,,,,,,,,,,,,,,,,,,,,,,,,,,,,,,,,,,,,,,,,,,,,,,,,,,,,,,,,,,,,,,,,,,,,,,,,,,,,,,,,f,28,lilihong,2022_Apr_01_1456,emotion,2021.1.4,60.91050236602098,
6,200,0,50,one,200,0,50,,,,,0,40,40,5,,,,,,,,,,,down,1.6565966999914963,552.8846175000072,None,552.8846175000072,None,554.5719305000093,None,554.5719305000093,None,554.5719305000093,None,556.5491846000077,557.0490060000157,556.5491846000077,557.0490060000157,556.5491846000077,557.0490060000157,554.5719305000093,None,557.0823638900008,None,557.0823638900008,None,557.0823638900008,None,0.01117168998462148,None,557.0823638900008,None,557.0823638900008,None,557.0823638900008,None,557.0823638900008,None,557.0823638900008,None,557.0823638900008,None,557.0916141000052,None,557.0916141000052,None,557.0916141000052,None,0.003908089973265305,0.5039080899732653,557.0916141000052,None,557.0916141000052,None,557.0916141000052,None,557.0916141000052,None,557.0916141000052,None,557.0916141000052,None,559.0848861000268,559.0848861000268,49.900000000000006,3.201,-150,-400,-600,,,,,,,,,,,,,,,,,,,,,,,,,,,,,,,,,,,,,,,,,,,,,,,,,,,,,,,,,,,,,,,,,,,,,,,,,,,,,,,,,,,f,28,lilihong,2022_Apr_01_1456,emotion,2021.1.4,60.91050236602098,
63,-50,0,0,one,-50,0,0,,,,,0,41,41,62,,,,,,,,,,,right,5.48583520000102,562.3468729000015,None,562.3468729000015,None,567.8634397000133,None,567.8634397000133,None,567.8634397000133,None,569.846655500005,570.3462842000008,569.846655500005,570.3462842000008,569.846655500005,570.3462842000008,567.8634397000133,None,570.3629868899995,None,570.3629868899995,None,570.3629868899995,None,0.009732789971167222,None,570.3629868899995,None,570.3629868899995,None,570.3629868899995,None,570.3629868899995,None,570.3629868899995,None,570.3629868899995,None,570.3730653000239,None,570.3730653000239,None,570.3730653000239,None,0.003118589986115694,0.5031185899861157,570.3730653000239,None,570.3730653000239,None,570.3730653000239,None,570.3730653000239,None,570.3730653000239,None,570.3730653000239,None,572.3627476000111,572.3627476000111,-47.8,4.476,-200,-400,-600,,,,,,,,,,,,,,,,,,,,,,,,,,,,,,,,,,,,,,,,,,,,,,,,,,,,,,,,,,,,,,,,,,,,,,,,,,,,,,,,,,,f,28,lilihong,2022_Apr_01_1456,emotion,2021.1.4,60.91050236602098,
45,0,200,200,two,0,200,200,,,,,0,42,42,44,,,,,,,,,,,down,3.102939000003971,576.8907950000139,None,576.8907950000139,None,580.0112221000018,None,580.0112221000018,None,580.0112221000018,None,581.9941517000261,582.4940620000125,581.9941517000261,582.4940620000125,581.9941517000261,582.4940620000125,580.0112221000018,None,582.5107646900112,None,582.5107646900112,None,582.5107646900112,None,0.009709990001283586,None,582.5107646900112,None,582.5107646900112,None,582.5107646900112,None,582.5107646900112,None,582.5107646900112,None,582.5107646900112,None,582.5220760000229,None,582.5220760000229,None,582.5220760000229,None,0.002843489986844361,0.5028434899868444,582.5220760000229,None,582.5220760000229,None,582.5220760000229,None,582.5220760000229,None,582.5220760000229,None,582.5220760000229,None,584.5102014000004,584.5102014000004,-50.0,4.162,-200,-200,-400,,,,,,,,,,,,,,,,,,,,,,,,,,,,,,,,,,,,,,,,,,,,,,,,,,,,,,,,,,,,,,,,,,,,,,,,,,,,,,,,,,,f,28,lilihong,2022_Apr_01_1456,emotion,2021.1.4,60.91050236602098,
19,0,0,50,two,0,0,50,,,,,0,43,43,18,,,,,,,,,,,down,4.867333100002725,588.7262292000232,None,588.7262292000232,None,593.6301259000029,None,593.6301259000029,None,593.6301259000029,None,595.6081607000087,596.108092200011,595.6081607000087,596.108092200011,595.6081607000087,596.108092200011,593.6301259000029,None,596.1414034900197,None,596.1414034900197,None,596.1414034900197,None,0.01185918998089619,None,596.1414034900197,None,596.1414034900197,None,596.1414034900197,None,596.1414034900197,None,596.1414034900197,None,596.1414034900197,None,596.1501328000159,None,596.1501328000159,None,596.1501328000159,None,0.005512889998499304,0.5055128899984993,596.1501328000159,None,596.1501328000159,None,596.1501328000159,None,596.1501328000159,None,596.1501328000159,None,596.1501328000159,None,598.1406413000077,598.1406413000077,-19.4,5.463,-200,-200,-350,,,,,,,,,,,,,,,,,,,,,,,,,,,,,,,,,,,,,,,,,,,,,,,,,,,,,,,,,,,,,,,,,,,,,,,,,,,,,,,,,,,f,28,lilihong,2022_Apr_01_1456,emotion,2021.1.4,60.91050236602098,
34,0,50,50,two,0,50,50,,,,,0,44,44,33,,,,,,,,,,,left,1.4877396000083536,603.6686492000008,None,603.6686492000008,None,605.1728968000098,None,605.1728968000098,None,605.1728968000098,None,607.1558581000136,607.656049400015,607.1558581000136,607.656049400015,607.1558581000136,607.656049400015,605.1728968000098,None,607.6727520900138,None,607.6727520900138,None,607.6727520900138,None,0.009785089991055429,None,607.6727520900138,None,607.6727520900138,None,607.6727520900138,None,607.6727520900138,None,607.6727520900138,None,607.6727520900138,None,607.6840763000073,None,607.6840763000073,None,607.6840763000073,None,0.0008531899948138744,0.5008531899948139,607.6840763000073,None,607.6840763000073,None,607.6840763000073,None,607.6840763000073,None,607.6840763000073,None,607.6840763000073,None,609.6720932000026,609.6720932000026,-34.1,2.167,-200,-150,-300,,,,,,,,,,,,,,,,,,,,,,,,,,,,,,,,,,,,,,,,,,,,,,,,,,,,,,,,,,,,,,,,,,,,,,,,,,,,,,,,,,,f,28,lilihong,2022_Apr_01_1456,emotion,2021.1.4,60.91050236602098,
20,0,50,0,two,0,50,0,,,,,0,45,45,19,,,,,,,,,,,left,4.285559799987823,611.8946396000101,None,611.8946396000101,None,616.2101421000261,None,616.2101421000261,None,616.2101421000261,None,618.1868414000201,618.6870048000128,618.1868414000201,618.6870048000128,618.1868414000201,618.6870048000128,616.2101421000261,None,618.7204442900081,None,618.7204442900081,None,618.7204442900081,None,0.00899668998317793,None,618.7204442900081,None,618.7204442900081,None,618.7204442900081,None,618.7204442900081,None,618.7204442900081,None,618.7204442900081,None,618.7335540000058,None,618.7335540000058,None,618.7335540000058,None,0.0006586899980902672,0.5006586899980903,618.7335540000058,None,618.7335540000058,None,618.7335540000058,None,618.7335540000058,None,618.7335540000058,None,618.7335540000058,None,620.7199336000194,620.7199336000194,-30.9,5.402,-200,-100,-300,,,,,,,,,,,,,,,,,,,,,,,,,,,,,,,,,,,,,,,,,,,,,,,,,,,,,,,,,,,,,,,,,,,,,,,,,,,,,,,,,,,f,28,lilihong,2022_Apr_01_1456,emotion,2021.1.4,60.91050236602098,
38,200,0,200,one,200,0,200,,,,,0,46,46,37,,,,,,,,,,,right,2.538807499979157,626.1841026000038,None,626.1841026000038,None,628.7518784000131,None,628.7518784000131,None,628.7518784000131,None,630.7345608000178,631.2343815000204,630.7345608000178,631.2343815000204,630.7345608000178,631.2343815000204,628.7518784000131,None,631.2510841900191,None,631.2510841900191,None,631.2510841900191,None,0.009606589999748394,None,631.2510841900191,None,631.2510841900191,None,631.2510841900191,None,631.2510841900191,None,631.2510841900191,None,631.2510841900191,None,631.2625410000037,None,631.2625410000037,None,631.2625410000037,None,0.0030838899547234178,0.5030838899547234,631.2625410000037,None,631.2625410000037,None,631.2625410000037,None,631.2625410000037,None,631.2625410000037,None,631.2625410000037,None,633.250751900021,633.250751900021,29.299999999999997,2.776,0,-100,-100,,,,,,,,,,,,,,,,,,,,,,,,,,,,,,,,,,,,,,,,,,,,,,,,,,,,,,,,,,,,,,,,,,,,,,,,,,,,,,,,,,,f,28,lilihong,2022_Apr_01_1456,emotion,2021.1.4,60.91050236602098,
83,-50,0,-50,two,-50,0,-50,,,,,0,47,47,82,,,,,,,,,,,right,1.684034200006863,636.0822542000096,None,636.0822542000096,None,637.7891315000015,None,637.7891315000015,None,637.7891315000015,None,639.7661410000001,640.2660041000054,639.7661410000001,640.2660041000054,639.7661410000001,640.2660041000054,637.7891315000015,None,640.2993792900058,None,640.2993792900058,None,640.2993792900058,None,0.011711889965226874,None,640.2993792900058,None,640.2993792900058,None,640.2993792900058,None,640.2993792900058,None,640.2993792900058,None,640.2993792900058,None,640.3092006000225,None,640.3092006000225,None,640.3092006000225,None,0.004366789973573759,0.5043667899735738,640.3092006000225,None,640.3092006000225,None,640.3092006000225,None,640.3092006000225,None,640.3092006000225,None,640.3092006000225,None,642.2989400000079,642.2989400000079,-34.6,3.47,-50,-100,-150,,,,,,,,,,,,,,,,,,,,,,,,,,,,,,,,,,,,,,,,,,,,,,,,,,,,,,,,,,,,,,,,,,,,,,,,,,,,,,,,,,,f,28,lilihong,2022_Apr_01_1456,emotion,2021.1.4,60.91050236602098,
48,50,200,200,two,50,200,200,,,,,0,48,48,47,,,,,,,,,,,left,3.118758299999172,645.8304607000027,None,645.8304607000027,None,648.9699745000107,None,648.9699745000107,None,648.9699745000107,None,650.9472570000216,651.4471703000017,650.9472570000216,651.4471703000017,650.9472570000216,651.4471703000017,648.9699745000107,None,651.4804939900175,None,651.4804939900175,None,651.4804939900175,None,0.011047990003135055,None,651.4804939900175,None,651.4804939900175,None,651.4804939900175,None,651.4804939900175,None,651.4804939900175,None,651.4804939900175,None,651.4895591000095,None,651.4895591000095,None,651.4895591000095,None,0.0044091900053899735,0.50440919000539,651.4895591000095,None,651.4895591000095,None,651.4895591000095,None,651.4895591000095,None,651.4895591000095,None,651.4895591000095,None,653.4801007000206,653.4801007000206,-39.9,2.485,0,100,50,,,,,,,,,,,,,,,,,,,,,,,,,,,,,,,,,,,,,,,,,,,,,,,,,,,,,,,,,,,,,,,,,,,,,,,,,,,,,,,,,,,f,28,lilihong,2022_Apr_01_1456,emotion,2021.1.4,60.91050236602098,
53,-200,-50,0,one,-200,-50,0,,,,,0,49,49,52,,,,,,,,,,,down,9.121113900007913,656.0283206000167,None,656.0283206000167,None,665.1829742000264,None,665.1829742000264,None,665.1829742000264,None,667.1608237000182,667.660457400023,667.1608237000182,667.660457400023,667.1608237000182,667.660457400023,665.1829742000264,None,667.6940190900175,None,667.6940190900175,None,667.6940190900175,None,0.011514290003105998,None,667.6940190900175,None,667.6940190900175,None,667.6940190900175,None,667.6940190900175,None,667.6940190900175,None,667.6940190900175,None,667.7036902000254,None,667.7036902000254,None,667.7036902000254,None,0.0044820900075137615,0.5044820900075138,667.7036902000254,None,667.7036902000254,None,667.7036902000254,None,667.7036902000254,None,667.7036902000254,None,667.7036902000254,None,669.6934064000088,669.6934064000088,-45.5,1.866,-200,50,50,,,,,,,,,,,,,,,,,,,,,,,,,,,,,,,,,,,,,,,,,,,,,,,,,,,,,,,,,,,,,,,,,,,,,,,,,,,,,,,,,,,f,28,lilihong,2022_Apr_01_1456,emotion,2021.1.4,60.91050236602098,
21,50,0,0,two,50,0,0,,,,,0,50,50,20,,,,,,,,,,,right,4.366039000015007,671.6137815000257,None,671.6137815000257,None,676.0155266000074,None,676.0155266000074,None,676.0155266000074,None,677.9919138000114,678.4915649000031,677.9919138000114,678.4915649000031,677.9919138000114,678.4915649000031,676.0155266000074,None,678.5249322900024,None,678.5249322900024,None,678.5249322900024,None,0.011801089975051582,None,678.5249322900024,None,678.5249322900024,None,678.5249322900024,None,678.5249322900024,None,678.5249322900024,None,678.5249322900024,None,678.5344165000133,None,678.5344165000133,None,678.5344165000133,None,0.005464389978442341,0.5054643899784423,678.5344165000133,None,678.5344165000133,None,678.5344165000133,None,678.5344165000133,None,678.5344165000133,None,678.5344165000133,None,680.524575700023,680.524575700023,15.700000000000003,6.197,-150,50,50,,,,,,,,,,,,,,,,,,,,,,,,,,,,,,,,,,,,,,,,,,,,,,,,,,,,,,,,,,,,,,,,,,,,,,,,,,,,,,,,,,,f,28,lilihong,2022_Apr_01_1456,emotion,2021.1.4,60.91050236602098,
14,0,50,0,one,0,50,0,,,,,0,51,51,13,,,,,,,,,,,right,6.864672399999108,686.7793336000177,None,686.7793336000177,None,693.6722208000137,None,693.6722208000137,None,693.6722208000137,None,695.6560736000247,None,695.6560736000247,None,695.6560736000247,None,693.6722208000137,None,696.1716390900081,None,696.1716390900081,None,696.1716390900081,None,0.009417189983651042,None,696.1716390900081,None,696.1716390900081,None,696.1716390900081,None,696.1716390900081,None,696.1716390900081,None,696.1716390900081,None,696.1863282000122,None,696.1863282000122,None,696.1863282000122,None,0.0012614899897016585,0.5012614899897017,696.1863282000122,None,696.1863282000122,None,696.1863282000122,None,696.1863282000122,None,696.1863282000122,None,696.1863282000122,None,698.171024100011,698.171024100011,10.200000000000003,5.191,-150,100,50,,,,,,,,,,,,,,,,,,,,,,,,,,,,,,,,,,,,,,,,,,,,,,,,,,,,,,,,,,,,,,,,,,,,,,,,,,,,,,,,,,,f,28,lilihong,2022_Apr_01_1456,emotion,2021.1.4,60.91050236602098,
5,200,50,0,one,200,50,0,,,,,0,52,52,4,,,,,,,,,,,left,3.189448799996171,703.4190185000189,None,703.4190185000189,None,706.6365553000069,None,706.6365553000069,None,706.6365553000069,None,708.6193419000192,709.119085000013,708.6193419000192,709.119085000013,708.6193419000192,709.119085000013,706.6365553000069,None,709.1357876900117,None,709.1357876900117,None,709.1357876900117,None,0.009270189999369904,None,709.1357876900117,None,709.1357876900117,None,709.1357876900117,None,709.1357876900117,None,709.1357876900117,None,709.1357876900117,None,709.1484031,None,709.1484031,None,709.1484031,None,2.5089946575462818e-05,0.5000250899465755,709.1484031,None,709.1484031,None,709.1484031,None,709.1484031,None,709.1484031,None,709.1484031,None,711.1352891000279,711.1352891000279,33.900000000000006,2.693,50,150,50,,,,,,,,,,,,,,,,,,,,,,,,,,,,,,,,,,,,,,,,,,,,,,,,,,,,,,,,,,,,,,,,,,,,,,,,,,,,,,,,,,,f,28,lilihong,2022_Apr_01_1456,emotion,2021.1.4,60.91050236602098,
71,0,-200,0,two,0,-200,0,,,,,0,53,53,70,,,,,,,,,,,left,1.7925477999961004,713.8803877000173,None,713.8803877000173,None,715.7088075000211,None,715.7088075000211,None,715.7088075000211,None,717.6841227000114,718.1837673000118,717.6841227000114,718.1837673000118,717.6841227000114,718.1837673000118,715.7088075000211,None,718.2174332900147,None,718.2174332900147,None,718.2174332900147,None,0.010778789990581572,None,718.2174332900147,None,718.2174332900147,None,718.2174332900147,None,718.2174332900147,None,718.2174332900147,None,718.2174332900147,None,718.2266376000189,None,718.2266376000189,None,718.2266376000189,None,0.004226289980579168,0.5042262899805792,718.2266376000189,None,718.2266376000189,None,718.2266376000189,None,718.2266376000189,None,718.2266376000189,None,718.2266376000189,None,720.2189798000036,720.2189798000036,20.599999999999994,4.525,50,-50,50,,,,,,,,,,,,,,,,,,,,,,,,,,,,,,,,,,,,,,,,,,,,,,,,,,,,,,,,,,,,,,,,,,,,,,,,,,,,,,,,,,,f,28,lilihong,2022_Apr_01_1456,emotion,2021.1.4,60.91050236602098,
77,-50,0,-50,one,-50,0,-50,,,,,0,54,54,76,,,,,,,,,,,down,3.3358372000220697,724.8147543000232,None,724.8147543000232,None,728.172246800008,None,728.172246800008,None,728.172246800008,None,730.1482906000165,730.6484299000003,730.1482906000165,730.6484299000003,730.1482906000165,730.6484299000003,728.172246800008,None,730.6828225900069,None,730.6828225900069,None,730.6828225900069,None,0.009215489990310743,None,730.6828225900069,None,730.6828225900069,None,730.6828225900069,None,730.6828225900069,None,730.6828225900069,None,730.6828225900069,None,730.6965434000012,None,730.6965434000012,None,730.6965434000012,None,0.016657480009598657,0.5166574800095987,730.6965434000012,None,730.6965434000012,None,730.6965434000012,None,730.6965434000012,None,730.6965434000012,None,730.6965434000012,None,732.68208280002,732.68208280002,-35.2,5.115,0,-50,0,,,,,,,,,,,,,,,,,,,,,,,,,,,,,,,,,,,,,,,,,,,,,,,,,,,,,,,,,,,,,,,,,,,,,,,,,,,,,,,,,,,f,28,lilihong,2022_Apr_01_1456,emotion,2021.1.4,60.91050236602098,
47,200,50,200,two,200,50,200,,,,,0,55,55,46,,,,,,,,,,,right,2.1045808999915607,737.8622220000252,None,737.8622220000252,None,740.001108299999,None,740.001108299999,None,740.001108299999,None,741.9790471000015,742.4791944000171,741.9790471000015,742.4791944000171,741.9790471000015,742.4791944000171,740.001108299999,None,742.512662290025,None,742.512662290025,None,742.512662290025,None,0.011732090002624318,None,742.512662290025,None,742.512662290025,None,742.512662290025,None,742.512662290025,None,742.512662290025,None,742.512662290025,None,742.521922200016,None,742.521922200016,None,742.521922200016,None,0.004083189996890724,0.5040831899968907,742.521922200016,None,742.521922200016,None,742.521922200016,None,742.521922200016,None,742.521922200016,None,742.521922200016,None,744.5121204000025,744.5121204000025,31.400000000000006,2.53,200,0,200,,,,,,,,,,,,,,,,,,,,,,,,,,,,,,,,,,,,,,,,,,,,,,,,,,,,,,,,,,,,,,,,,,,,,,,,,,,,,,,,,,,f,28,lilihong,2022_Apr_01_1456,emotion,2021.1.4,60.91050236602098,
33,50,50,200,two,50,50,200,,,,,0,56,56,32,,,,,,,,,,,right,1.8288152999884915,747.0954321000027,None,747.0954321000027,None,748.9503117000277,None,748.9503117000277,None,748.9503117000277,None,750.9274836000113,751.4274521000043,750.9274836000113,751.4274521000043,750.9274836000113,751.4274521000043,748.9503117000277,None,751.4607968900061,None,751.4607968900061,None,751.4607968900061,None,0.011556089972145855,None,751.4607968900061,None,751.4607968900061,None,751.4607968900061,None,751.4607968900061,None,751.4607968900061,None,751.4607968900061,None,751.4704857000033,None,751.4704857000033,None,751.4704857000033,None,0.004308789997594431,0.5043087899975944,751.4704857000033,None,751.4704857000033,None,751.4704857000033,None,751.4704857000033,None,751.4704857000033,None,751.4704857000033,None,753.4604021000268,753.4604021000268,0.20000000000000284,3.812,250,50,400,,,,,,,,,,,,,,,,,,,,,,,,,,,,,,,,,,,,,,,,,,,,,,,,,,,,,,,,,,,,,,,,,,,,,,,,,,,,,,,,,,,f,28,lilihong,2022_Apr_01_1456,emotion,2021.1.4,60.91050236602098,
28,0,50,50,one,0,50,50,,,,,0,57,57,27,,,,,,,,,,,left,3.9818183000024874,757.3288661000261,None,757.3288661000261,None,761.3299809000164,None,761.3299809000164,None,761.3299809000164,None,763.3084111000062,763.8083910999994,763.3084111000062,763.8083910999994,763.3084111000062,763.8083910999994,761.3299809000164,None,763.8416755900078,None,763.8416755900078,None,763.8416755900078,None,0.0114547899866011,None,763.8416755900078,None,763.8416755900078,None,763.8416755900078,None,763.8416755900078,None,763.8416755900078,None,763.8416755900078,None,763.8515211000049,None,763.8515211000049,None,763.8515211000049,None,0.0044104899861849844,0.504410489986185,763.8515211000049,None,763.8515211000049,None,763.8515211000049,None,763.8515211000049,None,763.8515211000049,None,763.8515211000049,None,765.8412634000124,765.8412634000124,-11.200000000000003,3.012,250,100,450,,,,,,,,,,,,,,,,,,,,,,,,,,,,,,,,,,,,,,,,,,,,,,,,,,,,,,,,,,,,,,,,,,,,,,,,,,,,,,,,,,,f,28,lilihong,2022_Apr_01_1456,emotion,2021.1.4,60.91050236602098,
91,-200,-200,0,two,-200,-200,0,,,,,0,58,58,90,,,,,,,,,,,down,1.5583287999907043,768.9071189000097,None,768.9071189000097,None,770.4964404000202,None,770.4964404000202,None,770.4964404000202,None,772.4732277000148,772.9731868000235,772.4732277000148,772.9731868000235,772.4732277000148,772.9731868000235,770.4964404000202,None,773.0065665900008,None,773.0065665900008,None,773.0065665900008,None,0.011416589986765757,None,773.0065665900008,None,773.0065665900008,None,773.0065665900008,None,773.0065665900008,None,773.0065665900008,None,773.0065665900008,None,773.0164048000006,None,773.0164048000006,None,773.0164048000006,None,0.0045139899593777955,0.5045139899593778,773.0164048000006,None,773.0164048000006,None,773.0164048000006,None,773.0164048000006,None,773.0164048000006,None,773.0164048000006,None,775.0061406000168,775.0061406000168,-10.600000000000001,7.772,50,-100,450,,,,,,,,,,,,,,,,,,,,,,,,,,,,,,,,,,,,,,,,,,,,,,,,,,,,,,,,,,,,,,,,,,,,,,,,,,,,,,,,,,,f,28,lilihong,2022_Apr_01_1456,emotion,2021.1.4,60.91050236602098,
57,-50,0,-200,two,-50,0,-200,,,,,0,59,59,56,,,,,,,,,,,right,3.403498200001195,782.8362993000192,None,782.8362993000192,None,786.2587226000032,None,786.2587226000032,None,786.2587226000032,None,788.236784400011,788.7367278000165,788.236784400011,788.7367278000165,788.236784400011,788.7367278000165,786.2587226000032,None,788.7701757900184,None,788.7701757900184,None,788.7701757900184,None,0.011642589990515262,None,788.7701757900184,None,788.7701757900184,None,788.7701757900184,None,788.7701757900184,None,788.7701757900184,None,788.7701757900184,None,788.7797041000158,None,788.7797041000158,None,788.7797041000158,None,0.004024589987238869,0.5040245899872389,788.7797041000158,None,788.7797041000158,None,788.7797041000158,None,788.7797041000158,None,788.7797041000158,None,788.7797041000158,None,790.769594900019,790.769594900019,-10.200000000000003,4.747,0,-100,250,,,,,,,,,,,,,,,,,,,,,,,,,,,,,,,,,,,,,,,,,,,,,,,,,,,,,,,,,,,,,,,,,,,,,,,,,,,,,,,,,,,f,28,lilihong,2022_Apr_01_1456,emotion,2021.1.4,60.91050236602098,
49,0,-50,-200,one,0,-50,-200,,,,,0,60,60,48,,,,,,,,,,,down,3.85783240001183,795.5819145000132,None,795.5819145000132,None,799.4728531000146,None,799.4728531000146,None,799.4728531000146,None,801.4509378000221,801.9507859000005,801.4509378000221,801.9507859000005,801.4509378000221,801.9507859000005,799.4728531000146,None,801.984160290024,None,801.984160290024,None,801.984160290024,None,0.011741889989934862,None,801.984160290024,None,801.984160290024,None,801.984160290024,None,801.984160290024,None,801.984160290024,None,801.984160290024,None,801.9940169000183,None,801.9940169000183,None,801.9940169000183,None,0.004589190008118749,0.5045891900081187,801.9940169000183,None,801.9940169000183,None,801.9940169000183,None,801.9940169000183,None,801.9940169000183,None,801.9940169000183,None,803.9835329000198,803.9835329000198,30.799999999999997,3.588,0,-150,50,,,,,,,,,,,,,,,,,,,,,,,,,,,,,,,,,,,,,,,,,,,,,,,,,,,,,,,,,,,,,,,,,,,,,,,,,,,,,,,,,,,f,28,lilihong,2022_Apr_01_1456,emotion,2021.1.4,60.91050236602098,
32,50,200,50,two,50,200,50,,,,,0,61,61,31,,,,,,,,,,,right,2.8615984999923967,807.6318550000142,None,807.6318550000142,None,810.517573500023,None,810.517573500023,None,810.517573500023,None,812.4987709000125,812.9982342000003,812.4987709000125,812.9982342000003,812.4987709000125,812.9982342000003,810.517573500023,None,813.0320082900114,None,813.0320082900114,None,813.0320082900114,None,0.005230089998804033,None,813.0320082900114,None,813.0320082900114,None,813.0320082900114,None,813.0320082900114,None,813.0320082900114,None,813.0320082900114,None,813.0634876000113,None,813.0634876000113,None,813.0634876000113,None,0.006705580017296597,0.5067055800172966,813.0634876000113,None,813.0634876000113,None,813.0634876000113,None,813.0634876000113,None,813.0634876000113,None,813.0634876000113,None,815.0481409000058,815.0481409000058,-19.4,3.008,50,50,100,,,,,,,,,,,,,,,,,,,,,,,,,,,,,,,,,,,,,,,,,,,,,,,,,,,,,,,,,,,,,,,,,,,,,,,,,,,,,,,,,,,f,28,lilihong,2022_Apr_01_1456,emotion,2021.1.4,60.91050236602098,
35,50,0,50,two,50,0,50,,,,,0,62,62,34,,,,,,,,,,,down,2.5935595000046305,818.1129592000216,None,818.1129592000216,None,820.7304340000264,None,820.7304340000264,None,820.7304340000264,None,822.7131950000185,823.2143610000203,822.7131950000185,823.2143610000203,822.7131950000185,823.2143610000203,820.7304340000264,None,823.231063690019,None,823.231063690019,None,823.231063690019,None,0.007540589984273538,None,823.231063690019,None,823.231063690019,None,823.231063690019,None,823.231063690019,None,823.231063690019,None,823.231063690019,None,823.2459642000031,None,823.2459642000031,None,823.2459642000031,None,0.015046280022943392,0.5150462800229434,823.2459642000031,None,823.2459642000031,None,823.2459642000031,None,823.2459642000031,None,823.2459642000031,None,823.2459642000031,None,825.2295728000172,825.2295728000172,30.700000000000003,2.338,100,50,150,,,,,,,,,,,,,,,,,,,,,,,,,,,,,,,,,,,,,,,,,,,,,,,,,,,,,,,,,,,,,,,,,,,,,,,,,,,,,,,,,,,f,28,lilihong,2022_Apr_01_1456,emotion,2021.1.4,60.91050236602098,
3,50,0,200,one,50,0,200,,,,,0,63,63,2,,,,,,,,,,,left,3.6716853999823797,827.6275554000167,None,827.6275554000167,None,831.333157200017,None,831.333157200017,None,831.333157200017,None,833.3112820000097,833.8111251000082,833.3112820000097,833.8111251000082,833.3112820000097,833.8111251000082,831.333157200017,None,833.8445501900103,None,833.8445501900103,None,833.8445501900103,None,0.01166648999787867,None,833.8445501900103,None,833.8445501900103,None,833.8445501900103,None,833.8445501900103,None,833.8445501900103,None,833.8445501900103,None,833.8540993000206,None,833.8540993000206,None,833.8540993000206,None,0.004558689979603514,0.5045586899796035,833.8540993000206,None,833.8540993000206,None,833.8540993000206,None,833.8540993000206,None,833.8540993000206,None,833.8540993000206,None,835.844205100002,835.844205100002,-19.9,2.212,150,50,350,,,,,,,,,,,,,,,,,,,,,,,,,,,,,,,,,,,,,,,,,,,,,,,,,,,,,,,,,,,,,,,,,,,,,,,,,,,,,,,,,,,f,28,lilihong,2022_Apr_01_1456,emotion,2021.1.4,60.91050236602098,
4,50,200,0,one,50,200,0,,,,,0,64,64,3,,,,,,,,,,,right,1.3779095000063535,838.1105858000228,None,838.1105858000228,None,839.5175818999996,None,839.5175818999996,None,839.5175818999996,None,841.4928616000107,841.9927904000215,841.4928616000107,841.9927904000215,841.4928616000107,841.9927904000215,839.5175818999996,None,842.0263205900089,None,842.0263205900089,None,842.0263205900089,None,0.011823889974039048,None,842.0263205900089,None,842.0263205900089,None,842.0263205900089,None,842.0263205900089,None,842.0263205900089,None,842.0263205900089,None,842.0351749000256,None,842.0351749000256,None,842.0351749000256,None,0.005554089962970465,0.5055540899629705,842.0351749000256,None,842.0351749000256,None,842.0351749000256,None,842.0351749000256,None,842.0351749000256,None,842.0351749000256,None,844.0258476000163,844.0258476000163,-20.8,3.158,200,250,350,,,,,,,,,,,,,,,,,,,,,,,,,,,,,,,,,,,,,,,,,,,,,,,,,,,,,,,,,,,,,,,,,,,,,,,,,,,,,,,,,,,f,28,lilihong,2022_Apr_01_1456,emotion,2021.1.4,60.91050236602098,
95,-200,-50,-200,two,-200,-50,-200,,,,,0,65,65,94,,,,,,,,,,,down,2.157611700007692,847.2443306000205,None,847.2443306000205,None,849.4302345000033,None,849.4302345000033,None,849.4302345000033,None,851.4077056000242,851.9076449999993,851.4077056000242,851.9076449999993,851.4077056000242,851.9076449999993,849.4302345000033,None,851.9409713900066,None,851.9409713900066,None,851.9409713900066,None,0.010555589979048818,None,851.9409713900066,None,851.9409713900066,None,851.9409713900066,None,851.9409713900066,None,851.9409713900066,None,851.9409713900066,None,851.9507897000003,None,851.9507897000003,None,851.9507897000003,None,0.0034993899753317237,0.5034993899753317,851.9507897000003,None,851.9507897000003,None,851.9507897000003,None,851.9507897000003,None,851.9507897000003,None,851.9507897000003,None,853.9405475000094,853.9405475000094,-36.1,2.497,0,200,150,,,,,,,,,,,,,,,,,,,,,,,,,,,,,,,,,,,,,,,,,,,,,,,,,,,,,,,,,,,,,,,,,,,,,,,,,,,,,,,,,,,f,28,lilihong,2022_Apr_01_1456,emotion,2021.1.4,60.91050236602098,
62,0,-50,0,one,0,-50,0,,,,,0,66,66,61,,,,,,,,,,,right,3.2150034999940544,856.4925710000098,None,856.4925710000098,None,859.7280941000208,None,859.7280941000208,None,859.7280941000208,None,861.7056852000242,862.205368200026,861.7056852000242,862.205368200026,861.7056852000242,862.205368200026,859.7280941000208,None,862.2387773900234,None,862.2387773900234,None,862.2387773900234,None,0.011966889986069873,None,862.2387773900234,None,862.2387773900234,None,862.2387773900234,None,862.2387773900234,None,862.2387773900234,None,862.2387773900234,None,862.2479853000259,None,862.2479853000259,None,862.2479853000259,None,0.005333890003385022,0.505333890003385,862.2479853000259,None,862.2479853000259,None,862.2479853000259,None,862.2479853000259,None,862.2479853000259,None,862.2479853000259,None,864.2385209000204,864.2385209000204,30.099999999999994,4.02,0,150,150,,,,,,,,,,,,,,,,,,,,,,,,,,,,,,,,,,,,,,,,,,,,,,,,,,,,,,,,,,,,,,,,,,,,,,,,,,,,,,,,,,,f,28,lilihong,2022_Apr_01_1456,emotion,2021.1.4,60.91050236602098,
15,50,0,0,one,50,0,0,,,,,0,67,67,14,,,,,,,,,,,left,6.395230599999195,868.3199103000225,None,868.3199103000225,None,874.7424369000073,None,874.7424369000073,None,874.7424369000073,None,876.7193895000091,877.2192922000249,876.7193895000091,877.2192922000249,876.7193895000091,877.2192922000249,874.7424369000073,None,877.2526472900179,None,877.2526472900179,None,877.2526472900179,None,0.011749889992643148,None,877.2526472900179,None,877.2526472900179,None,877.2526472900179,None,877.2526472900179,None,877.2526472900179,None,877.2526472900179,None,877.262229600019,None,877.262229600019,None,877.262229600019,None,0.004394389980006963,0.504394389980007,877.262229600019,None,877.262229600019,None,877.262229600019,None,877.262229600019,None,877.262229600019,None,877.262229600019,None,879.2522574000177,879.2522574000177,14.099999999999994,1.836,50,150,150,,,,,,,,,,,,,,,,,,,,,,,,,,,,,,,,,,,,,,,,,,,,,,,,,,,,,,,,,,,,,,,,,,,,,,,,,,,,,,,,,,,f,28,lilihong,2022_Apr_01_1456,emotion,2021.1.4,60.91050236602098,
58,-50,-200,0,two,-50,-200,0,,,,,0,68,68,57,,,,,,,,,,,down,3.5773587000148837,881.1505015000002,None,881.1505015000002,None,884.7552491000097,None,884.7552491000097,None,884.7552491000097,None,886.7350097000017,887.2338459000166,886.7350097000017,887.2338459000166,886.7350097000017,887.2338459000166,884.7552491000097,None,887.2675988900126,None,887.2675988900126,None,887.2675988900126,None,0.009125289972871542,None,887.2675988900126,None,887.2675988900126,None,887.2675988900126,None,887.2675988900126,None,887.2675988900126,None,887.2675988900126,None,887.2853680000117,None,887.2853680000117,None,887.2853680000117,None,0.016069980018073693,0.5160699800180737,887.2853680000117,None,887.2853680000117,None,887.2853680000117,None,887.2853680000117,None,887.2853680000117,None,887.2853680000117,None,889.2669061000051,889.2669061000051,13.200000000000003,2.452,0,-50,150,,,,,,,,,,,,,,,,,,,,,,,,,,,,,,,,,,,,,,,,,,,,,,,,,,,,,,,,,,,,,,,,,,,,,,,,,,,,,,,,,,,f,28,lilihong,2022_Apr_01_1456,emotion,2021.1.4,60.91050236602098,
66,-200,0,0,one,-200,0,0,,,,,0,69,69,65,,,,,,,,,,,right,5.237566499999957,891.7983242000046,None,891.7983242000046,None,897.0693862000189,None,897.0693862000189,None,897.0693862000189,None,899.0481744999997,899.5480907000019,899.0481744999997,899.5480907000019,899.0481744999997,899.5480907000019,897.0693862000189,None,899.5815330900193,None,899.5815330900193,None,899.5815330900193,None,0.011215089994948357,None,899.5815330900193,None,899.5815330900193,None,899.5815330900193,None,899.5815330900193,None,899.5815330900193,None,899.5815330900193,None,899.5904039000161,None,899.5904039000161,None,899.5904039000161,None,0.005025289981858805,0.5050252899818588,899.5904039000161,None,899.5904039000161,None,899.5904039000161,None,899.5904039000161,None,899.5904039000161,None,899.5904039000161,None,901.5809674000193,901.5809674000193,-30.9,2.342,-200,-50,150,,,,,,,,,,,,,,,,,,,,,,,,,,,,,,,,,,,,,,,,,,,,,,,,,,,,,,,,,,,,,,,,,,,,,,,,,,,,,,,,,,,f,28,lilihong,2022_Apr_01_1456,emotion,2021.1.4,60.91050236602098,
72,-200,0,0,two,-200,0,0,,,,,0,70,70,71,,,,,,,,,,,down,2.3552255000104196,903.9921264000004,None,903.9921264000004,None,906.3634814000106,None,906.3634814000106,None,906.3634814000106,None,908.3464936000237,908.8464831000019,908.3464936000237,908.8464831000019,908.3464936000237,908.8464831000019,906.3634814000106,None,908.8631857900007,None,908.8631857900007,None,908.8631857900007,None,0.009568389970809221,None,908.8631857900007,None,908.8631857900007,None,908.8631857900007,None,908.8631857900007,None,908.8631857900007,None,908.8631857900007,None,908.8752734000154,None,908.8752734000154,None,908.8752734000154,None,0.0015927899803500623,0.5015927899803501,908.8752734000154,None,908.8752734000154,None,908.8752734000154,None,908.8752734000154,None,908.8752734000154,None,908.8752734000154,None,910.8626771000272,910.8626771000272,-37.0,2.036,-400,-50,150,,,,,,,,,,,,,,,,,,,,,,,,,,,,,,,,,,,,,,,,,,,,,,,,,,,,,,,,,,,,,,,,,,,,,,,,,,,,,,,,,,,f,28,lilihong,2022_Apr_01_1456,emotion,2021.1.4,60.91050236602098,
93,0,-200,-200,two,0,-200,-200,,,,,0,71,71,92,,,,,,,,,,,down,2.3209815999725834,912.9608645000262,None,912.9608645000262,None,915.3154090000025,None,915.3154090000025,None,915.3154090000025,None,917.2947282000096,917.7946073000203,917.2947282000096,917.7946073000203,917.2947282000096,917.7946073000203,915.3154090000025,None,917.8279831900261,None,917.8279831900261,None,917.8279831900261,None,0.011391189997084439,None,917.8279831900261,None,917.8279831900261,None,917.8279831900261,None,917.8279831900261,None,917.8279831900261,None,917.8279831900261,None,917.8375864000118,None,917.8375864000118,None,917.8375864000118,None,0.0044026900141034275,0.5044026900141034,917.8375864000118,None,917.8375864000118,None,917.8375864000118,None,917.8375864000118,None,917.8375864000118,None,917.8375864000118,None,919.8275816000241,919.8275816000241,11.5,4.329,-400,-250,-50,,,,,,,,,,,,,,,,,,,,,,,,,,,,,,,,,,,,,,,,,,,,,,,,,,,,,,,,,,,,,,,,,,,,,,,,,,,,,,,,,,,f,28,lilihong,2022_Apr_01_1456,emotion,2021.1.4,60.91050236602098,
60,-200,0,-50,two,-200,0,-50,,,,,0,72,72,59,,,,,,,,,,,right,6.183224699983839,924.2108096000156,None,924.2108096000156,None,930.4128522000101,None,930.4128522000101,None,930.4128522000101,None,932.3917503000121,932.8918108000071,932.3917503000121,932.8918108000071,932.3917503000121,932.8918108000071,930.4128522000101,None,932.92502709002,None,932.92502709002,None,932.92502709002,None,0.011696889996528625,None,932.92502709002,None,932.92502709002,None,932.92502709002,None,932.92502709002,None,932.92502709002,None,932.92502709002,None,932.9347629000258,None,932.9347629000258,None,932.9347629000258,None,0.004300689994124696,0.5043006899941247,932.9347629000258,None,932.9347629000258,None,932.9347629000258,None,932.9347629000258,None,932.9347629000258,None,932.9347629000258,None,934.9246091000095,934.9246091000095,-43.5,6.56,-600,-250,-100,,,,,,,,,,,,,,,,,,,,,,,,,,,,,,,,,,,,,,,,,,,,,,,,,,,,,,,,,,,,,,,,,,,,,,,,,,,,,,,,,,,f,28,lilihong,2022_Apr_01_1456,emotion,2021.1.4,60.91050236602098,
50,0,-200,-50,one,0,-200,-50,,,,,0,73,73,49,,,,,,,,,,,left,3.8925367999763694,941.540119000012,None,941.540119000012,None,945.4620896000124,None,945.4620896000124,None,945.4620896000124,None,947.4387796000228,947.9386710000108,947.4387796000228,947.9386710000108,947.4387796000228,947.9386710000108,945.4620896000124,None,947.9720614900114,None,947.9720614900114,None,947.9720614900114,None,0.011750589997973293,None,947.9720614900114,None,947.9720614900114,None,947.9720614900114,None,947.9720614900114,None,947.9720614900114,None,947.9720614900114,None,947.9820466000238,None,947.9820466000238,None,947.9820466000238,None,0.004486089979764074,0.5044860899797641,947.9820466000238,None,947.9820466000238,None,947.9820466000238,None,947.9820466000238,None,947.9820466000238,None,947.9820466000238,None,949.9741920000233,949.9741920000233,11.100000000000001,10.99,-600,-450,-150,,,,,,,,,,,,,,,,,,,,,,,,,,,,,,,,,,,,,,,,,,,,,,,,,,,,,,,,,,,,,,,,,,,,,,,,,,,,,,,,,,,f,28,lilihong,2022_Apr_01_1456,emotion,2021.1.4,60.91050236602098,
52,-50,-200,0,one,-50,-200,0,,,,,0,74,74,51,,,,,,,,,,,left,2.8280503999849316,961.0213534000213,None,961.0213534000213,None,963.8745333000261,None,963.8745333000261,None,963.8745333000261,None,965.8515488000121,966.3517130000109,965.8515488000121,966.3517130000109,965.8515488000121,966.3517130000109,963.8745333000261,None,966.385088790016,None,966.385088790016,None,966.385088790016,None,0.011662389995763078,None,966.385088790016,None,966.385088790016,None,966.385088790016,None,966.385088790016,None,966.385088790016,None,966.385088790016,None,966.3948128000193,None,966.3948128000193,None,966.3948128000193,None,0.004244990006554872,0.5042449900065549,966.3948128000193,None,966.3948128000193,None,966.3948128000193,None,966.3948128000193,None,966.3948128000193,None,966.3948128000193,None,968.3849665000162,968.3849665000162,-12.200000000000003,4.016,-650,-650,-150,,,,,,,,,,,,,,,,,,,,,,,,,,,,,,,,,,,,,,,,,,,,,,,,,,,,,,,,,,,,,,,,,,,,,,,,,,,,,,,,,,,f,28,lilihong,2022_Apr_01_1456,emotion,2021.1.4,60.91050236602098,
11,200,50,0,two,200,50,0,,,,,0,75,75,10,,,,,,,,,,,right,4.319953900005203,972.4578383000044,None,972.4578383000044,None,976.8053871000011,None,976.8053871000011,None,976.8053871000011,None,978.7825999000052,979.2825200000079,978.7825999000052,979.2825200000079,978.7825999000052,979.2825200000079,976.8053871000011,None,979.3155330900161,None,979.3155330900161,None,979.3155330900161,None,0.011507290008012205,None,979.3155330900161,None,979.3155330900161,None,979.3155330900161,None,979.3155330900161,None,979.3155330900161,None,979.3155330900161,None,979.3245289000042,None,979.3245289000042,None,979.3245289000042,None,0.004720489989267662,0.5047204899892677,979.3245289000042,None,979.3245289000042,None,979.3245289000042,None,979.3245289000042,None,979.3245289000042,None,979.3245289000042,None,981.3163999000099,981.3163999000099,8.100000000000001,2.469,-450,-600,-150,,,,,,,,,,,,,,,,,,,,,,,,,,,,,,,,,,,,,,,,,,,,,,,,,,,,,,,,,,,,,,,,,,,,,,,,,,,,,,,,,,,f,28,lilihong,2022_Apr_01_1456,emotion,2021.1.4,60.91050236602098,
64,0,0,-200,one,0,0,-200,,,,,0,76,76,63,,,,,,,,,,,right,4.19321779999882,983.8444040000031,None,983.8444040000031,None,988.069091900019,None,988.069091900019,None,988.069091900019,None,990.0470796000154,990.5469563000079,990.0470796000154,990.5469563000079,990.0470796000154,990.5469563000079,988.069091900019,None,990.5804343900061,None,990.5804343900061,None,990.5804343900061,None,0.01182648999383673,None,990.5804343900061,None,990.5804343900061,None,990.5804343900061,None,990.5804343900061,None,990.5804343900061,None,990.5804343900061,None,990.5892441000033,None,990.5892441000033,None,990.5892441000033,None,0.005088989972136915,0.5050889899721369,990.5892441000033,None,990.5892441000033,None,990.5892441000033,None,990.5892441000033,None,990.5892441000033,None,990.5892441000033,None,992.5798819000192,992.5798819000192,1.7000000000000028,5.126,-450,-600,-350,,,,,,,,,,,,,,,,,,,,,,,,,,,,,,,,,,,,,,,,,,,,,,,,,,,,,,,,,,,,,,,,,,,,,,,,,,,,,,,,,,,f,28,lilihong,2022_Apr_01_1456,emotion,2021.1.4,60.91050236602098,
70,0,0,-200,two,0,0,-200,,,,,0,77,77,69,,,,,,,,,,,right,3.393336700013606,997.7607990000106,None,997.7607990000106,None,1001.1841050000221,None,1001.1841050000221,None,1001.1841050000221,None,1003.1623563000176,1003.6777245000121,1003.1623563000176,1003.6777245000121,1003.1623563000176,1003.6777245000121,1001.1841050000221,None,1003.6944271900109,None,1003.6944271900109,None,1003.6944271900109,None,0.011315089999698102,None,1003.6944271900109,None,1003.6944271900109,None,1003.6944271900109,None,1003.6944271900109,None,1003.6944271900109,None,1003.6944271900109,None,1003.7043447000033,None,1003.7043447000033,None,1003.7043447000033,None,0.004217289970256388,0.5042172899702564,1003.7043447000033,None,1003.7043447000033,None,1003.7043447000033,None,1003.7043447000033,None,1003.7043447000033,None,1003.7043447000033,None,1005.6939702000236,1005.6939702000236,7.200000000000003,2.295,-450,-600,-550,,,,,,,,,,,,,,,,,,,,,,,,,,,,,,,,,,,,,,,,,,,,,,,,,,,,,,,,,,,,,,,,,,,,,,,,,,,,,,,,,,,f,28,lilihong,2022_Apr_01_1456,emotion,2021.1.4,60.91050236602098,
1,0,50,200,one,0,50,200,,,,,0,78,78,0,,,,,,,,,,,right,4.429128899995703,1008.041492600023,None,1008.041492600023,None,1012.4989142000268,None,1012.4989142000268,None,1012.4989142000268,None,1014.4755368000187,1014.9755261000246,1014.4755368000187,1014.9755261000246,1014.4755368000187,1014.9755261000246,1012.4989142000268,None,1015.008781090012,None,1015.008781090012,None,1015.008781090012,None,0.011516389989992604,None,1015.008781090012,None,1015.008781090012,None,1015.008781090012,None,1015.008781090012,None,1015.008781090012,None,1015.008781090012,None,1015.0178985000239,None,1015.0178985000239,None,1015.0178985000239,None,0.004357689991593361,0.5043576899915934,1015.0178985000239,None,1015.0178985000239,None,1015.0178985000239,None,1015.0178985000239,None,1015.0178985000239,None,1015.0178985000239,None,1017.0089882000175,1017.0089882000175,-1.3999999999999986,4.851,-450,-550,-350,,,,,,,,,,,,,,,,,,,,,,,,,,,,,,,,,,,,,,,,,,,,,,,,,,,,,,,,,,,,,,,,,,,,,,,,,,,,,,,,,,,f,28,lilihong,2022_Apr_01_1456,emotion,2021.1.4,60.91050236602098,
80,-50,-200,-50,two,-50,-200,-50,,,,,0,79,79,79,,,,,,,,,,,down,2.353349800017895,1021.9135634000122,None,1021.9135634000122,None,1024.290305500006,None,1024.290305500006,None,1024.290305500006,None,1026.2732396000065,1026.7732507000037,1026.2732396000065,1026.7732507000037,1026.2732396000065,1026.7732507000037,1024.290305500006,None,1026.7899533900024,None,1026.7899533900024,None,1026.7899533900024,None,0.009563889965647832,None,1026.7899533900024,None,1026.7899533900024,None,1026.7899533900024,None,1026.7899533900024,None,1026.7899533900024,None,1026.7899533900024,None,1026.8020753000164,None,1026.8020753000164,None,1026.8020753000164,None,0.0008870899910107255,0.5008870899910107,1026.8020753000164,None,1026.8020753000164,None,1026.8020753000164,None,1026.8020753000164,None,1026.8020753000164,None,1026.8020753000164,None,1028.7910004000005,1028.7910004000005,9.399999999999999,4.036,-500,-750,-400,,,,,,,,,,,,,,,,,,,,,,,,,,,,,,,,,,,,,,,,,,,,,,,,,,,,,,,,,,,,,,,,,,,,,,,,,,,,,,,,,,,f,28,lilihong,2022_Apr_01_1456,emotion,2021.1.4,60.91050236602098,
68,0,-50,0,two,0,-50,0,,,,,0,80,80,67,,,,,,,,,,,down,9.467612900014501,1032.8876129000273,None,1032.8876129000273,None,1042.3758067000017,None,1042.3758067000017,None,1042.3758067000017,None,1044.3530085000093,1044.8529457000259,1044.3530085000093,1044.8529457000259,1044.3530085000093,1044.8529457000259,1042.3758067000017,None,1044.886140290019,None,1044.886140290019,None,1044.886140290019,None,0.011413789994549006,None,1044.886140290019,None,1044.886140290019,None,1044.886140290019,None,1044.886140290019,None,1044.886140290019,None,1044.886140290019,None,1044.8963547000021,None,1044.8963547000021,None,1044.8963547000021,None,0.004604590008966625,0.5046045900089666,1044.8963547000021,None,1044.8963547000021,None,1044.8963547000021,None,1044.8963547000021,None,1044.8963547000021,None,1044.8963547000021,None,1046.8855556000199,1046.8855556000199,7.100000000000001,3.919,-500,-800,-400,,,,,,,,,,,,,,,,,,,,,,,,,,,,,,,,,,,,,,,,,,,,,,,,,,,,,,,,,,,,,,,,,,,,,,,,,,,,,,,,,,,f,28,lilihong,2022_Apr_01_1456,emotion,2021.1.4,60.91050236602098,
8,0,200,50,two,0,200,50,,,,,0,81,81,7,,,,,,,,,,,down,4.528852100018412,1050.8571913000196,None,1050.8571913000196,None,1055.406641300011,None,1055.406641300011,None,1055.406641300011,None,1057.3837821000197,1057.8836903000192,1057.3837821000197,1057.8836903000192,1057.3837821000197,1057.8836903000192,1055.406641300011,None,1057.9170533900149,None,1057.9170533900149,None,1057.9170533900149,None,0.011696789995767176,None,1057.9170533900149,None,1057.9170533900149,None,1057.9170533900149,None,1057.9170533900149,None,1057.9170533900149,None,1057.9170533900149,None,1057.9275750000088,None,1057.9275750000088,None,1057.9275750000088,None,0.004496089997701347,0.5044960899977013,1057.9275750000088,None,1057.9275750000088,None,1057.9275750000088,None,1057.9275750000088,None,1057.9275750000088,None,1057.9275750000088,None,1059.9168683000025,1059.9168683000025,-16.6,3.659,-500,-600,-350,,,,,,,,,,,,,,,,,,,,,,,,,,,,,,,,,,,,,,,,,,,,,,,,,,,,,,,,,,,,,,,,,,,,,,,,,,,,,,,,,,,f,28,lilihong,2022_Apr_01_1456,emotion,2021.1.4,60.91050236602098,
96,-50,-200,-200,two,-50,-200,-200,,,,,0,82,82,95,,,,,,,,,,,left,3.34284630001639,1063.6405647000065,None,1063.6405647000065,None,1067.004287800024,None,1067.004287800024,None,1067.004287800024,None,1068.9814989000151,1069.4814642000129,1068.9814989000151,1069.4814642000129,1068.9814989000151,1069.4814642000129,1067.004287800024,None,1069.5147742900124,None,1069.5147742900124,None,1069.5147742900124,None,0.011511289980262518,None,1069.5147742900124,None,1069.5147742900124,None,1069.5147742900124,None,1069.5147742900124,None,1069.5147742900124,None,1069.5147742900124,None,1069.5241909000033,None,1069.5241909000033,None,1069.5241909000033,None,0.00423628999851644,0.5042362899985164,1069.5241909000033,None,1069.5241909000033,None,1069.5241909000033,None,1069.5241909000033,None,1069.5241909000033,None,1069.5241909000033,None,1071.514321100025,1071.514321100025,6.399999999999999,7.768,-550,-800,-550,,,,,,,,,,,,,,,,,,,,,,,,,,,,,,,,,,,,,,,,,,,,,,,,,,,,,,,,,,,,,,,,,,,,,,,,,,,,,,,,,,,f,28,lilihong,2022_Apr_01_1456,emotion,2021.1.4,60.91050236602098,
13,0,0,50,one,0,0,50,,,,,0,83,83,12,,,,,,,,,,,left,14.150988300010795,1079.3369892000046,None,1079.3369892000046,None,1093.5164122999995,None,1093.5164122999995,None,1093.5164122999995,None,1095.492880900012,1095.9928469000151,1095.492880900012,1095.9928469000151,1095.492880900012,1095.9928469000151,1093.5164122999995,None,1096.0261964900244,None,1096.0261964900244,None,1096.0261964900244,None,0.011605189996771514,None,1096.0261964900244,None,1096.0261964900244,None,1096.0261964900244,None,1096.0261964900244,None,1096.0261964900244,None,1096.0261964900244,None,1096.0359023000055,None,1096.0359023000055,None,1096.0359023000055,None,0.004356690013082698,0.5043566900130827,1096.0359023000055,None,1096.0359023000055,None,1096.0359023000055,None,1096.0359023000055,None,1096.0359023000055,None,1096.0359023000055,None,1098.0257061000157,1098.0257061000157,12.399999999999999,8.357,-550,-800,-500,,,,,,,,,,,,,,,,,,,,,,,,,,,,,,,,,,,,,,,,,,,,,,,,,,,,,,,,,,,,,,,,,,,,,,,,,,,,,,,,,,,f,28,lilihong,2022_Apr_01_1456,emotion,2021.1.4,60.91050236602098,
22,0,0,200,two,0,0,200,,,,,0,84,84,21,,,,,,,,,,,right,2.5922381000127643,1106.4389650000085,None,1106.4389650000085,None,1109.057130900008,None,1109.057130900008,None,1109.057130900008,None,1111.040453100024,1111.5404470000067,1111.040453100024,1111.5404470000067,1111.040453100024,1111.5404470000067,1109.057130900008,None,1111.5571496900054,None,1111.5571496900054,None,1111.5571496900054,None,0.009273389965528622,None,1111.5571496900054,None,1111.5571496900054,None,1111.5571496900054,None,1111.5571496900054,None,1111.5571496900054,None,1111.5571496900054,None,1111.56843330001,None,1111.56843330001,None,1111.56843330001,None,0.0011759899789467454,0.5011759899789467,1111.56843330001,None,1111.56843330001,None,1111.56843330001,None,1111.56843330001,None,1111.56843330001,None,1111.56843330001,None,1113.556659200025,1113.556659200025,-10.5,2.506,-550,-800,-300,,,,,,,,,,,,,,,,,,,,,,,,,,,,,,,,,,,,,,,,,,,,,,,,,,,,,,,,,,,,,,,,,,,,,,,,,,,,,,,,,,,f,28,lilihong,2022_Apr_01_1456,emotion,2021.1.4,60.91050236602098,
37,200,200,0,one,200,200,0,,,,,0,85,85,36,,,,,,,,,,,left,3.699974499992095,1116.15492120001,None,1116.15492120001,None,1119.8786903000146,None,1119.8786903000146,None,1119.8786903000146,None,1121.8544399000239,1122.3543071000022,1121.8544399000239,1122.3543071000022,1121.8544399000239,1122.3543071000022,1119.8786903000146,None,1122.387722390017,None,1122.387722390017,None,1122.387722390017,None,0.011262589978286996,None,1122.387722390017,None,1122.387722390017,None,1122.387722390017,None,1122.387722390017,None,1122.387722390017,None,1122.387722390017,None,1122.397685200005,None,1122.397685200005,None,1122.397685200005,None,0.004602389992214739,0.5046023899922147,1122.397685200005,None,1122.397685200005,None,1122.397685200005,None,1122.397685200005,None,1122.397685200005,None,1122.397685200005,None,1124.3871002000233,1124.3871002000233,13.799999999999997,5.339,-350,-600,-300,,,,,,,,,,,,,,,,,,,,,,,,,,,,,,,,,,,,,,,,,,,,,,,,,,,,,,,,,,,,,,,,,,,,,,,,,,,,,,,,,,,f,28,lilihong,2022_Apr_01_1456,emotion,2021.1.4,60.91050236602098,
76,0,-50,-50,one,0,-50,-50,,,,,0,86,86,75,,,,,,,,,,,left,8.291339900024468,1129.7806488000206,None,1129.7806488000206,None,1138.1017587000097,None,1138.1017587000097,None,1138.1017587000097,None,1140.0841467000137,1140.5841547000164,1140.0841467000137,1140.5841547000164,1140.0841467000137,1140.5841547000164,1138.1017587000097,None,1140.600857390015,None,1140.600857390015,None,1140.600857390015,None,0.009826189954765141,None,1140.600857390015,None,1140.600857390015,None,1140.600857390015,None,1140.600857390015,None,1140.600857390015,None,1140.600857390015,None,1140.6128060000192,None,1140.6128060000192,None,1140.6128060000192,None,0.001213290001032874,0.5012132900010329,1140.6128060000192,None,1140.6128060000192,None,1140.6128060000192,None,1140.6128060000192,None,1140.6128060000192,None,1140.6128060000192,None,1142.6002890000236,1142.6002890000236,27.799999999999997,3.149,-350,-650,-350,,,,,,,,,,,,,,,,,,,,,,,,,,,,,,,,,,,,,,,,,,,,,,,,,,,,,,,,,,,,,,,,,,,,,,,,,,,,,,,,,,,f,28,lilihong,2022_Apr_01_1456,emotion,2021.1.4,60.91050236602098,
2,0,200,50,one,0,200,50,,,,,0,87,87,1,,,,,,,,,,,right,3.2551238000160083,1145.815172600007,None,1145.815172600007,None,1149.1054823000159,None,1149.1054823000159,None,1149.1054823000159,None,1151.0831719000125,1151.5996632000024,1151.0831719000125,1151.5996632000024,1151.0831719000125,1151.5996632000024,1149.1054823000159,None,1151.6163658900011,None,1151.6163658900011,None,1151.6163658900011,None,0.009142889961367473,None,1151.6163658900011,None,1151.6163658900011,None,1151.6163658900011,None,1151.6163658900011,None,1151.6163658900011,None,1151.6163658900011,None,1151.6293764000002,None,1151.6293764000002,None,1151.6293764000002,None,0.0004948899731971323,0.5004948899731971,1151.6293764000002,None,1151.6293764000002,None,1151.6293764000002,None,1151.6293764000002,None,1151.6293764000002,None,1151.6293764000002,None,1153.6145388000004,1153.6145388000004,-21.2,3.221,-350,-450,-300,,,,,,,,,,,,,,,,,,,,,,,,,,,,,,,,,,,,,,,,,,,,,,,,,,,,,,,,,,,,,,,,,,,,,,,,,,,,,,,,,,,f,28,lilihong,2022_Apr_01_1456,emotion,2021.1.4,60.91050236602098,
44,200,0,200,two,200,0,200,,,,,0,88,88,43,,,,,,,,,,,down,5.048535000008997,1156.8885391000076,None,1156.8885391000076,None,1161.9682458000025,None,1161.9682458000025,None,1161.9682458000025,None,1163.9460579000006,1164.4459986000147,1163.9460579000006,1164.4459986000147,1163.9460579000006,1164.4459986000147,1161.9682458000025,None,1164.4793624900165,None,1164.4793624900165,None,1164.4793624900165,None,0.011406389996409416,None,1164.4793624900165,None,1164.4793624900165,None,1164.4793624900165,None,1164.4793624900165,None,1164.4793624900165,None,1164.4793624900165,None,1164.489458600001,None,1164.489458600001,None,1164.489458600001,None,0.004354389995569363,0.5043543899955694,1164.489458600001,None,1164.489458600001,None,1164.489458600001,None,1164.489458600001,None,1164.489458600001,None,1164.489458600001,None,1166.4789446000068,1166.4789446000068,30.299999999999997,19.684,-150,-450,-100,,,,,,,,,,,,,,,,,,,,,,,,,,,,,,,,,,,,,,,,,,,,,,,,,,,,,,,,,,,,,,,,,,,,,,,,,,,,,,,,,,,f,28,lilihong,2022_Apr_01_1456,emotion,2021.1.4,60.91050236602098,
46,200,200,50,two,200,200,50,,,,,0,89,89,45,,,,,,,,,,,right,9.736618599999929,1186.2235839000205,None,1186.2235839000205,None,1195.9924203000264,None,1195.9924203000264,None,1195.9924203000264,None,1197.9727549000236,1198.4726280000177,1197.9727549000236,1198.4726280000177,1197.9727549000236,1198.4726280000177,1195.9924203000264,None,1198.506010690017,None,1198.506010690017,None,1198.506010690017,None,0.011537090002093464,None,1198.506010690017,None,1198.506010690017,None,1198.506010690017,None,1198.506010690017,None,1198.506010690017,None,1198.506010690017,None,1198.5158548000036,None,1198.5158548000036,None,1198.5158548000036,None,0.004004389978945255,0.5040043899789453,1198.5158548000036,None,1198.5158548000036,None,1198.5158548000036,None,1198.5158548000036,None,1198.5158548000036,None,1198.5158548000036,None,1200.5056452999997,1200.5056452999997,10.799999999999997,3.067,50,-250,-50,,,,,,,,,,,,,,,,,,,,,,,,,,,,,,,,,,,,,,,,,,,,,,,,,,,,,,,,,,,,,,,,,,,,,,,,,,,,,,,,,,,f,28,lilihong,2022_Apr_01_1456,emotion,2021.1.4,60.91050236602098,
51,-50,0,-200,one,-50,0,-200,,,,,0,90,90,50,,,,,,,,,,,right,2.4249768999870867,1203.636454600026,None,1203.636454600026,None,1206.0877440000186,None,1206.0877440000186,None,1206.0877440000186,None,1208.0707397000224,1208.5704517000122,1208.0707397000224,1208.5704517000122,1208.0707397000224,1208.5704517000122,1206.0877440000186,None,1208.587154390011,None,1208.587154390011,None,1208.587154390011,None,0.009594389994163066,None,1208.587154390011,None,1208.587154390011,None,1208.587154390011,None,1208.587154390011,None,1208.587154390011,None,1208.587154390011,None,1208.5968280000088,None,1208.5968280000088,None,1208.5968280000088,None,0.0031748900073580444,0.503174890007358,1208.5968280000088,None,1208.5968280000088,None,1208.5968280000088,None,1208.5968280000088,None,1208.5968280000088,None,1208.5968280000088,None,1210.5869154000247,1210.5869154000247,-5.700000000000003,4.861,0,-250,-250,,,,,,,,,,,,,,,,,,,,,,,,,,,,,,,,,,,,,,,,,,,,,,,,,,,,,,,,,,,,,,,,,,,,,,,,,,,,,,,,,,,f,28,lilihong,2022_Apr_01_1456,emotion,2021.1.4,60.91050236602098,
17,0,200,0,one,0,200,0,,,,,0,91,91,16,,,,,,,,,,,left,1.925908300006995,1215.5009418000118,None,1215.5009418000118,None,1217.4585513000202,None,1217.4585513000202,None,1217.4585513000202,None,1219.434909500007,1219.9372358000255,1219.434909500007,1219.9372358000255,1219.434909500007,1219.9372358000255,1217.4585513000202,None,1219.9691609900153,None,1219.9691609900153,None,1219.9691609900153,None,0.011605489999055862,None,1219.9691609900153,None,1219.9691609900153,None,1219.9691609900153,None,1219.9691609900153,None,1219.9691609900153,None,1219.9691609900153,None,1219.9777826000063,None,1219.9777826000063,None,1219.9777826000063,None,0.0044218899856787175,0.5044218899856787,1219.9777826000063,None,1219.9777826000063,None,1219.9777826000063,None,1219.9777826000063,None,1219.9777826000063,None,1219.9777826000063,None,1221.9680153000227,1221.9680153000227,11.0,1.96,0,-50,-250,,,,,,,,,,,,,,,,,,,,,,,,,,,,,,,,,,,,,,,,,,,,,,,,,,,,,,,,,,,,,,,,,,,,,,,,,,,,,,,,,,,f,28,lilihong,2022_Apr_01_1456,emotion,2021.1.4,60.91050236602098,
25,200,50,50,one,200,50,50,,,,,0,92,92,24,,,,,,,,,,,down,2.2094587000028696,1223.9831426000164,None,1223.9831426000164,None,1226.2228208000015,None,1226.2228208000015,None,1226.2228208000015,None,1228.2001521000057,1228.6998517000175,1228.2001521000057,1228.6998517000175,1228.2001521000057,1228.6998517000175,1226.2228208000015,None,1228.7332846900215,None,1228.7332846900215,None,1228.7332846900215,None,0.011776689992984757,None,1228.7332846900215,None,1228.7332846900215,None,1228.7332846900215,None,1228.7332846900215,None,1228.7332846900215,None,1228.7332846900215,None,1228.7423595,None,1228.7423595,None,1228.7423595,None,0.005152889993041754,0.5051528899930418,1228.7423595,None,1228.7423595,None,1228.7423595,None,1228.7423595,None,1228.7423595,None,1228.7423595,None,1230.7339102000115,1230.7339102000115,19.799999999999997,2.514,200,0,-200,,,,,,,,,,,,,,,,,,,,,,,,,,,,,,,,,,,,,,,,,,,,,,,,,,,,,,,,,,,,,,,,,,,,,,,,,,,,,,,,,,,f,28,lilihong,2022_Apr_01_1456,emotion,2021.1.4,60.91050236602098,
16,0,0,200,one,0,0,200,,,,,0,93,93,15,,,,,,,,,,,down,4.452706700016279,1233.3004306000075,None,1233.3004306000075,None,1237.7863868999993,None,1237.7863868999993,None,1237.7863868999993,None,1239.7645158000232,1240.2644063000043,1239.7645158000232,1240.2644063000043,1239.7645158000232,1240.2644063000043,1237.7863868999993,None,1240.2977543900022,None,1240.2977543900022,None,1240.2977543900022,None,0.011694489978253841,None,1240.2977543900022,None,1240.2977543900022,None,1240.2977543900022,None,1240.2977543900022,None,1240.2977543900022,None,1240.2977543900022,None,1240.3074737999996,None,1240.3074737999996,None,1240.3074737999996,None,0.004632389987818897,0.5046323899878189,1240.3074737999996,None,1240.3074737999996,None,1240.3074737999996,None,1240.3074737999996,None,1240.3074737999996,None,1240.3074737999996,None,1242.2974114000099,1242.2974114000099,4.600000000000001,41.512,200,0,0,,,,,,,,,,,,,,,,,,,,,,,,,,,,,,,,,,,,,,,,,,,,,,,,,,,,,,,,,,,,,,,,,,,,,,,,,,,,,,,,,,,f,28,lilihong,2022_Apr_01_1456,emotion,2021.1.4,60.91050236602098,
