trialNumber,mychoice,otherchoice,stay,skip,pointsWon,otherScore,unobtained,choicepos,pos_1,otherscore,allowedkeyresp,trials_2.thisRepN,trials_2.thisTrialN,trials_2.thisN,trials_2.thisIndex,trials.thisRepN,trials.thisTrialN,trials.thisN,trials.thisIndex,image_2.started,image_2.stopped,key_resp_2.keys,key_resp_2.rt,key_resp_2.started,key_resp_2.stopped,key_resp_6.keys,key_resp_6.rt,key_resp_6.started,key_resp_6.stopped,text.started,text.stopped,left_3.started,left_3.stopped,middle_3.started,middle_3.stopped,right_3.started,right_3.stopped,otherleft_1.started,otherleft_1.stopped,othermiddle_1.started,othermiddle_1.stopped,otherright_1.started,otherright_1.stopped,text_2.started,text_2.stopped,left_4.started,left_4.stopped,right_4.started,right_4.stopped,middle_4.started,middle_4.stopped,ISI_3.started,ISI_3.stopped,mypick.started,mypick.stopped,otherpick.started,otherpick.stopped,residal.started,residal.stopped,otherleft_5.started,otherleft_5.stopped,othermiddle_5.started,othermiddle_5.stopped,otherright_5.started,otherright_5.stopped,left_5.started,left_5.stopped,right_5.started,right_5.stopped,middle_5.started,middle_5.stopped,ISI_5.started,ISI_5.stopped,mypick_1.started,mypick_1.stopped,otherpick_1.started,otherpick_1.stopped,residal_1.started,residal_1.stopped,otherleft_6.started,otherleft_6.stopped,othermiddle_6.started,othermiddle_6.stopped,otherright_6.started,otherright_6.stopped,text_3.started,text_3.stopped,rating,ratingrt,totalScore,othertotalScore,unobtainedScore,image_4.started,image_4.stopped,key_resp_3.keys,key_resp_3.rt,key_resp_3.started,key_resp_3.stopped,image_5.started,image_5.stopped,key_resp.keys,key_resp.rt,key_resp.started,key_resp.stopped,otherleft_3.started,otherleft_3.stopped,othermiddle_3.started,othermiddle_3.stopped,otherright_3.started,otherright_3.stopped,text_4.started,text_4.stopped,ISI_2.started,ISI_2.stopped,key_resp_4.keys,key_resp_4.rt,key_resp_4.started,key_resp_4.stopped,otherleft_4.started,otherleft_4.stopped,othermiddle_4.started,othermiddle_4.stopped,otherright_4.started,otherright_4.stopped,text_5.started,text_5.stopped,left.started,left.stopped,right.started,right.stopped,middle.started,middle.stopped,ISI.started,ISI.stopped,mypick_3.started,mypick_3.stopped,otherpick_3.started,otherpick_3.stopped,residal_3.started,residal_3.stopped,otherleft.started,otherleft.stopped,othermiddle.started,othermiddle.stopped,otherright.started,otherright.stopped,right_2.started,right_2.stopped,middle_2.started,middle_2.stopped,left_2.started,left_2.stopped,ISI_4.started,ISI_4.stopped,mypick_4.started,mypick_4.stopped,otherpick_4.started,otherpick_4.stopped,residal_4.started,residal_4.stopped,otherleft_2.started,otherleft_2.stopped,othermiddle_2.started,othermiddle_2.stopped,otherright_2.started,otherright_2.stopped,text_6.started,text_6.stopped,image_3.started,image_3.stopped,key_resp_9.keys,key_resp_9.rt,key_resp_9.started,key_resp_9.stopped,gender,age,participant,date,expName,psychopyVersion,frameRate,
,,,,,,,,,,,,,,,,,,,,33.54493639999987,None,space,4.48761669999999,33.54493639999987,None,,,,,,,,,,,,,,,,,,,,,,,,,,,,,,,,,,,,,,,,,,,,,,,,,,,,,,,,,,,,,,,,,,,,,,,,,,,,,,,,,,,,,,,,,,,,,,,,,,,,,,,,,,,,,,,,,,,,,,,,,,,,,,,,,,,,,,,,,,,,,,,,,,,,,,f,25,panxiaoxi,2022-04-01_08h26.37.869,emotion,2022.1.2,60.029738732600876,
78,-50,-50,0,one,-50,-50,0,,,,,0,0,0,77,,,,,,,,,,,down,1.8595697000000655,38.095825099999956,None,38.095825099999956,None,39.98652849999985,None,39.98652849999985,None,39.98652849999985,None,41.96890859999985,42.46868339999992,41.96890859999985,42.46868339999992,41.96890859999985,42.46868339999992,39.98652849999985,None,42.5019518499998,None,42.5019518499998,None,42.5019518499998,None,0.004402049999953306,None,42.5019518499998,None,42.5019518499998,None,42.5019518499998,None,42.5019518499998,None,42.5019518499998,None,42.5019518499998,None,42.519637699999976,None,42.519637699999976,None,42.519637699999976,None,0.011866199999985838,0.5118661999999858,42.519637699999976,None,42.519637699999976,None,42.519637699999976,None,42.519637699999976,None,42.519637699999976,None,42.519637699999976,None,44.50120479999987,44.50120479999987,1.7000000000000028,2.952,150,-50,0,,,,,,,,,,,,,,,,,,,,,,,,,,,,,,,,,,,,,,,,,,,,,,,,,,,,,,,,,,,,,,,,,,,,,,,,,,,,,,,,,,,f,25,panxiaoxi,2022-04-01_08h26.37.869,emotion,2022.1.2,60.029738732600876,
10,50,200,0,two,50,200,0,,,,,0,1,1,9,,,,,,,,,,,left,2.3097665000000234,47.56595010000001,None,47.56595010000001,None,49.89869169999997,None,49.89869169999997,None,49.89869169999997,None,51.88114799999994,52.380599200000006,51.88114799999994,52.380599200000006,51.88114799999994,52.380599200000006,49.89869169999997,None,52.41409664999988,None,52.41409664999988,None,52.41409664999988,None,0.005619649999971443,None,52.41409664999988,None,52.41409664999988,None,52.41409664999988,None,52.41409664999988,None,52.41409664999988,None,52.41409664999988,None,52.42755699999998,None,52.42755699999998,None,52.42755699999998,None,0.014243600000099832,0.5142436000000998,52.42755699999998,None,52.42755699999998,None,52.42755699999998,None,52.42755699999998,None,52.42755699999998,None,52.42755699999998,None,54.413266999999905,54.413266999999905,-5.700000000000003,2.791,200,150,0,,,,,,,,,,,,,,,,,,,,,,,,,,,,,,,,,,,,,,,,,,,,,,,,,,,,,,,,,,,,,,,,,,,,,,,,,,,,,,,,,,,f,25,panxiaoxi,2022-04-01_08h26.37.869,emotion,2022.1.2,60.029738732600876,
91,-200,-200,0,two,-200,-200,0,,,,,0,2,2,90,,,,,,,,,,,down,2.620577400000002,57.27766780000002,None,57.27766780000002,None,59.927403599999934,None,59.927403599999934,None,59.927403599999934,None,61.90978629999995,62.40979709999988,61.90978629999995,62.40979709999988,61.90978629999995,62.40979709999988,59.927403599999934,None,62.44299284999984,None,62.44299284999984,None,62.44299284999984,None,0.009694350000017948,None,62.44299284999984,None,62.44299284999984,None,62.44299284999984,None,62.44299284999984,None,62.44299284999984,None,62.44299284999984,None,62.45231809999996,None,62.45231809999996,None,62.45231809999996,None,0.0019878499999776977,0.5019878499999777,62.45231809999996,None,62.45231809999996,None,62.45231809999996,None,62.45231809999996,None,62.45231809999996,None,62.45231809999996,None,64.4420720999999,64.4420720999999,-0.5,4.494,0,-50,0,,,,,,,,,,,,,,,,,,,,,,,,,,,,,,,,,,,,,,,,,,,,,,,,,,,,,,,,,,,,,,,,,,,,,,,,,,,,,,,,,,,f,25,panxiaoxi,2022-04-01_08h26.37.869,emotion,2022.1.2,60.029738732600876,
75,-50,-50,-200,one,-50,-50,-200,,,,,0,3,3,74,,,,,,,,,,,right,4.283100399999967,68.98959619999982,None,68.98959619999982,None,73.30481169999985,None,73.30481169999985,None,73.30481169999985,None,75.28700479999998,75.78683679999995,75.28700479999998,75.78683679999995,75.28700479999998,75.78683679999995,73.30481169999985,None,75.82023654999985,None,75.82023654999985,None,75.82023654999985,None,0.010625650000065434,None,75.82023654999985,None,75.82023654999985,None,75.82023654999985,None,75.82023654999985,None,75.82023654999985,None,75.82023654999985,None,75.82866530000001,None,75.82866530000001,None,75.82866530000001,None,0.003826050000043324,0.5038260500000433,75.82866530000001,None,75.82866530000001,None,75.82866530000001,None,75.82866530000001,None,75.82866530000001,None,75.82866530000001,None,77.81941699999993,77.81941699999993,2.0,4.929,-50,-100,-200,,,,,,,,,,,,,,,,,,,,,,,,,,,,,,,,,,,,,,,,,,,,,,,,,,,,,,,,,,,,,,,,,,,,,,,,,,,,,,,,,,,f,25,panxiaoxi,2022-04-01_08h26.37.869,emotion,2022.1.2,60.029738732600876,
27,50,50,200,one,50,50,200,,,,,0,4,4,26,,,,,,,,,,,left,3.1902975999998944,82.80043389999992,None,82.80043389999992,None,86.01548529999991,None,86.01548529999991,None,86.01548529999991,None,87.99788439999998,88.49777599999993,87.99788439999998,88.49777599999993,87.99788439999998,88.49777599999993,86.01548529999991,None,88.53103144999996,None,88.53103144999996,None,88.53103144999996,None,0.010439550000000963,None,88.53103144999996,None,88.53103144999996,None,88.53103144999996,None,88.53103144999996,None,88.53103144999996,None,88.53103144999996,None,88.53949569999986,None,88.53949569999986,None,88.53949569999986,None,0.003812350000089282,0.5038123500000893,88.53949569999986,None,88.53949569999986,None,88.53949569999986,None,88.53949569999986,None,88.53949569999986,None,88.53949569999986,None,90.53055329999984,90.53055329999984,1.2000000000000028,3.0,0,-50,0,,,,,,,,,,,,,,,,,,,,,,,,,,,,,,,,,,,,,,,,,,,,,,,,,,,,,,,,,,,,,,,,,,,,,,,,,,,,,,,,,,,f,25,panxiaoxi,2022-04-01_08h26.37.869,emotion,2022.1.2,60.029738732600876,
17,0,200,0,one,0,200,0,,,,,0,5,5,16,,,,,,,,,,,left,2.84190650000005,93.5946578999999,None,93.5946578999999,None,96.46080569999981,None,96.46080569999981,None,96.46080569999981,None,98.44318679999992,98.94305309999982,98.44318679999992,98.94305309999982,98.44318679999992,98.94305309999982,96.46080569999981,None,98.97639784999997,None,98.97639784999997,None,98.97639784999997,None,0.010803650000298148,None,98.97639784999997,None,98.97639784999997,None,98.97639784999997,None,98.97639784999997,None,98.97639784999997,None,98.97639784999997,None,98.98449059999984,None,98.98449059999984,None,98.98449059999984,None,0.00396944999988591,0.5039694499998859,98.98449059999984,None,98.98449059999984,None,98.98449059999984,None,98.98449059999984,None,98.98449059999984,None,98.98449059999984,None,100.97522789999994,100.97522789999994,-9.399999999999999,3.649,0,150,0,,,,,,,,,,,,,,,,,,,,,,,,,,,,,,,,,,,,,,,,,,,,,,,,,,,,,,,,,,,,,,,,,,,,,,,,,,,,,,,,,,,f,25,panxiaoxi,2022-04-01_08h26.37.869,emotion,2022.1.2,60.029738732600876,
72,-200,0,0,two,-200,0,0,,,,,0,6,6,71,,,,,,,,,,,left,2.4096380999999383,104.67473059999998,None,104.67473059999998,None,107.10604719999992,None,107.10604719999992,None,107.10604719999992,None,109.08838549999996,109.5881758999999,109.08838549999996,109.5881758999999,109.08838549999996,109.5881758999999,107.10604719999992,None,109.62154755000002,None,109.62154755000002,None,109.62154755000002,None,0.01044264999995903,None,109.62154755000002,None,109.62154755000002,None,109.62154755000002,None,109.62154755000002,None,109.62154755000002,None,109.62154755000002,None,109.6300139,None,109.6300139,None,109.6300139,None,0.003978050000114308,0.5039780500001143,109.6300139,None,109.6300139,None,109.6300139,None,109.6300139,None,109.6300139,None,109.6300139,None,111.62070870000002,111.62070870000002,-13.399999999999999,2.503,-200,150,0,,,,,,,,,,,,,,,,,,,,,,,,,,,,,,,,,,,,,,,,,,,,,,,,,,,,,,,,,,,,,,,,,,,,,,,,,,,,,,,,,,,f,25,panxiaoxi,2022-04-01_08h26.37.869,emotion,2022.1.2,60.029738732600876,
79,-200,-50,-50,two,-200,-50,-50,,,,,0,7,7,78,,,,,,,,,,,right,1.5003684000000703,114.18508689999999,None,114.18508689999999,None,115.70239609999999,None,115.70239609999999,None,115.70239609999999,None,117.68456300000003,118.18430489999992,117.68456300000003,118.18430489999992,117.68456300000003,118.18430489999992,115.70239609999999,None,118.21756954999996,None,118.21756954999996,None,118.21756954999996,None,0.010448450000239973,None,118.21756954999996,None,118.21756954999996,None,118.21756954999996,None,118.21756954999996,None,118.21756954999996,None,118.21756954999996,None,118.22627229999989,None,118.22627229999989,None,118.22627229999989,None,0.0036348500000258355,0.5036348500000258,118.22627229999989,None,118.22627229999989,None,118.22627229999989,None,118.22627229999989,None,118.22627229999989,None,118.22627229999989,None,120.21667969999999,120.21667969999999,-18.4,2.678,-400,100,-50,,,,,,,,,,,,,,,,,,,,,,,,,,,,,,,,,,,,,,,,,,,,,,,,,,,,,,,,,,,,,,,,,,,,,,,,,,,,,,,,,,,f,25,panxiaoxi,2022-04-01_08h26.37.869,emotion,2022.1.2,60.029738732600876,
90,-50,-200,-200,one,-50,-200,-200,,,,,0,8,8,89,,,,,,,,,,,left,2.600154400000065,122.94887789999984,None,122.94887789999984,None,125.58097729999986,None,125.58097729999986,None,125.58097729999986,None,127.56341580000003,128.06307979999997,127.56341580000003,128.06307979999997,127.56341580000003,128.06307979999997,125.58097729999986,None,128.09668834999997,None,128.09668834999997,None,128.09668834999997,None,0.010674350000044797,None,128.09668834999997,None,128.09668834999997,None,128.09668834999997,None,128.09668834999997,None,128.09668834999997,None,128.09668834999997,None,128.10505990000001,None,128.10505990000001,None,128.10505990000001,None,0.0038465500001620967,0.5038465500001621,128.10505990000001,None,128.10505990000001,None,128.10505990000001,None,128.10505990000001,None,128.10505990000001,None,128.10505990000001,None,130.09552029999986,130.09552029999986,-3.6000000000000014,3.305,-450,-100,-250,,,,,,,,,,,,,,,,,,,,,,,,,,,,,,,,,,,,,,,,,,,,,,,,,,,,,,,,,,,,,,,,,,,,,,,,,,,,,,,,,,,f,25,panxiaoxi,2022-04-01_08h26.37.869,emotion,2022.1.2,60.029738732600876,
53,-200,-50,0,one,-200,-50,0,,,,,0,9,9,52,,,,,,,,,,,down,3.1182274999998754,133.45976619999988,None,133.45976619999988,None,136.60911109999984,None,136.60911109999984,None,136.60911109999984,None,138.5919793999999,139.0916918999999,138.5919793999999,139.0916918999999,138.5919793999999,139.0916918999999,136.60911109999984,None,139.10829704999986,None,139.10829704999986,None,139.10829704999986,None,0.010111450000067634,None,139.10829704999986,None,139.10829704999986,None,139.10829704999986,None,139.10829704999986,None,139.10829704999986,None,139.10829704999986,None,139.11748169999987,None,139.11748169999987,None,139.11748169999987,None,0.0023403500001677457,0.5023403500001677,139.11748169999987,None,139.11748169999987,None,139.11748169999987,None,139.11748169999987,None,139.11748169999987,None,139.11748169999987,None,141.10714089999988,141.10714089999988,-17.4,2.349,-650,-150,-250,,,,,,,,,,,,,,,,,,,,,,,,,,,,,,,,,,,,,,,,,,,,,,,,,,,,,,,,,,,,,,,,,,,,,,,,,,,,,,,,,,,f,25,panxiaoxi,2022-04-01_08h26.37.869,emotion,2022.1.2,60.029738732600876,
74,-50,-200,-50,one,-50,-200,-50,,,,,0,10,10,73,,,,,,,,,,,right,1.59963259999995,143.5069922,None,143.5069922,None,145.13874199999987,None,145.13874199999987,None,145.13874199999987,None,147.12117679999983,147.6209612,147.12117679999983,147.6209612,147.12117679999983,147.6209612,145.13874199999987,None,147.65424204999994,None,147.65424204999994,None,147.65424204999994,None,0.010085850000223218,None,147.65424204999994,None,147.65424204999994,None,147.65424204999994,None,147.65424204999994,None,147.65424204999994,None,147.65424204999994,None,147.6640064999999,None,147.6640064999999,None,147.6640064999999,None,0.0018071500001042295,0.5018071500001042,147.6640064999999,None,147.6640064999999,None,147.6640064999999,None,147.6640064999999,None,147.6640064999999,None,147.6640064999999,None,149.65326679999998,149.65326679999998,-3.6000000000000014,4.142,-700,-350,-300,,,,,,,,,,,,,,,,,,,,,,,,,,,,,,,,,,,,,,,,,,,,,,,,,,,,,,,,,,,,,,,,,,,,,,,,,,,,,,,,,,,f,25,panxiaoxi,2022-04-01_08h26.37.869,emotion,2022.1.2,60.029738732600876,
48,50,200,200,two,50,200,200,,,,,0,11,11,47,,,,,,,,,,,down,1.2399967000001197,153.85154439999997,None,153.85154439999997,None,155.11768369999982,None,155.11768369999982,None,155.11768369999982,None,157.09988809999982,157.59984539999982,157.09988809999982,157.59984539999982,157.09988809999982,157.59984539999982,155.11768369999982,None,157.63321834999982,None,157.63321834999982,None,157.63321834999982,None,0.006935050000038245,None,157.63321834999982,None,157.63321834999982,None,157.63321834999982,None,157.63321834999982,None,157.63321834999982,None,157.63321834999982,None,157.65251879999983,None,157.65251879999983,None,157.65251879999983,None,0.012260199999673205,0.5122601999996732,157.65251879999983,None,157.65251879999983,None,157.65251879999983,None,157.65251879999983,None,157.65251879999983,None,157.65251879999983,None,159.63213999999994,159.63213999999994,-3.799999999999997,2.85,-650,-150,-100,,,,,,,,,,,,,,,,,,,,,,,,,,,,,,,,,,,,,,,,,,,,,,,,,,,,,,,,,,,,,,,,,,,,,,,,,,,,,,,,,,,f,25,panxiaoxi,2022-04-01_08h26.37.869,emotion,2022.1.2,60.029738732600876,
8,0,200,50,two,0,200,50,,,,,0,12,12,7,,,,,,,,,,,right,2.2413850000000366,162.54755019999993,None,162.54755019999993,None,164.81330409999987,None,164.81330409999987,None,164.81330409999987,None,166.79574149999985,167.29543560000002,166.79574149999985,167.29543560000002,166.79574149999985,167.29543560000002,164.81330409999987,None,167.32863694999986,None,167.32863694999986,None,167.32863694999986,None,0.010742050000089876,None,167.32863694999986,None,167.32863694999986,None,167.32863694999986,None,167.32863694999986,None,167.32863694999986,None,167.32863694999986,None,167.33628750000003,None,167.33628750000003,None,167.33628750000003,None,0.004406349999953818,0.5044063499999538,167.33628750000003,None,167.33628750000003,None,167.33628750000003,None,167.33628750000003,None,167.33628750000003,None,167.33628750000003,None,169.32788389999996,169.32788389999996,-10.100000000000001,7.006,-650,50,-50,,,,,,,,,,,,,,,,,,,,,,,,,,,,,,,,,,,,,,,,,,,,,,,,,,,,,,,,,,,,,,,,,,,,,,,,,,,,,,,,,,,f,25,panxiaoxi,2022-04-01_08h26.37.869,emotion,2022.1.2,60.029738732600876,
68,0,-50,0,two,0,-50,0,,,,,0,13,13,67,,,,,,,,,,,down,1.6135019999999258,176.39113699999984,None,176.39113699999984,None,178.02340149999986,None,178.02340149999986,None,178.02340149999986,None,180.0062997,180.50607119999995,180.0062997,180.50607119999995,180.0062997,180.50607119999995,178.02340149999986,None,180.52267634999993,None,180.52267634999993,None,180.52267634999993,None,0.010116950000110592,None,180.52267634999993,None,180.52267634999993,None,180.52267634999993,None,180.52267634999993,None,180.52267634999993,None,180.52267634999993,None,180.53123269999992,None,180.53123269999992,None,180.53123269999992,None,0.0022580499999094172,0.5022580499999094,180.53123269999992,None,180.53123269999992,None,180.53123269999992,None,180.53123269999992,None,180.53123269999992,None,180.53123269999992,None,182.52153839999983,182.52153839999983,3.700000000000003,2.745,-650,0,-50,,,,,,,,,,,,,,,,,,,,,,,,,,,,,,,,,,,,,,,,,,,,,,,,,,,,,,,,,,,,,,,,,,,,,,,,,,,,,,,,,,,f,25,panxiaoxi,2022-04-01_08h26.37.869,emotion,2022.1.2,60.029738732600876,
21,50,0,0,two,50,0,0,,,,,0,14,14,20,,,,,,,,,,,right,1.685953500000096,185.3204490999999,None,185.3204490999999,None,187.03657509999994,None,187.03657509999994,None,187.03657509999994,None,189.01889770000002,189.51861719999988,189.01889770000002,189.51861719999988,189.01889770000002,189.51861719999988,187.03657509999994,None,189.55192104999986,None,189.55192104999986,None,189.55192104999986,None,0.010869950000142126,None,189.55192104999986,None,189.55192104999986,None,189.55192104999986,None,189.55192104999986,None,189.55192104999986,None,189.55192104999986,None,189.5598089,None,189.5598089,None,189.5598089,None,0.004131349999852318,0.5041313499998523,189.5598089,None,189.5598089,None,189.5598089,None,189.5598089,None,189.5598089,None,189.5598089,None,191.55107699999985,191.55107699999985,6.5,1.809,-600,0,-50,,,,,,,,,,,,,,,,,,,,,,,,,,,,,,,,,,,,,,,,,,,,,,,,,,,,,,,,,,,,,,,,,,,,,,,,,,,,,,,,,,,f,25,panxiaoxi,2022-04-01_08h26.37.869,emotion,2022.1.2,60.029738732600876,
52,-50,-200,0,one,-50,-200,0,,,,,0,15,15,51,,,,,,,,,,,left,2.9238606999999774,193.41670750000003,None,193.41670750000003,None,196.36562059999983,None,196.36562059999983,None,196.36562059999983,None,198.34782189999987,198.84786639999993,198.34782189999987,198.84786639999993,198.34782189999987,198.84786639999993,196.36562059999983,None,198.88098605,None,198.88098605,None,198.88098605,None,0.010459850000415827,None,198.88098605,None,198.88098605,None,198.88098605,None,198.88098605,None,198.88098605,None,198.88098605,None,198.88898269999981,None,198.88898269999981,None,198.88898269999981,None,0.003961249999974825,0.5039612499999748,198.88898269999981,None,198.88898269999981,None,198.88898269999981,None,198.88898269999981,None,198.88898269999981,None,198.88898269999981,None,200.88011349999988,200.88011349999988,1.0,3.185,-650,-200,-50,,,,,,,,,,,,,,,,,,,,,,,,,,,,,,,,,,,,,,,,,,,,,,,,,,,,,,,,,,,,,,,,,,,,,,,,,,,,,,,,,,,f,25,panxiaoxi,2022-04-01_08h26.37.869,emotion,2022.1.2,60.029738732600876,
31,200,50,50,two,200,50,50,,,,,0,16,16,30,,,,,,,,,,,down,1.4751271999998607,204.1123372999998,None,204.1123372999998,None,205.61140539999997,None,205.61140539999997,None,205.61140539999997,None,207.59386399999994,208.09350959999983,207.59386399999994,208.09350959999983,207.59386399999994,208.09350959999983,205.61140539999997,None,208.12667794999987,None,208.12667794999987,None,208.12667794999987,None,0.010578349999832426,None,208.12667794999987,None,208.12667794999987,None,208.12667794999987,None,208.12667794999987,None,208.12667794999987,None,208.12667794999987,None,208.13467760000003,None,208.13467760000003,None,208.13467760000003,None,0.0039215500003138,0.5039215500003138,208.13467760000003,None,208.13467760000003,None,208.13467760000003,None,208.13467760000003,None,208.13467760000003,None,208.13467760000003,None,210.12603439999998,210.12603439999998,10.399999999999999,2.423,-450,-150,0,,,,,,,,,,,,,,,,,,,,,,,,,,,,,,,,,,,,,,,,,,,,,,,,,,,,,,,,,,,,,,,,,,,,,,,,,,,,,,,,,,,f,25,panxiaoxi,2022-04-01_08h26.37.869,emotion,2022.1.2,60.029738732600876,
5,200,50,0,one,200,50,0,,,,,0,17,17,4,,,,,,,,,,,left,1.7492460999999366,212.60698409999986,None,212.60698409999986,None,214.3741275,None,214.3741275,None,214.3741275,None,216.35664780000002,216.85640709999984,216.35664780000002,216.85640709999984,216.35664780000002,216.85640709999984,214.3741275,None,216.88946034999998,None,216.88946034999998,None,216.88946034999998,None,0.010694950000242898,None,216.88946034999998,None,216.88946034999998,None,216.88946034999998,None,216.88946034999998,None,216.88946034999998,None,216.88946034999998,None,216.8972263999999,None,216.8972263999999,None,216.8972263999999,None,0.004202249999934793,0.5042022499999348,216.8972263999999,None,216.8972263999999,None,216.8972263999999,None,216.8972263999999,None,216.8972263999999,None,216.8972263999999,None,218.88865869999995,218.88865869999995,11.600000000000001,2.046,-250,-100,0,,,,,,,,,,,,,,,,,,,,,,,,,,,,,,,,,,,,,,,,,,,,,,,,,,,,,,,,,,,,,,,,,,,,,,,,,,,,,,,,,,,f,25,panxiaoxi,2022-04-01_08h26.37.869,emotion,2022.1.2,60.029738732600876,
42,50,200,200,one,50,200,200,,,,,0,18,18,41,,,,,,,,,,,right,4.526926000000003,220.98767139999995,None,220.98767139999995,None,225.53574209999988,None,225.53574209999988,None,225.53574209999988,None,227.5179768999999,228.01791789999993,227.5179768999999,228.01791789999993,227.5179768999999,228.01791789999993,225.53574209999988,None,228.05106744999983,None,228.05106744999983,None,228.05106744999983,None,0.010495649999938905,None,228.05106744999983,None,228.05106744999983,None,228.05106744999983,None,228.05106744999983,None,228.05106744999983,None,228.05106744999983,None,228.05896989999997,None,228.05896989999997,None,228.05896989999997,None,0.0039022500002374727,0.5039022500002375,228.05896989999997,None,228.05896989999997,None,228.05896989999997,None,228.05896989999997,None,228.05896989999997,None,228.05896989999997,None,230.0503538999999,230.0503538999999,-0.7999999999999972,3.708,-200,100,200,,,,,,,,,,,,,,,,,,,,,,,,,,,,,,,,,,,,,,,,,,,,,,,,,,,,,,,,,,,,,,,,,,,,,,,,,,,,,,,,,,,f,25,panxiaoxi,2022-04-01_08h26.37.869,emotion,2022.1.2,60.029738732600876,
46,200,200,50,two,200,200,50,,,,,0,19,19,45,,,,,,,,,,,down,3.2097438000000693,233.81526129999997,None,233.81526129999997,None,237.0470788,None,237.0470788,None,237.0470788,None,239.02971869999988,239.5292806,239.02971869999988,239.5292806,239.02971869999988,239.5292806,237.0470788,None,239.5624681499998,None,239.5624681499998,None,239.5624681499998,None,0.010784850000163715,None,239.5624681499998,None,239.5624681499998,None,239.5624681499998,None,239.5624681499998,None,239.5624681499998,None,239.5624681499998,None,239.57038549999993,None,239.57038549999993,None,239.57038549999993,None,0.004048450000027515,0.5040484500000275,239.57038549999993,None,239.57038549999993,None,239.57038549999993,None,239.57038549999993,None,239.57038549999993,None,239.57038549999993,None,241.5617545,241.5617545,3.0,2.079,0,300,250,,,,,,,,,,,,,,,,,,,,,,,,,,,,,,,,,,,,,,,,,,,,,,,,,,,,,,,,,,,,,,,,,,,,,,,,,,,,,,,,,,,f,25,panxiaoxi,2022-04-01_08h26.37.869,emotion,2022.1.2,60.029738732600876,
39,0,200,200,one,0,200,200,,,,,0,20,20,38,,,,,,,,,,,left,2.094282499999963,243.69409769999993,None,243.69409769999993,None,245.8097783999999,None,245.8097783999999,None,245.8097783999999,None,247.79233169999998,248.29202379999992,247.79233169999998,248.29202379999992,247.79233169999998,248.29202379999992,245.8097783999999,None,248.3252045499998,None,248.3252045499998,None,248.3252045499998,None,0.01035474999980579,None,248.3252045499998,None,248.3252045499998,None,248.3252045499998,None,248.3252045499998,None,248.3252045499998,None,248.3252045499998,None,248.33401630000003,None,248.33401630000003,None,248.33401630000003,None,0.0021819500000219705,0.502181950000022,248.33401630000003,None,248.33401630000003,None,248.33401630000003,None,248.33401630000003,None,248.33401630000003,None,248.33401630000003,None,250.3241962999998,250.3241962999998,-7.5,1.752,0,500,450,,,,,,,,,,,,,,,,,,,,,,,,,,,,,,,,,,,,,,,,,,,,,,,,,,,,,,,,,,,,,,,,,,,,,,,,,,,,,,,,,,,f,25,panxiaoxi,2022-04-01_08h26.37.869,emotion,2022.1.2,60.029738732600876,
76,0,-50,-50,one,0,-50,-50,,,,,0,21,21,75,,,,,,,,,,,down,3.18996449999986,252.13931319999983,None,252.13931319999983,None,255.35548459999995,None,255.35548459999995,None,255.35548459999995,None,257.33789849999994,257.8377132999999,257.33789849999994,257.8377132999999,257.33789849999994,257.8377132999999,255.35548459999995,None,257.8709002499999,None,257.8709002499999,None,257.8709002499999,None,0.010574350000069899,None,257.8709002499999,None,257.8709002499999,None,257.8709002499999,None,257.8709002499999,None,257.8709002499999,None,257.8709002499999,None,257.8786734,None,257.8786734,None,257.8786734,None,0.0042685500002335175,0.5042685500002335,257.8786734,None,257.8786734,None,257.8786734,None,257.8786734,None,257.8786734,None,257.8786734,None,259.87002889999985,259.87002889999985,4.399999999999999,5.845,0,450,400,,,,,,,,,,,,,,,,,,,,,,,,,,,,,,,,,,,,,,,,,,,,,,,,,,,,,,,,,,,,,,,,,,,,,,,,,,,,,,,,,,,f,25,panxiaoxi,2022-04-01_08h26.37.869,emotion,2022.1.2,60.029738732600876,
30,50,50,0,one,50,50,0,,,,,0,22,22,29,,,,,,,,,,,left,1.2387045000000398,265.76713010000003,None,265.76713010000003,None,267.0333908,None,267.0333908,None,267.0333908,None,269.0158770999999,269.5156815999999,269.0158770999999,269.5156815999999,269.0158770999999,269.5156815999999,267.0333908,None,269.54913074999985,None,269.54913074999985,None,269.54913074999985,None,0.010830349999878308,None,269.54913074999985,None,269.54913074999985,None,269.54913074999985,None,269.54913074999985,None,269.54913074999985,None,269.54913074999985,None,269.55677079999987,None,269.55677079999987,None,269.55677079999987,None,0.00449834999972154,0.5044983499997215,269.55677079999987,None,269.55677079999987,None,269.55677079999987,None,269.55677079999987,None,269.55677079999987,None,269.55677079999987,None,271.5481092,271.5481092,4.399999999999999,2.34,50,500,400,,,,,,,,,,,,,,,,,,,,,,,,,,,,,,,,,,,,,,,,,,,,,,,,,,,,,,,,,,,,,,,,,,,,,,,,,,,,,,,,,,,f,25,panxiaoxi,2022-04-01_08h26.37.869,emotion,2022.1.2,60.029738732600876,
25,200,50,50,one,200,50,50,,,,,0,23,23,24,,,,,,,,,,,left,1.3051026000000547,273.94593439999994,None,273.94593439999994,None,275.2799077999998,None,275.2799077999998,None,275.2799077999998,None,277.26203859999987,277.76168059999986,277.26203859999987,277.76168059999986,277.26203859999987,277.76168059999986,275.2799077999998,None,277.79515024999995,None,277.79515024999995,None,277.79515024999995,None,0.010854050000034476,None,277.79515024999995,None,277.79515024999995,None,277.79515024999995,None,277.79515024999995,None,277.79515024999995,None,277.79515024999995,None,277.80340669999987,None,277.80340669999987,None,277.80340669999987,None,0.00414174999991701,0.504141749999917,277.80340669999987,None,277.80340669999987,None,277.80340669999987,None,277.80340669999987,None,277.80340669999987,None,277.80340669999987,None,279.79435319999993,279.79435319999993,27.5,1.805,250,550,450,,,,,,,,,,,,,,,,,,,,,,,,,,,,,,,,,,,,,,,,,,,,,,,,,,,,,,,,,,,,,,,,,,,,,,,,,,,,,,,,,,,f,25,panxiaoxi,2022-04-01_08h26.37.869,emotion,2022.1.2,60.029738732600876,
73,-200,-50,-50,one,-200,-50,-50,,,,,0,24,24,72,,,,,,,,,,,left,3.391663200000039,281.6591306999999,None,281.6591306999999,None,285.07515679999983,None,285.07515679999983,None,285.07515679999983,None,287.0578095999999,287.557581,287.0578095999999,287.557581,287.0578095999999,287.557581,285.07515679999983,None,287.57418615,None,287.57418615,None,287.57418615,None,0.010008149999976013,None,287.57418615,None,287.57418615,None,287.57418615,None,287.57418615,None,287.57418615,None,287.57418615,None,287.5831343,None,287.5831343,None,287.5831343,None,0.002281549999906929,0.5022815499999069,287.5831343,None,287.5831343,None,287.5831343,None,287.5831343,None,287.5831343,None,287.5831343,None,289.5733352999998,289.5733352999998,-4.600000000000001,2.049,50,500,400,,,,,,,,,,,,,,,,,,,,,,,,,,,,,,,,,,,,,,,,,,,,,,,,,,,,,,,,,,,,,,,,,,,,,,,,,,,,,,,,,,,f,25,panxiaoxi,2022-04-01_08h26.37.869,emotion,2022.1.2,60.029738732600876,
60,-200,0,-50,two,-200,0,-50,,,,,0,25,25,59,,,,,,,,,,,right,2.0469569000001684,291.6722301,None,291.6722301,None,293.73793249999994,None,293.73793249999994,None,293.73793249999994,None,295.7204778,296.22033939999983,295.7204778,296.22033939999983,295.7204778,296.22033939999983,293.73793249999994,None,296.2369445499998,None,296.2369445499998,None,296.2369445499998,None,0.010062849999940227,None,296.2369445499998,None,296.2369445499998,None,296.2369445499998,None,296.2369445499998,None,296.2369445499998,None,296.2369445499998,None,296.2457165999999,None,296.2457165999999,None,296.2457165999999,None,0.0034001500000613305,0.5034001500000613,296.2457165999999,None,296.2457165999999,None,296.2457165999999,None,296.2457165999999,None,296.2457165999999,None,296.2457165999999,None,298.23603179999986,298.23603179999986,-15.700000000000003,2.35,-150,500,350,,,,,,,,,,,,,,,,,,,,,,,,,,,,,,,,,,,,,,,,,,,,,,,,,,,,,,,,,,,,,,,,,,,,,,,,,,,,,,,,,,,f,25,panxiaoxi,2022-04-01_08h26.37.869,emotion,2022.1.2,60.029738732600876,
35,50,0,50,two,50,0,50,,,,,0,26,26,34,,,,,,,,,,,down,2.010546199999908,300.6348834999999,None,300.6348834999999,None,302.66735629999994,None,302.66735629999994,None,302.66735629999994,None,304.64973469999995,305.14973859999986,304.64973469999995,305.14973859999986,304.64973469999995,305.14973859999986,302.66735629999994,None,305.18280245,None,305.18280245,None,305.18280245,None,0.010777550000284464,None,305.18280245,None,305.18280245,None,305.18280245,None,305.18280245,None,305.18280245,None,305.18280245,None,305.1904706999999,None,305.1904706999999,None,305.1904706999999,None,0.004356050000069445,0.5043560500000694,305.1904706999999,None,305.1904706999999,None,305.1904706999999,None,305.1904706999999,None,305.1904706999999,None,305.1904706999999,None,307.18209979999983,307.18209979999983,22.0,3.393,-100,500,400,,,,,,,,,,,,,,,,,,,,,,,,,,,,,,,,,,,,,,,,,,,,,,,,,,,,,,,,,,,,,,,,,,,,,,,,,,,,,,,,,,,f,25,panxiaoxi,2022-04-01_08h26.37.869,emotion,2022.1.2,60.029738732600876,
24,200,0,0,two,200,0,0,,,,,0,27,27,23,,,,,,,,,,,down,2.681015200000047,310.6302332,None,310.6302332,None,313.32929949999993,None,313.32929949999993,None,313.32929949999993,None,315.3115731999999,315.81133449999993,315.3115731999999,315.81133449999993,315.3115731999999,315.81133449999993,313.32929949999993,None,315.8444855499999,None,315.8444855499999,None,315.8444855499999,None,0.01078414999983579,None,315.8444855499999,None,315.8444855499999,None,315.8444855499999,None,315.8444855499999,None,315.8444855499999,None,315.8444855499999,None,315.85225549999996,None,315.85225549999996,None,315.85225549999996,None,0.004287449999992532,0.5042874499999925,315.85225549999996,None,315.85225549999996,None,315.85225549999996,None,315.85225549999996,None,315.85225549999996,None,315.85225549999996,None,317.8438268,317.8438268,44.400000000000006,1.915,100,500,400,,,,,,,,,,,,,,,,,,,,,,,,,,,,,,,,,,,,,,,,,,,,,,,,,,,,,,,,,,,,,,,,,,,,,,,,,,,,,,,,,,,f,25,panxiaoxi,2022-04-01_08h26.37.869,emotion,2022.1.2,60.029738732600876,
64,0,0,-200,one,0,0,-200,,,,,0,28,28,63,,,,,,,,,,,down,2.1555834999999206,319.8093515999999,None,319.8093515999999,None,321.99179319999985,None,321.99179319999985,None,321.99179319999985,None,323.9741440999999,324.4741632999999,323.9741440999999,324.4741632999999,323.9741440999999,324.4741632999999,321.99179319999985,None,324.50762164999986,None,324.50762164999986,None,324.50762164999986,None,0.010814049999908093,None,324.50762164999986,None,324.50762164999986,None,324.50762164999986,None,324.50762164999986,None,324.50762164999986,None,324.50762164999986,None,324.5149861,None,324.5149861,None,324.5149861,None,0.004409650000070542,0.5044096500000705,324.5149861,None,324.5149861,None,324.5149861,None,324.5149861,None,324.5149861,None,324.5149861,None,326.50652709999986,326.50652709999986,20.5,5.126,100,500,200,,,,,,,,,,,,,,,,,,,,,,,,,,,,,,,,,,,,,,,,,,,,,,,,,,,,,,,,,,,,,,,,,,,,,,,,,,,,,,,,,,,f,25,panxiaoxi,2022-04-01_08h26.37.869,emotion,2022.1.2,60.029738732600876,
29,50,0,50,one,50,0,50,,,,,0,29,29,28,,,,,,,,,,,down,2.2011291000001165,331.6872742999999,None,331.6872742999999,None,333.91987419999987,None,333.91987419999987,None,333.91987419999987,None,335.9020719,336.4018957999999,335.9020719,336.4018957999999,335.9020719,336.4018957999999,333.91987419999987,None,336.43538644999984,None,336.43538644999984,None,336.43538644999984,None,0.010827049999761584,None,336.43538644999984,None,336.43538644999984,None,336.43538644999984,None,336.43538644999984,None,336.43538644999984,None,336.43538644999984,None,336.4434366999999,None,336.4434366999999,None,336.4434366999999,None,0.004001249999873835,0.5040012499998738,336.4434366999999,None,336.4434366999999,None,336.4434366999999,None,336.4434366999999,None,336.4434366999999,None,336.4434366999999,None,338.43442489999984,338.43442489999984,33.099999999999994,3.891,150,500,250,,,,,,,,,,,,,,,,,,,,,,,,,,,,,,,,,,,,,,,,,,,,,,,,,,,,,,,,,,,,,,,,,,,,,,,,,,,,,,,,,,,f,25,panxiaoxi,2022-04-01_08h26.37.869,emotion,2022.1.2,60.029738732600876,
61,0,0,-50,one,0,0,-50,,,,,0,30,30,60,,,,,,,,,,,down,1.6613804999999502,342.3825741999999,None,342.3825741999999,None,344.06523519999996,None,344.06523519999996,None,344.06523519999996,None,346.0474976999999,346.5474503999999,346.0474976999999,346.5474503999999,346.0474976999999,346.5474503999999,344.06523519999996,None,346.58087505,None,346.58087505,None,346.58087505,None,0.010842450000154713,None,346.58087505,None,346.58087505,None,346.58087505,None,346.58087505,None,346.58087505,None,346.58087505,None,346.58901059999994,None,346.58901059999994,None,346.58901059999994,None,0.003968250000070839,0.5039682500000708,346.58901059999994,None,346.58901059999994,None,346.58901059999994,None,346.58901059999994,None,346.58901059999994,None,346.58901059999994,None,348.5798428999999,348.5798428999999,31.599999999999994,2.259,150,500,200,,,,,,,,,,,,,,,,,,,,,,,,,,,,,,,,,,,,,,,,,,,,,,,,,,,,,,,,,,,,,,,,,,,,,,,,,,,,,,,,,,,f,25,panxiaoxi,2022-04-01_08h26.37.869,emotion,2022.1.2,60.029738732600876,
88,-200,-200,-50,one,-200,-200,-50,,,,,0,31,31,87,,,,,,,,,,,down,0.8634948000001259,350.8954990999998,None,350.8954990999998,None,351.7783127,None,351.7783127,None,351.7783127,None,353.76079589999995,354.26044909999996,353.76079589999995,354.26044909999996,353.76079589999995,354.26044909999996,351.7783127,None,354.29380775,None,354.29380775,None,354.29380775,None,0.010514550000152667,None,354.29380775,None,354.29380775,None,354.29380775,None,354.29380775,None,354.29380775,None,354.29380775,None,354.30230489999985,None,354.30230489999985,None,354.30230489999985,None,0.003840950000039811,0.5038409500000398,354.30230489999985,None,354.30230489999985,None,354.30230489999985,None,354.30230489999985,None,354.30230489999985,None,354.30230489999985,None,356.29303319999985,356.29303319999985,-8.700000000000003,4.84,-50,300,150,,,,,,,,,,,,,,,,,,,,,,,,,,,,,,,,,,,,,,,,,,,,,,,,,,,,,,,,,,,,,,,,,,,,,,,,,,,,,,,,,,,f,25,panxiaoxi,2022-04-01_08h26.37.869,emotion,2022.1.2,60.029738732600876,
1,0,50,200,one,0,50,200,,,,,0,32,32,0,,,,,,,,,,,down,7.165859100000034,361.18991129999995,None,361.18991129999995,None,368.38769030000003,None,368.38769030000003,None,368.38769030000003,None,370.3700414,370.8696086,370.3700414,370.8696086,370.3700414,370.8696086,368.38769030000003,None,370.90298624999986,None,370.90298624999986,None,370.90298624999986,None,0.010773950000157129,None,370.90298624999986,None,370.90298624999986,None,370.90298624999986,None,370.90298624999986,None,370.90298624999986,None,370.90298624999986,None,370.91116769999985,None,370.91116769999985,None,370.91116769999985,None,0.0041559500000403204,0.5041559500000403,370.91116769999985,None,370.91116769999985,None,370.91116769999985,None,370.91116769999985,None,370.91116769999985,None,370.91116769999985,None,372.90206149999995,372.90206149999995,-2.799999999999997,2.123,-50,350,350,,,,,,,,,,,,,,,,,,,,,,,,,,,,,,,,,,,,,,,,,,,,,,,,,,,,,,,,,,,,,,,,,,,,,,,,,,,,,,,,,,,f,25,panxiaoxi,2022-04-01_08h26.37.869,emotion,2022.1.2,60.029738732600876,
56,0,-200,-50,two,0,-200,-50,,,,,0,33,33,55,,,,,,,,,,,left,2.549947199999906,375.0836167,None,375.0836167,None,377.64973339999983,None,377.64973339999983,None,377.64973339999983,None,379.6323760999999,380.1321278999999,379.6323760999999,380.1321278999999,379.6323760999999,380.1321278999999,377.64973339999983,None,380.16551424999983,None,380.16551424999983,None,380.16551424999983,None,0.010871750000205793,None,380.16551424999983,None,380.16551424999983,None,380.16551424999983,None,380.16551424999983,None,380.16551424999983,None,380.16551424999983,None,380.1735191,None,380.1735191,None,380.1735191,None,0.004441049999968527,0.5044410499999685,380.1735191,None,380.1735191,None,380.1735191,None,380.1735191,None,380.1735191,None,380.1735191,None,382.16452419999996,382.16452419999996,10.899999999999999,2.093,-50,150,300,,,,,,,,,,,,,,,,,,,,,,,,,,,,,,,,,,,,,,,,,,,,,,,,,,,,,,,,,,,,,,,,,,,,,,,,,,,,,,,,,,,f,25,panxiaoxi,2022-04-01_08h26.37.869,emotion,2022.1.2,60.029738732600876,
44,200,0,200,two,200,0,200,,,,,0,34,34,43,,,,,,,,,,,left,2.37063349999994,384.3136393,None,384.3136393,None,386.7125546999998,None,386.7125546999998,None,386.7125546999998,None,388.6950563999999,389.19474149999996,388.6950563999999,389.19474149999996,388.6950563999999,389.19474149999996,386.7125546999998,None,389.22780405,None,389.22780405,None,389.22780405,None,0.010742749999963053,None,389.22780405,None,389.22780405,None,389.22780405,None,389.22780405,None,389.22780405,None,389.22780405,None,389.236255,None,389.236255,None,389.236255,None,0.004068150000193782,0.5040681500001938,389.236255,None,389.236255,None,389.236255,None,389.236255,None,389.236255,None,389.236255,None,391.22709499999996,391.22709499999996,31.700000000000003,2.642,150,150,500,,,,,,,,,,,,,,,,,,,,,,,,,,,,,,,,,,,,,,,,,,,,,,,,,,,,,,,,,,,,,,,,,,,,,,,,,,,,,,,,,,,f,25,panxiaoxi,2022-04-01_08h26.37.869,emotion,2022.1.2,60.029738732600876,
69,-50,0,0,two,-50,0,0,,,,,0,35,35,68,,,,,,,,,,,right,7.82419260000006,393.9257777999999,None,393.9257777999999,None,401.7725802,None,401.7725802,None,401.7725802,None,403.7548800999998,404.2544863999999,403.7548800999998,404.2544863999999,403.7548800999998,404.2544863999999,401.7725802,None,404.28765044999994,None,404.28765044999994,None,404.28765044999994,None,0.010824150000189547,None,404.28765044999994,None,404.28765044999994,None,404.28765044999994,None,404.28765044999994,None,404.28765044999994,None,404.28765044999994,None,404.29581729999995,None,404.29581729999995,None,404.29581729999995,None,0.003957350000291626,0.5039573500002916,404.29581729999995,None,404.29581729999995,None,404.29581729999995,None,404.29581729999995,None,404.29581729999995,None,404.29581729999995,None,406.2868724,406.2868724,-7.100000000000001,2.219,100,150,500,,,,,,,,,,,,,,,,,,,,,,,,,,,,,,,,,,,,,,,,,,,,,,,,,,,,,,,,,,,,,,,,,,,,,,,,,,,,,,,,,,,f,25,panxiaoxi,2022-04-01_08h26.37.869,emotion,2022.1.2,60.029738732600876,
3,50,0,200,one,50,0,200,,,,,0,36,36,2,,,,,,,,,,,down,2.0661574000000655,408.5684297,None,408.5684297,None,410.65164789999994,None,410.65164789999994,None,410.65164789999994,None,412.63408129999993,413.1339754999999,412.63408129999993,413.1339754999999,412.63408129999993,413.1339754999999,410.65164789999994,None,413.16712794999984,None,413.16712794999984,None,413.16712794999984,None,0.010545150000098147,None,413.16712794999984,None,413.16712794999984,None,413.16712794999984,None,413.16712794999984,None,413.16712794999984,None,413.16712794999984,None,413.1750430999998,None,413.1750430999998,None,413.1750430999998,None,0.004284650000045076,0.5042846500000451,413.1750430999998,None,413.1750430999998,None,413.1750430999998,None,413.1750430999998,None,413.1750430999998,None,413.1750430999998,None,415.16630969999983,415.16630969999983,15.900000000000006,3.717,150,150,700,,,,,,,,,,,,,,,,,,,,,,,,,,,,,,,,,,,,,,,,,,,,,,,,,,,,,,,,,,,,,,,,,,,,,,,,,,,,,,,,,,,f,25,panxiaoxi,2022-04-01_08h26.37.869,emotion,2022.1.2,60.029738732600876,
32,50,200,50,two,50,200,50,,,,,0,37,37,31,,,,,,,,,,,left,1.199768400000039,418.9322944999999,None,418.9322944999999,None,420.1641451999999,None,420.1641451999999,None,420.1641451999999,None,422.14652079999996,422.6461694999998,422.14652079999996,422.6461694999998,422.14652079999996,422.6461694999998,420.1641451999999,None,422.6794581499998,None,422.6794581499998,None,422.6794581499998,None,0.01085905000013554,None,422.6794581499998,None,422.6794581499998,None,422.6794581499998,None,422.6794581499998,None,422.6794581499998,None,422.6794581499998,None,422.68715469999984,None,422.68715469999984,None,422.68715469999984,None,0.004265449999820703,0.5042654499998207,422.68715469999984,None,422.68715469999984,None,422.68715469999984,None,422.68715469999984,None,422.68715469999984,None,422.68715469999984,None,424.6786347,424.6786347,8.299999999999997,3.302,200,350,750,,,,,,,,,,,,,,,,,,,,,,,,,,,,,,,,,,,,,,,,,,,,,,,,,,,,,,,,,,,,,,,,,,,,,,,,,,,,,,,,,,,f,25,panxiaoxi,2022-04-01_08h26.37.869,emotion,2022.1.2,60.029738732600876,
55,0,-50,-200,two,0,-50,-200,,,,,0,38,38,54,,,,,,,,,,,right,0.9878980000000865,428.02748610000003,None,428.02748610000003,None,429.04342569999994,None,429.04342569999994,None,429.04342569999994,None,431.0258724999999,431.52546889999985,431.0258724999999,431.52546889999985,431.0258724999999,431.52546889999985,429.04342569999994,None,431.55877204999996,None,431.55877204999996,None,431.55877204999996,None,0.010832250000248678,None,431.55877204999996,None,431.55877204999996,None,431.55877204999996,None,431.55877204999996,None,431.55877204999996,None,431.55877204999996,None,431.56676789999983,None,431.56676789999983,None,431.56676789999983,None,0.004277950000187047,0.504277950000187,431.56676789999983,None,431.56676789999983,None,431.56676789999983,None,431.56676789999983,None,431.56676789999983,None,431.56676789999983,None,433.5580118999999,433.5580118999999,17.400000000000006,1.763,200,300,550,,,,,,,,,,,,,,,,,,,,,,,,,,,,,,,,,,,,,,,,,,,,,,,,,,,,,,,,,,,,,,,,,,,,,,,,,,,,,,,,,,,f,25,panxiaoxi,2022-04-01_08h26.37.869,emotion,2022.1.2,60.029738732600876,
45,0,200,200,two,0,200,200,,,,,0,39,39,44,,,,,,,,,,,right,0.8806526000000758,435.3738182999998,None,435.3738182999998,None,436.2735915999999,None,436.2735915999999,None,436.2735915999999,None,438.2557571,438.7557331999999,438.2557571,438.7557331999999,438.2557571,438.7557331999999,436.2735915999999,None,438.78885154999983,None,438.78885154999983,None,438.78885154999983,None,0.010685049999892726,None,438.78885154999983,None,438.78885154999983,None,438.78885154999983,None,438.78885154999983,None,438.78885154999983,None,438.78885154999983,None,438.79724569999985,None,438.79724569999985,None,438.79724569999985,None,0.004221249999773136,0.5042212499997731,438.79724569999985,None,438.79724569999985,None,438.79724569999985,None,438.79724569999985,None,438.79724569999985,None,438.79724569999985,None,440.78802819999987,440.78802819999987,-4.299999999999997,3.874,200,500,750,,,,,,,,,,,,,,,,,,,,,,,,,,,,,,,,,,,,,,,,,,,,,,,,,,,,,,,,,,,,,,,,,,,,,,,,,,,,,,,,,,,f,25,panxiaoxi,2022-04-01_08h26.37.869,emotion,2022.1.2,60.029738732600876,
82,0,-50,-50,two,0,-50,-50,,,,,0,40,40,81,,,,,,,,,,,down,3.5995909000000665,444.7191356999999,None,444.7191356999999,None,448.3511501999999,None,448.3511501999999,None,448.3511501999999,None,450.33344539999985,450.83349929999986,450.33344539999985,450.83349929999986,450.33344539999985,450.83349929999986,448.3511501999999,None,450.8664310499998,None,450.8664310499998,None,450.8664310499998,None,0.010613950000106342,None,450.8664310499998,None,450.8664310499998,None,450.8664310499998,None,450.8664310499998,None,450.8664310499998,None,450.8664310499998,None,450.87476219999985,None,450.87476219999985,None,450.87476219999985,None,0.0038767499997902632,0.5038767499997903,450.87476219999985,None,450.87476219999985,None,450.87476219999985,None,450.87476219999985,None,450.87476219999985,None,450.87476219999985,None,452.86595509999984,452.86595509999984,11.700000000000003,1.909,200,450,700,,,,,,,,,,,,,,,,,,,,,,,,,,,,,,,,,,,,,,,,,,,,,,,,,,,,,,,,,,,,,,,,,,,,,,,,,,,,,,,,,,,f,25,panxiaoxi,2022-04-01_08h26.37.869,emotion,2022.1.2,60.029738732600876,
87,0,-200,-200,one,0,-200,-200,,,,,0,41,41,86,,,,,,,,,,,right,6.229487800000015,454.8316909,None,454.8316909,None,461.07869529999994,None,461.07869529999994,None,461.07869529999994,None,463.0612543999998,463.56091029999993,463.0612543999998,463.56091029999993,463.0612543999998,463.56091029999993,461.07869529999994,None,463.59446124999994,None,463.59446124999994,None,463.59446124999994,None,0.010743550000142932,None,463.59446124999994,None,463.59446124999994,None,463.59446124999994,None,463.59446124999994,None,463.59446124999994,None,463.59446124999994,None,463.6023312,None,463.6023312,None,463.6023312,None,0.004402349999963917,0.5044023499999639,463.6023312,None,463.6023312,None,463.6023312,None,463.6023312,None,463.6023312,None,463.6023312,None,465.5932917,465.5932917,19.099999999999994,2.027,200,250,500,,,,,,,,,,,,,,,,,,,,,,,,,,,,,,,,,,,,,,,,,,,,,,,,,,,,,,,,,,,,,,,,,,,,,,,,,,,,,,,,,,,f,25,panxiaoxi,2022-04-01_08h26.37.869,emotion,2022.1.2,60.029738732600876,
94,-200,-200,-50,two,-200,-200,-50,,,,,0,42,42,93,,,,,,,,,,,left,4.8793904999999995,467.6754899,None,467.6754899,None,472.5736990999999,None,472.5736990999999,None,472.5736990999999,None,474.55593409999983,475.055736,474.55593409999983,475.055736,474.55593409999983,475.055736,472.5736990999999,None,475.08922094999997,None,475.08922094999997,None,475.08922094999997,None,0.010157350000099541,None,475.08922094999997,None,475.08922094999997,None,475.08922094999997,None,475.08922094999997,None,475.08922094999997,None,475.08922094999997,None,475.09790899999985,None,475.09790899999985,None,475.09790899999985,None,0.0023467500002425368,0.5023467500002425,475.09790899999985,None,475.09790899999985,None,475.09790899999985,None,475.09790899999985,None,475.09790899999985,None,475.09790899999985,None,477.08817049999993,477.08817049999993,-4.700000000000003,2.584,0,50,450,,,,,,,,,,,,,,,,,,,,,,,,,,,,,,,,,,,,,,,,,,,,,,,,,,,,,,,,,,,,,,,,,,,,,,,,,,,,,,,,,,,f,25,panxiaoxi,2022-04-01_08h26.37.869,emotion,2022.1.2,60.029738732600876,
62,0,-50,0,one,0,-50,0,,,,,0,43,43,61,,,,,,,,,,,down,1.4277624000001197,479.7205535999999,None,479.7205535999999,None,481.16972969999983,None,481.16972969999983,None,481.16972969999983,None,483.15223889999993,483.65199919999986,483.15223889999993,483.65199919999986,483.15223889999993,483.65199919999986,481.16972969999983,None,483.68509915,None,483.68509915,None,483.68509915,None,0.010333850000279199,None,483.68509915,None,483.68509915,None,483.68509915,None,483.68509915,None,483.68509915,None,483.68509915,None,483.6930662999998,None,483.6930662999998,None,483.6930662999998,None,0.004150050000134797,0.5041500500001348,483.6930662999998,None,483.6930662999998,None,483.6930662999998,None,483.6930662999998,None,483.6930662999998,None,483.6930662999998,None,485.68423859999984,485.68423859999984,18.5,1.998,0,0,450,,,,,,,,,,,,,,,,,,,,,,,,,,,,,,,,,,,,,,,,,,,,,,,,,,,,,,,,,,,,,,,,,,,,,,,,,,,,,,,,,,,f,25,panxiaoxi,2022-04-01_08h26.37.869,emotion,2022.1.2,60.029738732600876,
67,0,0,-50,two,0,0,-50,,,,,0,44,44,66,,,,,,,,,,,down,2.197825299999977,487.7330849,None,487.7330849,None,489.9490664,None,489.9490664,None,489.9490664,None,491.93161299999997,492.4313394999999,491.93161299999997,492.4313394999999,491.93161299999997,492.4313394999999,489.9490664,None,492.4644268499998,None,492.4644268499998,None,492.4644268499998,None,0.010716849999880651,None,492.4644268499998,None,492.4644268499998,None,492.4644268499998,None,492.4644268499998,None,492.4644268499998,None,492.4644268499998,None,492.4722772,None,492.4722772,None,492.4722772,None,0.004436149999946792,0.5044361499999468,492.4722772,None,492.4722772,None,492.4722772,None,492.4722772,None,492.4722772,None,492.4722772,None,494.4637250999999,494.4637250999999,12.700000000000003,1.735,0,0,400,,,,,,,,,,,,,,,,,,,,,,,,,,,,,,,,,,,,,,,,,,,,,,,,,,,,,,,,,,,,,,,,,,,,,,,,,,,,,,,,,,,f,25,panxiaoxi,2022-04-01_08h26.37.869,emotion,2022.1.2,60.029738732600876,
19,0,0,50,two,0,0,50,,,,,0,45,45,18,,,,,,,,,,,left,1.056282900000042,496.2463146,None,496.2463146,None,497.32884349999995,None,497.32884349999995,None,497.32884349999995,None,499.31141809999986,499.8112346999999,499.31141809999986,499.8112346999999,499.31141809999986,499.8112346999999,497.32884349999995,None,499.84454094999995,None,499.84454094999995,None,499.84454094999995,None,0.010858750000124928,None,499.84454094999995,None,499.84454094999995,None,499.84454094999995,None,499.84454094999995,None,499.84454094999995,None,499.84454094999995,None,499.8520401999999,None,499.8520401999999,None,499.8520401999999,None,0.0045006500001818495,0.5045006500001818,499.8520401999999,None,499.8520401999999,None,499.8520401999999,None,499.8520401999999,None,499.8520401999999,None,499.8520401999999,None,501.8436850999999,501.8436850999999,0.7999999999999972,3.227,0,0,450,,,,,,,,,,,,,,,,,,,,,,,,,,,,,,,,,,,,,,,,,,,,,,,,,,,,,,,,,,,,,,,,,,,,,,,,,,,,,,,,,,,f,25,panxiaoxi,2022-04-01_08h26.37.869,emotion,2022.1.2,60.029738732600876,
70,0,0,-200,two,0,0,-200,,,,,0,46,46,69,,,,,,,,,,,down,1.1793648999998823,505.1255285,None,505.1255285,None,506.32505979999996,None,506.32505979999996,None,506.32505979999996,None,508.3073459,508.8071327,508.3073459,508.8071327,508.3073459,508.8071327,506.32505979999996,None,508.8403695499998,None,508.8403695499998,None,508.8403695499998,None,0.010906850000083068,None,508.8403695499998,None,508.8403695499998,None,508.8403695499998,None,508.8403695499998,None,508.8403695499998,None,508.8403695499998,None,508.8485893999998,None,508.8485893999998,None,508.8485893999998,None,0.0045146499996917555,0.5045146499996918,508.8485893999998,None,508.8485893999998,None,508.8485893999998,None,508.8485893999998,None,508.8485893999998,None,508.8485893999998,None,510.8396175999999,510.8396175999999,15.200000000000003,1.826,0,0,250,,,,,,,,,,,,,,,,,,,,,,,,,,,,,,,,,,,,,,,,,,,,,,,,,,,,,,,,,,,,,,,,,,,,,,,,,,,,,,,,,,,f,25,panxiaoxi,2022-04-01_08h26.37.869,emotion,2022.1.2,60.029738732600876,
37,200,200,0,one,200,200,0,,,,,0,47,47,36,,,,,,,,,,,down,1.0716079000001173,512.7217160999999,None,512.7217160999999,None,513.8217159999999,None,513.8217159999999,None,513.8217159999999,None,515.8038712999999,516.30369,515.8038712999999,516.30369,515.8038712999999,516.30369,513.8217159999999,None,516.3371292499999,None,516.3371292499999,None,516.3371292499999,None,0.010666650000075606,None,516.3371292499999,None,516.3371292499999,None,516.3371292499999,None,516.3371292499999,None,516.3371292499999,None,516.3371292499999,None,516.3453723999999,None,516.3453723999999,None,516.3453723999999,None,0.0038470499998766172,0.5038470499998766,516.3453723999999,None,516.3453723999999,None,516.3453723999999,None,516.3453723999999,None,516.3453723999999,None,516.3453723999999,None,518.3360885,518.3360885,8.399999999999999,2.305,200,200,250,,,,,,,,,,,,,,,,,,,,,,,,,,,,,,,,,,,,,,,,,,,,,,,,,,,,,,,,,,,,,,,,,,,,,,,,,,,,,,,,,,,f,25,panxiaoxi,2022-04-01_08h26.37.869,emotion,2022.1.2,60.029738732600876,
9,50,0,200,two,50,0,200,,,,,0,48,48,8,,,,,,,,,,,down,4.534127099999978,520.7007532999999,None,520.7007532999999,None,525.2662667999998,None,525.2662667999998,None,525.2662667999998,None,527.2485896999999,527.7484886999998,527.2485896999999,527.7484886999998,527.2485896999999,527.7484886999998,525.2662667999998,None,527.78170245,None,527.78170245,None,527.78170245,None,0.0107314500000939,None,527.78170245,None,527.78170245,None,527.78170245,None,527.78170245,None,527.78170245,None,527.78170245,None,527.7895093,None,527.7895093,None,527.7895093,None,0.004095450000022538,0.5040954500000225,527.7895093,None,527.7895093,None,527.7895093,None,527.7895093,None,527.7895093,None,527.7895093,None,529.7810795999999,529.7810795999999,5.700000000000003,3.829,250,200,450,,,,,,,,,,,,,,,,,,,,,,,,,,,,,,,,,,,,,,,,,,,,,,,,,,,,,,,,,,,,,,,,,,,,,,,,,,,,,,,,,,,f,25,panxiaoxi,2022-04-01_08h26.37.869,emotion,2022.1.2,60.029738732600876,
34,0,50,50,two,0,50,50,,,,,0,49,49,33,,,,,,,,,,,down,5.768019600000116,533.6626543,None,533.6626543,None,539.4598764999998,None,539.4598764999998,None,539.4598764999998,None,541.4423187,541.9422617,541.4423187,541.9422617,541.4423187,541.9422617,539.4598764999998,None,541.9752388499999,None,541.9752388499999,None,541.9752388499999,None,0.010787950000121782,None,541.9752388499999,None,541.9752388499999,None,541.9752388499999,None,541.9752388499999,None,541.9752388499999,None,541.9752388499999,None,541.9827472,None,541.9827472,None,541.9827472,None,0.004544950000081371,0.5045449500000814,541.9827472,None,541.9827472,None,541.9827472,None,541.9827472,None,541.9827472,None,541.9827472,None,543.9744899,543.9744899,-5.700000000000003,4.816,250,250,500,,,,,,,,,,,,,,,,,,,,,,,,,,,,,,,,,,,,,,,,,,,,,,,,,,,,,,,,,,,,,,,,,,,,,,,,,,,,,,,,,,,f,25,panxiaoxi,2022-04-01_08h26.37.869,emotion,2022.1.2,60.029738732600876,
49,0,-50,-200,one,0,-50,-200,,,,,0,50,50,48,,,,,,,,,,,right,2.421641099999988,548.8387958999999,None,548.8387958999999,None,551.2876587999999,None,551.2876587999999,None,551.2876587999999,None,553.2703245,553.7700284999999,553.2703245,553.7700284999999,553.2703245,553.7700284999999,551.2876587999999,None,553.8034065499999,None,553.8034065499999,None,553.8034065499999,None,0.010247750000189626,None,553.8034065499999,None,553.8034065499999,None,553.8034065499999,None,553.8034065499999,None,553.8034065499999,None,553.8034065499999,None,553.8114175999999,None,553.8114175999999,None,553.8114175999999,None,0.003687549999995099,0.5036875499999951,553.8114175999999,None,553.8114175999999,None,553.8114175999999,None,553.8114175999999,None,553.8114175999999,None,553.8114175999999,None,555.8025198,555.8025198,21.900000000000006,6.246,250,200,300,,,,,,,,,,,,,,,,,,,,,,,,,,,,,,,,,,,,,,,,,,,,,,,,,,,,,,,,,,,,,,,,,,,,,,,,,,,,,,,,,,,f,25,panxiaoxi,2022-04-01_08h26.37.869,emotion,2022.1.2,60.029738732600876,
12,200,0,50,two,200,0,50,,,,,0,51,51,11,,,,,,,,,,,right,1.3698260000001028,562.0996401999998,None,562.0996401999998,None,563.499045,None,563.499045,None,563.499045,None,565.4813486999999,565.9810352,565.4813486999999,565.9810352,565.4813486999999,565.9810352,563.499045,None,566.01440875,None,566.01440875,None,566.01440875,None,0.010790450000286,None,566.01440875,None,566.01440875,None,566.01440875,None,566.01440875,None,566.01440875,None,566.01440875,None,566.0221951999999,None,566.0221951999999,None,566.0221951999999,None,0.004332650000151261,0.5043326500001513,566.0221951999999,None,566.0221951999999,None,566.0221951999999,None,566.0221951999999,None,566.0221951999999,None,566.0221951999999,None,568.0137619999998,568.0137619999998,45.7,1.651,450,200,350,,,,,,,,,,,,,,,,,,,,,,,,,,,,,,,,,,,,,,,,,,,,,,,,,,,,,,,,,,,,,,,,,,,,,,,,,,,,,,,,,,,f,25,panxiaoxi,2022-04-01_08h26.37.869,emotion,2022.1.2,60.029738732600876,
50,0,-200,-50,one,0,-200,-50,,,,,0,52,52,49,,,,,,,,,,,right,4.834460100000115,569.7136854,None,569.7136854,None,574.5768386999998,None,574.5768386999998,None,574.5768386999998,None,576.5598636,577.0592096999999,576.5598636,577.0592096999999,576.5598636,577.0592096999999,574.5768386999998,None,577.09234935,None,577.09234935,None,577.09234935,None,0.010721150000108537,None,577.09234935,None,577.09234935,None,577.09234935,None,577.09234935,None,577.09234935,None,577.09234935,None,577.1006347,None,577.1006347,None,577.1006347,None,0.004055550000202857,0.5040555500002029,577.1006347,None,577.1006347,None,577.1006347,None,577.1006347,None,577.1006347,None,577.1006347,None,579.0917892999998,579.0917892999998,33.400000000000006,2.372,450,0,300,,,,,,,,,,,,,,,,,,,,,,,,,,,,,,,,,,,,,,,,,,,,,,,,,,,,,,,,,,,,,,,,,,,,,,,,,,,,,,,,,,,f,25,panxiaoxi,2022-04-01_08h26.37.869,emotion,2022.1.2,60.029738732600876,
15,50,0,0,one,50,0,0,,,,,0,53,53,14,,,,,,,,,,,down,4.725254899999982,581.523923,None,581.523923,None,586.2719517999999,None,586.2719517999999,None,586.2719517999999,None,588.2544120999999,588.7545599999999,588.2544120999999,588.7545599999999,588.2544120999999,588.7545599999999,586.2719517999999,None,588.7711651499999,None,588.7711651499999,None,588.7711651499999,None,0.010256150000031994,None,588.7711651499999,None,588.7711651499999,None,588.7711651499999,None,588.7711651499999,None,588.7711651499999,None,588.7711651499999,None,588.7793984999998,None,588.7793984999998,None,588.7793984999998,None,0.0038671499999054504,0.5038671499999055,588.7793984999998,None,588.7793984999998,None,588.7793984999998,None,588.7793984999998,None,588.7793984999998,None,588.7793984999998,None,590.7699748,590.7699748,34.0,1.701,500,0,300,,,,,,,,,,,,,,,,,,,,,,,,,,,,,,,,,,,,,,,,,,,,,,,,,,,,,,,,,,,,,,,,,,,,,,,,,,,,,,,,,,,f,25,panxiaoxi,2022-04-01_08h26.37.869,emotion,2022.1.2,60.029738732600876,
28,0,50,50,one,0,50,50,,,,,0,54,54,27,,,,,,,,,,,left,2.6083377999998447,592.5193016999999,None,592.5193016999999,None,595.1513643999999,None,595.1513643999999,None,595.1513643999999,None,597.1338074,597.6335987,597.1338074,597.6335987,597.1338074,597.6335987,595.1513643999999,None,597.66690565,None,597.66690565,None,597.66690565,None,0.01083704999996371,None,597.66690565,None,597.66690565,None,597.66690565,None,597.66690565,None,597.66690565,None,597.66690565,None,597.6748564,None,597.6748564,None,597.6748564,None,0.004553149999992456,0.5045531499999925,597.6748564,None,597.6748564,None,597.6748564,None,597.6748564,None,597.6748564,None,597.6748564,None,599.6659619,599.6659619,-3.1000000000000014,4.154,500,50,350,,,,,,,,,,,,,,,,,,,,,,,,,,,,,,,,,,,,,,,,,,,,,,,,,,,,,,,,,,,,,,,,,,,,,,,,,,,,,,,,,,,f,25,panxiaoxi,2022-04-01_08h26.37.869,emotion,2022.1.2,60.029738732600876,
4,50,200,0,one,50,200,0,,,,,0,55,55,3,,,,,,,,,,,down,1.140944399999853,603.8795080999998,None,603.8795080999998,None,605.046953,None,605.046953,None,605.046953,None,607.029186,607.5289508999999,607.029186,607.5289508999999,607.029186,607.5289508999999,605.046953,None,607.56222275,None,607.56222275,None,607.56222275,None,0.010314550000202871,None,607.56222275,None,607.56222275,None,607.56222275,None,607.56222275,None,607.56222275,None,607.56222275,None,607.5709187,None,607.5709187,None,607.5709187,None,0.0036485500002072513,0.5036485500002073,607.5709187,None,607.5709187,None,607.5709187,None,607.5709187,None,607.5709187,None,607.5709187,None,609.5611571,609.5611571,2.1000000000000014,1.76,550,250,350,,,,,,,,,,,,,,,,,,,,,,,,,,,,,,,,,,,,,,,,,,,,,,,,,,,,,,,,,,,,,,,,,,,,,,,,,,,,,,,,,,,f,25,panxiaoxi,2022-04-01_08h26.37.869,emotion,2022.1.2,60.029738732600876,
47,200,50,200,two,200,50,200,,,,,0,56,56,46,,,,,,,,,,,right,2.6064636000000974,611.3928652,None,611.3928652,None,614.0257763,None,614.0257763,None,614.0257763,None,616.0081521999998,616.5084248999999,616.0081521999998,616.5084248999999,616.0081521999998,616.5084248999999,614.0257763,None,616.5250300499999,None,616.5250300499999,None,616.5250300499999,None,0.010327149999966423,None,616.5250300499999,None,616.5250300499999,None,616.5250300499999,None,616.5250300499999,None,616.5250300499999,None,616.5250300499999,None,616.5343269999998,None,616.5343269999998,None,616.5343269999998,None,0.002184149999948204,0.5021841499999482,616.5343269999998,None,616.5343269999998,None,616.5343269999998,None,616.5343269999998,None,616.5343269999998,None,616.5343269999998,None,618.5240061,618.5240061,32.3,1.607,750,300,550,,,,,,,,,,,,,,,,,,,,,,,,,,,,,,,,,,,,,,,,,,,,,,,,,,,,,,,,,,,,,,,,,,,,,,,,,,,,,,,,,,,f,25,panxiaoxi,2022-04-01_08h26.37.869,emotion,2022.1.2,60.029738732600876,
16,0,0,200,one,0,0,200,,,,,0,57,57,15,,,,,,,,,,,left,0.9284929000000375,620.1893104999999,None,620.1893104999999,None,621.1396407999998,None,621.1396407999998,None,621.1396407999998,None,623.1220802999999,623.6220486999998,623.1220802999999,623.6220486999998,623.1220802999999,623.6220486999998,621.1396407999998,None,623.6386538499999,None,623.6386538499999,None,623.6386538499999,None,0.010447449999901437,None,623.6386538499999,None,623.6386538499999,None,623.6386538499999,None,623.6386538499999,None,623.6386538499999,None,623.6386538499999,None,623.6469021999999,None,623.6469021999999,None,623.6469021999999,None,0.004158049999887226,0.5041580499998872,623.6469021999999,None,623.6469021999999,None,623.6469021999999,None,623.6469021999999,None,623.6469021999999,None,623.6469021999999,None,625.6376915999999,625.6376915999999,-8.899999999999999,3.142,750,300,750,,,,,,,,,,,,,,,,,,,,,,,,,,,,,,,,,,,,,,,,,,,,,,,,,,,,,,,,,,,,,,,,,,,,,,,,,,,,,,,,,,,f,25,panxiaoxi,2022-04-01_08h26.37.869,emotion,2022.1.2,60.029738732600876,
58,-50,-200,0,two,-50,-200,0,,,,,0,58,58,57,,,,,,,,,,,right,2.320733300000029,628.8361054,None,628.8361054,None,631.1847508999999,None,631.1847508999999,None,631.1847508999999,None,633.1676519999999,633.6670818,633.1676519999999,633.6670818,633.1676519999999,633.6670818,631.1847508999999,None,633.70054205,None,633.70054205,None,633.70054205,None,0.010711050000054456,None,633.70054205,None,633.70054205,None,633.70054205,None,633.70054205,None,633.70054205,None,633.70054205,None,633.7088842999999,None,633.7088842999999,None,633.7088842999999,None,0.0040054500000223925,0.5040054500000224,633.7088842999999,None,633.7088842999999,None,633.7088842999999,None,633.7088842999999,None,633.7088842999999,None,633.7088842999999,None,635.6995680999999,635.6995680999999,-8.0,1.677,700,100,750,,,,,,,,,,,,,,,,,,,,,,,,,,,,,,,,,,,,,,,,,,,,,,,,,,,,,,,,,,,,,,,,,,,,,,,,,,,,,,,,,,,f,25,panxiaoxi,2022-04-01_08h26.37.869,emotion,2022.1.2,60.029738732600876,
7,0,50,200,two,0,50,200,,,,,0,59,59,6,,,,,,,,,,,left,2.165666500000043,637.4319433999999,None,637.4319433999999,None,639.6146277,None,639.6146277,None,639.6146277,None,641.5968298999999,642.0967653,641.5968298999999,642.0967653,641.5968298999999,642.0967653,639.6146277,None,642.1297802499998,None,642.1297802499998,None,642.1297802499998,None,0.010580349999827376,None,642.1297802499998,None,642.1297802499998,None,642.1297802499998,None,642.1297802499998,None,642.1297802499998,None,642.1297802499998,None,642.1378963,None,642.1378963,None,642.1378963,None,0.004329249999955209,0.5043292499999552,642.1378963,None,642.1378963,None,642.1378963,None,642.1378963,None,642.1378963,None,642.1378963,None,644.1292162,644.1292162,-4.100000000000001,2.196,700,150,950,,,,,,,,,,,,,,,,,,,,,,,,,,,,,,,,,,,,,,,,,,,,,,,,,,,,,,,,,,,,,,,,,,,,,,,,,,,,,,,,,,,f,25,panxiaoxi,2022-04-01_08h26.37.869,emotion,2022.1.2,60.029738732600876,
33,50,50,200,two,50,50,200,,,,,0,60,60,32,,,,,,,,,,,down,2.995767899999919,646.3778599999998,None,646.3778599999998,None,649.3934460999999,None,649.3934460999999,None,649.3934460999999,None,651.3757939,651.8758877999999,651.3757939,651.8758877999999,651.3757939,651.8758877999999,649.3934460999999,None,651.8924929499999,None,651.8924929499999,None,651.8924929499999,None,0.010241950000136057,None,651.8924929499999,None,651.8924929499999,None,651.8924929499999,None,651.8924929499999,None,651.8924929499999,None,651.8924929499999,None,651.9009002,None,651.9009002,None,651.9009002,None,0.0037393499999325286,0.5037393499999325,651.9009002,None,651.9009002,None,651.9009002,None,651.9009002,None,651.9009002,None,651.9009002,None,653.8912389999998,653.8912389999998,-2.299999999999997,1.332,750,200,1150,,,,,,,,,,,,,,,,,,,,,,,,,,,,,,,,,,,,,,,,,,,,,,,,,,,,,,,,,,,,,,,,,,,,,,,,,,,,,,,,,,,f,25,panxiaoxi,2022-04-01_08h26.37.869,emotion,2022.1.2,60.029738732600876,
23,0,200,0,two,0,200,0,,,,,0,61,61,22,,,,,,,,,,,right,1.2472594000000754,655.2738697999998,None,655.2738697999998,None,656.5401261,None,656.5401261,None,656.5401261,None,658.5226605,659.0221514999998,658.5226605,659.0221514999998,658.5226605,659.0221514999998,656.5401261,None,659.0555785500001,None,659.0555785500001,None,659.0555785500001,None,0.010643650000247362,None,659.0555785500001,None,659.0555785500001,None,659.0555785500001,None,659.0555785500001,None,659.0555785500001,None,659.0555785500001,None,659.0637365999999,None,659.0637365999999,None,659.0637365999999,None,0.004272050000281524,0.5042720500002815,659.0637365999999,None,659.0637365999999,None,659.0637365999999,None,659.0637365999999,None,659.0637365999999,None,659.0637365999999,None,661.0549652,661.0549652,-9.399999999999999,1.945,750,400,1150,,,,,,,,,,,,,,,,,,,,,,,,,,,,,,,,,,,,,,,,,,,,,,,,,,,,,,,,,,,,,,,,,,,,,,,,,,,,,,,,,,,f,25,panxiaoxi,2022-04-01_08h26.37.869,emotion,2022.1.2,60.029738732600876,
71,0,-200,0,two,0,-200,0,,,,,0,62,62,70,,,,,,,,,,,right,1.9445215999999164,663.0539861999998,None,663.0539861999998,None,665.0194236999998,None,665.0194236999998,None,665.0194236999998,None,667.0022027999998,667.5016178999999,667.0022027999998,667.5016178999999,667.0022027999998,667.5016178999999,665.0194236999998,None,667.5352194499999,None,667.5352194499999,None,667.5352194499999,None,0.0109063499999138,None,667.5352194499999,None,667.5352194499999,None,667.5352194499999,None,667.5352194499999,None,667.5352194499999,None,667.5352194499999,None,667.5432996999998,None,667.5432996999998,None,667.5432996999998,None,0.004448049999837167,0.5044480499998372,667.5432996999998,None,667.5432996999998,None,667.5432996999998,None,667.5432996999998,None,667.5432996999998,None,667.5432996999998,None,669.5338363999999,669.5338363999999,9.100000000000001,2.206,750,200,1150,,,,,,,,,,,,,,,,,,,,,,,,,,,,,,,,,,,,,,,,,,,,,,,,,,,,,,,,,,,,,,,,,,,,,,,,,,,,,,,,,,,f,25,panxiaoxi,2022-04-01_08h26.37.869,emotion,2022.1.2,60.029738732600876,
93,0,-200,-200,two,0,-200,-200,,,,,0,63,63,92,,,,,,,,,,,left,1.6651765999999952,671.7995613999999,None,671.7995613999999,None,673.4821769999999,None,673.4821769999999,None,673.4821769999999,None,675.4649754999998,675.9644681,675.4649754999998,675.9644681,675.4649754999998,675.9644681,673.4821769999999,None,675.9980174499999,None,675.9980174499999,None,675.9980174499999,None,0.010652650000110953,None,675.9980174499999,None,675.9980174499999,None,675.9980174499999,None,675.9980174499999,None,675.9980174499999,None,675.9980174499999,None,676.0061805,None,676.0061805,None,676.0061805,None,0.004249149999850488,0.5042491499998505,676.0061805,None,676.0061805,None,676.0061805,None,676.0061805,None,676.0061805,None,676.0061805,None,677.997132,677.997132,4.700000000000003,3.035,750,0,950,,,,,,,,,,,,,,,,,,,,,,,,,,,,,,,,,,,,,,,,,,,,,,,,,,,,,,,,,,,,,,,,,,,,,,,,,,,,,,,,,,,f,25,panxiaoxi,2022-04-01_08h26.37.869,emotion,2022.1.2,60.029738732600876,
84,-50,-50,0,two,-50,-50,0,,,,,0,64,64,83,,,,,,,,,,,left,2.3495398999998542,681.0946787999999,None,681.0946787999999,None,683.4611789999999,None,683.4611789999999,None,683.4611789999999,None,685.4436432,685.9433511999998,685.4436432,685.9433511999998,685.4436432,685.9433511999998,683.4611789999999,None,685.97680795,None,685.97680795,None,685.97680795,None,0.010766050000029281,None,685.97680795,None,685.97680795,None,685.97680795,None,685.97680795,None,685.97680795,None,685.97680795,None,685.9847224,None,685.9847224,None,685.9847224,None,0.004446350000080201,0.5044463500000802,685.9847224,None,685.9847224,None,685.9847224,None,685.9847224,None,685.9847224,None,685.9847224,None,687.9761685999999,687.9761685999999,-2.5,2.46,700,-50,950,,,,,,,,,,,,,,,,,,,,,,,,,,,,,,,,,,,,,,,,,,,,,,,,,,,,,,,,,,,,,,,,,,,,,,,,,,,,,,,,,,,f,25,panxiaoxi,2022-04-01_08h26.37.869,emotion,2022.1.2,60.029738732600876,
11,200,50,0,two,200,50,0,,,,,0,65,65,10,,,,,,,,,,,down,1.6618561000000227,690.4915556999999,None,690.4915556999999,None,692.1742133999999,None,692.1742133999999,None,692.1742133999999,None,694.1565381999999,694.6561740999998,694.1565381999999,694.6561740999998,694.1565381999999,694.6561740999998,692.1742133999999,None,694.6896938499999,None,694.6896938499999,None,694.6896938499999,None,0.010853649999944537,None,694.6896938499999,None,694.6896938499999,None,694.6896938499999,None,694.6896938499999,None,694.6896938499999,None,694.6896938499999,None,694.6975809999999,None,694.6975809999999,None,694.6975809999999,None,0.004485349999868049,0.504485349999868,694.6975809999999,None,694.6975809999999,None,694.6975809999999,None,694.6975809999999,None,694.6975809999999,None,694.6975809999999,None,696.6884362999999,696.6884362999999,29.599999999999994,2.361,900,0,950,,,,,,,,,,,,,,,,,,,,,,,,,,,,,,,,,,,,,,,,,,,,,,,,,,,,,,,,,,,,,,,,,,,,,,,,,,,,,,,,,,,f,25,panxiaoxi,2022-04-01_08h26.37.869,emotion,2022.1.2,60.029738732600876,
6,200,0,50,one,200,0,50,,,,,0,66,66,5,,,,,,,,,,,down,4.460734900000034,699.1041802,None,699.1041802,None,703.5855853999999,None,703.5855853999999,None,703.5855853999999,None,705.5680431999999,706.0676134999999,705.5680431999999,706.0676134999999,705.5680431999999,706.0676134999999,703.5855853999999,None,706.1010789499999,None,706.1010789499999,None,706.1010789499999,None,0.010894349999944097,None,706.1010789499999,None,706.1010789499999,None,706.1010789499999,None,706.1010789499999,None,706.1010789499999,None,706.1010789499999,None,706.1092209999999,None,706.1092209999999,None,706.1092209999999,None,0.004336649999913789,0.5043366499999138,706.1092209999999,None,706.1092209999999,None,706.1092209999999,None,706.1092209999999,None,706.1092209999999,None,706.1092209999999,None,708.1003876,708.1003876,25.0,2.377,1100,0,1000,,,,,,,,,,,,,,,,,,,,,,,,,,,,,,,,,,,,,,,,,,,,,,,,,,,,,,,,,,,,,,,,,,,,,,,,,,,,,,,,,,,f,25,panxiaoxi,2022-04-01_08h26.37.869,emotion,2022.1.2,60.029738732600876,
36,50,50,0,two,50,50,0,,,,,0,67,67,35,,,,,,,,,,,right,4.530891899999915,710.5326241,None,710.5326241,None,715.0804830999998,None,715.0804830999998,None,715.0804830999998,None,717.0628161999998,717.5625089,717.0628161999998,717.5625089,717.0628161999998,717.5625089,715.0804830999998,None,717.5958305499998,None,717.5958305499998,None,717.5958305499998,None,0.010812349999923754,None,717.5958305499998,None,717.5958305499998,None,717.5958305499998,None,717.5958305499998,None,717.5958305499998,None,717.5958305499998,None,717.6034121999999,None,717.6034121999999,None,717.6034121999999,None,0.004600949999939985,0.50460094999994,717.6034121999999,None,717.6034121999999,None,717.6034121999999,None,717.6034121999999,None,717.6034121999999,None,717.6034121999999,None,719.595098,719.595098,9.100000000000001,2.571,1150,50,1000,,,,,,,,,,,,,,,,,,,,,,,,,,,,,,,,,,,,,,,,,,,,,,,,,,,,,,,,,,,,,,,,,,,,,,,,,,,,,,,,,,,f,25,panxiaoxi,2022-04-01_08h26.37.869,emotion,2022.1.2,60.029738732600876,
86,-200,0,-200,one,-200,0,-200,,,,,0,68,68,85,,,,,,,,,,,down,1.6921176999999261,722.2261145999998,None,722.2261145999998,None,723.9428327999999,None,723.9428327999999,None,723.9428327999999,None,725.9254341999999,726.4250416,725.9254341999999,726.4250416,725.9254341999999,726.4250416,723.9428327999999,None,726.45854235,None,726.45854235,None,726.45854235,None,0.010428150000052483,None,726.45854235,None,726.45854235,None,726.45854235,None,726.45854235,None,726.45854235,None,726.45854235,None,726.4668253999998,None,726.4668253999998,None,726.4668253999998,None,0.0038717500001439475,0.503871750000144,726.4668253999998,None,726.4668253999998,None,726.4668253999998,None,726.4668253999998,None,726.4668253999998,None,726.4668253999998,None,728.4574014,728.4574014,-21.5,3.99,950,50,800,,,,,,,,,,,,,,,,,,,,,,,,,,,,,,,,,,,,,,,,,,,,,,,,,,,,,,,,,,,,,,,,,,,,,,,,,,,,,,,,,,,f,25,panxiaoxi,2022-04-01_08h26.37.869,emotion,2022.1.2,60.029738732600876,
81,-50,-50,-200,two,-50,-50,-200,,,,,0,69,69,80,,,,,,,,,,,left,1.3363736999999674,732.5057259,None,732.5057259,None,733.8716159999999,None,733.8716159999999,None,733.8716159999999,None,735.8543129999998,736.3541071999998,735.8543129999998,736.3541071999998,735.8543129999998,736.3541071999998,733.8716159999999,None,736.3707123499998,None,736.3707123499998,None,736.3707123499998,None,0.010050750000118569,None,736.3707123499998,None,736.3707123499998,None,736.3707123499998,None,736.3707123499998,None,736.3707123499998,None,736.3707123499998,None,736.3803372999998,None,736.3803372999998,None,736.3803372999998,None,0.0020956500000011147,0.5020956500000011,736.3803372999998,None,736.3803372999998,None,736.3803372999998,None,736.3803372999998,None,736.3803372999998,None,736.3803372999998,None,738.3695433,738.3695433,-7.100000000000001,4.222,900,0,600,,,,,,,,,,,,,,,,,,,,,,,,,,,,,,,,,,,,,,,,,,,,,,,,,,,,,,,,,,,,,,,,,,,,,,,,,,,,,,,,,,,f,25,panxiaoxi,2022-04-01_08h26.37.869,emotion,2022.1.2,60.029738732600876,
66,-200,0,0,one,-200,0,0,,,,,0,70,70,65,,,,,,,,,,,left,1.2404553999999735,742.6502386,None,742.6502386,None,743.9174525999999,None,743.9174525999999,None,743.9174525999999,None,745.8997683999999,746.3995752999999,745.8997683999999,746.3995752999999,745.8997683999999,746.3995752999999,743.9174525999999,None,746.43246015,None,746.43246015,None,746.43246015,None,0.010664950000091267,None,746.43246015,None,746.43246015,None,746.43246015,None,746.43246015,None,746.43246015,None,746.43246015,None,746.4406646,None,746.4406646,None,746.4406646,None,0.004476250000152504,0.5044762500001525,746.4406646,None,746.4406646,None,746.4406646,None,746.4406646,None,746.4406646,None,746.4406646,None,748.4317022999999,748.4317022999999,-49.3,2.2,700,0,600,,,,,,,,,,,,,,,,,,,,,,,,,,,,,,,,,,,,,,,,,,,,,,,,,,,,,,,,,,,,,,,,,,,,,,,,,,,,,,,,,,,f,25,panxiaoxi,2022-04-01_08h26.37.869,emotion,2022.1.2,60.029738732600876,
96,-50,-200,-200,two,-50,-200,-200,,,,,0,71,71,95,,,,,,,,,,,down,6.29407399999991,750.6814671999998,None,750.6814671999998,None,756.9944452999998,None,756.9944452999998,None,756.9944452999998,None,758.977138,759.4770698,758.977138,759.4770698,758.977138,759.4770698,756.9944452999998,None,759.49367495,None,759.49367495,None,759.49367495,None,0.009941750000052707,None,759.49367495,None,759.49367495,None,759.49367495,None,759.49367495,None,759.49367495,None,759.49367495,None,759.5032796999999,None,759.5032796999999,None,759.5032796999999,None,0.0019525500001691398,0.5019525500001691,759.5032796999999,None,759.5032796999999,None,759.5032796999999,None,759.5032796999999,None,759.5032796999999,None,759.5032796999999,None,761.4924828999999,761.4924828999999,-3.3999999999999986,1.906,650,-200,400,,,,,,,,,,,,,,,,,,,,,,,,,,,,,,,,,,,,,,,,,,,,,,,,,,,,,,,,,,,,,,,,,,,,,,,,,,,,,,,,,,,f,25,panxiaoxi,2022-04-01_08h26.37.869,emotion,2022.1.2,60.029738732600876,
41,200,50,200,one,200,50,200,,,,,0,72,72,40,,,,,,,,,,,down,2.299807699999974,763.4572925,None,763.4572925,None,765.7741148,None,765.7741148,None,765.7741148,None,767.7563269,768.256294,767.7563269,768.256294,767.7563269,768.256294,765.7741148,None,768.2895251499999,None,768.2895251499999,None,768.2895251499999,None,0.010801850000007107,None,768.2895251499999,None,768.2895251499999,None,768.2895251499999,None,768.2895251499999,None,768.2895251499999,None,768.2895251499999,None,768.2980934,None,768.2980934,None,768.2980934,None,0.0038943499998822517,0.5038943499998823,768.2980934,None,768.2980934,None,768.2980934,None,768.2980934,None,768.2980934,None,768.2980934,None,770.2885647999999,770.2885647999999,23.400000000000006,2.066,850,-150,600,,,,,,,,,,,,,,,,,,,,,,,,,,,,,,,,,,,,,,,,,,,,,,,,,,,,,,,,,,,,,,,,,,,,,,,,,,,,,,,,,,,f,25,panxiaoxi,2022-04-01_08h26.37.869,emotion,2022.1.2,60.029738732600876,
2,0,200,50,one,0,200,50,,,,,0,73,73,1,,,,,,,,,,,left,1.4870335000000523,772.4040841999999,None,772.4040841999999,None,773.920271,None,773.920271,None,773.920271,None,775.9026898,776.4025875999998,775.9026898,776.4025875999998,775.9026898,776.4025875999998,773.920271,None,776.43590135,None,776.43590135,None,776.43590135,None,0.010754650000080801,None,776.43590135,None,776.43590135,None,776.43590135,None,776.43590135,None,776.43590135,None,776.43590135,None,776.4438934,None,776.4438934,None,776.4438934,None,0.004426850000072591,0.5044268500000726,776.4438934,None,776.4438934,None,776.4438934,None,776.4438934,None,776.4438934,None,776.4438934,None,778.4350967,778.4350967,-8.0,4.029,850,50,650,,,,,,,,,,,,,,,,,,,,,,,,,,,,,,,,,,,,,,,,,,,,,,,,,,,,,,,,,,,,,,,,,,,,,,,,,,,,,,,,,,,f,25,panxiaoxi,2022-04-01_08h26.37.869,emotion,2022.1.2,60.029738732600876,
40,200,200,50,one,200,200,50,,,,,0,74,74,39,,,,,,,,,,,right,1.3499560000000201,782.5162103,None,782.5162103,None,783.8991394999998,None,783.8991394999998,None,783.8991394999998,None,785.8814805,786.3812211,785.8814805,786.3812211,785.8814805,786.3812211,783.8991394999998,None,786.4146113499999,None,786.4146113499999,None,786.4146113499999,None,0.010478749999947468,None,786.4146113499999,None,786.4146113499999,None,786.4146113499999,None,786.4146113499999,None,786.4146113499999,None,786.4146113499999,None,786.4228309999999,None,786.4228309999999,None,786.4228309999999,None,0.0039405499999247695,0.5039405499999248,786.4228309999999,None,786.4228309999999,None,786.4228309999999,None,786.4228309999999,None,786.4228309999999,None,786.4228309999999,None,788.4138484999999,788.4138484999999,12.399999999999999,1.206,1050,250,700,,,,,,,,,,,,,,,,,,,,,,,,,,,,,,,,,,,,,,,,,,,,,,,,,,,,,,,,,,,,,,,,,,,,,,,,,,,,,,,,,,,f,25,panxiaoxi,2022-04-01_08h26.37.869,emotion,2022.1.2,60.029738732600876,
63,-50,0,0,one,-50,0,0,,,,,0,75,75,62,,,,,,,,,,,down,1.2020975000000362,789.6785041999999,None,789.6785041999999,None,790.9127265999998,None,790.9127265999998,None,790.9127265999998,None,792.8948140999998,793.3946071999999,792.8948140999998,793.3946071999999,792.8948140999998,793.3946071999999,790.9127265999998,None,793.42821215,None,793.42821215,None,793.42821215,None,0.010964349999994738,None,793.42821215,None,793.42821215,None,793.42821215,None,793.42821215,None,793.42821215,None,793.42821215,None,793.4363692,None,793.4363692,None,793.4363692,None,0.0046611500004019035,0.5046611500004019,793.4363692,None,793.4363692,None,793.4363692,None,793.4363692,None,793.4363692,None,793.4363692,None,795.4272578999999,795.4272578999999,-20.6,3.584,1000,250,700,,,,,,,,,,,,,,,,,,,,,,,,,,,,,,,,,,,,,,,,,,,,,,,,,,,,,,,,,,,,,,,,,,,,,,,,,,,,,,,,,,,f,25,panxiaoxi,2022-04-01_08h26.37.869,emotion,2022.1.2,60.029738732600876,
85,-200,-200,0,one,-200,-200,0,,,,,0,76,76,84,,,,,,,,,,,down,1.3002670999999282,799.0599396,None,799.0599396,None,800.3913576999998,None,800.3913576999998,None,800.3913576999998,None,802.3741901999999,802.8736686,802.3741901999999,802.8736686,802.3741901999999,802.8736686,800.3913576999998,None,802.90722585,None,802.90722585,None,802.90722585,None,0.010658950000106415,None,802.90722585,None,802.90722585,None,802.90722585,None,802.90722585,None,802.90722585,None,802.90722585,None,802.9151916999999,None,802.9151916999999,None,802.9151916999999,None,0.004113650000363123,0.5041136500003631,802.9151916999999,None,802.9151916999999,None,802.9151916999999,None,802.9151916999999,None,802.9151916999999,None,802.9151916999999,None,804.9060821999999,804.9060821999999,-22.3,2.176,800,50,700,,,,,,,,,,,,,,,,,,,,,,,,,,,,,,,,,,,,,,,,,,,,,,,,,,,,,,,,,,,,,,,,,,,,,,,,,,,,,,,,,,,f,25,panxiaoxi,2022-04-01_08h26.37.869,emotion,2022.1.2,60.029738732600876,
65,0,-200,0,one,0,-200,0,,,,,0,77,77,64,,,,,,,,,,,left,1.2718038999998953,807.1386762999998,None,807.1386762999998,None,808.4381077999999,None,808.4381077999999,None,808.4381077999999,None,810.4204096000001,810.920128,810.4204096000001,810.920128,810.4204096000001,810.920128,808.4381077999999,None,810.9535752499999,None,810.9535752499999,None,810.9535752499999,None,0.010688450000088778,None,810.9535752499999,None,810.9535752499999,None,810.9535752499999,None,810.9535752499999,None,810.9535752499999,None,810.9535752499999,None,810.9615535999999,None,810.9615535999999,None,810.9615535999999,None,0.004404649999742105,0.5044046499997421,810.9615535999999,None,810.9615535999999,None,810.9615535999999,None,810.9615535999999,None,810.9615535999999,None,810.9615535999999,None,812.9524629,812.9524629,-11.600000000000001,4.043,800,-150,700,,,,,,,,,,,,,,,,,,,,,,,,,,,,,,,,,,,,,,,,,,,,,,,,,,,,,,,,,,,,,,,,,,,,,,,,,,,,,,,,,,,f,25,panxiaoxi,2022-04-01_08h26.37.869,emotion,2022.1.2,60.029738732600876,
43,200,200,0,two,200,200,0,,,,,0,78,78,42,,,,,,,,,,,left,1.1742090000002463,817.0506119999998,None,817.0506119999998,None,818.2502246000001,None,818.2502246000001,None,818.2502246000001,None,820.2325576999999,820.732589,820.2325576999999,820.732589,820.2325576999999,820.732589,818.2502246000001,None,820.7653851500002,None,820.7653851500002,None,820.7653851500002,None,0.010609150000163936,None,820.7653851500002,None,820.7653851500002,None,820.7653851500002,None,820.7653851500002,None,820.7653851500002,None,820.7653851500002,None,820.7746577999999,None,820.7746577999999,None,820.7746577999999,None,0.004132550000122137,0.5041325500001221,820.7746577999999,None,820.7746577999999,None,820.7746577999999,None,820.7746577999999,None,820.7746577999999,None,820.7746577999999,None,822.7652806999997,822.7652806999997,1.5,3.684,1000,50,700,,,,,,,,,,,,,,,,,,,,,,,,,,,,,,,,,,,,,,,,,,,,,,,,,,,,,,,,,,,,,,,,,,,,,,,,,,,,,,,,,,,f,25,panxiaoxi,2022-04-01_08h26.37.869,emotion,2022.1.2,60.029738732600876,
18,200,0,0,one,200,0,0,,,,,0,79,79,17,,,,,,,,,,,down,3.019636300000002,826.5120205000001,None,826.5120205000001,None,829.5617509000001,None,829.5617509000001,None,829.5617509000001,None,831.5441736999999,832.0439389999999,831.5441736999999,832.0439389999999,831.5441736999999,832.0439389999999,829.5617509000001,None,832.07693365,None,832.07693365,None,832.07693365,None,0.010912149999967369,None,832.07693365,None,832.07693365,None,832.07693365,None,832.07693365,None,832.07693365,None,832.07693365,None,832.0848537999998,None,832.0848537999998,None,832.0848537999998,None,0.004630649999853631,0.5046306499998536,832.0848537999998,None,832.0848537999998,None,832.0848537999998,None,832.0848537999998,None,832.0848537999998,None,832.0848537999998,None,834.0763494,834.0763494,20.299999999999997,1.675,1200,50,700,,,,,,,,,,,,,,,,,,,,,,,,,,,,,,,,,,,,,,,,,,,,,,,,,,,,,,,,,,,,,,,,,,,,,,,,,,,,,,,,,,,f,25,panxiaoxi,2022-04-01_08h26.37.869,emotion,2022.1.2,60.029738732600876,
26,50,200,50,one,50,200,50,,,,,0,80,80,25,,,,,,,,,,,left,1.122102199999972,835.8091289000001,None,835.8091289000001,None,836.9581258000001,None,836.9581258000001,None,836.9581258000001,None,838.9408602999999,839.4407647,838.9408602999999,839.4407647,838.9408602999999,839.4407647,836.9581258000001,None,839.4573698500001,None,839.4573698500001,None,839.4573698500001,None,0.01033945000017411,None,839.4573698500001,None,839.4573698500001,None,839.4573698500001,None,839.4573698500001,None,839.4573698500001,None,839.4573698500001,None,839.4654699999999,None,839.4654699999999,None,839.4654699999999,None,0.003835649999928137,0.5038356499999281,839.4654699999999,None,839.4654699999999,None,839.4654699999999,None,839.4654699999999,None,839.4654699999999,None,839.4654699999999,None,841.4566090000001,841.4566090000001,3.8999999999999986,5.611,1250,250,750,,,,,,,,,,,,,,,,,,,,,,,,,,,,,,,,,,,,,,,,,,,,,,,,,,,,,,,,,,,,,,,,,,,,,,,,,,,,,,,,,,,f,25,panxiaoxi,2022-04-01_08h26.37.869,emotion,2022.1.2,60.029738732600876,
59,-200,-50,0,two,-200,-50,0,,,,,0,81,81,58,,,,,,,,,,,down,2.494844099999682,847.1203987000001,None,847.1203987000001,None,849.6361515000001,None,849.6361515000001,None,849.6361515000001,None,851.6182461999999,852.1182118999998,851.6182461999999,852.1182118999998,851.6182461999999,852.1182118999998,849.6361515000001,None,852.1515848500001,None,852.1515848500001,None,852.1515848500001,None,0.010864050000236603,None,852.1515848500001,None,852.1515848500001,None,852.1515848500001,None,852.1515848500001,None,852.1515848500001,None,852.1515848500001,None,852.1597724999999,None,852.1597724999999,None,852.1597724999999,None,0.004408950000197365,0.5044089500001974,852.1597724999999,None,852.1597724999999,None,852.1597724999999,None,852.1597724999999,None,852.1597724999999,None,852.1597724999999,None,854.1503933000001,854.1503933000001,-11.5,1.702,1050,200,750,,,,,,,,,,,,,,,,,,,,,,,,,,,,,,,,,,,,,,,,,,,,,,,,,,,,,,,,,,,,,,,,,,,,,,,,,,,,,,,,,,,f,25,panxiaoxi,2022-04-01_08h26.37.869,emotion,2022.1.2,60.029738732600876,
51,-50,0,-200,one,-50,0,-200,,,,,0,82,82,50,,,,,,,,,,,right,2.116298899999947,855.9154587,None,855.9154587,None,858.0488174,None,858.0488174,None,858.0488174,None,860.0311748000001,860.5308833000001,860.0311748000001,860.5308833000001,860.0311748000001,860.5308833000001,858.0488174,None,860.5644109500001,None,860.5644109500001,None,860.5644109500001,None,0.010696450000523328,None,860.5644109500001,None,860.5644109500001,None,860.5644109500001,None,860.5644109500001,None,860.5644109500001,None,860.5644109500001,None,860.5725983999998,None,860.5725983999998,None,860.5725983999998,None,0.004080849999809288,0.5040808499998093,860.5725983999998,None,860.5725983999998,None,860.5725983999998,None,860.5725983999998,None,860.5725983999998,None,860.5725983999998,None,862.5633225999998,862.5633225999998,-8.600000000000001,12.206,1000,200,550,,,,,,,,,,,,,,,,,,,,,,,,,,,,,,,,,,,,,,,,,,,,,,,,,,,,,,,,,,,,,,,,,,,,,,,,,,,,,,,,,,,f,25,panxiaoxi,2022-04-01_08h26.37.869,emotion,2022.1.2,60.029738732600876,
92,-200,0,-200,two,-200,0,-200,,,,,0,83,83,91,,,,,,,,,,,left,1.3864410999999564,874.8246378000001,None,874.8246378000001,None,876.2404193,None,876.2404193,None,876.2404193,None,878.2228948999998,878.7228073999997,878.2228948999998,878.7228073999997,878.2228948999998,878.7228073999997,876.2404193,None,878.75605595,None,878.75605595,None,878.75605595,None,0.010602350000681326,None,878.75605595,None,878.75605595,None,878.75605595,None,878.75605595,None,878.75605595,None,878.75605595,None,878.7644717999999,None,878.7644717999999,None,878.7644717999999,None,0.004152150000209076,0.5041521500002091,878.7644717999999,None,878.7644717999999,None,878.7644717999999,None,878.7644717999999,None,878.7644717999999,None,878.7644717999999,None,880.7550208,880.7550208,-26.0,2.302,800,200,350,,,,,,,,,,,,,,,,,,,,,,,,,,,,,,,,,,,,,,,,,,,,,,,,,,,,,,,,,,,,,,,,,,,,,,,,,,,,,,,,,,,f,25,panxiaoxi,2022-04-01_08h26.37.869,emotion,2022.1.2,60.029738732600876,
95,-200,-50,-200,two,-200,-50,-200,,,,,0,84,84,94,,,,,,,,,,,down,4.628228500000205,883.1199298999998,None,883.1199298999998,None,887.7685399,None,887.7685399,None,887.7685399,None,889.7513133,890.2510065999998,889.7513133,890.2510065999998,889.7513133,890.2510065999998,887.7685399,None,890.2676117499998,None,890.2676117499998,None,890.2676117499998,None,0.010174949999964156,None,890.2676117499998,None,890.2676117499998,None,890.2676117499998,None,890.2676117499998,None,890.2676117499998,None,890.2676117499998,None,890.2761871,None,890.2761871,None,890.2761871,None,0.0027177500001016597,0.5027177500001017,890.2761871,None,890.2761871,None,890.2761871,None,890.2761871,None,890.2761871,None,890.2761871,None,892.2664171999998,892.2664171999998,-25.9,2.129,600,150,150,,,,,,,,,,,,,,,,,,,,,,,,,,,,,,,,,,,,,,,,,,,,,,,,,,,,,,,,,,,,,,,,,,,,,,,,,,,,,,,,,,,f,25,panxiaoxi,2022-04-01_08h26.37.869,emotion,2022.1.2,60.029738732600876,
54,-200,0,-50,one,-200,0,-50,,,,,0,85,85,53,,,,,,,,,,,right,1.6857099999997445,894.4485379999999,None,894.4485379999999,None,896.1647239000001,None,896.1647239000001,None,896.1647239000001,None,898.1473604999999,898.6471971999997,898.1473604999999,898.6471971999997,898.1473604999999,898.6471971999997,896.1647239000001,None,898.6638023499997,None,898.6638023499997,None,898.6638023499997,None,0.01017134999983682,None,898.6638023499997,None,898.6638023499997,None,898.6638023499997,None,898.6638023499997,None,898.6638023499997,None,898.6638023499997,None,898.6727834000001,None,898.6727834000001,None,898.6727834000001,None,0.0024698499996702594,0.5024698499996703,898.6727834000001,None,898.6727834000001,None,898.6727834000001,None,898.6727834000001,None,898.6727834000001,None,898.6727834000001,None,900.6627032999997,900.6627032999997,-32.3,1.629,400,150,100,,,,,,,,,,,,,,,,,,,,,,,,,,,,,,,,,,,,,,,,,,,,,,,,,,,,,,,,,,,,,,,,,,,,,,,,,,,,,,,,,,,f,25,panxiaoxi,2022-04-01_08h26.37.869,emotion,2022.1.2,60.029738732600876,
20,0,50,0,two,0,50,0,,,,,0,86,86,19,,,,,,,,,,,left,1.9807012999999642,902.3449947000001,None,902.3449947000001,None,904.3444932,None,904.3444932,None,904.3444932,None,906.3267963000001,906.8265294999999,906.3267963000001,906.8265294999999,906.3267963000001,906.8265294999999,904.3444932,None,906.8598273499999,None,906.8598273499999,None,906.8598273499999,None,0.010782550000385527,None,906.8598273499999,None,906.8598273499999,None,906.8598273499999,None,906.8598273499999,None,906.8598273499999,None,906.8598273499999,None,906.8680038999998,None,906.8680038999998,None,906.8680038999998,None,0.004439250000359607,0.5044392500003596,906.8680038999998,None,906.8680038999998,None,906.8680038999998,None,906.8680038999998,None,906.8680038999998,None,906.8680038999998,None,908.8589939999999,908.8589939999999,-22.0,4.375,400,200,100,,,,,,,,,,,,,,,,,,,,,,,,,,,,,,,,,,,,,,,,,,,,,,,,,,,,,,,,,,,,,,,,,,,,,,,,,,,,,,,,,,,f,25,panxiaoxi,2022-04-01_08h26.37.869,emotion,2022.1.2,60.029738732600876,
38,200,0,200,one,200,0,200,,,,,0,87,87,37,,,,,,,,,,,down,1.1076036999997996,913.2905471000001,None,913.2905471000001,None,914.4233739999997,None,914.4233739999997,None,914.4233739999997,None,916.4054616000001,916.9053151,916.4054616000001,916.9053151,916.4054616000001,916.9053151,914.4233739999997,None,916.9386760499999,None,916.9386760499999,None,916.9386760499999,None,0.010727350000252045,None,916.9386760499999,None,916.9386760499999,None,916.9386760499999,None,916.9386760499999,None,916.9386760499999,None,916.9386760499999,None,916.9467081999999,None,916.9467081999999,None,916.9467081999999,None,0.004392849999931059,0.5043928499999311,916.9467081999999,None,916.9467081999999,None,916.9467081999999,None,916.9467081999999,None,916.9467081999999,None,916.9467081999999,None,918.9379179,918.9379179,8.799999999999997,2.96,600,200,300,,,,,,,,,,,,,,,,,,,,,,,,,,,,,,,,,,,,,,,,,,,,,,,,,,,,,,,,,,,,,,,,,,,,,,,,,,,,,,,,,,,f,25,panxiaoxi,2022-04-01_08h26.37.869,emotion,2022.1.2,60.029738732600876,
13,0,0,50,one,0,0,50,,,,,0,88,88,12,,,,,,,,,,,left,1.5069815000001654,921.9530739999998,None,921.9530739999998,None,923.4858854000001,None,923.4858854000001,None,923.4858854000001,None,925.4681862,925.9678858,925.4681862,925.9678858,925.4681862,925.9678858,923.4858854000001,None,926.0011862499998,None,926.0011862499998,None,926.0011862499998,None,0.010779650000131369,None,926.0011862499998,None,926.0011862499998,None,926.0011862499998,None,926.0011862499998,None,926.0011862499998,None,926.0011862499998,None,926.0094772999998,None,926.0094772999998,None,926.0094772999998,None,0.00443074999975579,0.5044307499997558,926.0094772999998,None,926.0094772999998,None,926.0094772999998,None,926.0094772999998,None,926.0094772999998,None,926.0094772999998,None,928.0002002999997,928.0002002999997,-4.5,3.738,600,200,350,,,,,,,,,,,,,,,,,,,,,,,,,,,,,,,,,,,,,,,,,,,,,,,,,,,,,,,,,,,,,,,,,,,,,,,,,,,,,,,,,,,f,25,panxiaoxi,2022-04-01_08h26.37.869,emotion,2022.1.2,60.029738732600876,
77,-50,0,-50,one,-50,0,-50,,,,,0,89,89,76,,,,,,,,,,,right,1.4799834999998893,931.7976495999999,None,931.7976495999999,None,933.2977264999997,None,933.2977264999997,None,933.2977264999997,None,935.2806485999997,935.7804221999997,935.2806485999997,935.7804221999997,935.2806485999997,935.7804221999997,933.2977264999997,None,935.7970273499998,None,935.7970273499998,None,935.7970273499998,None,0.010181849999753467,None,935.7970273499998,None,935.7970273499998,None,935.7970273499998,None,935.7970273499998,None,935.7970273499998,None,935.7970273499998,None,935.8056504999997,None,935.8056504999997,None,935.8056504999997,None,0.002815549999468203,0.5028155499994682,935.8056504999997,None,935.8056504999997,None,935.8056504999997,None,935.8056504999997,None,935.8056504999997,None,935.8056504999997,None,937.7958950999998,937.7958950999998,-18.1,1.247,550,200,300,,,,,,,,,,,,,,,,,,,,,,,,,,,,,,,,,,,,,,,,,,,,,,,,,,,,,,,,,,,,,,,,,,,,,,,,,,,,,,,,,,,f,25,panxiaoxi,2022-04-01_08h26.37.869,emotion,2022.1.2,60.029738732600876,
14,0,50,0,one,0,50,0,,,,,0,90,90,13,,,,,,,,,,,left,2.3696168999999827,939.0950719,None,939.0950719,None,941.4944193999997,None,941.4944193999997,None,941.4944193999997,None,943.4768298000001,943.9762312,943.4768298000001,943.9762312,943.4768298000001,943.9762312,941.4944193999997,None,944.0097541500002,None,944.0097541500002,None,944.0097541500002,None,0.010810849999870698,None,944.0097541500002,None,944.0097541500002,None,944.0097541500002,None,944.0097541500002,None,944.0097541500002,None,944.0097541500002,None,944.0180711999999,None,944.0180711999999,None,944.0180711999999,None,0.004657950000364508,0.5046579500003645,944.0180711999999,None,944.0180711999999,None,944.0180711999999,None,944.0180711999999,None,944.0180711999999,None,944.0180711999999,None,946.0090875999997,946.0090875999997,-12.299999999999997,5.657,550,250,300,,,,,,,,,,,,,,,,,,,,,,,,,,,,,,,,,,,,,,,,,,,,,,,,,,,,,,,,,,,,,,,,,,,,,,,,,,,,,,,,,,,f,25,panxiaoxi,2022-04-01_08h26.37.869,emotion,2022.1.2,60.029738732600876,
83,-50,0,-50,two,-50,0,-50,,,,,0,91,91,82,,,,,,,,,,,left,2.5345116000003145,951.7228815000001,None,951.7228815000001,None,954.2884637,None,954.2884637,None,954.2884637,None,956.2709459999999,956.7708261,956.2709459999999,956.7708261,956.2709459999999,956.7708261,954.2884637,None,956.8038328499999,None,956.8038328499999,None,956.8038328499999,None,0.010629849999986618,None,956.8038328499999,None,956.8038328499999,None,956.8038328499999,None,956.8038328499999,None,956.8038328499999,None,956.8038328499999,None,956.8117982000001,None,956.8117982000001,None,956.8117982000001,None,0.004196750000119209,0.5041967500001192,956.8117982000001,None,956.8117982000001,None,956.8117982000001,None,956.8117982000001,None,956.8117982000001,None,956.8117982000001,None,958.8032833,958.8032833,-9.700000000000003,3.158,500,250,250,,,,,,,,,,,,,,,,,,,,,,,,,,,,,,,,,,,,,,,,,,,,,,,,,,,,,,,,,,,,,,,,,,,,,,,,,,,,,,,,,,,f,25,panxiaoxi,2022-04-01_08h26.37.869,emotion,2022.1.2,60.029738732600876,
22,0,0,200,two,0,0,200,,,,,0,92,92,21,,,,,,,,,,,right,1.4088934999999765,962.0183466000001,None,962.0183466000001,None,963.4510643000001,None,963.4510643000001,None,963.4510643000001,None,965.4332139,965.9333168999999,965.4332139,965.9333168999999,965.4332139,965.9333168999999,963.4510643000001,None,965.9663308500001,None,965.9663308500001,None,965.9663308500001,None,0.0110309500000767,None,965.9663308500001,None,965.9663308500001,None,965.9663308500001,None,965.9663308500001,None,965.9663308500001,None,965.9663308500001,None,965.9745492,None,965.9745492,None,965.9745492,None,0.004221449999931792,0.5042214499999318,965.9745492,None,965.9745492,None,965.9745492,None,965.9745492,None,965.9745492,None,965.9745492,None,967.9658366000001,967.9658366000001,-25.9,3.709,500,250,450,,,,,,,,,,,,,,,,,,,,,,,,,,,,,,,,,,,,,,,,,,,,,,,,,,,,,,,,,,,,,,,,,,,,,,,,,,,,,,,,,,,f,25,panxiaoxi,2022-04-01_08h26.37.869,emotion,2022.1.2,60.029738732600876,
89,-200,-50,-200,one,-200,-50,-200,,,,,0,93,93,88,,,,,,,,,,,left,0.9152408999998443,971.7305902,None,971.7305902,None,972.6637291,None,972.6637291,None,972.6637291,None,974.6458620000001,975.1457133000001,974.6458620000001,975.1457133000001,974.6458620000001,975.1457133000001,972.6637291,None,975.17887365,None,975.17887365,None,975.17887365,None,0.010485850000350183,None,975.17887365,None,975.17887365,None,975.17887365,None,975.17887365,None,975.17887365,None,975.17887365,None,975.1874664999998,None,975.1874664999998,None,975.1874664999998,None,0.003947050000078889,0.5039470500000789,975.1874664999998,None,975.1874664999998,None,975.1874664999998,None,975.1874664999998,None,975.1874664999998,None,975.1874664999998,None,977.1780495999999,977.1780495999999,-34.0,1.603,300,200,250,,,,,,,,,,,,,,,,,,,,,,,,,,,,,,,,,,,,,,,,,,,,,,,,,,,,,,,,,,,,,,,,,,,,,,,,,,,,,,,,,,,f,25,panxiaoxi,2022-04-01_08h26.37.869,emotion,2022.1.2,60.029738732600876,
80,-50,-200,-50,two,-50,-200,-50,,,,,0,94,94,79,,,,,,,,,,,left,1.600349599999845,978.8428023999998,None,978.8428023999998,None,980.4595081999998,None,980.4595081999998,None,980.4595081999998,None,982.4421323999998,982.9421970000001,982.4421323999998,982.9421970000001,982.4421323999998,982.9421970000001,980.4595081999998,None,982.9588021500001,None,982.9588021500001,None,982.9588021500001,None,0.01026834999993298,None,982.9588021500001,None,982.9588021500001,None,982.9588021500001,None,982.9588021500001,None,982.9588021500001,None,982.9588021500001,None,982.9677183000001,None,982.9677183000001,None,982.9677183000001,None,0.0029175500003475463,0.5029175500003475,982.9677183000001,None,982.9677183000001,None,982.9677183000001,None,982.9677183000001,None,982.9677183000001,None,982.9677183000001,None,984.9577892,984.9577892,-12.700000000000003,2.64,250,0,200,,,,,,,,,,,,,,,,,,,,,,,,,,,,,,,,,,,,,,,,,,,,,,,,,,,,,,,,,,,,,,,,,,,,,,,,,,,,,,,,,,,f,25,panxiaoxi,2022-04-01_08h26.37.869,emotion,2022.1.2,60.029738732600876,
57,-50,0,-200,two,-50,0,-200,,,,,0,95,95,56,,,,,,,,,,,left,1.7681428000000778,987.6557658999998,None,987.6557658999998,None,989.4559876999999,None,989.4559876999999,None,989.4559876999999,None,991.4384250999999,991.9382576,991.4384250999999,991.9382576,991.4384250999999,991.9382576,989.4559876999999,None,991.9712146499999,None,991.9712146499999,None,991.9712146499999,None,0.010824749999756023,None,991.9712146499999,None,991.9712146499999,None,991.9712146499999,None,991.9712146499999,None,991.9712146499999,None,991.9712146499999,None,991.9792138,None,991.9792138,None,991.9792138,None,0.004374850000203878,0.5043748500002039,991.9792138,None,991.9792138,None,991.9792138,None,991.9792138,None,991.9792138,None,991.9792138,None,993.9703099999999,993.9703099999999,-8.100000000000001,2.272,200,0,0,,,,,,,,,,,,,,,,,,,,,,,,,,,,,,,,,,,,,,,,,,,,,,,,,,,,,,,,,,,,,,,,,,,,,,,,,,,,,,,,,,,f,25,panxiaoxi,2022-04-01_08h26.37.869,emotion,2022.1.2,60.029738732600876,
,,,,,,,,,,,,,,,,,,,,,,,,,,,,,,,,,,,,,,,,,,,,,,,,,,,,,,,,,,,,,,,,,,,,,,,,,,,,,,,,,,,,,,,,,,,,,996.2898785,None,space,16.74776780000002,996.2898785,None,,,,,,,,,,,,,,,,,,,,,,,,,,,,,,,,,,,,,,,,,,,,,,,,,,,,,,,,,,,,,,,,,,,,,,,,,,,,,f,25,panxiaoxi,2022-04-01_08h26.37.869,emotion,2022.1.2,60.029738732600876,
,,,,,,,,,,,,,,,,,,,,,,,,,,,,,,,,,,,,,,,,,,,,,,,,,,,,,,,,,,,,,,,,,,,,,,,,,,,,,,,,,,,,,,,,,,,,,,,,,,,1013.0616944000001,None,space,2.038498399999753,1013.0616944000001,None,,,,,,,,,,,,,,,,,,,,,,,,,,,,,,,,,,,,,,,,,,,,,,,,,,,,,,,,,,,,,,,,,,,,,,,f,25,panxiaoxi,2022-04-01_08h26.37.869,emotion,2022.1.2,60.029738732600876,
84,-50,-50,0,,-50,,0,right,"[12, 4]",-50,"'left', 'down'",,,,,0,0,0,83,,,,,,,,,,,,,,,,,,,,,,,,,,,,,,,,,,,,,,,,,,,,,,,,,,,,,,,,,,,,,,,,,,,,,-0.29999999999999716,4.153,150,-50,0,,,,,,,,,,,,,1017.1598907,None,1017.1598907,None,1017.1598907,None,1015.1712600999997,None,0.015382550000140327,0.5153825500001403,down,1.9637577000003148,1017.6431424999998,None,1017.6431424999998,None,1017.6431424999998,None,1017.6431424999998,None,1017.6431424999998,None,1019.6252192499999,None,1019.6252192499999,None,1019.6252192499999,None,0.0085473499998443,None,1019.6252192499999,None,1019.6252192499999,None,1019.6252192499999,None,1019.6252192499999,None,1019.6252192499999,None,1019.6252192499999,None,1019.6389941999998,None,1019.6389941999998,None,1019.6389941999998,None,0.01566030000003593,0.5156603000000359,1019.6389941999998,None,1019.6389941999998,None,1019.6389941999998,None,1019.6389941999998,None,1019.6389941999998,None,1019.6389941999998,None,1021.624611,1021.624611,,,,,,,f,25,panxiaoxi,2022-04-01_08h26.37.869,emotion,2022.1.2,60.029738732600876,
