trialNumber,mychoice,otherchoice,stay,skip,pointsWon,otherScore,unobtained,choicepos,pos_1,otherscore,allowedkeyresp,trials_2.thisRepN,trials_2.thisTrialN,trials_2.thisN,trials_2.thisIndex,trials.thisRepN,trials.thisTrialN,trials.thisN,trials.thisIndex,image_2.started,image_2.stopped,key_resp_2.keys,key_resp_2.rt,key_resp_2.started,key_resp_2.stopped,key_resp_6.keys,key_resp_6.rt,key_resp_6.started,key_resp_6.stopped,text.started,text.stopped,left_3.started,left_3.stopped,middle_3.started,middle_3.stopped,right_3.started,right_3.stopped,otherleft_1.started,otherleft_1.stopped,othermiddle_1.started,othermiddle_1.stopped,otherright_1.started,otherright_1.stopped,text_2.started,text_2.stopped,left_4.started,left_4.stopped,right_4.started,right_4.stopped,middle_4.started,middle_4.stopped,ISI_3.started,ISI_3.stopped,mypick.started,mypick.stopped,otherpick.started,otherpick.stopped,residal.started,residal.stopped,otherleft_5.started,otherleft_5.stopped,othermiddle_5.started,othermiddle_5.stopped,otherright_5.started,otherright_5.stopped,left_5.started,left_5.stopped,right_5.started,right_5.stopped,middle_5.started,middle_5.stopped,ISI_5.started,ISI_5.stopped,mypick_1.started,mypick_1.stopped,otherpick_1.started,otherpick_1.stopped,residal_1.started,residal_1.stopped,otherleft_6.started,otherleft_6.stopped,othermiddle_6.started,othermiddle_6.stopped,otherright_6.started,otherright_6.stopped,text_3.started,text_3.stopped,rating,ratingrt,totalScore,othertotalScore,unobtainedScore,image_4.started,image_4.stopped,key_resp_3.keys,key_resp_3.rt,key_resp_3.started,key_resp_3.stopped,image_5.started,image_5.stopped,key_resp.keys,key_resp.rt,key_resp.started,key_resp.stopped,otherleft_3.started,otherleft_3.stopped,othermiddle_3.started,othermiddle_3.stopped,otherright_3.started,otherright_3.stopped,text_4.started,text_4.stopped,ISI_2.started,ISI_2.stopped,key_resp_4.keys,key_resp_4.rt,key_resp_4.started,key_resp_4.stopped,otherleft_4.started,otherleft_4.stopped,othermiddle_4.started,othermiddle_4.stopped,otherright_4.started,otherright_4.stopped,text_5.started,text_5.stopped,left.started,left.stopped,right.started,right.stopped,middle.started,middle.stopped,ISI.started,ISI.stopped,mypick_3.started,mypick_3.stopped,otherpick_3.started,otherpick_3.stopped,residal_3.started,residal_3.stopped,otherleft.started,otherleft.stopped,othermiddle.started,othermiddle.stopped,otherright.started,otherright.stopped,right_2.started,right_2.stopped,middle_2.started,middle_2.stopped,left_2.started,left_2.stopped,ISI_4.started,ISI_4.stopped,mypick_4.started,mypick_4.stopped,otherpick_4.started,otherpick_4.stopped,residal_4.started,residal_4.stopped,otherleft_2.started,otherleft_2.stopped,othermiddle_2.started,othermiddle_2.stopped,otherright_2.started,otherright_2.stopped,text_6.started,text_6.stopped,image_3.started,image_3.stopped,key_resp_9.keys,key_resp_9.rt,key_resp_9.started,key_resp_9.stopped,gender,age,participant,date,expName,psychopyVersion,frameRate,
,,,,,,,,,,,,,,,,,,,,29.707745700026862,None,space,10.616274200030603,29.707745700026862,None,,,,,,,,,,,,,,,,,,,,,,,,,,,,,,,,,,,,,,,,,,,,,,,,,,,,,,,,,,,,,,,,,,,,,,,,,,,,,,,,,,,,,,,,,,,,,,,,,,,,,,,,,,,,,,,,,,,,,,,,,,,,,,,,,,,,,,,,,,,,,,,,,,,,,,f,26,wurui,2022_Apr_04_1447,emotion,2021.1.4,60.417740341988726,
76,0,-50,-50,one,0,-50,-50,,,,,0,0,0,75,,,,,,,,,,,down,1.669762300036382,40.50094579998404,None,40.50094579998404,None,42.21391649998259,None,42.21391649998259,None,42.21391649998259,None,44.200829899986275,44.70079370000167,44.200829899986275,44.70079370000167,44.200829899986275,44.70079370000167,42.21391649998259,None,44.73403041999555,None,44.73403041999555,None,44.73403041999555,None,0.007708320044912398,None,44.73403041999555,None,44.73403041999555,None,44.73403041999555,None,44.73403041999555,None,44.73403041999555,None,44.73403041999555,None,44.74829640000826,None,44.74829640000826,None,44.74829640000826,None,0.015646879968699068,0.5156468799686991,44.74829640000826,None,44.74829640000826,None,44.74829640000826,None,44.74829640000826,None,44.74829640000826,None,44.74829640000826,None,46.73368840001058,46.73368840001058,50.0,7.266,200,-50,-50,,,,,,,,,,,,,,,,,,,,,,,,,,,,,,,,,,,,,,,,,,,,,,,,,,,,,,,,,,,,,,,,,,,,,,,,,,,,,,,,,,,f,26,wurui,2022_Apr_04_1447,emotion,2021.1.4,60.417740341988726,
18,200,0,0,one,200,0,0,,,,,0,1,1,17,,,,,,,,,,,right,2.4091051000286825,54.11853809998138,None,54.11853809998138,None,56.54841549997218,None,56.54841549997218,None,56.54841549997218,None,58.53378579998389,None,58.53378579998389,None,58.53378579998389,None,56.54841549997218,None,59.04790956001962,None,59.04790956001962,None,59.04790956001962,None,0.005727660085540265,None,59.04790956001962,None,59.04790956001962,None,59.04790956001962,None,59.04790956001962,None,59.04790956001962,None,59.04790956001962,None,59.069712200027425,None,59.069712200027425,None,59.069712200027425,None,0.010245520039461553,0.5102455200394616,59.069712200027425,None,59.069712200027425,None,59.069712200027425,None,59.069712200027425,None,59.069712200027425,None,59.069712200027425,None,61.04770930000814,61.04770930000814,50.0,2.766,400,-50,-50,,,,,,,,,,,,,,,,,,,,,,,,,,,,,,,,,,,,,,,,,,,,,,,,,,,,,,,,,,,,,,,,,,,,,,,,,,,,,,,,,,,f,26,wurui,2022_Apr_04_1447,emotion,2021.1.4,60.417740341988726,
53,-200,-50,0,one,-200,-50,0,,,,,0,2,2,52,,,,,,,,,,,left,5.793148499971721,63.90032339998288,None,63.90032339998288,None,69.7165503000142,None,69.7165503000142,None,69.7165503000142,None,71.69543129997328,72.19524839997757,71.69543129997328,72.19524839997757,71.69543129997328,72.19524839997757,69.7165503000142,None,72.22860235999106,None,72.22860235999106,None,72.22860235999106,None,0.010616560059133917,None,72.22860235999106,None,72.22860235999106,None,72.22860235999106,None,72.22860235999106,None,72.22860235999106,None,72.22860235999106,None,72.23768660001224,None,72.23768660001224,None,72.23768660001224,None,0.003159459971357137,0.5031594599713571,72.23768660001224,None,72.23768660001224,None,72.23768660001224,None,72.23768660001224,None,72.23768660001224,None,72.23768660001224,None,74.22810599999502,74.22810599999502,-25.9,6.355,200,-100,-50,,,,,,,,,,,,,,,,,,,,,,,,,,,,,,,,,,,,,,,,,,,,,,,,,,,,,,,,,,,,,,,,,,,,,,,,,,,,,,,,,,,f,26,wurui,2022_Apr_04_1447,emotion,2021.1.4,60.417740341988726,
29,50,0,50,one,50,0,50,,,,,0,3,3,28,,,,,,,,,,,left,3.844357999972999,80.64180629997281,None,80.64180629997281,None,84.52017939998768,None,84.52017939998768,None,84.52017939998768,None,86.49244030000409,86.99246229999699,86.49244030000409,86.99246229999699,86.49244030000409,86.99246229999699,84.52017939998768,None,87.02573625998339,None,87.02573625998339,None,87.02573625998339,None,0.011690560029819608,None,87.02573625998339,None,87.02573625998339,None,87.02573625998339,None,87.02573625998339,None,87.02573625998339,None,87.02573625998339,None,87.03462699998636,None,87.03462699998636,None,87.03462699998636,None,0.0045120600261725485,0.5045120600261725,87.03462699998636,None,87.03462699998636,None,87.03462699998636,None,87.03462699998636,None,87.03462699998636,None,87.03462699998636,None,89.02545930002816,89.02545930002816,50.0,5.114,250,-100,0,,,,,,,,,,,,,,,,,,,,,,,,,,,,,,,,,,,,,,,,,,,,,,,,,,,,,,,,,,,,,,,,,,,,,,,,,,,,,,,,,,,f,26,wurui,2022_Apr_04_1447,emotion,2021.1.4,60.417740341988726,
67,0,0,-50,two,0,0,-50,,,,,0,4,4,66,,,,,,,,,,,down,1.7853223999845795,94.19401360000484,None,94.19401360000484,None,96.01283119997242,None,96.01283119997242,None,96.01283119997242,None,97.99007459997665,98.49019590002717,97.99007459997665,98.49019590002717,97.99007459997665,98.49019590002717,96.01283119997242,None,98.5234537600074,None,98.5234537600074,None,98.5234537600074,None,0.01152006007032469,None,98.5234537600074,None,98.5234537600074,None,98.5234537600074,None,98.5234537600074,None,98.5234537600074,None,98.5234537600074,None,98.54638790001627,None,98.54638790001627,None,98.54638790001627,None,0.013758919958490878,0.5137589199584909,98.54638790001627,None,98.54638790001627,None,98.54638790001627,None,98.54638790001627,None,98.54638790001627,None,98.54638790001627,None,100.52312540001003,100.52312540001003,50.0,3.32,250,-100,-50,,,,,,,,,,,,,,,,,,,,,,,,,,,,,,,,,,,,,,,,,,,,,,,,,,,,,,,,,,,,,,,,,,,,,,,,,,,,,,,,,,,f,26,wurui,2022_Apr_04_1447,emotion,2021.1.4,60.417740341988726,
44,200,0,200,two,200,0,200,,,,,0,5,5,43,,,,,,,,,,,right,2.543926600017585,103.9207176999771,None,103.9207176999771,None,106.49417690001428,None,106.49417690001428,None,106.49417690001428,None,108.47149590001209,108.97140179999406,108.47149590001209,108.97140179999406,108.47149590001209,108.97140179999406,106.49417690001428,None,109.00445846001385,None,109.00445846001385,None,109.00445846001385,None,0.01158946007490158,None,109.00445846001385,None,109.00445846001385,None,109.00445846001385,None,109.00445846001385,None,109.00445846001385,None,109.00445846001385,None,109.02433089999249,None,109.02433089999249,None,109.02433089999249,None,0.009955619985703379,0.5099556199857034,109.02433089999249,None,109.02433089999249,None,109.02433089999249,None,109.02433089999249,None,109.02433089999249,None,109.02433089999249,None,111.00437159999274,111.00437159999274,50.0,2.376,450,-100,150,,,,,,,,,,,,,,,,,,,,,,,,,,,,,,,,,,,,,,,,,,,,,,,,,,,,,,,,,,,,,,,,,,,,,,,,,,,,,,,,,,,f,26,wurui,2022_Apr_04_1447,emotion,2021.1.4,60.417740341988726,
94,-200,-200,-50,two,-200,-200,-50,,,,,0,6,6,93,,,,,,,,,,,down,5.617301300051622,113.45195020001847,None,113.45195020001847,None,119.0907563000219,None,119.0907563000219,None,119.0907563000219,None,121.069058699999,121.56898580002598,121.069058699999,121.56898580002598,121.069058699999,121.56898580002598,119.0907563000219,None,121.60221155999461,None,121.60221155999461,None,121.60221155999461,None,0.01154485996812582,None,121.60221155999461,None,121.60221155999461,None,121.60221155999461,None,121.60221155999461,None,121.60221155999461,None,121.60221155999461,None,121.61180070001865,None,121.61180070001865,None,121.61180070001865,None,0.004619759973138571,0.5046197599731386,121.61180070001865,None,121.61180070001865,None,121.61180070001865,None,121.61180070001865,None,121.61180070001865,None,121.61180070001865,None,123.60189380001975,123.60189380001975,0.0,9.719,250,-300,100,,,,,,,,,,,,,,,,,,,,,,,,,,,,,,,,,,,,,,,,,,,,,,,,,,,,,,,,,,,,,,,,,,,,,,,,,,,,,,,,,,,f,26,wurui,2022_Apr_04_1447,emotion,2021.1.4,60.417740341988726,
49,0,-50,-200,one,0,-50,-200,,,,,0,7,7,48,,,,,,,,,,,down,2.409383699996397,133.38204910000786,None,133.38204910000786,None,135.8178035999881,None,135.8178035999881,None,135.8178035999881,None,137.79913050000323,138.29894000000786,137.79913050000323,138.29894000000786,137.79913050000323,138.29894000000786,135.8178035999881,None,138.3320378599921,None,138.3320378599921,None,138.3320378599921,None,0.011582459963392466,None,138.3320378599921,None,138.3320378599921,None,138.3320378599921,None,138.3320378599921,None,138.3320378599921,None,138.3320378599921,None,138.3417780000018,None,138.3417780000018,None,138.3417780000018,None,0.00407755997730419,0.5040775599773042,138.3417780000018,None,138.3417780000018,None,138.3417780000018,None,138.3417780000018,None,138.3417780000018,None,138.3417780000018,None,140.33198359998642,140.33198359998642,50.0,2.388,250,-350,-100,,,,,,,,,,,,,,,,,,,,,,,,,,,,,,,,,,,,,,,,,,,,,,,,,,,,,,,,,,,,,,,,,,,,,,,,,,,,,,,,,,,f,26,wurui,2022_Apr_04_1447,emotion,2021.1.4,60.417740341988726,
35,50,0,50,two,50,0,50,,,,,0,8,8,34,,,,,,,,,,,right,5.042217199981678,142.7774883999955,None,142.7774883999955,None,147.84694229997694,None,147.84694229997694,None,147.84694229997694,None,149.83015440002782,150.3296969999792,149.83015440002782,150.3296969999792,149.83015440002782,150.3296969999792,147.84694229997694,None,150.34631535997613,None,150.34631535997613,None,150.34631535997613,None,0.00963366002542898,None,150.34631535997613,None,150.34631535997613,None,150.34631535997613,None,150.34631535997613,None,150.34631535997613,None,150.34631535997613,None,150.3555442999932,None,150.3555442999932,None,150.3555442999932,None,0.0029298600275069475,0.502929860027507,150.3555442999932,None,150.3555442999932,None,150.3555442999932,None,150.3555442999932,None,150.3555442999932,None,150.3555442999932,None,152.34625750000123,152.34625750000123,50.0,3.934,300,-350,-50,,,,,,,,,,,,,,,,,,,,,,,,,,,,,,,,,,,,,,,,,,,,,,,,,,,,,,,,,,,,,,,,,,,,,,,,,,,,,,,,,,,f,26,wurui,2022_Apr_04_1447,emotion,2021.1.4,60.417740341988726,
79,-200,-50,-50,two,-200,-50,-50,,,,,0,9,9,78,,,,,,,,,,,right,5.663685499981511,156.33663879998494,None,156.33663879998494,None,162.03355350001948,None,162.03355350001948,None,162.03355350001948,None,164.01033050002297,164.51051870000083,164.01033050002297,164.51051870000083,164.01033050002297,164.51051870000083,162.03355350001948,None,164.54379405999788,None,164.54379405999788,None,164.54379405999788,None,0.011511560063809156,None,164.54379405999788,None,164.54379405999788,None,164.54379405999788,None,164.54379405999788,None,164.54379405999788,None,164.54379405999788,None,164.55315759999212,None,164.55315759999212,None,164.55315759999212,None,0.004305159964133054,0.504305159964133,164.55315759999212,None,164.55315759999212,None,164.55315759999212,None,164.55315759999212,None,164.55315759999212,None,164.55315759999212,None,166.54321199998958,166.54321199998958,-25.6,5.561,100,-400,-100,,,,,,,,,,,,,,,,,,,,,,,,,,,,,,,,,,,,,,,,,,,,,,,,,,,,,,,,,,,,,,,,,,,,,,,,,,,,,,,,,,,f,26,wurui,2022_Apr_04_1447,emotion,2021.1.4,60.417740341988726,
65,0,-200,0,one,0,-200,0,,,,,0,10,10,64,,,,,,,,,,,left,2.0839687999687158,172.15737229998922,None,172.15737229998922,None,174.2595656000194,None,174.2595656000194,None,174.2595656000194,None,176.24150180001743,176.74141020001844,176.24150180001743,176.74141020001844,176.24150180001743,176.74141020001844,174.2595656000194,None,176.7747134599951,None,176.7747134599951,None,176.7747134599951,None,0.011539260041899979,None,176.7747134599951,None,176.7747134599951,None,176.7747134599951,None,176.7747134599951,None,176.7747134599951,None,176.7747134599951,None,176.78356080001686,None,176.78356080001686,None,176.78356080001686,None,0.00450146000366658,0.5045014600036666,176.78356080001686,None,176.78356080001686,None,176.78356080001686,None,176.78356080001686,None,176.78356080001686,None,176.78356080001686,None,178.77424360002624,178.77424360002624,50.0,2.516,100,-600,-100,,,,,,,,,,,,,,,,,,,,,,,,,,,,,,,,,,,,,,,,,,,,,,,,,,,,,,,,,,,,,,,,,,,,,,,,,,,,,,,,,,,f,26,wurui,2022_Apr_04_1447,emotion,2021.1.4,60.417740341988726,
95,-200,-50,-200,two,-200,-50,-200,,,,,0,11,11,94,,,,,,,,,,,down,3.1751149999909103,181.34300890000304,None,181.34300890000304,None,184.53970640001353,None,184.53970640001353,None,184.53970640001353,None,186.5230628999998,187.0225634999806,186.5230628999998,187.0225634999806,186.5230628999998,187.0225634999806,184.53970640001353,None,187.03918185997753,None,187.03918185997753,None,187.03918185997753,None,0.009354160050861537,None,187.03918185997753,None,187.03918185997753,None,187.03918185997753,None,187.03918185997753,None,187.03918185997753,None,187.03918185997753,None,187.05262500001118,None,187.05262500001118,None,187.05262500001118,None,0.0004606599686667323,0.5004606599686667,187.05262500001118,None,187.05262500001118,None,187.05262500001118,None,187.05262500001118,None,187.05262500001118,None,187.05262500001118,None,189.03926089999732,189.03926089999732,-25.2,4.093,-100,-650,-300,,,,,,,,,,,,,,,,,,,,,,,,,,,,,,,,,,,,,,,,,,,,,,,,,,,,,,,,,,,,,,,,,,,,,,,,,,,,,,,,,,,f,26,wurui,2022_Apr_04_1447,emotion,2021.1.4,60.417740341988726,
40,200,200,50,one,200,200,50,,,,,0,12,12,39,,,,,,,,,,,down,1.4585272000404075,193.18789370002924,None,193.18789370002924,None,194.67923409998184,None,194.67923409998184,None,194.67923409998184,None,196.65415890002623,197.15404880000278,196.65415890002623,197.15404880000278,196.65415890002623,197.15404880000278,194.67923409998184,None,197.18736336000728,None,197.18736336000728,None,197.18736336000728,None,0.011729459976777434,None,197.18736336000728,None,197.18736336000728,None,197.18736336000728,None,197.18736336000728,None,197.18736336000728,None,197.18736336000728,None,197.1964495999855,None,197.1964495999855,None,197.1964495999855,None,0.0052380599663592875,0.5052380599663593,197.1964495999855,None,197.1964495999855,None,197.1964495999855,None,197.1964495999855,None,197.1964495999855,None,197.1964495999855,None,199.18699249997735,199.18699249997735,50.0,2.201,100,-450,-250,,,,,,,,,,,,,,,,,,,,,,,,,,,,,,,,,,,,,,,,,,,,,,,,,,,,,,,,,,,,,,,,,,,,,,,,,,,,,,,,,,,f,26,wurui,2022_Apr_04_1447,emotion,2021.1.4,60.417740341988726,
48,50,200,200,two,50,200,200,,,,,0,13,13,47,,,,,,,,,,,down,4.978196199983358,201.44966570002725,None,201.44966570002725,None,206.45717680000234,None,206.45717680000234,None,206.45717680000234,None,208.4351807999774,208.93505239998922,208.4351807999774,208.93505239998922,208.4351807999774,208.93505239998922,206.45717680000234,None,208.96833736000116,None,208.96833736000116,None,208.96833736000116,None,0.011445259966421872,None,208.96833736000116,None,208.96833736000116,None,208.96833736000116,None,208.96833736000116,None,208.96833736000116,None,208.96833736000116,None,208.97857869998552,None,208.97857869998552,None,208.97857869998552,None,0.0047843600041233,0.5047843600041233,208.97857869998552,None,208.97857869998552,None,208.97857869998552,None,208.97857869998552,None,208.97857869998552,None,208.97857869998552,None,210.9679062999785,210.9679062999785,24.799999999999997,4.168,150,-250,-50,,,,,,,,,,,,,,,,,,,,,,,,,,,,,,,,,,,,,,,,,,,,,,,,,,,,,,,,,,,,,,,,,,,,,,,,,,,,,,,,,,,f,26,wurui,2022_Apr_04_1447,emotion,2021.1.4,60.417740341988726,
24,200,0,0,two,200,0,0,,,,,0,14,14,23,,,,,,,,,,,left,3.3063288000412285,215.1886686999933,None,215.1886686999933,None,218.5192908999743,None,218.5192908999743,None,218.5192908999743,None,220.49917600001208,220.99939920002362,220.49917600001208,220.99939920002362,220.49917600001208,220.99939920002362,218.5192908999743,None,221.03265405998098,None,221.03265405998098,None,221.03265405998098,None,0.01174195995554328,None,221.03265405998098,None,221.03265405998098,None,221.03265405998098,None,221.03265405998098,None,221.03265405998098,None,221.03265405998098,None,221.0475578000187,None,221.0475578000187,None,221.0475578000187,None,0.014943920017685741,0.5149439200176857,221.0475578000187,None,221.0475578000187,None,221.0475578000187,None,221.0475578000187,None,221.0475578000187,None,221.0475578000187,None,223.03231839998625,223.03231839998625,50.0,4.334,350,-250,-50,,,,,,,,,,,,,,,,,,,,,,,,,,,,,,,,,,,,,,,,,,,,,,,,,,,,,,,,,,,,,,,,,,,,,,,,,,,,,,,,,,,f,26,wurui,2022_Apr_04_1447,emotion,2021.1.4,60.417740341988726,
61,0,0,-50,one,0,0,-50,,,,,0,15,15,60,,,,,,,,,,,left,1.7997757000266574,227.4299676999799,None,227.4299676999799,None,229.2477152000065,None,229.2477152000065,None,229.2477152000065,None,231.23067020002054,231.73055590002332,231.23067020002054,231.73055590002332,231.23067020002054,231.73055590002332,229.2477152000065,None,231.74717426002024,None,231.74717426002024,None,231.74717426002024,None,0.009641860087867826,None,231.74717426002024,None,231.74717426002024,None,231.74717426002024,None,231.74717426002024,None,231.74717426002024,None,231.74717426002024,None,231.75739550002618,None,231.75739550002618,None,231.75739550002618,None,0.0031791600049473345,0.5031791600049473,231.75739550002618,None,231.75739550002618,None,231.75739550002618,None,231.75739550002618,None,231.75739550002618,None,231.75739550002618,None,233.7468826000113,233.7468826000113,50.0,2.906,350,-250,-100,,,,,,,,,,,,,,,,,,,,,,,,,,,,,,,,,,,,,,,,,,,,,,,,,,,,,,,,,,,,,,,,,,,,,,,,,,,,,,,,,,,f,26,wurui,2022_Apr_04_1447,emotion,2021.1.4,60.417740341988726,
54,-200,0,-50,one,-200,0,-50,,,,,0,16,16,53,,,,,,,,,,,right,2.0572277999599464,236.71122280001873,None,236.71122280001873,None,238.79585529997712,None,238.79585529997712,None,238.79585529997712,None,240.7796885999851,None,240.7796885999851,None,240.7796885999851,None,238.79585529997712,None,241.31194091999203,None,241.31194091999203,None,241.31194091999203,None,0.014435320044867694,None,241.31194091999203,None,241.31194091999203,None,241.31194091999203,None,241.31194091999203,None,241.31194091999203,None,241.31194091999203,None,241.3193746000179,None,241.3193746000179,None,241.3193746000179,None,0.005933520034886897,0.5059335200348869,241.3193746000179,None,241.3193746000179,None,241.3193746000179,None,241.3193746000179,None,241.3193746000179,None,241.3193746000179,None,243.3114082000102,243.3114082000102,-50.0,3.464,150,-250,-150,,,,,,,,,,,,,,,,,,,,,,,,,,,,,,,,,,,,,,,,,,,,,,,,,,,,,,,,,,,,,,,,,,,,,,,,,,,,,,,,,,,f,26,wurui,2022_Apr_04_1447,emotion,2021.1.4,60.417740341988726,
14,0,50,0,one,0,50,0,,,,,0,17,17,13,,,,,,,,,,,down,3.7399202000233345,246.8280748000252,None,246.8280748000252,None,250.60091330000432,None,250.60091330000432,None,250.60091330000432,None,252.57628400000976,253.07638049998786,252.57628400000976,253.07638049998786,252.57628400000976,253.07638049998786,250.60091330000432,None,253.1095720599871,None,253.1095720599871,None,253.1095720599871,None,0.01137916004518047,None,253.1095720599871,None,253.1095720599871,None,253.1095720599871,None,253.1095720599871,None,253.1095720599871,None,253.1095720599871,None,253.11971960001392,None,253.11971960001392,None,253.11971960001392,None,0.004617759957909584,0.5046177599579096,253.11971960001392,None,253.11971960001392,None,253.11971960001392,None,253.11971960001392,None,253.11971960001392,None,253.11971960001392,None,255.10901219997322,255.10901219997322,24.5,2.543,150,-200,-150,,,,,,,,,,,,,,,,,,,,,,,,,,,,,,,,,,,,,,,,,,,,,,,,,,,,,,,,,,,,,,,,,,,,,,,,,,,,,,,,,,,f,26,wurui,2022_Apr_04_1447,emotion,2021.1.4,60.417740341988726,
47,200,50,200,two,200,50,200,,,,,0,18,18,46,,,,,,,,,,,right,1.758710100024473,257.7074875999824,None,257.7074875999824,None,259.4979570999858,None,259.4979570999858,None,259.4979570999858,None,261.4744193999795,261.9746079000179,261.4744193999795,261.9746079000179,261.4744193999795,261.9746079000179,259.4979570999858,None,262.00790726002305,None,262.00790726002305,None,262.00790726002305,None,0.0113552599796094,None,262.00790726002305,None,262.00790726002305,None,262.00790726002305,None,262.00790726002305,None,262.00790726002305,None,262.00790726002305,None,262.01771410001675,None,262.01771410001675,None,262.01771410001675,None,0.004203060001600534,0.5042030600016005,262.01771410001675,None,262.01771410001675,None,262.01771410001675,None,262.01771410001675,None,262.01771410001675,None,262.01771410001675,None,264.00743820000207,264.00743820000207,50.0,4.74,350,-150,50,,,,,,,,,,,,,,,,,,,,,,,,,,,,,,,,,,,,,,,,,,,,,,,,,,,,,,,,,,,,,,,,,,,,,,,,,,,,,,,,,,,f,26,wurui,2022_Apr_04_1447,emotion,2021.1.4,60.417740341988726,
25,200,50,50,one,200,50,50,,,,,0,19,19,24,,,,,,,,,,,left,2.7249709999887273,268.8049756999826,None,268.8049756999826,None,271.556451499986,None,271.556451499986,None,271.556451499986,None,273.53897029999644,274.03891439997824,273.53897029999644,274.03891439997824,273.53897029999644,274.03891439997824,271.556451499986,None,274.05553275997516,None,274.05553275997516,None,274.05553275997516,None,0.009551360039040446,None,274.05553275997516,None,274.05553275997516,None,274.05553275997516,None,274.05553275997516,None,274.05553275997516,None,274.05553275997516,None,274.06759210000746,None,274.06759210000746,None,274.06759210000746,None,0.003078759938944131,0.5030787599389441,274.06759210000746,None,274.06759210000746,None,274.06759210000746,None,274.06759210000746,None,274.06759210000746,None,274.06759210000746,None,276.0550387999974,276.0550387999974,50.0,2.849,550,-100,100,,,,,,,,,,,,,,,,,,,,,,,,,,,,,,,,,,,,,,,,,,,,,,,,,,,,,,,,,,,,,,,,,,,,,,,,,,,,,,,,,,,f,26,wurui,2022_Apr_04_1447,emotion,2021.1.4,60.417740341988726,
42,50,200,200,one,50,200,200,,,,,0,20,20,41,,,,,,,,,,,right,2.9956610000226647,278.9583224999951,None,278.9583224999951,None,281.9736834000214,None,281.9736834000214,None,281.9736834000214,None,283.9535450999974,284.45353519998025,283.9535450999974,284.45353519998025,283.9535450999974,284.45353519998025,281.9736834000214,None,284.4868175599724,None,284.4868175599724,None,284.4868175599724,None,0.011257859936449677,None,284.4868175599724,None,284.4868175599724,None,284.4868175599724,None,284.4868175599724,None,284.4868175599724,None,284.4868175599724,None,284.49647970002843,None,284.49647970002843,None,284.49647970002843,None,0.004084260028321296,0.5040842600283213,284.49647970002843,None,284.49647970002843,None,284.49647970002843,None,284.49647970002843,None,284.49647970002843,None,284.49647970002843,None,286.4864387999987,286.4864387999987,25.599999999999994,5.158,600,100,300,,,,,,,,,,,,,,,,,,,,,,,,,,,,,,,,,,,,,,,,,,,,,,,,,,,,,,,,,,,,,,,,,,,,,,,,,,,,,,,,,,,f,26,wurui,2022_Apr_04_1447,emotion,2021.1.4,60.417740341988726,
89,-200,-50,-200,one,-200,-50,-200,,,,,0,21,21,88,,,,,,,,,,,down,1.862268699973356,291.6993244999903,None,291.6993244999903,None,293.5909684000071,None,293.5909684000071,None,293.5909684000071,None,295.57067119999556,296.0845636000158,295.57067119999556,296.0845636000158,295.57067119999556,296.0845636000158,293.5909684000071,None,296.10118196001275,None,296.10118196001275,None,296.10118196001275,None,0.011463859991636127,None,296.10118196001275,None,296.10118196001275,None,296.10118196001275,None,296.10118196001275,None,296.10118196001275,None,296.10118196001275,None,296.10966100002406,None,296.10966100002406,None,296.10966100002406,None,0.004384459985885769,0.5043844599858858,296.10966100002406,None,296.10966100002406,None,296.10966100002406,None,296.10966100002406,None,296.10966100002406,None,296.10966100002406,None,298.1008388000191,298.1008388000191,49.7,2.359,400,50,100,,,,,,,,,,,,,,,,,,,,,,,,,,,,,,,,,,,,,,,,,,,,,,,,,,,,,,,,,,,,,,,,,,,,,,,,,,,,,,,,,,,f,26,wurui,2022_Apr_04_1447,emotion,2021.1.4,60.417740341988726,
52,-50,-200,0,one,-50,-200,0,,,,,0,22,22,51,,,,,,,,,,,down,3.5892194000189193,300.51582720002625,None,300.51582720002625,None,304.1388688000152,None,304.1388688000152,None,304.1388688000152,None,306.11585699999705,306.61581609997666,306.11585699999705,306.61581609997666,306.11585699999705,306.61581609997666,304.1388688000152,None,306.64910426001296,None,306.64910426001296,None,306.64910426001296,None,0.011557860067114234,None,306.64910426001296,None,306.64910426001296,None,306.64910426001296,None,306.64910426001296,None,306.64910426001296,None,306.64910426001296,None,306.65895900002215,None,306.65895900002215,None,306.65895900002215,None,0.004376759985461831,0.5043767599854618,306.65895900002215,None,306.65895900002215,None,306.65895900002215,None,306.65895900002215,None,306.65895900002215,None,306.65895900002215,None,308.64869379997253,308.64869379997253,8.600000000000001,6.329,350,-150,100,,,,,,,,,,,,,,,,,,,,,,,,,,,,,,,,,,,,,,,,,,,,,,,,,,,,,,,,,,,,,,,,,,,,,,,,,,,,,,,,,,,f,26,wurui,2022_Apr_04_1447,emotion,2021.1.4,60.417740341988726,
9,50,0,200,two,50,0,200,,,,,0,23,23,8,,,,,,,,,,,down,1.9568558000028133,315.03043019998586,None,315.03043019998586,None,317.01938210002845,None,317.01938210002845,None,317.01938210002845,None,318.9968917000224,319.49671039998066,318.9968917000224,319.49671039998066,318.9968917000224,319.49671039998066,317.01938210002845,None,319.53094506000633,None,319.53094506000633,None,319.53094506000633,None,0.006154560076538473,None,319.53094506000633,None,319.53094506000633,None,319.53094506000633,None,319.53094506000633,None,319.53094506000633,None,319.53094506000633,None,319.54602990002604,None,319.54602990002604,None,319.54602990002604,None,0.014891120023094118,0.5148911200230941,319.54602990002604,None,319.54602990002604,None,319.54602990002604,None,319.54602990002604,None,319.54602990002604,None,319.54602990002604,None,321.5305874000187,321.5305874000187,24.700000000000003,1.902,400,-150,300,,,,,,,,,,,,,,,,,,,,,,,,,,,,,,,,,,,,,,,,,,,,,,,,,,,,,,,,,,,,,,,,,,,,,,,,,,,,,,,,,,,f,26,wurui,2022_Apr_04_1447,emotion,2021.1.4,60.417740341988726,
62,0,-50,0,one,0,-50,0,,,,,0,24,24,61,,,,,,,,,,,left,2.5108307999907993,323.4892549000215,None,323.4892549000215,None,326.02864660002524,None,326.02864660002524,None,326.02864660002524,None,328.0115133000072,328.511230300006,328.0115133000072,328.511230300006,328.0115133000072,328.511230300006,326.02864660002524,None,328.5278486600029,None,328.5278486600029,None,328.5278486600029,None,0.009797459992114455,None,328.5278486600029,None,328.5278486600029,None,328.5278486600029,None,328.5278486600029,None,328.5278486600029,None,328.5278486600029,None,328.53862050001044,None,328.53862050001044,None,328.53862050001044,None,0.002870559983421117,0.5028705599834211,328.53862050001044,None,328.53862050001044,None,328.53862050001044,None,328.53862050001044,None,328.53862050001044,None,328.53862050001044,None,330.52773720002733,330.52773720002733,50.0,2.25,400,-200,300,,,,,,,,,,,,,,,,,,,,,,,,,,,,,,,,,,,,,,,,,,,,,,,,,,,,,,,,,,,,,,,,,,,,,,,,,,,,,,,,,,,f,26,wurui,2022_Apr_04_1447,emotion,2021.1.4,60.417740341988726,
82,0,-50,-50,two,0,-50,-50,,,,,0,25,25,81,,,,,,,,,,,left,1.530160500027705,332.8343208000297,None,332.8343208000297,None,334.3966650000075,None,334.3966650000075,None,334.3966650000075,None,336.3765109999804,336.87652350001736,336.3765109999804,336.87652350001736,336.3765109999804,336.87652350001736,334.3966650000075,None,336.90981655997456,None,336.90981655997456,None,336.90981655997456,None,0.011561560037080199,None,336.90981655997456,None,336.90981655997456,None,336.90981655997456,None,336.90981655997456,None,336.90981655997456,None,336.90981655997456,None,336.9196138000116,None,336.9196138000116,None,336.9196138000116,None,0.0042801599483937025,0.5042801599483937,336.9196138000116,None,336.9196138000116,None,336.9196138000116,None,336.9196138000116,None,336.9196138000116,None,336.9196138000116,None,338.91007619997254,338.91007619997254,50.0,2.167,400,-250,250,,,,,,,,,,,,,,,,,,,,,,,,,,,,,,,,,,,,,,,,,,,,,,,,,,,,,,,,,,,,,,,,,,,,,,,,,,,,,,,,,,,f,26,wurui,2022_Apr_04_1447,emotion,2021.1.4,60.417740341988726,
27,50,50,200,one,50,50,200,,,,,0,26,26,26,,,,,,,,,,,left,2.9863299999851733,341.12904480000725,None,341.12904480000725,None,344.1415804999997,None,344.1415804999997,None,344.1415804999997,None,346.1246062000282,346.62447979999706,346.1246062000282,346.62447979999706,346.1246062000282,346.62447979999706,344.1415804999997,None,346.641098159994,None,346.641098159994,None,346.641098159994,None,0.009268860041629523,None,346.641098159994,None,346.641098159994,None,346.641098159994,None,346.641098159994,None,346.641098159994,None,346.641098159994,None,346.6542040000204,None,346.6542040000204,None,346.6542040000204,None,0.01646271999925375,0.5164627199992537,346.6542040000204,None,346.6542040000204,None,346.6542040000204,None,346.6542040000204,None,346.6542040000204,None,346.6542040000204,None,348.62431089999154,348.62431089999154,12.5,4.749,450,-200,450,,,,,,,,,,,,,,,,,,,,,,,,,,,,,,,,,,,,,,,,,,,,,,,,,,,,,,,,,,,,,,,,,,,,,,,,,,,,,,,,,,,f,26,wurui,2022_Apr_04_1447,emotion,2021.1.4,60.417740341988726,
43,200,200,0,two,200,200,0,,,,,0,27,27,42,,,,,,,,,,,right,1.1078965999768116,353.4502561999834,None,353.4502561999834,None,354.57762860000366,None,354.57762860000366,None,354.57762860000366,None,356.5559739000164,357.0559854999883,356.5559739000164,357.0559854999883,356.5559739000164,357.0559854999883,354.57762860000366,None,357.08910955999744,None,357.08910955999744,None,357.08910955999744,None,0.010644959984347224,None,357.08910955999744,None,357.08910955999744,None,357.08910955999744,None,357.08910955999744,None,357.08910955999744,None,357.08910955999744,None,357.100520899985,None,357.100520899985,None,357.100520899985,None,0.0020376599859446287,0.5020376599859446,357.100520899985,None,357.100520899985,None,357.100520899985,None,357.100520899985,None,357.100520899985,None,357.100520899985,None,359.08881809999,359.08881809999,50.0,3.298,650,0,450,,,,,,,,,,,,,,,,,,,,,,,,,,,,,,,,,,,,,,,,,,,,,,,,,,,,,,,,,,,,,,,,,,,,,,,,,,,,,,,,,,,f,26,wurui,2022_Apr_04_1447,emotion,2021.1.4,60.417740341988726,
11,200,50,0,two,200,50,0,,,,,0,28,28,10,,,,,,,,,,,right,3.166467900038697,362.4391475999728,None,362.4391475999728,None,365.62414369999897,None,365.62414369999897,None,365.62414369999897,None,367.6040296999854,368.10371210001176,367.6040296999854,368.10371210001176,367.6040296999854,368.10371210001176,365.62414369999897,None,368.13697595997945,None,368.13697595997945,None,368.13697595997945,None,0.011544260021764785,None,368.13697595997945,None,368.13697595997945,None,368.13697595997945,None,368.13697595997945,None,368.13697595997945,None,368.13697595997945,None,368.14681569999084,None,368.14681569999084,None,368.14681569999084,None,0.004715559945907444,0.5047155599459074,368.14681569999084,None,368.14681569999084,None,368.14681569999084,None,368.14681569999084,None,368.14681569999084,None,368.14681569999084,None,370.1366323999828,370.1366323999828,50.0,1.715,850,50,450,,,,,,,,,,,,,,,,,,,,,,,,,,,,,,,,,,,,,,,,,,,,,,,,,,,,,,,,,,,,,,,,,,,,,,,,,,,,,,,,,,,f,26,wurui,2022_Apr_04_1447,emotion,2021.1.4,60.417740341988726,
30,50,50,0,one,50,50,0,,,,,0,29,29,29,,,,,,,,,,,right,2.286500500049442,371.91758599999594,None,371.91758599999594,None,374.2253504000255,None,374.2253504000255,None,374.2253504000255,None,376.2020900999778,376.701981500024,376.2020900999778,376.701981500024,376.2020900999778,376.701981500024,374.2253504000255,None,376.73533515997696,None,376.73533515997696,None,376.73533515997696,None,0.011769059987273067,None,376.73533515997696,None,376.73533515997696,None,376.73533515997696,None,376.73533515997696,None,376.73533515997696,None,376.73533515997696,None,376.74443229997996,None,376.74443229997996,None,376.74443229997996,None,0.005533859948627651,0.5055338599486277,376.74443229997996,None,376.74443229997996,None,376.74443229997996,None,376.74443229997996,None,376.74443229997996,None,376.74443229997996,None,378.734966500022,378.734966500022,50.0,3.742,900,100,450,,,,,,,,,,,,,,,,,,,,,,,,,,,,,,,,,,,,,,,,,,,,,,,,,,,,,,,,,,,,,,,,,,,,,,,,,,,,,,,,,,,f,26,wurui,2022_Apr_04_1447,emotion,2021.1.4,60.417740341988726,
66,-200,0,0,one,-200,0,0,,,,,0,30,30,65,,,,,,,,,,,down,3.1568344000261277,382.54925799998455,None,382.54925799998455,None,385.7349319999921,None,385.7349319999921,None,385.7349319999921,None,387.71678150002845,388.21665080002276,387.71678150002845,388.21665080002276,387.71678150002845,388.21665080002276,385.7349319999921,None,388.2494855599827,None,388.2494855599827,None,388.2494855599827,None,0.011383659963030368,None,388.2494855599827,None,388.2494855599827,None,388.2494855599827,None,388.2494855599827,None,388.2494855599827,None,388.2494855599827,None,388.2593982000253,None,388.2593982000253,None,388.2593982000253,None,0.004020059946924448,0.5040200599469244,388.2593982000253,None,388.2593982000253,None,388.2593982000253,None,388.2593982000253,None,388.2593982000253,None,388.2593982000253,None,390.24941879999824,390.24941879999824,-50.0,3.188,700,100,450,,,,,,,,,,,,,,,,,,,,,,,,,,,,,,,,,,,,,,,,,,,,,,,,,,,,,,,,,,,,,,,,,,,,,,,,,,,,,,,,,,,f,26,wurui,2022_Apr_04_1447,emotion,2021.1.4,60.417740341988726,
59,-200,-50,0,two,-200,-50,0,,,,,0,31,31,58,,,,,,,,,,,left,1.8545278999954462,393.49712020001607,None,393.49712020001607,None,395.3819694999838,None,395.3819694999838,None,395.3819694999838,None,397.3645267999964,397.8642796999775,397.3645267999964,397.8642796999775,397.3645267999964,397.8642796999775,395.3819694999838,None,397.8977921599755,None,397.8977921599755,None,397.8977921599755,None,0.011252259952016175,None,397.8977921599755,None,397.8977921599755,None,397.8977921599755,None,397.8977921599755,None,397.8977921599755,None,397.8977921599755,None,397.90712180000264,None,397.90712180000264,None,397.90712180000264,None,0.004368260037153959,0.504368260037154,397.90712180000264,None,397.90712180000264,None,397.90712180000264,None,397.90712180000264,None,397.90712180000264,None,397.90712180000264,None,399.8983780000126,399.8983780000126,-50.0,3.574,500,50,450,,,,,,,,,,,,,,,,,,,,,,,,,,,,,,,,,,,,,,,,,,,,,,,,,,,,,,,,,,,,,,,,,,,,,,,,,,,,,,,,,,,f,26,wurui,2022_Apr_04_1447,emotion,2021.1.4,60.417740341988726,
77,-50,0,-50,one,-50,0,-50,,,,,0,32,32,76,,,,,,,,,,,down,4.608813500031829,403.5298598000081,None,403.5298598000081,None,408.1629417000222,None,408.1629417000222,None,408.1629417000222,None,410.1459387000068,410.64529459999176,410.1459387000068,410.64529459999176,410.1459387000068,410.64529459999176,408.1629417000222,None,410.6787161599961,None,410.6787161599961,None,410.6787161599961,None,0.011524460045620799,None,410.6787161599961,None,410.6787161599961,None,410.6787161599961,None,410.6787161599961,None,410.6787161599961,None,410.6787161599961,None,410.6888542000088,None,410.6888542000088,None,410.6888542000088,None,0.004325560061261058,0.5043255600612611,410.6888542000088,None,410.6888542000088,None,410.6888542000088,None,410.6888542000088,None,410.6888542000088,None,410.6888542000088,None,412.67797149997205,412.67797149997205,-0.20000000000000284,5.114,450,50,400,,,,,,,,,,,,,,,,,,,,,,,,,,,,,,,,,,,,,,,,,,,,,,,,,,,,,,,,,,,,,,,,,,,,,,,,,,,,,,,,,,,f,26,wurui,2022_Apr_04_1447,emotion,2021.1.4,60.417740341988726,
28,0,50,50,one,0,50,50,,,,,0,33,33,27,,,,,,,,,,,right,4.2024359999923036,417.84796009998536,None,417.84796009998536,None,422.08171619998757,None,422.08171619998757,None,422.08171619998757,None,424.0590661999886,424.55921149998903,424.0590661999886,424.55921149998903,424.0590661999886,424.55921149998903,422.08171619998757,None,424.60913671999003,None,424.60913671999003,None,424.60913671999003,None,0.01543741999194026,None,424.60913671999003,None,424.60913671999003,None,424.60913671999003,None,424.60913671999003,None,424.60913671999003,None,424.60913671999003,None,424.614007199998,None,424.614007199998,None,424.614007199998,None,0.008748219988774508,0.5087482199887745,424.614007199998,None,424.614007199998,None,424.614007199998,None,424.614007199998,None,424.614007199998,None,424.614007199998,None,426.59217760001775,426.59217760001775,-11.600000000000001,2.679,450,100,450,,,,,,,,,,,,,,,,,,,,,,,,,,,,,,,,,,,,,,,,,,,,,,,,,,,,,,,,,,,,,,,,,,,,,,,,,,,,,,,,,,,f,26,wurui,2022_Apr_04_1447,emotion,2021.1.4,60.417740341988726,
19,0,0,50,two,0,0,50,,,,,0,34,34,18,,,,,,,,,,,right,4.273733199981507,429.34121199999936,None,429.34121199999936,None,433.6409905999899,None,433.6409905999899,None,433.6409905999899,None,435.6237323000096,436.1236305999919,435.6237323000096,436.1236305999919,435.6237323000096,436.1236305999919,433.6409905999899,None,436.1402489599888,None,436.1402489599888,None,436.1402489599888,None,0.009785759961232543,None,436.1402489599888,None,436.1402489599888,None,436.1402489599888,None,436.1402489599888,None,436.1402489599888,None,436.1402489599888,None,436.1515352000133,None,436.1515352000133,None,436.1515352000133,None,0.0031303600408136845,0.5031303600408137,436.1515352000133,None,436.1515352000133,None,436.1515352000133,None,436.1515352000133,None,436.1515352000133,None,436.1515352000133,None,438.1399099000264,438.1399099000264,0.0,19.753,450,100,500,,,,,,,,,,,,,,,,,,,,,,,,,,,,,,,,,,,,,,,,,,,,,,,,,,,,,,,,,,,,,,,,,,,,,,,,,,,,,,,,,,,f,26,wurui,2022_Apr_04_1447,emotion,2021.1.4,60.417740341988726,
33,50,50,200,two,50,50,200,,,,,0,35,35,32,,,,,,,,,,,down,1.6254371000104584,457.948303400015,None,457.948303400015,None,459.60221879999153,None,459.60221879999153,None,459.60221879999153,None,461.5852830000222,462.08517279999796,461.5852830000222,462.08517279999796,461.5852830000222,462.08517279999796,459.60221879999153,None,462.1017911599949,None,462.1017911599949,None,462.1017911599949,None,0.009600660006981343,None,462.1017911599949,None,462.1017911599949,None,462.1017911599949,None,462.1017911599949,None,462.1017911599949,None,462.1017911599949,None,462.1138329000096,None,462.1138329000096,None,462.1138329000096,None,0.0011355599854141474,0.5011355599854141,462.1138329000096,None,462.1138329000096,None,462.1138329000096,None,462.1138329000096,None,462.1138329000096,None,462.1138329000096,None,464.10142600000836,464.10142600000836,5.600000000000001,4.988,500,150,700,,,,,,,,,,,,,,,,,,,,,,,,,,,,,,,,,,,,,,,,,,,,,,,,,,,,,,,,,,,,,,,,,,,,,,,,,,,,,,,,,,,f,26,wurui,2022_Apr_04_1447,emotion,2021.1.4,60.417740341988726,
63,-50,0,0,one,-50,0,0,,,,,0,36,36,62,,,,,,,,,,,down,2.1216276999912225,469.1492341000121,None,469.1492341000121,None,471.30137000000104,None,471.30137000000104,None,471.30137000000104,None,473.28297449997626,473.7828427000204,473.28297449997626,473.7828427000204,473.28297449997626,473.7828427000204,471.30137000000104,None,473.81616386001696,None,473.81616386001696,None,473.81616386001696,None,0.0114485599915497,None,473.81616386001696,None,473.81616386001696,None,473.81616386001696,None,473.81616386001696,None,473.81616386001696,None,473.81616386001696,None,473.82574980001664,None,473.82574980001664,None,473.82574980001664,None,0.004587860021274537,0.5045878600212745,473.82574980001664,None,473.82574980001664,None,473.82574980001664,None,473.82574980001664,None,473.82574980001664,None,473.82574980001664,None,475.8158269000123,475.8158269000123,-30.6,1.884,450,150,700,,,,,,,,,,,,,,,,,,,,,,,,,,,,,,,,,,,,,,,,,,,,,,,,,,,,,,,,,,,,,,,,,,,,,,,,,,,,,,,,,,,f,26,wurui,2022_Apr_04_1447,emotion,2021.1.4,60.417740341988726,
70,0,0,-200,two,0,0,-200,,,,,0,37,37,69,,,,,,,,,,,down,3.736574099981226,477.7637789999717,None,477.7637789999717,None,481.52026690001367,None,481.52026690001367,None,481.52026690001367,None,483.49752670002636,483.9972214999725,483.49752670002636,483.9972214999725,483.49752670002636,483.9972214999725,481.52026690001367,None,484.030790159991,None,484.030790159991,None,484.030790159991,None,0.01120695995632559,None,484.030790159991,None,484.030790159991,None,484.030790159991,None,484.030790159991,None,484.030790159991,None,484.030790159991,None,484.0407773000188,None,484.0407773000188,None,484.0407773000188,None,0.00447476003319025,0.5044747600331903,484.0407773000188,None,484.0407773000188,None,484.0407773000188,None,484.0407773000188,None,484.0407773000188,None,484.0407773000188,None,486.0313257999951,486.0313257999951,50.0,2.445,450,150,500,,,,,,,,,,,,,,,,,,,,,,,,,,,,,,,,,,,,,,,,,,,,,,,,,,,,,,,,,,,,,,,,,,,,,,,,,,,,,,,,,,,f,26,wurui,2022_Apr_04_1447,emotion,2021.1.4,60.417740341988726,
83,-50,0,-50,two,-50,0,-50,,,,,0,38,38,82,,,,,,,,,,,down,1.5280003999941982,488.52980949997436,None,488.52980949997436,None,490.08370219997596,None,490.08370219997596,None,490.08370219997596,None,492.0625457999995,492.56249959999695,492.0625457999995,492.56249959999695,492.0625457999995,492.56249959999695,490.08370219997596,None,492.5957858600188,None,492.5957858600188,None,492.5957858600188,None,0.011720160022377968,None,492.5957858600188,None,492.5957858600188,None,492.5957858600188,None,492.5957858600188,None,492.5957858600188,None,492.5957858600188,None,492.6056088000187,None,492.6056088000187,None,492.6056088000187,None,0.003837260010186583,0.5038372600101866,492.6056088000187,None,492.6056088000187,None,492.6056088000187,None,492.6056088000187,None,492.6056088000187,None,492.6056088000187,None,494.5951939999941,494.5951939999941,-25.5,11.853,400,150,450,,,,,,,,,,,,,,,,,,,,,,,,,,,,,,,,,,,,,,,,,,,,,,,,,,,,,,,,,,,,,,,,,,,,,,,,,,,,,,,,,,,f,26,wurui,2022_Apr_04_1447,emotion,2021.1.4,60.417740341988726,
80,-50,-200,-50,two,-50,-200,-50,,,,,0,39,39,79,,,,,,,,,,,left,1.5084534999914467,506.50865560001694,None,506.50865560001694,None,508.0486552999937,None,508.0486552999937,None,508.0486552999937,None,510.025732900016,510.52553669997724,510.025732900016,510.52553669997724,510.025732900016,510.52553669997724,508.0486552999937,None,510.55885366,None,510.55885366,None,510.55885366,None,0.01091805996838957,None,510.55885366,None,510.55885366,None,510.55885366,None,510.55885366,None,510.55885366,None,510.55885366,None,510.585329500027,None,510.585329500027,None,510.585329500027,None,0.011512020020745695,0.5115120200207457,510.585329500027,None,510.585329500027,None,510.585329500027,None,510.585329500027,None,510.585329500027,None,510.585329500027,None,512.5596008999855,512.5596008999855,49.5,2.45,350,-50,400,,,,,,,,,,,,,,,,,,,,,,,,,,,,,,,,,,,,,,,,,,,,,,,,,,,,,,,,,,,,,,,,,,,,,,,,,,,,,,,,,,,f,26,wurui,2022_Apr_04_1447,emotion,2021.1.4,60.417740341988726,
5,200,50,0,one,200,50,0,,,,,0,40,40,4,,,,,,,,,,,down,2.696135400037747,515.0783817999763,None,515.0783817999763,None,517.7912681999733,None,517.7912681999733,None,517.7912681999733,None,519.7738010999747,520.273709799978,519.7738010999747,520.273709799978,519.7738010999747,520.273709799978,517.7912681999733,None,520.2903281599749,None,520.2903281599749,None,520.2903281599749,None,0.00971355993533507,None,520.2903281599749,None,520.2903281599749,None,520.2903281599749,None,520.2903281599749,None,520.2903281599749,None,520.2903281599749,None,520.3066681000055,None,520.3066681000055,None,520.3066681000055,None,0.013387119979597628,0.5133871199795976,520.3066681000055,None,520.3066681000055,None,520.3066681000055,None,520.3066681000055,None,520.3066681000055,None,520.3066681000055,None,522.2899813000113,522.2899813000113,50.0,3.568,550,0,400,,,,,,,,,,,,,,,,,,,,,,,,,,,,,,,,,,,,,,,,,,,,,,,,,,,,,,,,,,,,,,,,,,,,,,,,,,,,,,,,,,,f,26,wurui,2022_Apr_04_1447,emotion,2021.1.4,60.417740341988726,
3,50,0,200,one,50,0,200,,,,,0,41,41,2,,,,,,,,,,,right,1.65829459996894,525.9214395000017,None,525.9214395000017,None,527.6081897999975,None,527.6081897999975,None,527.6081897999975,None,529.5885498999851,530.0887827000115,529.5885498999851,530.0887827000115,529.5885498999851,530.0887827000115,527.6081897999975,None,530.1217201599968,None,530.1217201599968,None,530.1217201599968,None,0.011772359954193234,None,530.1217201599968,None,530.1217201599968,None,530.1217201599968,None,530.1217201599968,None,530.1217201599968,None,530.1217201599968,None,530.1312048999825,None,530.1312048999825,None,530.1312048999825,None,0.0053066599648445845,0.5053066599648446,530.1312048999825,None,530.1312048999825,None,530.1312048999825,None,530.1312048999825,None,530.1312048999825,None,530.1312048999825,None,532.1221662000171,532.1221662000171,25.099999999999994,2.519,600,0,600,,,,,,,,,,,,,,,,,,,,,,,,,,,,,,,,,,,,,,,,,,,,,,,,,,,,,,,,,,,,,,,,,,,,,,,,,,,,,,,,,,,f,26,wurui,2022_Apr_04_1447,emotion,2021.1.4,60.417740341988726,
75,-50,-50,-200,one,-50,-50,-200,,,,,0,42,42,74,,,,,,,,,,,right,3.0937515999539755,534.7049236000166,None,534.7049236000166,None,537.8243187000044,None,537.8243187000044,None,537.8243187000044,None,539.8031951999874,540.305371000024,539.8031951999874,540.305371000024,539.8031951999874,540.305371000024,537.8243187000044,None,540.3364294600208,None,540.3364294600208,None,540.3364294600208,None,0.011676259979140013,None,540.3364294600208,None,540.3364294600208,None,540.3364294600208,None,540.3364294600208,None,540.3364294600208,None,540.3364294600208,None,540.3467726000235,None,540.3467726000235,None,540.3467726000235,None,0.0031717600068077445,0.5031717600068077,540.3467726000235,None,540.3467726000235,None,540.3467726000235,None,540.3467726000235,None,540.3467726000235,None,540.3467726000235,None,542.3360365999979,542.3360365999979,50.0,2.923,550,-50,400,,,,,,,,,,,,,,,,,,,,,,,,,,,,,,,,,,,,,,,,,,,,,,,,,,,,,,,,,,,,,,,,,,,,,,,,,,,,,,,,,,,f,26,wurui,2022_Apr_04_1447,emotion,2021.1.4,60.417740341988726,
34,0,50,50,two,0,50,50,,,,,0,43,43,33,,,,,,,,,,,down,4.314128700003494,545.3195469999919,None,545.3195469999919,None,549.6536395999719,None,549.6536395999719,None,549.6536395999719,None,551.6340054000029,552.1338830000022,551.6340054000029,552.1338830000022,551.6340054000029,552.1338830000022,549.6536395999719,None,552.167328060011,None,552.167328060011,None,552.167328060011,None,0.01146945997606963,None,552.167328060011,None,552.167328060011,None,552.167328060011,None,552.167328060011,None,552.167328060011,None,552.167328060011,None,552.1773895000224,None,552.1773895000224,None,552.1773895000224,None,0.004227160068694502,0.5042271600686945,552.1773895000224,None,552.1773895000224,None,552.1773895000224,None,552.1773895000224,None,552.1773895000224,None,552.1773895000224,None,554.1669938000268,554.1669938000268,0.0,8.404,550,0,450,,,,,,,,,,,,,,,,,,,,,,,,,,,,,,,,,,,,,,,,,,,,,,,,,,,,,,,,,,,,,,,,,,,,,,,,,,,,,,,,,,,f,26,wurui,2022_Apr_04_1447,emotion,2021.1.4,60.417740341988726,
37,200,200,0,one,200,200,0,,,,,0,44,44,36,,,,,,,,,,,right,1.3418217999860644,562.6303118999931,None,562.6303118999931,None,563.9985584000242,None,563.9985584000242,None,563.9985584000242,None,565.9813542999909,566.4812498000101,565.9813542999909,566.4812498000101,565.9813542999909,566.4812498000101,563.9985584000242,None,566.4978681600071,None,566.4978681600071,None,566.4978681600071,None,0.009711959981359541,None,566.4978681600071,None,566.4978681600071,None,566.4978681600071,None,566.4978681600071,None,566.4978681600071,None,566.4978681600071,None,566.5087983999983,None,566.5087983999983,None,566.5087983999983,None,0.003112760023213923,0.5031127600232139,566.5087983999983,None,566.5087983999983,None,566.5087983999983,None,566.5087983999983,None,566.5087983999983,None,566.5087983999983,None,568.4975794000202,568.4975794000202,50.0,1.943,750,200,450,,,,,,,,,,,,,,,,,,,,,,,,,,,,,,,,,,,,,,,,,,,,,,,,,,,,,,,,,,,,,,,,,,,,,,,,,,,,,,,,,,,f,26,wurui,2022_Apr_04_1447,emotion,2021.1.4,60.417740341988726,
45,0,200,200,two,0,200,200,,,,,0,45,45,44,,,,,,,,,,,left,5.868808200000785,570.499853699992,None,570.499853699992,None,576.3962663999991,None,576.3962663999991,None,576.3962663999991,None,578.3791591000045,578.878807400004,578.3791591000045,578.878807400004,578.3791591000045,578.878807400004,576.3962663999991,None,578.895425760001,None,578.895425760001,None,578.895425760001,None,0.009345659986138344,None,578.895425760001,None,578.895425760001,None,578.895425760001,None,578.895425760001,None,578.895425760001,None,578.895425760001,None,578.9096361999982,None,578.9096361999982,None,578.9096361999982,None,6.616004975512624e-05,0.5000661600497551,578.9096361999982,None,578.9096361999982,None,578.9096361999982,None,578.9096361999982,None,578.9096361999982,None,578.9096361999982,None,580.8951464000274,580.8951464000274,-50.0,2.808,750,400,650,,,,,,,,,,,,,,,,,,,,,,,,,,,,,,,,,,,,,,,,,,,,,,,,,,,,,,,,,,,,,,,,,,,,,,,,,,,,,,,,,,,f,26,wurui,2022_Apr_04_1447,emotion,2021.1.4,60.417740341988726,
32,50,200,50,two,50,200,50,,,,,0,46,46,31,,,,,,,,,,,down,1.4640670000226237,583.7662410999765,None,583.7662410999765,None,585.2667914999765,None,585.2667914999765,None,585.2667914999765,None,587.2438489000197,587.7436185000115,587.2438489000197,587.7436185000115,587.2438489000197,587.7436185000115,585.2667914999765,None,587.7767958600191,None,587.7767958600191,None,587.7767958600191,None,0.011690460029058158,None,587.7767958600191,None,587.7767958600191,None,587.7767958600191,None,587.7767958600191,None,587.7767958600191,None,587.7767958600191,None,587.7861057000118,None,587.7861057000118,None,587.7861057000118,None,0.005398660083301365,0.5053986600833014,587.7861057000118,None,587.7861057000118,None,587.7861057000118,None,587.7861057000118,None,587.7861057000118,None,587.7861057000118,None,589.7766332000028,589.7766332000028,-25.3,3.478,800,600,700,,,,,,,,,,,,,,,,,,,,,,,,,,,,,,,,,,,,,,,,,,,,,,,,,,,,,,,,,,,,,,,,,,,,,,,,,,,,,,,,,,,f,26,wurui,2022_Apr_04_1447,emotion,2021.1.4,60.417740341988726,
23,0,200,0,two,0,200,0,,,,,0,47,47,22,,,,,,,,,,,right,0.7480603000149131,593.3102876999765,None,593.3102876999765,None,594.076146300009,None,594.076146300009,None,594.076146300009,None,596.058763100009,596.5593679000158,596.058763100009,596.5593679000158,596.058763100009,596.5593679000158,594.076146300009,None,596.5759862600128,None,596.5759862600128,None,596.5759862600128,None,0.009824460081290454,None,596.5759862600128,None,596.5759862600128,None,596.5759862600128,None,596.5759862600128,None,596.5759862600128,None,596.5759862600128,None,596.58810980001,None,596.58810980001,None,596.58810980001,None,0.001569859974551946,0.501569859974552,596.58810980001,None,596.58810980001,None,596.58810980001,None,596.58810980001,None,596.58810980001,None,596.58810980001,None,598.5749401000212,598.5749401000212,-27.1,6.141,800,800,700,,,,,,,,,,,,,,,,,,,,,,,,,,,,,,,,,,,,,,,,,,,,,,,,,,,,,,,,,,,,,,,,,,,,,,,,,,,,,,,,,,,f,26,wurui,2022_Apr_04_1447,emotion,2021.1.4,60.417740341988726,
93,0,-200,-200,two,0,-200,-200,,,,,0,48,48,92,,,,,,,,,,,right,2.2713609999627806,604.7743026000098,None,604.7743026000098,None,607.0731380999787,None,607.0731380999787,None,607.0731380999787,None,609.0562995999935,609.5559869999997,609.0562995999935,609.5559869999997,609.0562995999935,609.5559869999997,607.0731380999787,None,609.5726053599967,None,609.5726053599967,None,609.5726053599967,None,0.009392459993250668,None,609.5726053599967,None,609.5726053599967,None,609.5726053599967,None,609.5726053599967,None,609.5726053599967,None,609.5726053599967,None,609.5837643999839,None,609.5837643999839,None,609.5837643999839,None,0.002685960032977164,0.5026859600329772,609.5837643999839,None,609.5837643999839,None,609.5837643999839,None,609.5837643999839,None,609.5837643999839,None,609.5837643999839,None,611.5724105000263,611.5724105000263,50.0,2.911,800,600,500,,,,,,,,,,,,,,,,,,,,,,,,,,,,,,,,,,,,,,,,,,,,,,,,,,,,,,,,,,,,,,,,,,,,,,,,,,,,,,,,,,,f,26,wurui,2022_Apr_04_1447,emotion,2021.1.4,60.417740341988726,
22,0,0,200,two,0,0,200,,,,,0,49,49,21,,,,,,,,,,,left,1.735060099978,614.5475716000074,None,614.5475716000074,None,616.3145845999825,None,616.3145845999825,None,616.3145845999825,None,618.288656299992,618.8050473000039,618.288656299992,618.8050473000039,618.288656299992,618.8050473000039,616.3145845999825,None,618.8216656600009,None,618.8216656600009,None,618.8216656600009,None,0.010110260045621544,None,618.8216656600009,None,618.8216656600009,None,618.8216656600009,None,618.8216656600009,None,618.8216656600009,None,618.8216656600009,None,618.8389094999875,None,618.8389094999875,None,618.8389094999875,None,0.014000419992953539,0.5140004199929535,618.8389094999875,None,618.8389094999875,None,618.8389094999875,None,618.8389094999875,None,618.8389094999875,None,618.8389094999875,None,620.8205658000079,620.8205658000079,11.5,4.315,800,600,700,,,,,,,,,,,,,,,,,,,,,,,,,,,,,,,,,,,,,,,,,,,,,,,,,,,,,,,,,,,,,,,,,,,,,,,,,,,,,,,,,,,f,26,wurui,2022_Apr_04_1447,emotion,2021.1.4,60.417740341988726,
4,50,200,0,one,50,200,0,,,,,0,50,50,3,,,,,,,,,,,down,0.8577050000312738,625.2042469999869,None,625.2042469999869,None,626.0861349999905,None,626.0861349999905,None,626.0861349999905,None,628.0691353000002,628.5691559999832,628.0691353000002,628.5691559999832,628.0691353000002,628.5691559999832,626.0861349999905,None,628.5857743599802,None,628.5857743599802,None,628.5857743599802,None,0.008802959986496717,None,628.5857743599802,None,628.5857743599802,None,628.5857743599802,None,628.5857743599802,None,628.5857743599802,None,628.5857743599802,None,628.605609900027,None,628.605609900027,None,628.605609900027,None,0.009874419949483126,0.5098744199494831,628.605609900027,None,628.605609900027,None,628.605609900027,None,628.605609900027,None,628.605609900027,None,628.605609900027,None,630.5852159999777,630.5852159999777,-16.4,4.365,850,800,700,,,,,,,,,,,,,,,,,,,,,,,,,,,,,,,,,,,,,,,,,,,,,,,,,,,,,,,,,,,,,,,,,,,,,,,,,,,,,,,,,,,f,26,wurui,2022_Apr_04_1447,emotion,2021.1.4,60.417740341988726,
46,200,200,50,two,200,200,50,,,,,0,51,51,45,,,,,,,,,,,right,1.081809900002554,635.020034599991,None,635.020034599991,None,636.1180825000047,None,636.1180825000047,None,636.1180825000047,None,638.1004832999897,638.6003535999916,638.1004832999897,638.6003535999916,638.1004832999897,638.6003535999916,636.1180825000047,None,638.6336800599704,None,638.6336800599704,None,638.6336800599704,None,0.011511959950439632,None,638.6336800599704,None,638.6336800599704,None,638.6336800599704,None,638.6336800599704,None,638.6336800599704,None,638.6336800599704,None,638.6546188999782,None,638.6546188999782,None,638.6546188999782,None,0.008828420017380267,0.5088284200173803,638.6546188999782,None,638.6546188999782,None,638.6546188999782,None,638.6546188999782,None,638.6546188999782,None,638.6546188999782,None,640.6330609000288,640.6330609000288,50.0,5.641,1050,1000,750,,,,,,,,,,,,,,,,,,,,,,,,,,,,,,,,,,,,,,,,,,,,,,,,,,,,,,,,,,,,,,,,,,,,,,,,,,,,,,,,,,,f,26,wurui,2022_Apr_04_1447,emotion,2021.1.4,60.417740341988726,
96,-50,-200,-200,two,-50,-200,-200,,,,,0,52,52,95,,,,,,,,,,,down,1.0729559999890625,646.347465400002,None,646.347465400002,None,647.4486158000072,None,647.4486158000072,None,647.4486158000072,None,649.4313477000105,649.9314477000153,649.4313477000105,649.9314477000153,649.4313477000105,649.9314477000153,647.4486158000072,None,649.9480660600123,None,649.9480660600123,None,649.9480660600123,None,0.00896245997864753,None,649.9480660600123,None,649.9480660600123,None,649.9480660600123,None,649.9480660600123,None,649.9480660600123,None,649.9480660600123,None,649.9611672000028,None,649.9611672000028,None,649.9611672000028,None,0.000509359990246594,0.5005093599902466,649.9611672000028,None,649.9611672000028,None,649.9611672000028,None,649.9611672000028,None,649.9611672000028,None,649.9611672000028,None,651.947784900025,651.947784900025,50.0,4.49,1000,800,550,,,,,,,,,,,,,,,,,,,,,,,,,,,,,,,,,,,,,,,,,,,,,,,,,,,,,,,,,,,,,,,,,,,,,,,,,,,,,,,,,,,f,26,wurui,2022_Apr_04_1447,emotion,2021.1.4,60.417740341988726,
57,-50,0,-200,two,-50,0,-200,,,,,0,53,53,56,,,,,,,,,,,right,1.1806822999496944,656.4995106999995,None,656.4995106999995,None,657.6969879000098,None,657.6969879000098,None,657.6969879000098,None,659.6795412999927,660.1794415999902,659.6795412999927,660.1794415999902,659.6795412999927,660.1794415999902,657.6969879000098,None,660.1960599599872,None,660.1960599599872,None,660.1960599599872,None,0.009614360053092241,None,660.1960599599872,None,660.1960599599872,None,660.1960599599872,None,660.1960599599872,None,660.1960599599872,None,660.1960599599872,None,660.2071526999935,None,660.2071526999935,None,660.2071526999935,None,0.002306559996213764,0.5023065599962138,660.2071526999935,None,660.2071526999935,None,660.2071526999935,None,660.2071526999935,None,660.2071526999935,None,660.2071526999935,None,662.1955429000081,662.1955429000081,-2.799999999999997,4.643,950,800,350,,,,,,,,,,,,,,,,,,,,,,,,,,,,,,,,,,,,,,,,,,,,,,,,,,,,,,,,,,,,,,,,,,,,,,,,,,,,,,,,,,,f,26,wurui,2022_Apr_04_1447,emotion,2021.1.4,60.417740341988726,
12,200,0,50,two,200,0,50,,,,,0,54,54,11,,,,,,,,,,,right,0.72020329994848,666.8928610000294,None,666.8928610000294,None,667.6309794000117,None,667.6309794000117,None,667.6309794000117,None,669.6109023999888,670.110728700005,669.6109023999888,670.110728700005,669.6109023999888,670.110728700005,667.6309794000117,None,670.1441147599719,None,670.1441147599719,None,670.1441147599719,None,0.011280159931629896,None,670.1441147599719,None,670.1441147599719,None,670.1441147599719,None,670.1441147599719,None,670.1441147599719,None,670.1441147599719,None,670.1535247000284,None,670.1535247000284,None,670.1535247000284,None,0.004226259945426136,0.5042262599454261,670.1535247000284,None,670.1535247000284,None,670.1535247000284,None,670.1535247000284,None,670.1535247000284,None,670.1535247000284,None,672.1437828000053,672.1437828000053,50.0,1.842,1150,800,400,,,,,,,,,,,,,,,,,,,,,,,,,,,,,,,,,,,,,,,,,,,,,,,,,,,,,,,,,,,,,,,,,,,,,,,,,,,,,,,,,,,f,26,wurui,2022_Apr_04_1447,emotion,2021.1.4,60.417740341988726,
15,50,0,0,one,50,0,0,,,,,0,55,55,14,,,,,,,,,,,right,0.6930274000042118,674.0417566000251,None,674.0417566000251,None,674.7649215999991,None,674.7649215999991,None,674.7649215999991,None,676.7428481000243,677.2426154999994,676.7428481000243,677.2426154999994,676.7428481000243,677.2426154999994,674.7649215999991,None,677.275922160002,None,677.275922160002,None,677.275922160002,None,0.011673459957819432,None,677.275922160002,None,677.275922160002,None,677.275922160002,None,677.275922160002,None,677.275922160002,None,677.275922160002,None,677.2924811000121,None,677.2924811000121,None,677.2924811000121,None,0.005580360011663288,0.5055803600116633,677.2924811000121,None,677.2924811000121,None,677.2924811000121,None,677.2924811000121,None,677.2924811000121,None,677.2924811000121,None,679.2757538000005,679.2757538000005,50.0,1.722,1200,800,400,,,,,,,,,,,,,,,,,,,,,,,,,,,,,,,,,,,,,,,,,,,,,,,,,,,,,,,,,,,,,,,,,,,,,,,,,,,,,,,,,,,f,26,wurui,2022_Apr_04_1447,emotion,2021.1.4,60.417740341988726,
56,0,-200,-50,two,0,-200,-50,,,,,0,56,56,55,,,,,,,,,,,down,3.7756087000016123,681.051528299984,None,681.051528299984,None,684.8652400000137,None,684.8652400000137,None,684.8652400000137,None,686.8410861999728,687.3407634000177,686.8410861999728,687.3407634000177,686.8410861999728,687.3407634000177,684.8652400000137,None,687.374062760023,None,687.374062760023,None,687.374062760023,None,0.011509159987326711,None,687.374062760023,None,687.374062760023,None,687.374062760023,None,687.374062760023,None,687.374062760023,None,687.374062760023,None,687.3834783000057,None,687.3834783000057,None,687.3834783000057,None,0.0042408599983900785,0.5042408599983901,687.3834783000057,None,687.3834783000057,None,687.3834783000057,None,687.3834783000057,None,687.3834783000057,None,687.3834783000057,None,689.3736945000128,689.3736945000128,49.8,3.601,1200,600,350,,,,,,,,,,,,,,,,,,,,,,,,,,,,,,,,,,,,,,,,,,,,,,,,,,,,,,,,,,,,,,,,,,,,,,,,,,,,,,,,,,,f,26,wurui,2022_Apr_04_1447,emotion,2021.1.4,60.417740341988726,
51,-50,0,-200,one,-50,0,-200,,,,,0,57,57,50,,,,,,,,,,,down,1.4357830999651924,693.0251445000176,None,693.0251445000176,None,694.4942850000225,None,694.4942850000225,None,694.4942850000225,None,696.4723049000022,696.9722041999921,696.4723049000022,696.9722041999921,696.4723049000022,696.9722041999921,694.4942850000225,None,697.0054965600023,None,697.0054965600023,None,697.0054965600023,None,0.006644059962127358,None,697.0054965600023,None,697.0054965600023,None,697.0054965600023,None,697.0054965600023,None,697.0054965600023,None,697.0054965600023,None,697.0209534000023,None,697.0209534000023,None,697.0209534000023,None,0.01456022000638768,0.5145602200063877,697.0209534000023,None,697.0209534000023,None,697.0209534000023,None,697.0209534000023,None,697.0209534000023,None,697.0209534000023,None,699.0051425999845,699.0051425999845,8.799999999999997,2.359,1150,600,150,,,,,,,,,,,,,,,,,,,,,,,,,,,,,,,,,,,,,,,,,,,,,,,,,,,,,,,,,,,,,,,,,,,,,,,,,,,,,,,,,,,f,26,wurui,2022_Apr_04_1447,emotion,2021.1.4,60.417740341988726,
64,0,0,-200,one,0,0,-200,,,,,0,58,58,63,,,,,,,,,,,down,0.7112514000036754,701.4212082999875,None,701.4212082999875,None,702.1586443000124,None,702.1586443000124,None,702.1586443000124,None,704.1374484000262,704.637378400017,704.1374484000262,704.637378400017,704.1374484000262,704.637378400017,702.1586443000124,None,704.6706988600083,None,704.6706988600083,None,704.6706988600083,None,0.011577959987334907,None,704.6706988600083,None,704.6706988600083,None,704.6706988600083,None,704.6706988600083,None,704.6706988600083,None,704.6706988600083,None,704.6798889000202,None,704.6798889000202,None,704.6798889000202,None,0.004370159993413836,0.5043701599934138,704.6798889000202,None,704.6798889000202,None,704.6798889000202,None,704.6798889000202,None,704.6798889000202,None,704.6798889000202,None,706.6704710000195,706.6704710000195,50.0,2.54,1150,600,-50,,,,,,,,,,,,,,,,,,,,,,,,,,,,,,,,,,,,,,,,,,,,,,,,,,,,,,,,,,,,,,,,,,,,,,,,,,,,,,,,,,,f,26,wurui,2022_Apr_04_1447,emotion,2021.1.4,60.417740341988726,
10,50,200,0,two,50,200,0,,,,,0,59,59,9,,,,,,,,,,,left,0.7683490000199527,709.2697627000161,None,709.2697627000161,None,710.0538324000081,None,710.0538324000081,None,710.0538324000081,None,712.0358605000074,712.5357766000088,712.0358605000074,712.5357766000088,712.0358605000074,712.5357766000088,710.0538324000081,None,712.5692004599725,None,712.5692004599725,None,712.5692004599725,None,0.011223060020711273,None,712.5692004599725,None,712.5692004599725,None,712.5692004599725,None,712.5692004599725,None,712.5692004599725,None,712.5692004599725,None,712.5794495000155,None,712.5794495000155,None,712.5794495000155,None,0.004166759958025068,0.5041667599580251,712.5794495000155,None,712.5794495000155,None,712.5794495000155,None,712.5794495000155,None,712.5794495000155,None,712.5794495000155,None,714.5687752999947,714.5687752999947,-25.1,10.78,1200,800,-50,,,,,,,,,,,,,,,,,,,,,,,,,,,,,,,,,,,,,,,,,,,,,,,,,,,,,,,,,,,,,,,,,,,,,,,,,,,,,,,,,,,f,26,wurui,2022_Apr_04_1447,emotion,2021.1.4,60.417740341988726,
41,200,50,200,one,200,50,200,,,,,0,60,60,40,,,,,,,,,,,right,1.0372562000411563,725.4148231999716,None,725.4148231999716,None,726.4833223000169,None,726.4833223000169,None,726.4833223000169,None,728.4659950999776,728.9659064000007,728.4659950999776,728.9659064000007,728.4659950999776,728.9659064000007,726.4833223000169,None,728.9825247599977,None,728.9825247599977,None,728.9825247599977,None,0.009670859959442168,None,728.9825247599977,None,728.9825247599977,None,728.9825247599977,None,728.9825247599977,None,728.9825247599977,None,728.9825247599977,None,729.0081203000154,None,729.0081203000154,None,729.0081203000154,None,0.005065020057372749,0.5050650200573727,729.0081203000154,None,729.0081203000154,None,729.0081203000154,None,729.0081203000154,None,729.0081203000154,None,729.0081203000154,None,730.9988190000295,730.9988190000295,50.0,2.272,1400,850,150,,,,,,,,,,,,,,,,,,,,,,,,,,,,,,,,,,,,,,,,,,,,,,,,,,,,,,,,,,,,,,,,,,,,,,,,,,,,,,,,,,,f,26,wurui,2022_Apr_04_1447,emotion,2021.1.4,60.417740341988726,
86,-200,0,-200,one,-200,0,-200,,,,,0,61,61,85,,,,,,,,,,,down,0.6925065999967046,733.3301018999773,None,733.3301018999773,None,734.0538871000172,None,734.0538871000172,None,734.0538871000172,None,736.0311695000273,736.5310745000024,736.0311695000273,736.5310745000024,736.0311695000273,736.5310745000024,734.0538871000172,None,736.5643423600006,None,736.5643423600006,None,736.5643423600006,None,0.0111508599948138,None,736.5643423600006,None,736.5643423600006,None,736.5643423600006,None,736.5643423600006,None,736.5643423600006,None,736.5643423600006,None,736.5733386999927,None,736.5733386999927,None,736.5733386999927,None,0.004442359961103648,0.5044423599611036,736.5733386999927,None,736.5733386999927,None,736.5733386999927,None,736.5733386999927,None,736.5733386999927,None,736.5733386999927,None,738.5639670999954,738.5639670999954,-50.0,2.818,1200,850,-50,,,,,,,,,,,,,,,,,,,,,,,,,,,,,,,,,,,,,,,,,,,,,,,,,,,,,,,,,,,,,,,,,,,,,,,,,,,,,,,,,,,f,26,wurui,2022_Apr_04_1447,emotion,2021.1.4,60.417740341988726,
21,50,0,0,two,50,0,0,,,,,0,62,62,20,,,,,,,,,,,left,0.7982503999955952,741.4472849000013,None,741.4472849000013,None,742.2632202000241,None,742.2632202000241,None,742.2632202000241,None,744.2466165000224,744.7458077999763,744.2466165000224,744.7458077999763,744.2466165000224,744.7458077999763,742.2632202000241,None,744.7624261599733,None,744.7624261599733,None,744.7624261599733,None,0.0029073600308038294,None,744.7624261599733,None,744.7624261599733,None,744.7624261599733,None,744.7624261599733,None,744.7624261599733,None,744.7624261599733,None,744.7791259000078,None,744.7791259000078,None,744.7791259000078,None,0.012700519990175962,0.512700519990176,744.7791259000078,None,744.7791259000078,None,744.7791259000078,None,744.7791259000078,None,744.7791259000078,None,744.7791259000078,None,746.7650182999787,746.7650182999787,50.0,1.811,1250,850,-50,,,,,,,,,,,,,,,,,,,,,,,,,,,,,,,,,,,,,,,,,,,,,,,,,,,,,,,,,,,,,,,,,,,,,,,,,,,,,,,,,,,f,26,wurui,2022_Apr_04_1447,emotion,2021.1.4,60.417740341988726,
72,-200,0,0,two,-200,0,0,,,,,0,63,63,71,,,,,,,,,,,left,0.7422893000184558,748.6322887000279,None,748.6322887000279,None,749.3951513000065,None,749.3951513000065,None,749.3951513000065,None,751.3778521000058,751.8778352999943,751.3778521000058,751.8778352999943,751.3778521000058,751.8778352999943,749.3951513000065,None,751.8944536599913,None,751.8944536599913,None,751.8944536599913,None,0.009505159978289157,None,751.8944536599913,None,751.8944536599913,None,751.8944536599913,None,751.8944536599913,None,751.8944536599913,None,751.8944536599913,None,751.9069175000186,None,751.9069175000186,None,751.9069175000186,None,0.002392660011537373,0.5023926600115374,751.9069175000186,None,751.9069175000186,None,751.9069175000186,None,751.9069175000186,None,751.9069175000186,None,751.9069175000186,None,753.8943577000173,753.8943577000173,-50.0,3.345,1050,850,-50,,,,,,,,,,,,,,,,,,,,,,,,,,,,,,,,,,,,,,,,,,,,,,,,,,,,,,,,,,,,,,,,,,,,,,,,,,,,,,,,,,,f,26,wurui,2022_Apr_04_1447,emotion,2021.1.4,60.417740341988726,
81,-50,-50,-200,two,-50,-50,-200,,,,,0,64,64,80,,,,,,,,,,,down,0.838788699998986,757.2961383999791,None,757.2961383999791,None,758.1641683999915,None,758.1641683999915,None,758.1641683999915,None,760.1428860999877,760.642980900011,760.1428860999877,760.642980900011,760.1428860999877,760.642980900011,758.1641683999915,None,760.6762731600204,None,760.6762731600204,None,760.6762731600204,None,0.011327760003041476,None,760.6762731600204,None,760.6762731600204,None,760.6762731600204,None,760.6762731600204,None,760.6762731600204,None,760.6762731600204,None,760.6864534000051,None,760.6864534000051,None,760.6864534000051,None,0.004402860067784786,0.5044028600677848,760.6864534000051,None,760.6864534000051,None,760.6864534000051,None,760.6864534000051,None,760.6864534000051,None,760.6864534000051,None,762.6759619999793,762.6759619999793,0.0,13.236,1000,800,-250,,,,,,,,,,,,,,,,,,,,,,,,,,,,,,,,,,,,,,,,,,,,,,,,,,,,,,,,,,,,,,,,,,,,,,,,,,,,,,,,,,,f,26,wurui,2022_Apr_04_1447,emotion,2021.1.4,60.417740341988726,
50,0,-200,-50,one,0,-200,-50,,,,,0,65,65,49,,,,,,,,,,,right,1.1035457999678329,775.9716712000081,None,775.9716712000081,None,777.0935781999724,None,777.0935781999724,None,777.0935781999724,None,779.0726719999802,779.5726288000005,779.0726719999802,779.5726288000005,779.0726719999802,779.5726288000005,777.0935781999724,None,779.6059096599813,None,779.6059096599813,None,779.6059096599813,None,0.011556959943845868,None,779.6059096599813,None,779.6059096599813,None,779.6059096599813,None,779.6059096599813,None,779.6059096599813,None,779.6059096599813,None,779.6164064999903,None,779.6164064999903,None,779.6164064999903,None,0.004452759982086718,0.5044527599820867,779.6164064999903,None,779.6164064999903,None,779.6164064999903,None,779.6164064999903,None,779.6164064999903,None,779.6164064999903,None,781.6054451999953,781.6054451999953,50.0,1.821,1000,600,-300,,,,,,,,,,,,,,,,,,,,,,,,,,,,,,,,,,,,,,,,,,,,,,,,,,,,,,,,,,,,,,,,,,,,,,,,,,,,,,,,,,,f,26,wurui,2022_Apr_04_1447,emotion,2021.1.4,60.417740341988726,
84,-50,-50,0,two,-50,-50,0,,,,,0,66,66,83,,,,,,,,,,,down,0.8923849999555387,783.4782844000147,None,783.4782844000147,None,784.3881772999885,None,784.3881772999885,None,784.3881772999885,None,786.3710352000198,786.871169799997,786.3710352000198,786.871169799997,786.3710352000198,786.871169799997,784.3881772999885,None,786.887788159994,None,786.887788159994,None,786.887788159994,None,0.009611259971279651,None,786.887788159994,None,786.887788159994,None,786.887788159994,None,786.887788159994,None,786.887788159994,None,786.887788159994,None,786.9006697000004,None,786.9006697000004,None,786.9006697000004,None,0.0018952599493786693,0.5018952599493787,786.9006697000004,None,786.9006697000004,None,786.9006697000004,None,786.9006697000004,None,786.9006697000004,None,786.9006697000004,None,788.8877714999835,788.8877714999835,-7.299999999999997,1.992,950,550,-300,,,,,,,,,,,,,,,,,,,,,,,,,,,,,,,,,,,,,,,,,,,,,,,,,,,,,,,,,,,,,,,,,,,,,,,,,,,,,,,,,,,f,26,wurui,2022_Apr_04_1447,emotion,2021.1.4,60.417740341988726,
20,0,50,0,two,0,50,0,,,,,0,67,67,19,,,,,,,,,,,right,1.604048800014425,790.9349811000284,None,790.9349811000284,None,792.5712842000066,None,792.5712842000066,None,792.5712842000066,None,794.5530578999897,795.0526474000071,794.5530578999897,795.0526474000071,794.5530578999897,795.0526474000071,792.5712842000066,None,795.0860421599821,None,795.0860421599821,None,795.0860421599821,None,0.011505159956868738,None,795.0860421599821,None,795.0860421599821,None,795.0860421599821,None,795.0860421599821,None,795.0860421599821,None,795.0860421599821,None,795.0964230999816,None,795.0964230999816,None,795.0964230999816,None,0.0043579599587246776,0.5043579599587247,795.0964230999816,None,795.0964230999816,None,795.0964230999816,None,795.0964230999816,None,795.0964230999816,None,795.0964230999816,None,797.0857218999881,797.0857218999881,-14.0,9.13,950,600,-300,,,,,,,,,,,,,,,,,,,,,,,,,,,,,,,,,,,,,,,,,,,,,,,,,,,,,,,,,,,,,,,,,,,,,,,,,,,,,,,,,,,f,26,wurui,2022_Apr_04_1447,emotion,2021.1.4,60.417740341988726,
55,0,-50,-200,two,0,-50,-200,,,,,0,68,68,54,,,,,,,,,,,right,1.0328351999633014,806.2864548999933,None,806.2864548999933,None,807.3427055000211,None,807.3427055000211,None,807.3427055000211,None,809.317989800009,809.832990600029,809.317989800009,809.832990600029,809.317989800009,809.832990600029,807.3427055000211,None,809.849608960026,None,809.849608960026,None,809.849608960026,None,0.011556359997484833,None,809.849608960026,None,809.849608960026,None,809.849608960026,None,809.849608960026,None,809.849608960026,None,809.849608960026,None,809.8687954000197,None,809.8687954000197,None,809.8687954000197,None,0.011124120035674423,0.5111241200356744,809.8687954000197,None,809.8687954000197,None,809.8687954000197,None,809.8687954000197,None,809.8687954000197,None,809.8687954000197,None,811.8495583999902,811.8495583999902,50.0,1.563,950,550,-500,,,,,,,,,,,,,,,,,,,,,,,,,,,,,,,,,,,,,,,,,,,,,,,,,,,,,,,,,,,,,,,,,,,,,,,,,,,,,,,,,,,f,26,wurui,2022_Apr_04_1447,emotion,2021.1.4,60.417740341988726,
2,0,200,50,one,0,200,50,,,,,0,69,69,1,,,,,,,,,,,down,0.6286496999673545,813.486727999989,None,813.486727999989,None,814.1330805000034,None,814.1330805000034,None,814.1330805000034,None,816.1153244000161,816.6152761999983,816.1153244000161,816.6152761999983,816.1153244000161,816.6152761999983,814.1330805000034,None,816.6485833600047,None,816.6485833600047,None,816.6485833600047,None,0.011357060051523149,None,816.6485833600047,None,816.6485833600047,None,816.6485833600047,None,816.6485833600047,None,816.6485833600047,None,816.6485833600047,None,816.677640000009,None,816.677640000009,None,816.677640000009,None,0.010719820042140782,0.5107198200421408,816.677640000009,None,816.677640000009,None,816.677640000009,None,816.677640000009,None,816.677640000009,None,816.677640000009,None,818.6482912999927,818.6482912999927,-49.8,3.527,950,750,-450,,,,,,,,,,,,,,,,,,,,,,,,,,,,,,,,,,,,,,,,,,,,,,,,,,,,,,,,,,,,,,,,,,,,,,,,,,,,,,,,,,,f,26,wurui,2022_Apr_04_1447,emotion,2021.1.4,60.417740341988726,
60,-200,0,-50,two,-200,0,-50,,,,,0,70,70,59,,,,,,,,,,,left,0.9751397999934852,822.2477577999816,None,822.2477577999816,None,823.2496037000092,None,823.2496037000092,None,823.2496037000092,None,825.2302445999812,825.7301369999768,825.2302445999812,825.7301369999768,825.2302445999812,825.7301369999768,823.2496037000092,None,825.7634253600147,None,825.7634253600147,None,825.7634253600147,None,0.011491260083857924,None,825.7634253600147,None,825.7634253600147,None,825.7634253600147,None,825.7634253600147,None,825.7634253600147,None,825.7634253600147,None,825.7737051000004,None,825.7737051000004,None,825.7737051000004,None,0.004577260056976229,0.5045772600569762,825.7737051000004,None,825.7737051000004,None,825.7737051000004,None,825.7737051000004,None,825.7737051000004,None,825.7737051000004,None,827.7630448000273,827.7630448000273,-50.0,2.558,750,750,-500,,,,,,,,,,,,,,,,,,,,,,,,,,,,,,,,,,,,,,,,,,,,,,,,,,,,,,,,,,,,,,,,,,,,,,,,,,,,,,,,,,,f,26,wurui,2022_Apr_04_1447,emotion,2021.1.4,60.417740341988726,
7,0,50,200,two,0,50,200,,,,,0,71,71,6,,,,,,,,,,,left,1.1202784000197425,830.377820099995,None,830.377820099995,None,831.5186554000247,None,831.5186554000247,None,831.5186554000247,None,833.495297299989,833.9952032999718,833.495297299989,833.9952032999718,833.495297299989,833.9952032999718,831.5186554000247,None,834.0284676600015,None,834.0284676600015,None,834.0284676600015,None,0.011424559983424842,None,834.0284676600015,None,834.0284676600015,None,834.0284676600015,None,834.0284676600015,None,834.0284676600015,None,834.0284676600015,None,834.0372770000249,None,834.0372770000249,None,834.0372770000249,None,0.004207960038911551,0.5042079600389116,834.0372770000249,None,834.0372770000249,None,834.0372770000249,None,834.0372770000249,None,834.0372770000249,None,834.0372770000249,None,836.028069299995,836.028069299995,-50.0,2.31,750,800,-300,,,,,,,,,,,,,,,,,,,,,,,,,,,,,,,,,,,,,,,,,,,,,,,,,,,,,,,,,,,,,,,,,,,,,,,,,,,,,,,,,,,f,26,wurui,2022_Apr_04_1447,emotion,2021.1.4,60.417740341988726,
1,0,50,200,one,0,50,200,,,,,0,72,72,0,,,,,,,,,,,down,0.5456567000364885,838.3928675000207,None,838.3928675000207,None,838.9607566000195,None,838.9607566000195,None,838.9607566000195,None,840.9439112999826,841.4437375999987,840.9439112999826,841.4437375999987,840.9439112999826,841.4437375999987,838.9607566000195,None,841.4603559599957,None,841.4603559599957,None,841.4603559599957,None,0.00869896006770432,None,841.4603559599957,None,841.4603559599957,None,841.4603559599957,None,841.4603559599957,None,841.4603559599957,None,841.4603559599957,None,841.4868805999868,None,841.4868805999868,None,841.4868805999868,None,0.015676520008128136,0.5156765200081281,841.4868805999868,None,841.4868805999868,None,841.4868805999868,None,841.4868805999868,None,841.4868805999868,None,841.4868805999868,None,843.4608193999738,843.4608193999738,-50.0,6.911,750,850,-100,,,,,,,,,,,,,,,,,,,,,,,,,,,,,,,,,,,,,,,,,,,,,,,,,,,,,,,,,,,,,,,,,,,,,,,,,,,,,,,,,,,f,26,wurui,2022_Apr_04_1447,emotion,2021.1.4,60.417740341988726,
88,-200,-200,-50,one,-200,-200,-50,,,,,0,73,73,87,,,,,,,,,,,down,0.4931654999963939,850.4581449999823,None,850.4581449999823,None,850.9750676000258,None,850.9750676000258,None,850.9750676000258,None,852.9580207000254,853.4579878000077,852.9580207000254,853.4579878000077,852.9580207000254,853.4579878000077,850.9750676000258,None,853.4746061600047,None,853.4746061600047,None,853.4746061600047,None,0.00959226000122726,None,853.4746061600047,None,853.4746061600047,None,853.4746061600047,None,853.4746061600047,None,853.4746061600047,None,853.4746061600047,None,853.4861277000164,None,853.4861277000164,None,853.4861277000164,None,0.0017160600400529802,0.501716060040053,853.4861277000164,None,853.4861277000164,None,853.4861277000164,None,853.4861277000164,None,853.4861277000164,None,853.4861277000164,None,855.4740826999769,855.4740826999769,-30.4,3.13,550,650,-150,,,,,,,,,,,,,,,,,,,,,,,,,,,,,,,,,,,,,,,,,,,,,,,,,,,,,,,,,,,,,,,,,,,,,,,,,,,,,,,,,,,f,26,wurui,2022_Apr_04_1447,emotion,2021.1.4,60.417740341988726,
90,-50,-200,-200,one,-50,-200,-200,,,,,0,74,74,89,,,,,,,,,,,down,0.8045143999624997,858.6569358999841,None,858.6569358999841,None,859.4972147999797,None,859.4972147999797,None,859.4972147999797,None,861.4731312000076,861.972789100022,861.4731312000076,861.972789100022,861.4731312000076,861.972789100022,859.4972147999797,None,862.0062175600208,None,862.0062175600208,None,862.0062175600208,None,0.01104105997364968,None,862.0062175600208,None,862.0062175600208,None,862.0062175600208,None,862.0062175600208,None,862.0062175600208,None,862.0062175600208,None,862.0163658999954,None,862.0163658999954,None,862.0163658999954,None,0.004048460046760738,0.5040484600467607,862.0163658999954,None,862.0163658999954,None,862.0163658999954,None,862.0163658999954,None,862.0163658999954,None,862.0163658999954,None,864.0060183000169,864.0060183000169,50.0,1.619,500,450,-350,,,,,,,,,,,,,,,,,,,,,,,,,,,,,,,,,,,,,,,,,,,,,,,,,,,,,,,,,,,,,,,,,,,,,,,,,,,,,,,,,,,f,26,wurui,2022_Apr_04_1447,emotion,2021.1.4,60.417740341988726,
85,-200,-200,0,one,-200,-200,0,,,,,0,75,75,84,,,,,,,,,,,right,0.8444769000052474,865.6878942999756,None,865.6878942999756,None,866.5561367999762,None,866.5561367999762,None,866.5561367999762,None,868.5385130000068,869.0382951999782,868.5385130000068,869.0382951999782,868.5385130000068,869.0382951999782,866.5561367999762,None,869.0712769600098,None,869.0712769600098,None,869.0712769600098,None,0.011492259975057095,None,869.0712769600098,None,869.0712769600098,None,869.0712769600098,None,869.0712769600098,None,869.0712769600098,None,869.0712769600098,None,869.0812766000163,None,869.0812766000163,None,869.0812766000163,None,0.004571360070258379,0.5045713600702584,869.0812766000163,None,869.0812766000163,None,869.0812766000163,None,869.0812766000163,None,869.0812766000163,None,869.0812766000163,None,871.071226799977,871.071226799977,0.0,16.271,300,250,-350,,,,,,,,,,,,,,,,,,,,,,,,,,,,,,,,,,,,,,,,,,,,,,,,,,,,,,,,,,,,,,,,,,,,,,,,,,,,,,,,,,,f,26,wurui,2022_Apr_04_1447,emotion,2021.1.4,60.417740341988726,
69,-50,0,0,two,-50,0,0,,,,,0,76,76,68,,,,,,,,,,,right,0.925644300004933,887.3997073000064,None,887.3997073000064,None,888.3536543999799,None,888.3536543999799,None,888.3536543999799,None,890.3340883000055,890.8340432000114,890.3340883000055,890.8340432000114,890.3340883000055,890.8340432000114,888.3536543999799,None,890.8673144599773,None,890.8673144599773,None,890.8673144599773,None,0.010880960035137832,None,890.8673144599773,None,890.8673144599773,None,890.8673144599773,None,890.8673144599773,None,890.8673144599773,None,890.8673144599773,None,890.8774060999858,None,890.8774060999858,None,890.8774060999858,None,0.003915360022801906,0.5039153600228019,890.8774060999858,None,890.8774060999858,None,890.8774060999858,None,890.8774060999858,None,890.8774060999858,None,890.8774060999858,None,892.8672986999736,892.8672986999736,-50.0,2.724,250,250,-350,,,,,,,,,,,,,,,,,,,,,,,,,,,,,,,,,,,,,,,,,,,,,,,,,,,,,,,,,,,,,,,,,,,,,,,,,,,,,,,,,,,f,26,wurui,2022_Apr_04_1447,emotion,2021.1.4,60.417740341988726,
17,0,200,0,one,0,200,0,,,,,0,77,77,16,,,,,,,,,,,left,1.0700626999605447,895.6481217999826,None,895.6481217999826,None,896.7545852999901,None,896.7545852999901,None,896.7545852999901,None,898.7324313999852,899.2323627999867,898.7324313999852,899.2323627999867,898.7324313999852,899.2323627999867,896.7545852999901,None,899.2656113600126,None,899.2656113600126,None,899.2656113600126,None,0.011514259967952967,None,899.2656113600126,None,899.2656113600126,None,899.2656113600126,None,899.2656113600126,None,899.2656113600126,None,899.2656113600126,None,899.2757119999733,None,899.2757119999733,None,899.2757119999733,None,0.00454006006475538,0.5045400600647554,899.2757119999733,None,899.2757119999733,None,899.2757119999733,None,899.2757119999733,None,899.2757119999733,None,899.2757119999733,None,901.2654687999748,901.2654687999748,-24.8,7.632,250,450,-350,,,,,,,,,,,,,,,,,,,,,,,,,,,,,,,,,,,,,,,,,,,,,,,,,,,,,,,,,,,,,,,,,,,,,,,,,,,,,,,,,,,f,26,wurui,2022_Apr_04_1447,emotion,2021.1.4,60.417740341988726,
91,-200,-200,0,two,-200,-200,0,,,,,0,78,78,90,,,,,,,,,,,down,0.8610066000255756,908.9534175000153,None,908.9534175000153,None,909.8342412000056,None,909.8342412000056,None,909.8342412000056,None,911.8131920999731,912.3130954999942,911.8131920999731,912.3130954999942,911.8131920999731,912.3130954999942,909.8342412000056,None,912.3465580600198,None,912.3465580600198,None,912.3465580600198,None,0.005583960039075464,None,912.3465580600198,None,912.3465580600198,None,912.3465580600198,None,912.3465580600198,None,912.3465580600198,None,912.3465580600198,None,912.3784647000139,None,912.3784647000139,None,912.3784647000139,None,0.005501220060978085,0.5055012200609781,912.3784647000139,None,912.3784647000139,None,912.3784647000139,None,912.3784647000139,None,912.3784647000139,None,912.3784647000139,None,914.3627348999726,914.3627348999726,-50.0,3.821,50,250,-350,,,,,,,,,,,,,,,,,,,,,,,,,,,,,,,,,,,,,,,,,,,,,,,,,,,,,,,,,,,,,,,,,,,,,,,,,,,,,,,,,,,f,26,wurui,2022_Apr_04_1447,emotion,2021.1.4,60.417740341988726,
87,0,-200,-200,one,0,-200,-200,,,,,0,79,79,86,,,,,,,,,,,down,1.1965193999931216,918.243615799991,None,918.243615799991,None,919.4657958999742,None,919.4657958999742,None,919.4657958999742,None,921.4446143999812,921.9445348000154,921.4446143999812,921.9445348000154,921.4446143999812,921.9445348000154,919.4657958999742,None,921.9778028600151,None,921.9778028600151,None,921.9778028600151,None,0.0115849599824287,None,921.9778028600151,None,921.9778028600151,None,921.9778028600151,None,921.9778028600151,None,921.9778028600151,None,921.9778028600151,None,922.0012084000045,None,922.0012084000045,None,922.0012084000045,None,0.004865959985181689,0.5048659599851817,922.0012084000045,None,922.0012084000045,None,922.0012084000045,None,922.0012084000045,None,922.0012084000045,None,922.0012084000045,None,923.9774118000059,923.9774118000059,50.0,2.086,50,50,-550,,,,,,,,,,,,,,,,,,,,,,,,,,,,,,,,,,,,,,,,,,,,,,,,,,,,,,,,,,,,,,,,,,,,,,,,,,,,,,,,,,,f,26,wurui,2022_Apr_04_1447,emotion,2021.1.4,60.417740341988726,
78,-50,-50,0,one,-50,-50,0,,,,,0,80,80,77,,,,,,,,,,,down,0.4154380999971181,926.1419157999917,None,926.1419157999917,None,926.5775690000155,None,926.5775690000155,None,926.5775690000155,None,928.5598870000103,929.0596952000051,928.5598870000103,929.0596952000051,928.5598870000103,929.0596952000051,926.5775690000155,None,929.0930923599983,None,929.0930923599983,None,929.0930923599983,None,0.01161445997422561,None,929.0930923599983,None,929.0930923599983,None,929.0930923599983,None,929.0930923599983,None,929.0930923599983,None,929.0930923599983,None,929.1031414999743,None,929.1031414999743,None,929.1031414999743,None,0.0044342599576339126,0.5044342599576339,929.1031414999743,None,929.1031414999743,None,929.1031414999743,None,929.1031414999743,None,929.1031414999743,None,929.1031414999743,None,931.0924943999853,931.0924943999853,-2.700000000000003,5.734,0,0,-550,,,,,,,,,,,,,,,,,,,,,,,,,,,,,,,,,,,,,,,,,,,,,,,,,,,,,,,,,,,,,,,,,,,,,,,,,,,,,,,,,,,f,26,wurui,2022_Apr_04_1447,emotion,2021.1.4,60.417740341988726,
26,50,200,50,one,50,200,50,,,,,0,81,81,25,,,,,,,,,,,down,0.44960719998925924,936.8904100999935,None,936.8904100999935,None,937.3580447999993,None,937.3580447999993,None,937.3580447999993,None,939.3409871999756,939.8410232000169,939.3409871999756,939.8410232000169,939.3409871999756,939.8410232000169,937.3580447999993,None,939.8576415600139,None,939.8576415600139,None,939.8576415600139,None,0.009797859995160252,None,939.8576415600139,None,939.8576415600139,None,939.8576415600139,None,939.8576415600139,None,939.8576415600139,None,939.8576415600139,None,939.8676046999753,None,939.8676046999753,None,939.8676046999753,None,0.0034204599796794355,0.5034204599796794,939.8676046999753,None,939.8676046999753,None,939.8676046999753,None,939.8676046999753,None,939.8676046999753,None,939.8676046999753,None,941.8573067000252,941.8573067000252,-13.200000000000003,6.67,50,200,-500,,,,,,,,,,,,,,,,,,,,,,,,,,,,,,,,,,,,,,,,,,,,,,,,,,,,,,,,,,,,,,,,,,,,,,,,,,,,,,,,,,,f,26,wurui,2022_Apr_04_1447,emotion,2021.1.4,60.417740341988726,
6,200,0,50,one,200,0,50,,,,,0,82,82,5,,,,,,,,,,,left,1.2033692999975756,948.587664199993,None,948.587664199993,None,949.8114721999737,None,949.8114721999737,None,949.8114721999737,None,951.7886410999927,952.2884195999941,951.7886410999927,952.2884195999941,951.7886410999927,952.2884195999941,949.8114721999737,None,952.3227548599709,None,952.3227548599709,None,952.3227548599709,None,0.011546959984116256,None,952.3227548599709,None,952.3227548599709,None,952.3227548599709,None,952.3227548599709,None,952.3227548599709,None,952.3227548599709,None,952.3312352999928,None,952.3312352999928,None,952.3312352999928,None,0.004702259961050004,0.50470225996105,952.3312352999928,None,952.3312352999928,None,952.3312352999928,None,952.3312352999928,None,952.3312352999928,None,952.3312352999928,None,954.3214745000005,954.3214745000005,50.0,3.695,250,200,-450,,,,,,,,,,,,,,,,,,,,,,,,,,,,,,,,,,,,,,,,,,,,,,,,,,,,,,,,,,,,,,,,,,,,,,,,,,,,,,,,,,,f,26,wurui,2022_Apr_04_1447,emotion,2021.1.4,60.417740341988726,
68,0,-50,0,two,0,-50,0,,,,,0,83,83,67,,,,,,,,,,,down,0.3688168000080623,958.0705327999895,None,958.0705327999895,None,958.4580132000265,None,958.4580132000265,None,958.4580132000265,None,960.4367339999881,960.936723300023,960.4367339999881,960.936723300023,960.4367339999881,960.936723300023,958.4580132000265,None,960.9867486199714,None,960.9867486199714,None,960.9867486199714,None,0.014370119955856353,None,960.9867486199714,None,960.9867486199714,None,960.9867486199714,None,960.9867486199714,None,960.9867486199714,None,960.9867486199714,None,961.013437799993,None,961.013437799993,None,961.013437799993,None,0.011681379924993962,0.511681379924994,961.013437799993,None,961.013437799993,None,961.013437799993,None,961.013437799993,None,961.013437799993,None,961.013437799993,None,962.9865284999833,962.9865284999833,50.0,1.774,250,150,-450,,,,,,,,,,,,,,,,,,,,,,,,,,,,,,,,,,,,,,,,,,,,,,,,,,,,,,,,,,,,,,,,,,,,,,,,,,,,,,,,,,,f,26,wurui,2022_Apr_04_1447,emotion,2021.1.4,60.417740341988726,
36,50,50,0,two,50,50,0,,,,,0,84,84,35,,,,,,,,,,,down,0.35430529998848215,964.8344507000293,None,964.8344507000293,None,965.2196420999826,None,965.2196420999826,None,965.2196420999826,None,967.2021607999923,967.7021600999869,967.2021607999923,967.7021600999869,967.2021607999923,967.7021600999869,965.2196420999826,None,967.7353968199809,None,967.7353968199809,None,967.7353968199809,None,0.013950219959951937,None,967.7353968199809,None,967.7353968199809,None,967.7353968199809,None,967.7353968199809,None,967.7353968199809,None,967.7353968199809,None,967.7413800000213,None,967.7413800000213,None,967.7413800000213,None,0.0072010200237855315,0.5072010200237855,967.7413800000213,None,967.7413800000213,None,967.7413800000213,None,967.7413800000213,None,967.7413800000213,None,967.7413800000213,None,969.7351204999723,969.7351204999723,0.0,4.828,300,200,-450,,,,,,,,,,,,,,,,,,,,,,,,,,,,,,,,,,,,,,,,,,,,,,,,,,,,,,,,,,,,,,,,,,,,,,,,,,,,,,,,,,,f,26,wurui,2022_Apr_04_1447,emotion,2021.1.4,60.417740341988726,
8,0,200,50,two,0,200,50,,,,,0,85,85,7,,,,,,,,,,,right,1.241001199989114,974.6391026999918,None,974.6391026999918,None,975.9156040999806,None,975.9156040999806,None,975.9156040999806,None,977.8831032000016,978.3838626000215,977.8831032000016,978.3838626000215,977.8831032000016,978.3838626000215,975.9156040999806,None,978.4174802600057,None,978.4174802600057,None,978.4174802600057,None,0.004231160040944815,None,978.4174802600057,None,978.4174802600057,None,978.4174802600057,None,978.4174802600057,None,978.4174802600057,None,978.4174802600057,None,978.4326497999718,None,978.4326497999718,None,978.4326497999718,None,0.013816520047839731,0.5138165200478397,978.4326497999718,None,978.4326497999718,None,978.4326497999718,None,978.4326497999718,None,978.4326497999718,None,978.4326497999718,None,980.4163546999916,980.4163546999916,-50.0,2.421,300,400,-400,,,,,,,,,,,,,,,,,,,,,,,,,,,,,,,,,,,,,,,,,,,,,,,,,,,,,,,,,,,,,,,,,,,,,,,,,,,,,,,,,,,f,26,wurui,2022_Apr_04_1447,emotion,2021.1.4,60.417740341988726,
31,200,50,50,two,200,50,50,,,,,0,86,86,30,,,,,,,,,,,down,1.0324313000310212,982.8987479999778,None,982.8987479999778,None,983.9496330000111,None,983.9496330000111,None,983.9496330000111,None,985.931968000019,986.4318860999774,985.931968000019,986.4318860999774,985.931968000019,986.4318860999774,983.9496330000111,None,986.4652557599941,None,986.4652557599941,None,986.4652557599941,None,0.01136426004813984,None,986.4652557599941,None,986.4652557599941,None,986.4652557599941,None,986.4652557599941,None,986.4652557599941,None,986.4652557599941,None,986.4738412000006,None,986.4738412000006,None,986.4738412000006,None,0.004692460002843291,0.5046924600028433,986.4738412000006,None,986.4738412000006,None,986.4738412000006,None,986.4738412000006,None,986.4738412000006,None,986.4738412000006,None,988.4647716999752,988.4647716999752,50.0,1.498,500,450,-350,,,,,,,,,,,,,,,,,,,,,,,,,,,,,,,,,,,,,,,,,,,,,,,,,,,,,,,,,,,,,,,,,,,,,,,,,,,,,,,,,,,f,26,wurui,2022_Apr_04_1447,emotion,2021.1.4,60.417740341988726,
73,-200,-50,-50,one,-200,-50,-50,,,,,0,87,87,72,,,,,,,,,,,down,0.49756449996493757,990.0205631999997,None,990.0205631999997,None,990.547895500029,None,990.547895500029,None,990.547895500029,None,992.5303545999923,993.0303004999878,992.5303545999923,993.0303004999878,992.5303545999923,993.0303004999878,990.547895500029,None,993.0469188599848,None,993.0469188599848,None,993.0469188599848,None,0.009714060055557638,None,993.0469188599848,None,993.0469188599848,None,993.0469188599848,None,993.0469188599848,None,993.0469188599848,None,993.0469188599848,None,993.0570444000186,None,993.0570444000186,None,993.0570444000186,None,0.003206860041245818,0.5032068600412458,993.0570444000186,None,993.0570444000186,None,993.0570444000186,None,993.0570444000186,None,993.0570444000186,None,993.0570444000186,None,995.0468420999823,995.0468420999823,-50.0,3.62,300,400,-400,,,,,,,,,,,,,,,,,,,,,,,,,,,,,,,,,,,,,,,,,,,,,,,,,,,,,,,,,,,,,,,,,,,,,,,,,,,,,,,,,,,f,26,wurui,2022_Apr_04_1447,emotion,2021.1.4,60.417740341988726,
13,0,0,50,one,0,0,50,,,,,0,88,88,12,,,,,,,,,,,right,0.7264564000070095,998.7335898000165,None,998.7335898000165,None,999.4837428000174,None,999.4837428000174,None,999.4837428000174,None,1001.4621858000173,1001.962079000019,1001.4621858000173,1001.962079000019,1001.4621858000173,1001.962079000019,999.4837428000174,None,1001.9953694600147,None,1001.9953694600147,None,1001.9953694600147,None,0.006526159995701164,None,1001.9953694600147,None,1001.9953694600147,None,1001.9953694600147,None,1001.9953694600147,None,1001.9953694600147,None,1001.9953694600147,None,1002.0097120000282,None,1002.0097120000282,None,1002.0097120000282,None,0.015237619983963668,0.5152376199839637,1002.0097120000282,None,1002.0097120000282,None,1002.0097120000282,None,1002.0097120000282,None,1002.0097120000282,None,1002.0097120000282,None,1003.9948174000019,1003.9948174000019,-13.100000000000001,4.215,300,400,-350,,,,,,,,,,,,,,,,,,,,,,,,,,,,,,,,,,,,,,,,,,,,,,,,,,,,,,,,,,,,,,,,,,,,,,,,,,,,,,,,,,,f,26,wurui,2022_Apr_04_1447,emotion,2021.1.4,60.417740341988726,
38,200,0,200,one,200,0,200,,,,,0,89,89,37,,,,,,,,,,,down,0.5905656000250019,1008.2625642999774,None,1008.2625642999774,None,1008.8835567000206,None,1008.8835567000206,None,1008.8835567000206,None,1010.8603004000033,1011.3599583000178,1010.8603004000033,1011.3599583000178,1010.8603004000033,1011.3599583000178,1008.8835567000206,None,1011.3934278599802,None,1011.3934278599802,None,1011.3934278599802,None,0.006218560039997101,None,1011.3934278599802,None,1011.3934278599802,None,1011.3934278599802,None,1011.3934278599802,None,1011.3934278599802,None,1011.3934278599802,None,1011.4122779999743,None,1011.4122779999743,None,1011.4122779999743,None,0.012676020036451519,0.5126760200364515,1011.4122779999743,None,1011.4122779999743,None,1011.4122779999743,None,1011.4122779999743,None,1011.4122779999743,None,1011.4122779999743,None,1013.3940694999765,1013.3940694999765,50.0,1.692,500,400,-150,,,,,,,,,,,,,,,,,,,,,,,,,,,,,,,,,,,,,,,,,,,,,,,,,,,,,,,,,,,,,,,,,,,,,,,,,,,,,,,,,,,f,26,wurui,2022_Apr_04_1447,emotion,2021.1.4,60.417740341988726,
58,-50,-200,0,two,-50,-200,0,,,,,0,90,90,57,,,,,,,,,,,down,0.46977099997457117,1015.1580315000028,None,1015.1580315000028,None,1015.6459117999766,None,1015.6459117999766,None,1015.6459117999766,None,1017.6256602000212,1018.1256671000156,1017.6256602000212,1018.1256671000156,1017.6256602000212,1018.1256671000156,1015.6459117999766,None,1018.1588793599979,None,1018.1588793599979,None,1018.1588793599979,None,0.01146356004755944,None,1018.1588793599979,None,1018.1588793599979,None,1018.1588793599979,None,1018.1588793599979,None,1018.1588793599979,None,1018.1588793599979,None,1018.1684605000191,None,1018.1684605000191,None,1018.1684605000191,None,0.004184159974101931,0.5041841599741019,1018.1684605000191,None,1018.1684605000191,None,1018.1684605000191,None,1018.1684605000191,None,1018.1684605000191,None,1018.1684605000191,None,1020.1585158000235,1020.1585158000235,24.700000000000003,3.683,450,200,-150,,,,,,,,,,,,,,,,,,,,,,,,,,,,,,,,,,,,,,,,,,,,,,,,,,,,,,,,,,,,,,,,,,,,,,,,,,,,,,,,,,,f,26,wurui,2022_Apr_04_1447,emotion,2021.1.4,60.417740341988726,
39,0,200,200,one,0,200,200,,,,,0,91,91,38,,,,,,,,,,,down,0.6251207999885082,1023.8929395999876,None,1023.8929395999876,None,1024.540875900013,None,1024.540875900013,None,1024.540875900013,None,1026.5238016999792,1027.0238310000277,1026.5238016999792,1027.0238310000277,1026.5238016999792,1027.0238310000277,1024.540875900013,None,1027.0404493600247,None,1027.0404493600247,None,1027.0404493600247,None,0.009133560000918806,None,1027.0404493600247,None,1027.0404493600247,None,1027.0404493600247,None,1027.0404493600247,None,1027.0404493600247,None,1027.0404493600247,None,1027.0538889999734,None,1027.0538889999734,None,1027.0538889999734,None,0.00025685998843982816,0.5002568599884398,1027.0538889999734,None,1027.0538889999734,None,1027.0538889999734,None,1027.0538889999734,None,1027.0538889999734,None,1027.0538889999734,None,1029.0400780999917,1029.0400780999917,-50.0,3.566,450,400,50,,,,,,,,,,,,,,,,,,,,,,,,,,,,,,,,,,,,,,,,,,,,,,,,,,,,,,,,,,,,,,,,,,,,,,,,,,,,,,,,,,,f,26,wurui,2022_Apr_04_1447,emotion,2021.1.4,60.417740341988726,
92,-200,0,-200,two,-200,0,-200,,,,,0,92,92,91,,,,,,,,,,,down,0.395458500017412,1032.665497799986,None,1032.665497799986,None,1033.0941238999949,None,1033.0941238999949,None,1033.0941238999949,None,1035.072217000008,1035.5721132999752,1035.072217000008,1035.5721132999752,1035.072217000008,1035.5721132999752,1033.0941238999949,None,1035.6051021600026,None,1035.6051021600026,None,1035.6051021600026,None,0.011661960044875741,None,1035.6051021600026,None,1035.6051021600026,None,1035.6051021600026,None,1035.6051021600026,None,1035.6051021600026,None,1035.6051021600026,None,1035.6150149999885,None,1035.6150149999885,None,1035.6150149999885,None,0.003968959965277463,0.5039689599652775,1035.6150149999885,None,1035.6150149999885,None,1035.6150149999885,None,1035.6150149999885,None,1035.6150149999885,None,1035.6150149999885,None,1037.604776400025,1037.604776400025,-24.2,2.077,250,400,-150,,,,,,,,,,,,,,,,,,,,,,,,,,,,,,,,,,,,,,,,,,,,,,,,,,,,,,,,,,,,,,,,,,,,,,,,,,,,,,,,,,,f,26,wurui,2022_Apr_04_1447,emotion,2021.1.4,60.417740341988726,
16,0,0,200,one,0,0,200,,,,,0,93,93,15,,,,,,,,,,,down,0.4390545000205748,1039.7531915999716,None,1039.7531915999716,None,1040.2218990999972,None,1040.2218990999972,None,1040.2218990999972,None,1042.2041335999966,1042.7041032999987,1042.2041335999966,1042.7041032999987,1042.2041335999966,1042.7041032999987,1040.2218990999972,None,1042.737844459992,None,1042.737844459992,None,1042.737844459992,None,0.006720260018482804,None,1042.737844459992,None,1042.737844459992,None,1042.737844459992,None,1042.737844459992,None,1042.737844459992,None,1042.737844459992,None,1042.7606429000152,None,1042.7606429000152,None,1042.7606429000152,None,0.01034062000690028,0.5103406200069003,1042.7606429000152,None,1042.7606429000152,None,1042.7606429000152,None,1042.7606429000152,None,1042.7606429000152,None,1042.7606429000152,None,1044.737098600017,1044.737098600017,-41.2,4.625,250,400,50,,,,,,,,,,,,,,,,,,,,,,,,,,,,,,,,,,,,,,,,,,,,,,,,,,,,,,,,,,,,,,,,,,,,,,,,,,,,,,,,,,,f,26,wurui,2022_Apr_04_1447,emotion,2021.1.4,60.417740341988726,
71,0,-200,0,two,0,-200,0,,,,,0,94,94,70,,,,,,,,,,,left,0.7273606999660842,1049.4362455999944,None,1049.4362455999944,None,1050.1865371000022,None,1050.1865371000022,None,1050.1865371000022,None,1052.1688729000161,1052.6687294000294,1052.1688729000161,1052.6687294000294,1052.1688729000161,1052.6687294000294,1050.1865371000022,None,1052.718653919967,None,1052.718653919967,None,1052.718653919967,None,0.014489619992673397,None,1052.718653919967,None,1052.718653919967,None,1052.718653919967,None,1052.718653919967,None,1052.718653919967,None,1052.718653919967,None,1052.7235349999974,None,1052.7235349999974,None,1052.7235349999974,None,0.00807671999791637,0.5080767199979164,1052.7235349999974,None,1052.7235349999974,None,1052.7235349999974,None,1052.7235349999974,None,1052.7235349999974,None,1052.7235349999974,None,1054.7015759000205,1054.7015759000205,50.0,1.77,250,200,50,,,,,,,,,,,,,,,,,,,,,,,,,,,,,,,,,,,,,,,,,,,,,,,,,,,,,,,,,,,,,,,,,,,,,,,,,,,,,,,,,,,f,26,wurui,2022_Apr_04_1447,emotion,2021.1.4,60.417740341988726,
