trialNumber,mychoice,otherchoice,stay,skip,pointsWon,otherScore,unobtained,choicepos,pos_1,otherscore,allowedkeyresp,trials_2.thisRepN,trials_2.thisTrialN,trials_2.thisN,trials_2.thisIndex,trials.thisRepN,trials.thisTrialN,trials.thisN,trials.thisIndex,image_2.started,image_2.stopped,key_resp_2.keys,key_resp_2.rt,key_resp_2.started,key_resp_2.stopped,key_resp_6.keys,key_resp_6.rt,key_resp_6.started,key_resp_6.stopped,text.started,text.stopped,left_3.started,left_3.stopped,middle_3.started,middle_3.stopped,right_3.started,right_3.stopped,otherleft_1.started,otherleft_1.stopped,othermiddle_1.started,othermiddle_1.stopped,otherright_1.started,otherright_1.stopped,text_2.started,text_2.stopped,left_4.started,left_4.stopped,right_4.started,right_4.stopped,middle_4.started,middle_4.stopped,ISI_3.started,ISI_3.stopped,mypick.started,mypick.stopped,otherpick.started,otherpick.stopped,residal.started,residal.stopped,otherleft_5.started,otherleft_5.stopped,othermiddle_5.started,othermiddle_5.stopped,otherright_5.started,otherright_5.stopped,left_5.started,left_5.stopped,right_5.started,right_5.stopped,middle_5.started,middle_5.stopped,ISI_5.started,ISI_5.stopped,mypick_1.started,mypick_1.stopped,otherpick_1.started,otherpick_1.stopped,residal_1.started,residal_1.stopped,otherleft_6.started,otherleft_6.stopped,othermiddle_6.started,othermiddle_6.stopped,otherright_6.started,otherright_6.stopped,text_3.started,text_3.stopped,rating,ratingrt,totalScore,othertotalScore,unobtainedScore,image_4.started,image_4.stopped,key_resp_3.keys,key_resp_3.rt,key_resp_3.started,key_resp_3.stopped,image_5.started,image_5.stopped,key_resp.keys,key_resp.rt,key_resp.started,key_resp.stopped,otherleft_3.started,otherleft_3.stopped,othermiddle_3.started,othermiddle_3.stopped,otherright_3.started,otherright_3.stopped,text_4.started,text_4.stopped,ISI_2.started,ISI_2.stopped,key_resp_4.keys,key_resp_4.rt,key_resp_4.started,key_resp_4.stopped,otherleft_4.started,otherleft_4.stopped,othermiddle_4.started,othermiddle_4.stopped,otherright_4.started,otherright_4.stopped,text_5.started,text_5.stopped,left.started,left.stopped,right.started,right.stopped,middle.started,middle.stopped,ISI.started,ISI.stopped,mypick_3.started,mypick_3.stopped,otherpick_3.started,otherpick_3.stopped,residal_3.started,residal_3.stopped,otherleft.started,otherleft.stopped,othermiddle.started,othermiddle.stopped,otherright.started,otherright.stopped,right_2.started,right_2.stopped,middle_2.started,middle_2.stopped,left_2.started,left_2.stopped,ISI_4.started,ISI_4.stopped,mypick_4.started,mypick_4.stopped,otherpick_4.started,otherpick_4.stopped,residal_4.started,residal_4.stopped,otherleft_2.started,otherleft_2.stopped,othermiddle_2.started,othermiddle_2.stopped,otherright_2.started,otherright_2.stopped,text_6.started,text_6.stopped,image_3.started,image_3.stopped,key_resp_9.keys,key_resp_9.rt,key_resp_9.started,key_resp_9.stopped,gender,age,participant,date,expName,psychopyVersion,frameRate,
,,,,,,,,,,,,,,,,,,,,35.793874799999685,None,space,5.124609999998938,35.793874799999685,None,,,,,,,,,,,,,,,,,,,,,,,,,,,,,,,,,,,,,,,,,,,,,,,,,,,,,,,,,,,,,,,,,,,,,,,,,,,,,,,,,,,,,,,,,,,,,,,,,,,,,,,,,,,,,,,,,,,,,,,,,,,,,,,,,,,,,,,,,,,,,,,,,,,,,,f,24,yumeijing,2022-04-04_11h35.37.955,emotion,2022.1.2,60.00391225518104,
52,-50,-200,0,one,-50,-200,0,,,,,0,0,0,51,,,,,,,,,,,right,3.308919999999489,40.97952330000044,None,40.97952330000044,None,44.31997819999924,None,44.31997819999924,None,44.31997819999924,None,46.30239959999926,46.80200100000002,46.30239959999926,46.80200100000002,46.30239959999926,46.80200100000002,44.31997819999924,None,46.83551293000001,None,46.83551293000001,None,46.83551293000001,None,0.0012868300000263844,None,46.83551293000001,None,46.83551293000001,None,46.83551293000001,None,46.83551293000001,None,46.83551293000001,None,46.83551293000001,None,46.85441170000013,None,46.85441170000013,None,46.85441170000013,None,0.009835160000875476,0.5098351600008755,46.85441170000013,None,46.85441170000013,None,46.85441170000013,None,46.85441170000013,None,46.85441170000013,None,46.85441170000013,None,48.834328499999174,48.834328499999174,31.599999999999994,5.098,150,-200,0,,,,,,,,,,,,,,,,,,,,,,,,,,,,,,,,,,,,,,,,,,,,,,,,,,,,,,,,,,,,,,,,,,,,,,,,,,,,,,,,,,,f,24,yumeijing,2022-04-04_11h35.37.955,emotion,2022.1.2,60.00391225518104,
10,50,200,0,two,50,200,0,,,,,0,1,1,9,,,,,,,,,,,down,4.102584000000206,54.04872029999933,None,54.04872029999933,None,58.18021299999964,None,58.18021299999964,None,58.18021299999964,None,60.162872299999435,60.66239359999963,60.162872299999435,60.66239359999963,60.162872299999435,60.66239359999963,58.18021299999964,None,60.69555722999958,None,60.69555722999958,None,60.69555722999958,None,0.00571562999903108,None,60.69555722999958,None,60.69555722999958,None,60.69555722999958,None,60.69555722999958,None,60.69555722999958,None,60.69555722999958,None,60.709362800000235,None,60.709362800000235,None,60.709362800000235,None,0.01422065999940969,0.5142206599994097,60.709362800000235,None,60.709362800000235,None,60.709362800000235,None,60.709362800000235,None,60.709362800000235,None,60.709362800000235,None,62.69488629999978,62.69488629999978,1.7000000000000028,6.631,200,0,0,,,,,,,,,,,,,,,,,,,,,,,,,,,,,,,,,,,,,,,,,,,,,,,,,,,,,,,,,,,,,,,,,,,,,,,,,,,,,,,,,,,f,24,yumeijing,2022-04-04_11h35.37.955,emotion,2022.1.2,60.00391225518104,
17,0,200,0,one,0,200,0,,,,,0,2,2,16,,,,,,,,,,,right,2.7685529999998835,69.39265979999982,None,69.39265979999982,None,72.19073410000055,None,72.19073410000055,None,72.19073410000055,None,74.17296429999988,74.67269459999989,74.17296429999988,74.67269459999989,74.17296429999988,74.67269459999989,72.19073410000055,None,74.70603463000062,None,74.70603463000062,None,74.70603463000062,None,0.010514129999137367,None,74.70603463000062,None,74.70603463000062,None,74.70603463000062,None,74.70603463000062,None,74.70603463000062,None,74.70603463000062,None,74.71442860000025,None,74.71442860000025,None,74.71442860000025,None,0.0039446299997507595,0.5039446299997508,74.71442860000025,None,74.71442860000025,None,74.71442860000025,None,74.71442860000025,None,74.71442860000025,None,74.71442860000025,None,76.70520899999974,76.70520899999974,-0.20000000000000284,5.113,200,200,0,,,,,,,,,,,,,,,,,,,,,,,,,,,,,,,,,,,,,,,,,,,,,,,,,,,,,,,,,,,,,,,,,,,,,,,,,,,,,,,,,,,f,24,yumeijing,2022-04-04_11h35.37.955,emotion,2022.1.2,60.00391225518104,
50,0,-200,-50,one,0,-200,-50,,,,,0,3,3,49,,,,,,,,,,,right,4.381560899999386,81.86934529999962,None,81.86934529999962,None,86.26765949999935,None,86.26765949999935,None,86.26765949999935,None,88.24991269999919,88.74978589999955,88.24991269999919,88.74978589999955,88.24991269999919,88.74978589999955,86.26765949999935,None,88.78304742999917,None,88.78304742999917,None,88.78304742999917,None,0.009724129997266573,None,88.78304742999917,None,88.78304742999917,None,88.78304742999917,None,88.78304742999917,None,88.78304742999917,None,88.78304742999917,None,88.79295769999953,None,88.79295769999953,None,88.79295769999953,None,0.001805129997592303,0.5018051299975923,88.79295769999953,None,88.79295769999953,None,88.79295769999953,None,88.79295769999953,None,88.79295769999953,None,88.79295769999953,None,90.78204559999904,90.78204559999904,50.0,3.291,200,0,-50,,,,,,,,,,,,,,,,,,,,,,,,,,,,,,,,,,,,,,,,,,,,,,,,,,,,,,,,,,,,,,,,,,,,,,,,,,,,,,,,,,,f,24,yumeijing,2022-04-04_11h35.37.955,emotion,2022.1.2,60.00391225518104,
64,0,0,-200,one,0,0,-200,,,,,0,4,4,63,,,,,,,,,,,down,3.8648039999989123,94.13075930000014,None,94.13075930000014,None,98.01214280000022,None,98.01214280000022,None,98.01214280000022,None,99.99454019999939,100.4945504999996,99.99454019999939,100.4945504999996,99.99454019999939,100.4945504999996,98.01214280000022,None,100.51121552999957,None,100.51121552999957,None,100.51121552999957,None,0.010338129997762735,None,100.51121552999957,None,100.51121552999957,None,100.51121552999957,None,100.51121552999957,None,100.51121552999957,None,100.51121552999957,None,100.52019549999932,None,100.52019549999932,None,100.52019549999932,None,0.0025388300000486197,0.5025388300000486,100.52019549999932,None,100.52019549999932,None,100.52019549999932,None,100.52019549999932,None,100.52019549999932,None,100.52019549999932,None,102.51010289999977,102.51010289999977,46.599999999999994,3.215,200,0,-250,,,,,,,,,,,,,,,,,,,,,,,,,,,,,,,,,,,,,,,,,,,,,,,,,,,,,,,,,,,,,,,,,,,,,,,,,,,,,,,,,,,f,24,yumeijing,2022-04-04_11h35.37.955,emotion,2022.1.2,60.00391225518104,
76,0,-50,-50,one,0,-50,-50,,,,,0,5,5,75,,,,,,,,,,,left,4.466257299998688,105.77509760000066,None,105.77509760000066,None,110.2733133999991,None,110.2733133999991,None,110.2733133999991,None,112.25554469999952,112.75561639999978,112.25554469999952,112.75561639999978,112.25554469999952,112.75561639999978,110.2733133999991,None,112.78873562999998,None,112.78873562999998,None,112.78873562999998,None,0.010266130000673002,None,112.78873562999998,None,112.78873562999998,None,112.78873562999998,None,112.78873562999998,None,112.78873562999998,None,112.78873562999998,None,112.79785900000024,None,112.79785900000024,None,112.79785900000024,None,0.0025987299995904323,0.5025987299995904,112.79785900000024,None,112.79785900000024,None,112.79785900000024,None,112.79785900000024,None,112.79785900000024,None,112.79785900000024,None,114.7878127999993,114.7878127999993,30.599999999999994,2.474,200,-50,-300,,,,,,,,,,,,,,,,,,,,,,,,,,,,,,,,,,,,,,,,,,,,,,,,,,,,,,,,,,,,,,,,,,,,,,,,,,,,,,,,,,,f,24,yumeijing,2022-04-04_11h35.37.955,emotion,2022.1.2,60.00391225518104,
59,-200,-50,0,two,-200,-50,0,,,,,0,6,6,58,,,,,,,,,,,down,4.805770799999664,117.31981439999981,None,117.31981439999981,None,122.15116959999978,None,122.15116959999978,None,122.15116959999978,None,124.1334267000002,124.6334740000002,124.1334267000002,124.6334740000002,124.1334267000002,124.6334740000002,122.15116959999978,None,124.66671852999953,None,124.66671852999953,None,124.66671852999953,None,0.010610330000417889,None,124.66671852999953,None,124.66671852999953,None,124.66671852999953,None,124.66671852999953,None,124.66671852999953,None,124.66671852999953,None,124.67583829999967,None,124.67583829999967,None,124.67583829999967,None,0.003513629999361001,0.503513629999361,124.67583829999967,None,124.67583829999967,None,124.67583829999967,None,124.67583829999967,None,124.67583829999967,None,124.67583829999967,None,126.66581690000021,126.66581690000021,-40.6,4.0,0,-100,-300,,,,,,,,,,,,,,,,,,,,,,,,,,,,,,,,,,,,,,,,,,,,,,,,,,,,,,,,,,,,,,,,,,,,,,,,,,,,,,,,,,,f,24,yumeijing,2022-04-04_11h35.37.955,emotion,2022.1.2,60.00391225518104,
84,-50,-50,0,two,-50,-50,0,,,,,0,7,7,83,,,,,,,,,,,down,2.518880799998442,130.71389459999955,None,130.71389459999955,None,133.26295869999922,None,133.26295869999922,None,133.26295869999922,None,135.24531670000033,135.74475539999912,135.24531670000033,135.74475539999912,135.24531670000033,135.74475539999912,133.26295869999922,None,135.77824293000066,None,135.77824293000066,None,135.77824293000066,None,0.010656630001903977,None,135.77824293000066,None,135.77824293000066,None,135.77824293000066,None,135.77824293000066,None,135.77824293000066,None,135.77824293000066,None,135.78675809999913,None,135.78675809999913,None,135.78675809999913,None,0.003700429999298649,0.5037004299992986,135.78675809999913,None,135.78675809999913,None,135.78675809999913,None,135.78675809999913,None,135.78675809999913,None,135.78675809999913,None,137.77733369999987,137.77733369999987,-0.6000000000000014,3.78,-50,-150,-300,,,,,,,,,,,,,,,,,,,,,,,,,,,,,,,,,,,,,,,,,,,,,,,,,,,,,,,,,,,,,,,,,,,,,,,,,,,,,,,,,,,f,24,yumeijing,2022-04-04_11h35.37.955,emotion,2022.1.2,60.00391225518104,
69,-50,0,0,two,-50,0,0,,,,,0,8,8,68,,,,,,,,,,,right,3.7404170999998314,141.6091565000006,None,141.6091565000006,None,145.3739901000008,None,145.3739901000008,None,145.3739901000008,None,147.35649589999957,147.85611959999915,147.35649589999957,147.85611959999915,147.35649589999957,147.85611959999915,145.3739901000008,None,147.88948872999953,None,147.88948872999953,None,147.88948872999953,None,0.010778230000141775,None,147.88948872999953,None,147.88948872999953,None,147.88948872999953,None,147.88948872999953,None,147.88948872999953,None,147.88948872999953,None,147.89793269999973,None,147.89793269999973,None,147.89793269999973,None,0.0031602300005033612,0.5031602300005034,147.89793269999973,None,147.89793269999973,None,147.89793269999973,None,147.89793269999973,None,147.89793269999973,None,147.89793269999973,None,149.8886736000004,149.8886736000004,-14.600000000000001,4.554,-100,-150,-300,,,,,,,,,,,,,,,,,,,,,,,,,,,,,,,,,,,,,,,,,,,,,,,,,,,,,,,,,,,,,,,,,,,,,,,,,,,,,,,,,,,f,24,yumeijing,2022-04-04_11h35.37.955,emotion,2022.1.2,60.00391225518104,
96,-50,-200,-200,two,-50,-200,-200,,,,,0,9,9,95,,,,,,,,,,,right,2.5421423999996478,154.5022009000004,None,154.5022009000004,None,157.0688272999996,None,157.0688272999996,None,157.0688272999996,None,159.05093429999943,159.550956699999,159.05093429999943,159.550956699999,159.05093429999943,159.550956699999,157.0688272999996,None,159.58414522999936,None,159.58414522999936,None,159.58414522999936,None,0.010447630000271602,None,159.58414522999936,None,159.58414522999936,None,159.58414522999936,None,159.58414522999936,None,159.58414522999936,None,159.58414522999936,None,159.59271049999916,None,159.59271049999916,None,159.59271049999916,None,0.0033788300006563077,0.5033788300006563,159.59271049999916,None,159.59271049999916,None,159.59271049999916,None,159.59271049999916,None,159.59271049999916,None,159.59271049999916,None,161.5833731999992,161.5833731999992,25.599999999999994,2.608,-150,-350,-500,,,,,,,,,,,,,,,,,,,,,,,,,,,,,,,,,,,,,,,,,,,,,,,,,,,,,,,,,,,,,,,,,,,,,,,,,,,,,,,,,,,f,24,yumeijing,2022-04-04_11h35.37.955,emotion,2022.1.2,60.00391225518104,
67,0,0,-50,two,0,0,-50,,,,,0,10,10,66,,,,,,,,,,,down,9.279225099999167,164.24885189999986,None,164.24885189999986,None,173.54439309999907,None,173.54439309999907,None,173.54439309999907,None,175.52702970000064,176.0264974999991,175.52702970000064,176.0264974999991,175.52702970000064,176.0264974999991,173.54439309999907,None,176.0599616300007,None,176.0599616300007,None,176.0599616300007,None,0.010796229998959461,None,176.0599616300007,None,176.0599616300007,None,176.0599616300007,None,176.0599616300007,None,176.0599616300007,None,176.0599616300007,None,176.06811629999902,None,176.06811629999902,None,176.06811629999902,None,0.004166130000157864,0.5041661300001579,176.06811629999902,None,176.06811629999902,None,176.06811629999902,None,176.06811629999902,None,176.06811629999902,None,176.06811629999902,None,178.05915359999926,178.05915359999926,0.10000000000000142,7.343,-150,-350,-550,,,,,,,,,,,,,,,,,,,,,,,,,,,,,,,,,,,,,,,,,,,,,,,,,,,,,,,,,,,,,,,,,,,,,,,,,,,,,,,,,,,f,24,yumeijing,2022-04-04_11h35.37.955,emotion,2022.1.2,60.00391225518104,
39,0,200,200,one,0,200,200,,,,,0,11,11,38,,,,,,,,,,,right,4.19299989999854,185.45556600000054,None,185.45556600000054,None,189.67060300000048,None,189.67060300000048,None,189.67060300000048,None,191.6528116999998,192.1528187999993,191.6528116999998,192.1528187999993,191.6528116999998,192.1528187999993,189.67060300000048,None,192.1859072299996,None,192.1859072299996,None,192.1859072299996,None,0.010870829999475973,None,192.1859072299996,None,192.1859072299996,None,192.1859072299996,None,192.1859072299996,None,192.1859072299996,None,192.1859072299996,None,192.19348419999915,None,192.19348419999915,None,192.19348419999915,None,0.0043511299991223495,0.5043511299991223,192.19348419999915,None,192.19348419999915,None,192.19348419999915,None,192.19348419999915,None,192.19348419999915,None,192.19348419999915,None,194.1853260000007,194.1853260000007,-35.1,3.385,-150,-150,-350,,,,,,,,,,,,,,,,,,,,,,,,,,,,,,,,,,,,,,,,,,,,,,,,,,,,,,,,,,,,,,,,,,,,,,,,,,,,,,,,,,,f,24,yumeijing,2022-04-04_11h35.37.955,emotion,2022.1.2,60.00391225518104,
7,0,50,200,two,0,50,200,,,,,0,12,12,6,,,,,,,,,,,right,3.8898002999994787,197.63245929999903,None,197.63245929999903,None,201.54839270000048,None,201.54839270000048,None,201.54839270000048,None,203.53088509999907,204.03068639999947,203.53088509999907,204.03068639999947,203.53088509999907,204.03068639999947,201.54839270000048,None,204.06378582999986,None,204.06378582999986,None,204.06378582999986,None,0.010696229999666684,None,204.06378582999986,None,204.06378582999986,None,204.06378582999986,None,204.06378582999986,None,204.06378582999986,None,204.06378582999986,None,204.07182549999925,None,204.07182549999925,None,204.07182549999925,None,0.004172230001131538,0.5041722300011315,204.07182549999925,None,204.07182549999925,None,204.07182549999925,None,204.07182549999925,None,204.07182549999925,None,204.07182549999925,None,206.06298050000078,206.06298050000078,-25.8,3.627,-150,-100,-150,,,,,,,,,,,,,,,,,,,,,,,,,,,,,,,,,,,,,,,,,,,,,,,,,,,,,,,,,,,,,,,,,,,,,,,,,,,,,,,,,,,f,24,yumeijing,2022-04-04_11h35.37.955,emotion,2022.1.2,60.00391225518104,
54,-200,0,-50,one,-200,0,-50,,,,,0,13,13,53,,,,,,,,,,,down,5.311448499998733,209.74454829999922,None,209.74454829999922,None,215.07580640000015,None,215.07580640000015,None,215.07580640000015,None,217.05792090000068,217.55788650000068,217.05792090000068,217.55788650000068,217.05792090000068,217.55788650000068,215.07580640000015,None,217.59121452999915,None,217.59121452999915,None,217.59121452999915,None,0.010671429998183157,None,217.59121452999915,None,217.59121452999915,None,217.59121452999915,None,217.59121452999915,None,217.59121452999915,None,217.59121452999915,None,217.59938990000046,None,217.59938990000046,None,217.59938990000046,None,0.003907729998900322,0.5039077299989003,217.59938990000046,None,217.59938990000046,None,217.59938990000046,None,217.59938990000046,None,217.59938990000046,None,217.59938990000046,None,219.5903333999995,219.5903333999995,-47.5,4.812,-350,-100,-200,,,,,,,,,,,,,,,,,,,,,,,,,,,,,,,,,,,,,,,,,,,,,,,,,,,,,,,,,,,,,,,,,,,,,,,,,,,,,,,,,,,f,24,yumeijing,2022-04-04_11h35.37.955,emotion,2022.1.2,60.00391225518104,
6,200,0,50,one,200,0,50,,,,,0,14,14,5,,,,,,,,,,,left,4.485566800000015,224.45461950000026,None,224.45461950000026,None,228.96948370000064,None,228.96948370000064,None,228.96948370000064,None,230.95175349999954,231.45177250000052,230.95175349999954,231.45177250000052,230.95175349999954,231.45177250000052,228.96948370000064,None,231.48477653000026,None,231.48477653000026,None,231.48477653000026,None,0.010517429998799344,None,231.48477653000026,None,231.48477653000026,None,231.48477653000026,None,231.48477653000026,None,231.48477653000026,None,231.48477653000026,None,231.49316240000007,None,231.49316240000007,None,231.49316240000007,None,0.003954429999794229,0.5039544299997942,231.49316240000007,None,231.49316240000007,None,231.49316240000007,None,231.49316240000007,None,231.49316240000007,None,231.49316240000007,None,233.48389189999943,233.48389189999943,39.900000000000006,2.824,-150,-100,-150,,,,,,,,,,,,,,,,,,,,,,,,,,,,,,,,,,,,,,,,,,,,,,,,,,,,,,,,,,,,,,,,,,,,,,,,,,,,,,,,,,,f,24,yumeijing,2022-04-04_11h35.37.955,emotion,2022.1.2,60.00391225518104,
40,200,200,50,one,200,200,50,,,,,0,15,15,39,,,,,,,,,,,down,3.2907334999999875,236.36445060000005,None,236.36445060000005,None,239.68103510000037,None,239.68103510000037,None,239.68103510000037,None,241.6636266000005,242.16338259999975,241.6636266000005,242.16338259999975,241.6636266000005,242.16338259999975,239.68103510000037,None,242.1800476299997,None,242.1800476299997,None,242.1800476299997,None,0.009919829997670604,None,242.1800476299997,None,242.1800476299997,None,242.1800476299997,None,242.1800476299997,None,242.1800476299997,None,242.1800476299997,None,242.18907629999921,None,242.18907629999921,None,242.18907629999921,None,0.002123829999618465,0.5021238299996185,242.18907629999921,None,242.18907629999921,None,242.18907629999921,None,242.18907629999921,None,242.18907629999921,None,242.18907629999921,None,244.1792502999997,244.1792502999997,0.0,2.493,50,100,-100,,,,,,,,,,,,,,,,,,,,,,,,,,,,,,,,,,,,,,,,,,,,,,,,,,,,,,,,,,,,,,,,,,,,,,,,,,,,,,,,,,,f,24,yumeijing,2022-04-04_11h35.37.955,emotion,2022.1.2,60.00391225518104,
91,-200,-200,0,two,-200,-200,0,,,,,0,16,16,90,,,,,,,,,,,right,2.8413753999993787,246.727734099999,None,246.727734099999,None,249.5933685,None,249.5933685,None,249.5933685,None,251.5758552999996,252.0753803000007,251.5758552999996,252.0753803000007,251.5758552999996,252.0753803000007,249.5933685,None,252.10887713000028,None,252.10887713000028,None,252.10887713000028,None,0.010659830000804504,None,252.10887713000028,None,252.10887713000028,None,252.10887713000028,None,252.10887713000028,None,252.10887713000028,None,252.10887713000028,None,252.11686109999937,None,252.11686109999937,None,252.11686109999937,None,0.003804429999945569,0.5038044299999456,252.11686109999937,None,252.11686109999937,None,252.11686109999937,None,252.11686109999937,None,252.11686109999937,None,252.11686109999937,None,254.10768479999933,254.10768479999933,-3.5,4.91,-150,-100,-100,,,,,,,,,,,,,,,,,,,,,,,,,,,,,,,,,,,,,,,,,,,,,,,,,,,,,,,,,,,,,,,,,,,,,,,,,,,,,,,,,,,f,24,yumeijing,2022-04-04_11h35.37.955,emotion,2022.1.2,60.00391225518104,
68,0,-50,0,two,0,-50,0,,,,,0,17,17,67,,,,,,,,,,,down,4.286872799999401,259.07217610000043,None,259.07217610000043,None,263.3869618000008,None,263.3869618000008,None,263.3869618000008,None,265.3695454000008,265.8691321999995,265.3695454000008,265.8691321999995,265.3695454000008,265.8691321999995,263.3869618000008,None,265.90247753000057,None,265.90247753000057,None,265.90247753000057,None,0.010707429999456508,None,265.90247753000057,None,265.90247753000057,None,265.90247753000057,None,265.90247753000057,None,265.90247753000057,None,265.90247753000057,None,265.9103766999997,None,265.9103766999997,None,265.9103766999997,None,0.0043437300009827595,0.5043437300009828,265.9103766999997,None,265.9103766999997,None,265.9103766999997,None,265.9103766999997,None,265.9103766999997,None,265.9103766999997,None,267.90169629999946,267.90169629999946,24.5,3.58,-150,-150,-100,,,,,,,,,,,,,,,,,,,,,,,,,,,,,,,,,,,,,,,,,,,,,,,,,,,,,,,,,,,,,,,,,,,,,,,,,,,,,,,,,,,f,24,yumeijing,2022-04-04_11h35.37.955,emotion,2022.1.2,60.00391225518104,
24,200,0,0,two,200,0,0,,,,,0,18,18,23,,,,,,,,,,,down,4.123783999999432,271.5332149999995,None,271.5332149999995,None,275.6813757,None,275.6813757,None,275.6813757,None,277.6636409999992,278.1637243999994,277.6636409999992,278.1637243999994,277.6636409999992,278.1637243999994,275.6813757,None,278.18038942999937,None,278.18038942999937,None,278.18038942999937,None,0.010514330000660266,None,278.18038942999937,None,278.18038942999937,None,278.18038942999937,None,278.18038942999937,None,278.18038942999937,None,278.18038942999937,None,278.1885765999996,None,278.1885765999996,None,278.1885765999996,None,0.004006630000731093,0.5040066300007311,278.1885765999996,None,278.1885765999996,None,278.1885765999996,None,278.1885765999996,None,278.1885765999996,None,278.1885765999996,None,280.1791546000004,280.1791546000004,48.5,2.52,50,-150,-100,,,,,,,,,,,,,,,,,,,,,,,,,,,,,,,,,,,,,,,,,,,,,,,,,,,,,,,,,,,,,,,,,,,,,,,,,,,,,,,,,,,f,24,yumeijing,2022-04-04_11h35.37.955,emotion,2022.1.2,60.00391225518104,
8,0,200,50,two,0,200,50,,,,,0,19,19,7,,,,,,,,,,,right,4.9324646999994,282.7603758999994,None,282.7603758999994,None,287.7092296999999,None,287.7092296999999,None,287.7092296999999,None,289.6915071000003,290.19168360000003,289.6915071000003,290.19168360000003,289.6915071000003,290.19168360000003,287.7092296999999,None,290.20834863,None,290.20834863,None,290.20834863,None,0.010330430000976776,None,290.20834863,None,290.20834863,None,290.20834863,None,290.20834863,None,290.20834863,None,290.20834863,None,290.21655909999936,None,290.21655909999936,None,290.21655909999936,None,0.0032289299997501075,0.5032289299997501,290.21655909999936,None,290.21655909999936,None,290.21655909999936,None,290.21655909999936,None,290.21655909999936,None,290.21655909999936,None,292.2071878000006,292.2071878000006,-36.7,4.726,50,50,-50,,,,,,,,,,,,,,,,,,,,,,,,,,,,,,,,,,,,,,,,,,,,,,,,,,,,,,,,,,,,,,,,,,,,,,,,,,,,,,,,,,,f,24,yumeijing,2022-04-04_11h35.37.955,emotion,2022.1.2,60.00391225518104,
14,0,50,0,one,0,50,0,,,,,0,20,20,13,,,,,,,,,,,down,4.262493999998696,296.9880338999992,None,296.9880338999992,None,301.26970040000015,None,301.26970040000015,None,301.26970040000015,None,303.2522590999997,303.7518906999994,303.2522590999997,303.7518906999994,303.2522590999997,303.7518906999994,301.26970040000015,None,303.78533373000045,None,303.78533373000045,None,303.78533373000045,None,0.010760529999970458,None,303.78533373000045,None,303.78533373000045,None,303.78533373000045,None,303.78533373000045,None,303.78533373000045,None,303.78533373000045,None,303.7933424999992,None,303.7933424999992,None,303.7933424999992,None,0.004185030000371626,0.5041850300003716,303.7933424999992,None,303.7933424999992,None,303.7933424999992,None,303.7933424999992,None,303.7933424999992,None,303.7933424999992,None,305.78432710000016,305.78432710000016,-5.700000000000003,6.674,50,100,-50,,,,,,,,,,,,,,,,,,,,,,,,,,,,,,,,,,,,,,,,,,,,,,,,,,,,,,,,,,,,,,,,,,,,,,,,,,,,,,,,,,,f,24,yumeijing,2022-04-04_11h35.37.955,emotion,2022.1.2,60.00391225518104,
92,-200,0,-200,two,-200,0,-200,,,,,0,21,21,91,,,,,,,,,,,right,2.43740809999872,312.5142753,None,312.5142753,None,314.9800593,None,314.9800593,None,314.9800593,None,316.96241589999954,317.4625082999992,316.96241589999954,317.4625082999992,316.96241589999954,317.4625082999992,314.9800593,None,317.4791733299991,None,317.4791733299991,None,317.4791733299991,None,0.00986992999969516,None,317.4791733299991,None,317.4791733299991,None,317.4791733299991,None,317.4791733299991,None,317.4791733299991,None,317.4791733299991,None,317.4879583999991,None,317.4879583999991,None,317.4879583999991,None,0.002167429998735315,0.5021674299987353,317.4879583999991,None,317.4879583999991,None,317.4879583999991,None,317.4879583999991,None,317.4879583999991,None,317.4879583999991,None,319.4782551999997,319.4782551999997,-50.0,2.649,-150,100,-250,,,,,,,,,,,,,,,,,,,,,,,,,,,,,,,,,,,,,,,,,,,,,,,,,,,,,,,,,,,,,,,,,,,,,,,,,,,,,,,,,,,f,24,yumeijing,2022-04-04_11h35.37.955,emotion,2022.1.2,60.00391225518104,
44,200,0,200,two,200,0,200,,,,,0,22,22,43,,,,,,,,,,,right,3.7438225999994756,322.1765871000007,None,322.1765871000007,None,325.9417181000008,None,325.9417181000008,None,325.9417181000008,None,327.92424220000066,328.4241724000003,327.92424220000066,328.4241724000003,327.92424220000066,328.4241724000003,325.9417181000008,None,328.4408374300003,None,328.4408374300003,None,328.4408374300003,None,0.010159030000068014,None,328.4408374300003,None,328.4408374300003,None,328.4408374300003,None,328.4408374300003,None,328.4408374300003,None,328.4408374300003,None,328.44952399999966,None,328.44952399999966,None,328.44952399999966,None,0.0029901300003984943,0.5029901300003985,328.44952399999966,None,328.44952399999966,None,328.44952399999966,None,328.44952399999966,None,328.44952399999966,None,328.44952399999966,None,330.4399852000006,330.4399852000006,47.8,3.678,50,100,-50,,,,,,,,,,,,,,,,,,,,,,,,,,,,,,,,,,,,,,,,,,,,,,,,,,,,,,,,,,,,,,,,,,,,,,,,,,,,,,,,,,,f,24,yumeijing,2022-04-04_11h35.37.955,emotion,2022.1.2,60.00391225518104,
11,200,50,0,two,200,50,0,,,,,0,23,23,10,,,,,,,,,,,down,2.5653373999994074,334.1714563000005,None,334.1714563000005,None,336.75371409999934,None,336.75371409999934,None,336.75371409999934,None,338.73596609999913,339.23592090000056,338.73596609999913,339.23592090000056,338.73596609999913,339.23592090000056,336.75371409999934,None,339.26913923000046,None,339.26913923000046,None,339.26913923000046,None,0.010868829998798901,None,339.26913923000046,None,339.26913923000046,None,339.26913923000046,None,339.26913923000046,None,339.26913923000046,None,339.26913923000046,None,339.27702110000064,None,339.27702110000064,None,339.27702110000064,None,0.003979429999162676,0.5039794299991627,339.27702110000064,None,339.27702110000064,None,339.27702110000064,None,339.27702110000064,None,339.27702110000064,None,339.27702110000064,None,341.2682356999994,341.2682356999994,45.900000000000006,2.789,250,150,-50,,,,,,,,,,,,,,,,,,,,,,,,,,,,,,,,,,,,,,,,,,,,,,,,,,,,,,,,,,,,,,,,,,,,,,,,,,,,,,,,,,,f,24,yumeijing,2022-04-04_11h35.37.955,emotion,2022.1.2,60.00391225518104,
38,200,0,200,one,200,0,200,,,,,0,24,24,37,,,,,,,,,,,down,4.96292369999901,344.11588269999993,None,344.11588269999993,None,349.09787700000015,None,349.09787700000015,None,349.09787700000015,None,351.0806412999991,351.58029630000055,351.0806412999991,351.58029630000055,351.0806412999991,351.58029630000055,349.09787700000015,None,351.5969613300005,None,351.5969613300005,None,351.5969613300005,None,0.010361630000261357,None,351.5969613300005,None,351.5969613300005,None,351.5969613300005,None,351.5969613300005,None,351.5969613300005,None,351.5969613300005,None,351.60492689999955,None,351.60492689999955,None,351.60492689999955,None,0.0038252300018939422,0.5038252300018939,351.60492689999955,None,351.60492689999955,None,351.60492689999955,None,351.60492689999955,None,351.60492689999955,None,351.60492689999955,None,353.5959402999997,353.5959402999997,44.099999999999994,3.145,450,150,150,,,,,,,,,,,,,,,,,,,,,,,,,,,,,,,,,,,,,,,,,,,,,,,,,,,,,,,,,,,,,,,,,,,,,,,,,,,,,,,,,,,f,24,yumeijing,2022-04-04_11h35.37.955,emotion,2022.1.2,60.00391225518104,
95,-200,-50,-200,two,-200,-50,-200,,,,,0,25,25,94,,,,,,,,,,,left,7.1042766999999,356.79438350000055,None,356.79438350000055,None,363.92469170000004,None,363.92469170000004,None,363.92469170000004,None,365.90698390000034,366.40694129999974,365.90698390000034,366.40694129999974,365.90698390000034,366.40694129999974,363.92469170000004,None,366.4402962299993,None,366.4402962299993,None,366.4402962299993,None,0.010255429999233456,None,366.4402962299993,None,366.4402962299993,None,366.4402962299993,None,366.4402962299993,None,366.4402962299993,None,366.4402962299993,None,366.44861949999904,None,366.44861949999904,None,366.44861949999904,None,0.0027977299996564398,0.5027977299996564,366.44861949999904,None,366.44861949999904,None,366.44861949999904,None,366.44861949999904,None,366.44861949999904,None,366.44861949999904,None,368.43923170000016,368.43923170000016,-24.2,2.792,250,100,-50,,,,,,,,,,,,,,,,,,,,,,,,,,,,,,,,,,,,,,,,,,,,,,,,,,,,,,,,,,,,,,,,,,,,,,,,,,,,,,,,,,,f,24,yumeijing,2022-04-04_11h35.37.955,emotion,2022.1.2,60.00391225518104,
75,-50,-50,-200,one,-50,-50,-200,,,,,0,26,26,74,,,,,,,,,,,down,5.843380800000887,371.2876032000004,None,371.2876032000004,None,377.1521757999999,None,377.1521757999999,None,377.1521757999999,None,379.1342937999998,379.6343001000005,379.1342937999998,379.6343001000005,379.1342937999998,379.6343001000005,377.1521757999999,None,379.66738273000027,None,379.66738273000027,None,379.66738273000027,None,0.010548929998549283,None,379.66738273000027,None,379.66738273000027,None,379.66738273000027,None,379.66738273000027,None,379.66738273000027,None,379.66738273000027,None,379.67602780000016,None,379.67602780000016,None,379.67602780000016,None,0.003670629999760422,0.5036706299997604,379.67602780000016,None,379.67602780000016,None,379.67602780000016,None,379.67602780000016,None,379.67602780000016,None,379.67602780000016,None,381.6666638000006,381.6666638000006,-0.5,2.843,200,50,-250,,,,,,,,,,,,,,,,,,,,,,,,,,,,,,,,,,,,,,,,,,,,,,,,,,,,,,,,,,,,,,,,,,,,,,,,,,,,,,,,,,,f,24,yumeijing,2022-04-04_11h35.37.955,emotion,2022.1.2,60.00391225518104,
28,0,50,50,one,0,50,50,,,,,0,27,27,27,,,,,,,,,,,right,1.9083198999996966,384.56513599999926,None,384.56513599999926,None,386.4976652999994,None,386.4976652999994,None,386.4976652999994,None,388.48017419999996,388.9798566999998,388.48017419999996,388.9798566999998,388.48017419999996,388.9798566999998,386.4976652999994,None,389.01328013000074,None,389.01328013000074,None,389.01328013000074,None,0.01081082999917271,None,389.01328013000074,None,389.01328013000074,None,389.01328013000074,None,389.01328013000074,None,389.01328013000074,None,389.01328013000074,None,389.02102000000014,None,389.02102000000014,None,389.02102000000014,None,0.0044322300018393435,0.5044322300018393,389.02102000000014,None,389.02102000000014,None,389.02102000000014,None,389.02102000000014,None,389.02102000000014,None,389.02102000000014,None,391.0122995999991,391.0122995999991,-5.600000000000001,2.202,200,100,-200,,,,,,,,,,,,,,,,,,,,,,,,,,,,,,,,,,,,,,,,,,,,,,,,,,,,,,,,,,,,,,,,,,,,,,,,,,,,,,,,,,,f,24,yumeijing,2022-04-04_11h35.37.955,emotion,2022.1.2,60.00391225518104,
1,0,50,200,one,0,50,200,,,,,0,28,28,0,,,,,,,,,,,right,3.122041499998886,393.27659089999906,None,393.27659089999906,None,396.4265206,None,396.4265206,None,396.4265206,None,398.4087404999991,398.90876109999954,398.4087404999991,398.90876109999954,398.4087404999991,398.90876109999954,396.4265206,None,398.941872829999,None,398.941872829999,None,398.941872829999,None,0.010827629999766941,None,398.941872829999,None,398.941872829999,None,398.941872829999,None,398.941872829999,None,398.941872829999,None,398.941872829999,None,398.94973740000023,None,398.94973740000023,None,398.94973740000023,None,0.004217629999402561,0.5042176299994026,398.94973740000023,None,398.94973740000023,None,398.94973740000023,None,398.94973740000023,None,398.94973740000023,None,398.94973740000023,None,400.94129040000007,400.94129040000007,-7.799999999999997,2.705,200,150,0,,,,,,,,,,,,,,,,,,,,,,,,,,,,,,,,,,,,,,,,,,,,,,,,,,,,,,,,,,,,,,,,,,,,,,,,,,,,,,,,,,,f,24,yumeijing,2022-04-04_11h35.37.955,emotion,2022.1.2,60.00391225518104,
35,50,0,50,two,50,0,50,,,,,0,29,29,34,,,,,,,,,,,down,2.2145934000000125,403.705457,None,403.705457,None,405.93891319999966,None,405.93891319999966,None,405.93891319999966,None,407.9213099999997,408.4210203999992,407.9213099999997,408.4210203999992,407.9213099999997,408.4210203999992,405.93891319999966,None,408.45460182999904,None,408.45460182999904,None,408.45460182999904,None,0.010960030000205734,None,408.45460182999904,None,408.45460182999904,None,408.45460182999904,None,408.45460182999904,None,408.45460182999904,None,408.45460182999904,None,408.46254769999905,None,408.46254769999905,None,408.46254769999905,None,0.004340729999967152,0.5043407299999672,408.46254769999905,None,408.46254769999905,None,408.46254769999905,None,408.46254769999905,None,408.46254769999905,None,408.46254769999905,None,410.45342039999923,410.45342039999923,25.200000000000003,1.683,250,150,50,,,,,,,,,,,,,,,,,,,,,,,,,,,,,,,,,,,,,,,,,,,,,,,,,,,,,,,,,,,,,,,,,,,,,,,,,,,,,,,,,,,f,24,yumeijing,2022-04-04_11h35.37.955,emotion,2022.1.2,60.00391225518104,
42,50,200,200,one,50,200,200,,,,,0,30,30,41,,,,,,,,,,,right,2.503371499999048,412.18636530000003,None,412.18636530000003,None,414.7181798999991,None,414.7181798999991,None,414.7181798999991,None,416.70070999999916,417.20030659999975,416.70070999999916,417.20030659999975,416.70070999999916,417.20030659999975,414.7181798999991,None,417.2336024300004,None,417.2336024300004,None,417.2336024300004,None,0.010490029999346007,None,417.2336024300004,None,417.2336024300004,None,417.2336024300004,None,417.2336024300004,None,417.2336024300004,None,417.2336024300004,None,417.24149000000034,None,417.24149000000034,None,417.24149000000034,None,0.003971029998865561,0.5039710299988656,417.24149000000034,None,417.24149000000034,None,417.24149000000034,None,417.24149000000034,None,417.24149000000034,None,417.24149000000034,None,419.23286910000024,419.23286910000024,-8.799999999999997,2.422,300,350,250,,,,,,,,,,,,,,,,,,,,,,,,,,,,,,,,,,,,,,,,,,,,,,,,,,,,,,,,,,,,,,,,,,,,,,,,,,,,,,,,,,,f,24,yumeijing,2022-04-04_11h35.37.955,emotion,2022.1.2,60.00391225518104,
61,0,0,-50,one,0,0,-50,,,,,0,31,31,60,,,,,,,,,,,down,1.976035599998795,421.7137884999993,None,421.7137884999993,None,423.71406580000075,None,423.71406580000075,None,423.71406580000075,None,425.6963166000005,426.1962846999995,425.6963166000005,426.1962846999995,425.6963166000005,426.1962846999995,423.71406580000075,None,426.2295319299994,None,426.2295319299994,None,426.2295319299994,None,0.010894029999690247,None,426.2295319299994,None,426.2295319299994,None,426.2295319299994,None,426.2295319299994,None,426.2295319299994,None,426.2295319299994,None,426.23755119999987,None,426.23755119999987,None,426.23755119999987,None,0.0044315299983281875,0.5044315299983282,426.23755119999987,None,426.23755119999987,None,426.23755119999987,None,426.23755119999987,None,426.23755119999987,None,426.23755119999987,None,428.2287333999993,428.2287333999993,0.0,4.121,300,350,200,,,,,,,,,,,,,,,,,,,,,,,,,,,,,,,,,,,,,,,,,,,,,,,,,,,,,,,,,,,,,,,,,,,,,,,,,,,,,,,,,,,f,24,yumeijing,2022-04-04_11h35.37.955,emotion,2022.1.2,60.00391225518104,
25,200,50,50,one,200,50,50,,,,,0,32,32,24,,,,,,,,,,,left,2.5442571000003227,432.4100677999995,None,432.4100677999995,None,434.975685899999,None,434.975685899999,None,434.975685899999,None,436.9579711000006,437.4580279999991,436.9579711000006,437.4580279999991,436.9579711000006,437.4580279999991,434.975685899999,None,437.47469302999906,None,437.47469302999906,None,437.47469302999906,None,0.010165829997276887,None,437.47469302999906,None,437.47469302999906,None,437.47469302999906,None,437.47469302999906,None,437.47469302999906,None,437.47469302999906,None,437.4833146000001,None,437.4833146000001,None,437.4833146000001,None,0.002654029998666374,0.5026540299986664,437.4833146000001,None,437.4833146000001,None,437.4833146000001,None,437.4833146000001,None,437.4833146000001,None,437.4833146000001,None,439.47360429999935,439.47360429999935,44.900000000000006,2.43,500,400,250,,,,,,,,,,,,,,,,,,,,,,,,,,,,,,,,,,,,,,,,,,,,,,,,,,,,,,,,,,,,,,,,,,,,,,,,,,,,,,,,,,,f,24,yumeijing,2022-04-04_11h35.37.955,emotion,2022.1.2,60.00391225518104,
74,-50,-200,-50,one,-50,-200,-50,,,,,0,33,33,73,,,,,,,,,,,down,2.3004953999989084,441.95568749999984,None,441.95568749999984,None,444.28804560000026,None,444.28804560000026,None,444.28804560000026,None,446.2706254000004,446.7702463000005,446.2706254000004,446.7702463000005,446.2706254000004,446.7702463000005,444.28804560000026,None,446.80368302999904,None,446.80368302999904,None,446.80368302999904,None,0.010536329999013105,None,446.80368302999904,None,446.80368302999904,None,446.80368302999904,None,446.80368302999904,None,446.80368302999904,None,446.80368302999904,None,446.81235129999914,None,446.81235129999914,None,446.81235129999914,None,0.0024976300010166597,0.5024976300010167,446.81235129999914,None,446.81235129999914,None,446.81235129999914,None,446.81235129999914,None,446.81235129999914,None,446.81235129999914,None,448.802735199999,448.802735199999,22.599999999999994,5.246,450,200,200,,,,,,,,,,,,,,,,,,,,,,,,,,,,,,,,,,,,,,,,,,,,,,,,,,,,,,,,,,,,,,,,,,,,,,,,,,,,,,,,,,,f,24,yumeijing,2022-04-04_11h35.37.955,emotion,2022.1.2,60.00391225518104,
62,0,-50,0,one,0,-50,0,,,,,0,34,34,61,,,,,,,,,,,right,3.079849699999613,454.1000731000004,None,454.1000731000004,None,457.19884830000046,None,457.19884830000046,None,457.19884830000046,None,459.1814097999995,459.6809245000004,459.1814097999995,459.6809245000004,459.1814097999995,459.6809245000004,457.19884830000046,None,459.7143320300003,None,459.7143320300003,None,459.7143320300003,None,0.010550730001341435,None,459.7143320300003,None,459.7143320300003,None,459.7143320300003,None,459.7143320300003,None,459.7143320300003,None,459.7143320300003,None,459.72225269999944,None,459.72225269999944,None,459.72225269999944,None,0.004277930000171182,0.5042779300001712,459.72225269999944,None,459.72225269999944,None,459.72225269999944,None,459.72225269999944,None,459.72225269999944,None,459.72225269999944,None,461.7134014000003,461.7134014000003,24.5,3.572,450,150,200,,,,,,,,,,,,,,,,,,,,,,,,,,,,,,,,,,,,,,,,,,,,,,,,,,,,,,,,,,,,,,,,,,,,,,,,,,,,,,,,,,,f,24,yumeijing,2022-04-04_11h35.37.955,emotion,2022.1.2,60.00391225518104,
88,-200,-200,-50,one,-200,-200,-50,,,,,0,35,35,87,,,,,,,,,,,down,3.2306828999990103,465.3439326000007,None,465.3439326000007,None,468.5937214000005,None,468.5937214000005,None,468.5937214000005,None,470.5762673999998,471.0760489000004,470.5762673999998,471.0760489000004,470.5762673999998,471.0760489000004,468.5937214000005,None,471.1094356300002,None,471.1094356300002,None,471.1094356300002,None,0.010509429999729036,None,471.1094356300002,None,471.1094356300002,None,471.1094356300002,None,471.1094356300002,None,471.1094356300002,None,471.1094356300002,None,471.1177418999996,None,471.1177418999996,None,471.1177418999996,None,0.0032258299997920403,0.503225829999792,471.1177418999996,None,471.1177418999996,None,471.1177418999996,None,471.1177418999996,None,471.1177418999996,None,471.1177418999996,None,473.1083139000002,473.1083139000002,0.29999999999999716,5.093,250,-50,150,,,,,,,,,,,,,,,,,,,,,,,,,,,,,,,,,,,,,,,,,,,,,,,,,,,,,,,,,,,,,,,,,,,,,,,,,,,,,,,,,,,f,24,yumeijing,2022-04-04_11h35.37.955,emotion,2022.1.2,60.00391225518104,
79,-200,-50,-50,two,-200,-50,-50,,,,,0,36,36,78,,,,,,,,,,,left,5.571212799999557,478.25597240000025,None,478.25597240000025,None,483.85322970000016,None,483.85322970000016,None,483.85322970000016,None,485.8358766000001,486.33556339999996,485.8358766000001,486.33556339999996,485.8358766000001,486.33556339999996,483.85322970000016,None,486.3689295299993,None,486.3689295299993,None,486.3689295299993,None,0.010695429999032058,None,486.3689295299993,None,486.3689295299993,None,486.3689295299993,None,486.3689295299993,None,486.3689295299993,None,486.3689295299993,None,486.3768029999992,None,486.3768029999992,None,486.3768029999992,None,0.003955229998609866,0.5039552299986099,486.3768029999992,None,486.3768029999992,None,486.3768029999992,None,486.3768029999992,None,486.3768029999992,None,486.3768029999992,None,488.36800100000073,488.36800100000073,-35.2,2.419,50,-100,100,,,,,,,,,,,,,,,,,,,,,,,,,,,,,,,,,,,,,,,,,,,,,,,,,,,,,,,,,,,,,,,,,,,,,,,,,,,,,,,,,,,f,24,yumeijing,2022-04-04_11h35.37.955,emotion,2022.1.2,60.00391225518104,
55,0,-50,-200,two,0,-50,-200,,,,,0,37,37,54,,,,,,,,,,,right,3.1342015999998694,490.84922969999934,None,490.84922969999934,None,494.01546419999977,None,494.01546419999977,None,494.01546419999977,None,495.9979581000007,496.49762290000035,495.9979581000007,496.49762290000035,495.9979581000007,496.49762290000035,494.01546419999977,None,496.53101033,None,496.53101033,None,496.53101033,None,0.010493130001123063,None,496.53101033,None,496.53101033,None,496.53101033,None,496.53101033,None,496.53101033,None,496.53101033,None,496.5406106999999,None,496.5406106999999,None,496.5406106999999,None,0.0023576300009153783,0.5023576300009154,496.5406106999999,None,496.5406106999999,None,496.5406106999999,None,496.5406106999999,None,496.5406106999999,None,496.5406106999999,None,498.53026130000035,498.53026130000035,38.5,1.641,50,-150,-100,,,,,,,,,,,,,,,,,,,,,,,,,,,,,,,,,,,,,,,,,,,,,,,,,,,,,,,,,,,,,,,,,,,,,,,,,,,,,,,,,,,f,24,yumeijing,2022-04-04_11h35.37.955,emotion,2022.1.2,60.00391225518104,
5,200,50,0,one,200,50,0,,,,,0,38,38,4,,,,,,,,,,,down,1.9647583000005397,500.22908610000013,None,500.22908610000013,None,502.2118728000005,None,502.2118728000005,None,502.2118728000005,None,504.1943018999991,504.6938410999992,504.1943018999991,504.6938410999992,504.1943018999991,504.6938410999992,502.2118728000005,None,504.72735123,None,504.72735123,None,504.72735123,None,0.010727130000304896,None,504.72735123,None,504.72735123,None,504.72735123,None,504.72735123,None,504.72735123,None,504.72735123,None,504.73560799999905,None,504.73560799999905,None,504.73560799999905,None,0.004215729999486939,0.5042157299994869,504.73560799999905,None,504.73560799999905,None,504.73560799999905,None,504.73560799999905,None,504.73560799999905,None,504.73560799999905,None,506.72624469999937,506.72624469999937,49.5,2.61,250,-100,-100,,,,,,,,,,,,,,,,,,,,,,,,,,,,,,,,,,,,,,,,,,,,,,,,,,,,,,,,,,,,,,,,,,,,,,,,,,,,,,,,,,,f,24,yumeijing,2022-04-04_11h35.37.955,emotion,2022.1.2,60.00391225518104,
20,0,50,0,two,0,50,0,,,,,0,39,39,19,,,,,,,,,,,right,2.1999661999998352,509.3916382999996,None,509.3916382999996,None,511.6241270999999,None,511.6241270999999,None,511.6241270999999,None,513.6063321000001,514.1065122,513.6063321000001,514.1065122,513.6063321000001,514.1065122,511.6241270999999,None,514.12317723,None,514.12317723,None,514.12317723,None,0.010591130001557758,None,514.12317723,None,514.12317723,None,514.12317723,None,514.12317723,None,514.12317723,None,514.12317723,None,514.1315995000004,None,514.1315995000004,None,514.1315995000004,None,0.0032609299996693153,0.5032609299996693,514.1315995000004,None,514.1315995000004,None,514.1315995000004,None,514.1315995000004,None,514.1315995000004,None,514.1315995000004,None,516.1220252999992,516.1220252999992,0.20000000000000284,3.016,250,-50,-100,,,,,,,,,,,,,,,,,,,,,,,,,,,,,,,,,,,,,,,,,,,,,,,,,,,,,,,,,,,,,,,,,,,,,,,,,,,,,,,,,,,f,24,yumeijing,2022-04-04_11h35.37.955,emotion,2022.1.2,60.00391225518104,
82,0,-50,-50,two,0,-50,-50,,,,,0,40,40,81,,,,,,,,,,,down,2.7815876999993634,519.1876747999995,None,519.1876747999995,None,521.9861395000007,None,521.9861395000007,None,521.9861395000007,None,523.9685706,524.4682663999993,523.9685706,524.4682663999993,523.9685706,524.4682663999993,521.9861395000007,None,524.5015549300008,None,524.5015549300008,None,524.5015549300008,None,0.010776830000395421,None,524.5015549300008,None,524.5015549300008,None,524.5015549300008,None,524.5015549300008,None,524.5015549300008,None,524.5015549300008,None,524.5094482000004,None,524.5094482000004,None,524.5094482000004,None,0.003947230001358548,0.5039472300013585,524.5094482000004,None,524.5094482000004,None,524.5094482000004,None,524.5094482000004,None,524.5094482000004,None,524.5094482000004,None,526.5006974999997,526.5006974999997,24.700000000000003,2.197,250,-100,-150,,,,,,,,,,,,,,,,,,,,,,,,,,,,,,,,,,,,,,,,,,,,,,,,,,,,,,,,,,,,,,,,,,,,,,,,,,,,,,,,,,,f,24,yumeijing,2022-04-04_11h35.37.955,emotion,2022.1.2,60.00391225518104,
77,-50,0,-50,one,-50,0,-50,,,,,0,41,41,76,,,,,,,,,,,right,1.5347200999985944,528.749569399999,None,528.749569399999,None,530.3158523000002,None,530.3158523000002,None,530.3158523000002,None,532.2981170000003,532.7978003999997,532.2981170000003,532.7978003999997,532.2981170000003,532.7978003999997,530.3158523000002,None,532.8310529299999,None,532.8310529299999,None,532.8310529299999,None,0.010578129998975783,None,532.8310529299999,None,532.8310529299999,None,532.8310529299999,None,532.8310529299999,None,532.8310529299999,None,532.8310529299999,None,532.8389470000002,None,532.8389470000002,None,532.8389470000002,None,0.0042268299985153135,0.5042268299985153,532.8389470000002,None,532.8389470000002,None,532.8389470000002,None,532.8389470000002,None,532.8389470000002,None,532.8389470000002,None,534.8303121000008,534.8303121000008,0.6000000000000014,2.808,200,-100,-200,,,,,,,,,,,,,,,,,,,,,,,,,,,,,,,,,,,,,,,,,,,,,,,,,,,,,,,,,,,,,,,,,,,,,,,,,,,,,,,,,,,f,24,yumeijing,2022-04-04_11h35.37.955,emotion,2022.1.2,60.00391225518104,
81,-50,-50,-200,two,-50,-50,-200,,,,,0,42,42,80,,,,,,,,,,,down,2.447976600000402,537.6955749000008,None,537.6955749000008,None,540.1610963000003,None,540.1610963000003,None,540.1610963000003,None,542.1435440000005,542.6435074000001,542.1435440000005,542.6435074000001,542.1435440000005,542.6435074000001,540.1610963000003,None,542.6601724300001,None,542.6601724300001,None,542.6601724300001,None,0.01029802999983076,None,542.6601724300001,None,542.6601724300001,None,542.6601724300001,None,542.6601724300001,None,542.6601724300001,None,542.6601724300001,None,542.6697177000005,None,542.6697177000005,None,542.6697177000005,None,0.0020687300002464326,0.5020687300002464,542.6697177000005,None,542.6697177000005,None,542.6697177000005,None,542.6697177000005,None,542.6697177000005,None,542.6697177000005,None,544.6591186000005,544.6591186000005,0.0,3.978,150,-150,-400,,,,,,,,,,,,,,,,,,,,,,,,,,,,,,,,,,,,,,,,,,,,,,,,,,,,,,,,,,,,,,,,,,,,,,,,,,,,,,,,,,,f,24,yumeijing,2022-04-04_11h35.37.955,emotion,2022.1.2,60.00391225518104,
87,0,-200,-200,one,0,-200,-200,,,,,0,43,43,86,,,,,,,,,,,left,3.419195199998285,548.6904622000002,None,548.6904622000002,None,552.1390907999994,None,552.1390907999994,None,552.1390907999994,None,554.1214314000008,554.6213386,554.1214314000008,554.6213386,554.1214314000008,554.6213386,552.1390907999994,None,554.6546759300002,None,554.6546759300002,None,554.6546759300002,None,0.010740329998952802,None,554.6546759300002,None,554.6546759300002,None,554.6546759300002,None,554.6546759300002,None,554.6546759300002,None,554.6546759300002,None,554.662517499999,None,554.662517499999,None,554.662517499999,None,0.004071029999977327,0.5040710299999773,554.662517499999,None,554.662517499999,None,554.662517499999,None,554.662517499999,None,554.662517499999,None,554.662517499999,None,556.6535485999993,556.6535485999993,33.0,2.677,150,-350,-600,,,,,,,,,,,,,,,,,,,,,,,,,,,,,,,,,,,,,,,,,,,,,,,,,,,,,,,,,,,,,,,,,,,,,,,,,,,,,,,,,,,f,24,yumeijing,2022-04-04_11h35.37.955,emotion,2022.1.2,60.00391225518104,
19,0,0,50,two,0,0,50,,,,,0,44,44,18,,,,,,,,,,,down,3.326194699999178,559.3858232999992,None,559.3858232999992,None,562.7343789999995,None,562.7343789999995,None,562.7343789999995,None,564.7167107999994,565.2163118999997,564.7167107999994,565.2163118999997,564.7167107999994,565.2163118999997,562.7343789999995,None,565.24977633,None,565.24977633,None,565.24977633,None,0.010741329999291338,None,565.24977633,None,565.24977633,None,565.24977633,None,565.24977633,None,565.24977633,None,565.24977633,None,565.2574726000003,None,565.2574726000003,None,565.2574726000003,None,0.004396329999508453,0.5043963299995085,565.2574726000003,None,565.2574726000003,None,565.2574726000003,None,565.2574726000003,None,565.2574726000003,None,565.2574726000003,None,567.248896699999,567.248896699999,0.29999999999999716,3.109,150,-350,-550,,,,,,,,,,,,,,,,,,,,,,,,,,,,,,,,,,,,,,,,,,,,,,,,,,,,,,,,,,,,,,,,,,,,,,,,,,,,,,,,,,,f,24,yumeijing,2022-04-04_11h35.37.955,emotion,2022.1.2,60.00391225518104,
57,-50,0,-200,two,-50,0,-200,,,,,0,45,45,56,,,,,,,,,,,down,3.1688559999984136,570.4141820000004,None,570.4141820000004,None,573.6125573999998,None,573.6125573999998,None,573.6125573999998,None,575.5949036999991,576.0948869999993,575.5949036999991,576.0948869999993,575.5949036999991,576.0948869999993,573.6125573999998,None,576.1280847300006,None,576.1280847300006,None,576.1280847300006,None,0.010611330000756425,None,576.1280847300006,None,576.1280847300006,None,576.1280847300006,None,576.1280847300006,None,576.1280847300006,None,576.1280847300006,None,576.1360124000003,None,576.1360124000003,None,576.1360124000003,None,0.004004529999292572,0.5040045299992926,576.1360124000003,None,576.1360124000003,None,576.1360124000003,None,576.1360124000003,None,576.1360124000003,None,576.1360124000003,None,578.1271601999997,578.1271601999997,-10.399999999999999,5.925,100,-350,-750,,,,,,,,,,,,,,,,,,,,,,,,,,,,,,,,,,,,,,,,,,,,,,,,,,,,,,,,,,,,,,,,,,,,,,,,,,,,,,,,,,,f,24,yumeijing,2022-04-04_11h35.37.955,emotion,2022.1.2,60.00391225518104,
37,200,200,0,one,200,200,0,,,,,0,46,46,36,,,,,,,,,,,down,2.1896584999994957,584.1078018000007,None,584.1078018000007,None,586.3235547000004,None,586.3235547000004,None,586.3235547000004,None,588.3060709999991,588.8058175000006,588.3060709999991,588.8058175000006,588.3060709999991,588.8058175000006,586.3235547000004,None,588.8390889299992,None,588.8390889299992,None,588.8390889299992,None,0.01066832999822509,None,588.8390889299992,None,588.8390889299992,None,588.8390889299992,None,588.8390889299992,None,588.8390889299992,None,588.8390889299992,None,588.8469616999992,None,588.8469616999992,None,588.8469616999992,None,0.004257329997926718,0.5042573299979267,588.8469616999992,None,588.8469616999992,None,588.8469616999992,None,588.8469616999992,None,588.8469616999992,None,588.8469616999992,None,590.8382347999996,590.8382347999996,4.299999999999997,2.763,300,-150,-750,,,,,,,,,,,,,,,,,,,,,,,,,,,,,,,,,,,,,,,,,,,,,,,,,,,,,,,,,,,,,,,,,,,,,,,,,,,,,,,,,,,f,24,yumeijing,2022-04-04_11h35.37.955,emotion,2022.1.2,60.00391225518104,
9,50,0,200,two,50,0,200,,,,,0,47,47,8,,,,,,,,,,,right,1.7579157000000123,593.6534274999995,None,593.6534274999995,None,595.4361511000006,None,595.4361511000006,None,595.4361511000006,None,597.4185634000005,597.9183166000003,597.4185634000005,597.9183166000003,597.4185634000005,597.9183166000003,595.4361511000006,None,597.9515515299993,None,597.9515515299993,None,597.9515515299993,None,0.01041902999895683,None,597.9515515299993,None,597.9515515299993,None,597.9515515299993,None,597.9515515299993,None,597.9515515299993,None,597.9515515299993,None,597.9600960000007,None,597.9600960000007,None,597.9600960000007,None,0.0035794300001725787,0.5035794300001726,597.9600960000007,None,597.9600960000007,None,597.9600960000007,None,597.9600960000007,None,597.9600960000007,None,597.9600960000007,None,599.9507591999991,599.9507591999991,8.0,2.579,350,-150,-550,,,,,,,,,,,,,,,,,,,,,,,,,,,,,,,,,,,,,,,,,,,,,,,,,,,,,,,,,,,,,,,,,,,,,,,,,,,,,,,,,,,f,24,yumeijing,2022-04-04_11h35.37.955,emotion,2022.1.2,60.00391225518104,
70,0,0,-200,two,0,0,-200,,,,,0,48,48,69,,,,,,,,,,,left,1.9769354000000021,602.5828347999995,None,602.5828347999995,None,604.5821302999993,None,604.5821302999993,None,604.5821302999993,None,606.5643805,607.0641904999993,606.5643805,607.0641904999993,606.5643805,607.0641904999993,604.5821302999993,None,607.0972418299991,None,607.0972418299991,None,607.0972418299991,None,0.010842929999853368,None,607.0972418299991,None,607.0972418299991,None,607.0972418299991,None,607.0972418299991,None,607.0972418299991,None,607.0972418299991,None,607.1051287999999,None,607.1051287999999,None,607.1051287999999,None,0.004482730000745505,0.5044827300007455,607.1051287999999,None,607.1051287999999,None,607.1051287999999,None,607.1051287999999,None,607.1051287999999,None,607.1051287999999,None,609.0963652999999,609.0963652999999,8.0,2.114,350,-150,-750,,,,,,,,,,,,,,,,,,,,,,,,,,,,,,,,,,,,,,,,,,,,,,,,,,,,,,,,,,,,,,,,,,,,,,,,,,,,,,,,,,,f,24,yumeijing,2022-04-04_11h35.37.955,emotion,2022.1.2,60.00391225518104,
47,200,50,200,two,200,50,200,,,,,0,49,49,46,,,,,,,,,,,down,1.4970562999988033,611.2621409999992,None,611.2621409999992,None,612.7780789999997,None,612.7780789999997,None,612.7780789999997,None,614.7606415999999,615.2602853999997,614.7606415999999,615.2602853999997,614.7606415999999,615.2602853999997,612.7780789999997,None,615.2937252300001,None,615.2937252300001,None,615.2937252300001,None,0.01072383000064292,None,615.2937252300001,None,615.2937252300001,None,615.2937252300001,None,615.2937252300001,None,615.2937252300001,None,615.2937252300001,None,615.3017380000001,None,615.3017380000001,None,615.3017380000001,None,0.004131629999392317,0.5041316299993923,615.3017380000001,None,615.3017380000001,None,615.3017380000001,None,615.3017380000001,None,615.3017380000001,None,615.3017380000001,None,617.2926384999992,617.2926384999992,39.599999999999994,1.83,550,-100,-550,,,,,,,,,,,,,,,,,,,,,,,,,,,,,,,,,,,,,,,,,,,,,,,,,,,,,,,,,,,,,,,,,,,,,,,,,,,,,,,,,,,f,24,yumeijing,2022-04-04_11h35.37.955,emotion,2022.1.2,60.00391225518104,
33,50,50,200,two,50,50,200,,,,,0,50,50,32,,,,,,,,,,,right,2.376574999998411,619.1752959999994,None,619.1752959999994,None,621.5743158000005,None,621.5743158000005,None,621.5743158000005,None,623.5565669999996,624.0563249000006,623.5565669999996,624.0563249000006,623.5565669999996,624.0563249000006,621.5743158000005,None,624.0899873300007,None,624.0899873300007,None,624.0899873300007,None,0.0109075300006225,None,624.0899873300007,None,624.0899873300007,None,624.0899873300007,None,624.0899873300007,None,624.0899873300007,None,624.0899873300007,None,624.0981699999993,None,624.0981699999993,None,624.0981699999993,None,0.004038130000481033,0.504038130000481,624.0981699999993,None,624.0981699999993,None,624.0981699999993,None,624.0981699999993,None,624.0981699999993,None,624.0981699999993,None,626.0887774000003,626.0887774000003,19.0,1.616,600,-50,-350,,,,,,,,,,,,,,,,,,,,,,,,,,,,,,,,,,,,,,,,,,,,,,,,,,,,,,,,,,,,,,,,,,,,,,,,,,,,,,,,,,,f,24,yumeijing,2022-04-04_11h35.37.955,emotion,2022.1.2,60.00391225518104,
18,200,0,0,one,200,0,0,,,,,0,51,51,17,,,,,,,,,,,down,2.038873899999089,627.7549311000002,None,627.7549311000002,None,629.8202593999995,None,629.8202593999995,None,629.8202593999995,None,631.8031644999992,632.3025892000005,631.8031644999992,632.3025892000005,631.8031644999992,632.3025892000005,629.8202593999995,None,632.3362057300003,None,632.3362057300003,None,632.3362057300003,None,0.010914430000411812,None,632.3362057300003,None,632.3362057300003,None,632.3362057300003,None,632.3362057300003,None,632.3362057300003,None,632.3362057300003,None,632.3443138000002,None,632.3443138000002,None,632.3443138000002,None,0.0041920300009223865,0.5041920300009224,632.3443138000002,None,632.3443138000002,None,632.3443138000002,None,632.3443138000002,None,632.3443138000002,None,632.3443138000002,None,634.3353298999991,634.3353298999991,41.2,2.49,800,-50,-350,,,,,,,,,,,,,,,,,,,,,,,,,,,,,,,,,,,,,,,,,,,,,,,,,,,,,,,,,,,,,,,,,,,,,,,,,,,,,,,,,,,f,24,yumeijing,2022-04-04_11h35.37.955,emotion,2022.1.2,60.00391225518104,
86,-200,0,-200,one,-200,0,-200,,,,,0,52,52,85,,,,,,,,,,,left,2.832092200000261,636.8824889000007,None,636.8824889000007,None,639.7325299000004,None,639.7325299000004,None,639.7325299000004,None,641.7150825999997,642.2147007999993,641.7150825999997,642.2147007999993,641.7150825999997,642.2147007999993,639.7325299000004,None,642.2482083300004,None,642.2482083300004,None,642.2482083300004,None,0.010400029999800608,None,642.2482083300004,None,642.2482083300004,None,642.2482083300004,None,642.2482083300004,None,642.2482083300004,None,642.2482083300004,None,642.2563781999997,None,642.2563781999997,None,642.2563781999997,None,0.003809329999057809,0.5038093299990578,642.2563781999997,None,642.2563781999997,None,642.2563781999997,None,642.2563781999997,None,642.2563781999997,None,642.2563781999997,None,644.2473193000005,644.2473193000005,-43.4,1.885,600,-50,-550,,,,,,,,,,,,,,,,,,,,,,,,,,,,,,,,,,,,,,,,,,,,,,,,,,,,,,,,,,,,,,,,,,,,,,,,,,,,,,,,,,,f,24,yumeijing,2022-04-04_11h35.37.955,emotion,2022.1.2,60.00391225518104,
60,-200,0,-50,two,-200,0,-50,,,,,0,53,53,59,,,,,,,,,,,down,1.921936700000515,646.195033,None,646.195033,None,648.1455893999992,None,648.1455893999992,None,648.1455893999992,None,650.1279868000001,650.6276655000001,650.1279868000001,650.6276655000001,650.1279868000001,650.6276655000001,648.1455893999992,None,650.6609159300008,None,650.6609159300008,None,650.6609159300008,None,0.010855930000616354,None,650.6609159300008,None,650.6609159300008,None,650.6609159300008,None,650.6609159300008,None,650.6609159300008,None,650.6609159300008,None,650.6683548000001,None,650.6683548000001,None,650.6683548000001,None,0.004419430000780267,0.5044194300007803,650.6683548000001,None,650.6683548000001,None,650.6683548000001,None,650.6683548000001,None,650.6683548000001,None,650.6683548000001,None,652.6600479999997,652.6600479999997,-35.6,2.543,400,-50,-600,,,,,,,,,,,,,,,,,,,,,,,,,,,,,,,,,,,,,,,,,,,,,,,,,,,,,,,,,,,,,,,,,,,,,,,,,,,,,,,,,,,f,24,yumeijing,2022-04-04_11h35.37.955,emotion,2022.1.2,60.00391225518104,
93,0,-200,-200,two,0,-200,-200,,,,,0,54,54,92,,,,,,,,,,,down,1.980856299998777,655.2589631999999,None,655.2589631999999,None,657.2578130000002,None,657.2578130000002,None,657.2578130000002,None,659.2403661999997,659.7399141999995,659.2403661999997,659.7399141999995,659.2403661999997,659.7399141999995,657.2578130000002,None,659.7733307300007,None,659.7733307300007,None,659.7733307300007,None,0.010690830000385176,None,659.7733307300007,None,659.7733307300007,None,659.7733307300007,None,659.7733307300007,None,659.7733307300007,None,659.7733307300007,None,659.7820561000008,None,659.7820561000008,None,659.7820561000008,None,0.0036029300008522114,0.5036029300008522,659.7820561000008,None,659.7820561000008,None,659.7820561000008,None,659.7820561000008,None,659.7820561000008,None,659.7820561000008,None,661.7725819999996,661.7725819999996,7.5,2.259,400,-250,-800,,,,,,,,,,,,,,,,,,,,,,,,,,,,,,,,,,,,,,,,,,,,,,,,,,,,,,,,,,,,,,,,,,,,,,,,,,,,,,,,,,,f,24,yumeijing,2022-04-04_11h35.37.955,emotion,2022.1.2,60.00391225518104,
32,50,200,50,two,50,200,50,,,,,0,55,55,31,,,,,,,,,,,right,2.366205499998614,664.0881864000003,None,664.0881864000003,None,666.4869715999994,None,666.4869715999994,None,666.4869715999994,None,668.4692993000008,668.9693067999997,668.4692993000008,668.9693067999997,668.4692993000008,668.9693067999997,666.4869715999994,None,668.9859718299997,None,668.9859718299997,None,668.9859718299997,None,0.0101915299983375,None,668.9859718299997,None,668.9859718299997,None,668.9859718299997,None,668.9859718299997,None,668.9859718299997,None,668.9859718299997,None,668.994901,None,668.994901,None,668.994901,None,0.00314852999872528,0.5031485299987253,668.994901,None,668.994901,None,668.994901,None,668.994901,None,668.994901,None,668.994901,None,670.9850041999998,670.9850041999998,-7.399999999999999,2.211,450,-50,-750,,,,,,,,,,,,,,,,,,,,,,,,,,,,,,,,,,,,,,,,,,,,,,,,,,,,,,,,,,,,,,,,,,,,,,,,,,,,,,,,,,,f,24,yumeijing,2022-04-04_11h35.37.955,emotion,2022.1.2,60.00391225518104,
29,50,0,50,one,50,0,50,,,,,0,56,56,28,,,,,,,,,,,right,2.3318613999981608,673.2505256000004,None,673.2505256000004,None,675.5995543999998,None,675.5995543999998,None,675.5995543999998,None,677.5820292000008,678.0817862000004,677.5820292000008,678.0817862000004,677.5820292000008,678.0817862000004,675.5995543999998,None,678.1153073299995,None,678.1153073299995,None,678.1153073299995,None,0.010850829999981215,None,678.1153073299995,None,678.1153073299995,None,678.1153073299995,None,678.1153073299995,None,678.1153073299995,None,678.1153073299995,None,678.1233670000001,None,678.1233670000001,None,678.1233670000001,None,0.004438629999640398,0.5044386299996404,678.1233670000001,None,678.1233670000001,None,678.1233670000001,None,678.1233670000001,None,678.1233670000001,None,678.1233670000001,None,680.1143049999991,680.1143049999991,11.899999999999999,1.485,500,-50,-700,,,,,,,,,,,,,,,,,,,,,,,,,,,,,,,,,,,,,,,,,,,,,,,,,,,,,,,,,,,,,,,,,,,,,,,,,,,,,,,,,,,f,24,yumeijing,2022-04-04_11h35.37.955,emotion,2022.1.2,60.00391225518104,
15,50,0,0,one,50,0,0,,,,,0,57,57,14,,,,,,,,,,,down,1.8198935999989772,681.662569099999,None,681.662569099999,None,683.5127023000005,None,683.5127023000005,None,683.5127023000005,None,685.4948401000001,685.9948710999997,685.4948401000001,685.9948710999997,685.4948401000001,685.9948710999997,683.5127023000005,None,686.0282977299996,None,686.0282977299996,None,686.0282977299996,None,0.010685929999453947,None,686.0282977299996,None,686.0282977299996,None,686.0282977299996,None,686.0282977299996,None,686.0282977299996,None,686.0282977299996,None,686.0358175000001,None,686.0358175000001,None,686.0358175000001,None,0.00421082999855571,0.5042108299985557,686.0358175000001,None,686.0358175000001,None,686.0358175000001,None,686.0358175000001,None,686.0358175000001,None,686.0358175000001,None,688.0273873999995,688.0273873999995,25.200000000000003,1.676,550,-50,-700,,,,,,,,,,,,,,,,,,,,,,,,,,,,,,,,,,,,,,,,,,,,,,,,,,,,,,,,,,,,,,,,,,,,,,,,,,,,,,,,,,,f,24,yumeijing,2022-04-04_11h35.37.955,emotion,2022.1.2,60.00391225518104,
34,0,50,50,two,0,50,50,,,,,0,58,58,33,,,,,,,,,,,right,2.8716543999980786,689.7598945999998,None,689.7598945999998,None,692.6585388000003,None,692.6585388000003,None,692.6585388000003,None,694.6409067999994,695.1407132999993,694.6409067999994,695.1407132999993,694.6409067999994,695.1407132999993,692.6585388000003,None,695.1740163300003,None,695.1740163300003,None,695.1740163300003,None,0.010741430000052787,None,695.1740163300003,None,695.1740163300003,None,695.1740163300003,None,695.1740163300003,None,695.1740163300003,None,695.1740163300003,None,695.1819374000006,None,695.1819374000006,None,695.1819374000006,None,0.00433883000005153,0.5043388300000515,695.1819374000006,None,695.1819374000006,None,695.1819374000006,None,695.1819374000006,None,695.1819374000006,None,695.1819374000006,None,697.1732214999993,697.1732214999993,6.200000000000003,1.461,550,0,-650,,,,,,,,,,,,,,,,,,,,,,,,,,,,,,,,,,,,,,,,,,,,,,,,,,,,,,,,,,,,,,,,,,,,,,,,,,,,,,,,,,,f,24,yumeijing,2022-04-04_11h35.37.955,emotion,2022.1.2,60.00391225518104,
58,-50,-200,0,two,-50,-200,0,,,,,0,59,59,57,,,,,,,,,,,down,1.9916135999992548,698.6890865000005,None,698.6890865000005,None,700.7047067999993,None,700.7047067999993,None,700.7047067999993,None,702.6873407000003,703.187199,702.6873407000003,703.187199,702.6873407000003,703.187199,700.7047067999993,None,703.20386403,None,703.20386403,None,703.20386403,None,0.010272029998304788,None,703.20386403,None,703.20386403,None,703.20386403,None,703.20386403,None,703.20386403,None,703.20386403,None,703.2119172999992,None,703.2119172999992,None,703.2119172999992,None,0.0035812299993267516,0.5035812299993268,703.2119172999992,None,703.2119172999992,None,703.2119172999992,None,703.2119172999992,None,703.2119172999992,None,703.2119172999992,None,705.2028917000007,705.2028917000007,23.099999999999994,1.696,500,-200,-650,,,,,,,,,,,,,,,,,,,,,,,,,,,,,,,,,,,,,,,,,,,,,,,,,,,,,,,,,,,,,,,,,,,,,,,,,,,,,,,,,,,f,24,yumeijing,2022-04-04_11h35.37.955,emotion,2022.1.2,60.00391225518104,
30,50,50,0,one,50,50,0,,,,,0,60,60,29,,,,,,,,,,,down,1.6139634999999544,706.9519027999995,None,706.9519027999995,None,708.5849094999994,None,708.5849094999994,None,708.5849094999994,None,710.5671301000002,711.0666994000003,710.5671301000002,711.0666994000003,710.5671301000002,711.0666994000003,708.5849094999994,None,711.1001477299999,None,711.1001477299999,None,711.1001477299999,None,0.011000329999660607,None,711.1001477299999,None,711.1001477299999,None,711.1001477299999,None,711.1001477299999,None,711.1001477299999,None,711.1001477299999,None,711.1081384999998,None,711.1081384999998,None,711.1081384999998,None,0.004154329999437323,0.5041543299994373,711.1081384999998,None,711.1081384999998,None,711.1081384999998,None,711.1081384999998,None,711.1081384999998,None,711.1081384999998,None,713.0990767000003,713.0990767000003,18.200000000000003,1.051,550,-150,-650,,,,,,,,,,,,,,,,,,,,,,,,,,,,,,,,,,,,,,,,,,,,,,,,,,,,,,,,,,,,,,,,,,,,,,,,,,,,,,,,,,,f,24,yumeijing,2022-04-04_11h35.37.955,emotion,2022.1.2,60.00391225518104,
63,-50,0,0,one,-50,0,0,,,,,0,61,61,62,,,,,,,,,,,left,1.8390822000001208,714.1997472999992,None,714.1997472999992,None,716.1196961999995,None,716.1196961999995,None,716.1196961999995,None,718.0471419999994,718.5467833000002,718.0471419999994,718.5467833000002,718.0471419999994,718.5467833000002,716.1196961999995,None,718.5801723299994,None,718.5801723299994,None,718.5801723299994,None,0.01080382999862195,None,718.5801723299994,None,718.5801723299994,None,718.5801723299994,None,718.5801723299994,None,718.5801723299994,None,718.5801723299994,None,718.5882378999995,None,718.5882378999995,None,718.5882378999995,None,0.00429292999979225,0.5042929299997922,718.5882378999995,None,718.5882378999995,None,718.5882378999995,None,718.5882378999995,None,718.5882378999995,None,718.5882378999995,None,720.5791169999993,720.5791169999993,-11.200000000000003,1.351,500,-150,-650,,,,,,,,,,,,,,,,,,,,,,,,,,,,,,,,,,,,,,,,,,,,,,,,,,,,,,,,,,,,,,,,,,,,,,,,,,,,,,,,,,,f,24,yumeijing,2022-04-04_11h35.37.955,emotion,2022.1.2,60.00391225518104,
12,200,0,50,two,200,0,50,,,,,0,62,62,11,,,,,,,,,,,down,1.8812975999990158,721.9789949000005,None,721.9789949000005,None,723.8775019000004,None,723.8775019000004,None,723.8775019000004,None,725.8599625999996,726.3596973999993,725.8599625999996,726.3596973999993,725.8599625999996,726.3596973999993,723.8775019000004,None,726.3932094300001,None,726.3932094300001,None,726.3932094300001,None,0.010589130000880687,None,726.3932094300001,None,726.3932094300001,None,726.3932094300001,None,726.3932094300001,None,726.3932094300001,None,726.3932094300001,None,726.4016272999997,None,726.4016272999997,None,726.4016272999997,None,0.004102430000784807,0.5041024300007848,726.4016272999997,None,726.4016272999997,None,726.4016272999997,None,726.4016272999997,None,726.4016272999997,None,726.4016272999997,None,728.3920978999995,728.3920978999995,35.5,3.483,700,-150,-600,,,,,,,,,,,,,,,,,,,,,,,,,,,,,,,,,,,,,,,,,,,,,,,,,,,,,,,,,,,,,,,,,,,,,,,,,,,,,,,,,,,f,24,yumeijing,2022-04-04_11h35.37.955,emotion,2022.1.2,60.00391225518104,
73,-200,-50,-50,one,-200,-50,-50,,,,,0,63,63,72,,,,,,,,,,,down,1.4897285999995802,731.9247376999992,None,731.9247376999992,None,733.4400834999997,None,733.4400834999997,None,733.4400834999997,None,735.4224610000001,735.9221629999993,735.4224610000001,735.9221629999993,735.4224610000001,735.9221629999993,733.4400834999997,None,735.9555284300006,None,735.9555284300006,None,735.9555284300006,None,0.010691729999962263,None,735.9555284300006,None,735.9555284300006,None,735.9555284300006,None,735.9555284300006,None,735.9555284300006,None,735.9555284300006,None,735.9640108999993,None,735.9640108999993,None,735.9640108999993,None,0.003968330000134301,0.5039683300001343,735.9640108999993,None,735.9640108999993,None,735.9640108999993,None,735.9640108999993,None,735.9640108999993,None,735.9640108999993,None,737.9546797999992,737.9546797999992,-31.1,3.048,500,-200,-650,,,,,,,,,,,,,,,,,,,,,,,,,,,,,,,,,,,,,,,,,,,,,,,,,,,,,,,,,,,,,,,,,,,,,,,,,,,,,,,,,,,f,24,yumeijing,2022-04-04_11h35.37.955,emotion,2022.1.2,60.00391225518104,
89,-200,-50,-200,one,-200,-50,-200,,,,,0,64,64,88,,,,,,,,,,,right,3.5645991999990656,741.0533880999992,None,741.0533880999992,None,744.6350731000002,None,744.6350731000002,None,744.6350731000002,None,746.6174869000006,747.1170915000002,746.6174869000006,747.1170915000002,746.6174869000006,747.1170915000002,744.6350731000002,None,747.1505810300007,None,747.1505810300007,None,747.1505810300007,None,0.01065383000059228,None,747.1505810300007,None,747.1505810300007,None,747.1505810300007,None,747.1505810300007,None,747.1505810300007,None,747.1505810300007,None,747.1592395999996,None,747.1592395999996,None,747.1592395999996,None,0.003292030001830426,0.5032920300018304,747.1592395999996,None,747.1592395999996,None,747.1592395999996,None,747.1592395999996,None,747.1592395999996,None,747.1592395999996,None,749.1493525999995,749.1493525999995,-26.6,1.842,300,-250,-850,,,,,,,,,,,,,,,,,,,,,,,,,,,,,,,,,,,,,,,,,,,,,,,,,,,,,,,,,,,,,,,,,,,,,,,,,,,,,,,,,,,f,24,yumeijing,2022-04-04_11h35.37.955,emotion,2022.1.2,60.00391225518104,
4,50,200,0,one,50,200,0,,,,,0,65,65,3,,,,,,,,,,,down,1.6628063000007387,751.0484385,None,751.0484385,None,752.7314342999998,None,752.7314342999998,None,752.7314342999998,None,754.7138207000007,755.2134205999992,754.7138207000007,755.2134205999992,754.7138207000007,755.2134205999992,752.7314342999998,None,755.2468525299994,None,755.2468525299994,None,755.2468525299994,None,0.010848829999304144,None,755.2468525299994,None,755.2468525299994,None,755.2468525299994,None,755.2468525299994,None,755.2468525299994,None,755.2468525299994,None,755.2549889000002,None,755.2549889000002,None,755.2549889000002,None,0.004210929999317159,0.5042109299993172,755.2549889000002,None,755.2549889000002,None,755.2549889000002,None,755.2549889000002,None,755.2549889000002,None,755.2549889000002,None,757.2459182000002,757.2459182000002,-11.100000000000001,2.453,350,-50,-850,,,,,,,,,,,,,,,,,,,,,,,,,,,,,,,,,,,,,,,,,,,,,,,,,,,,,,,,,,,,,,,,,,,,,,,,,,,,,,,,,,,f,24,yumeijing,2022-04-04_11h35.37.955,emotion,2022.1.2,60.00391225518104,
72,-200,0,0,two,-200,0,0,,,,,0,66,66,71,,,,,,,,,,,down,1.9340694000002259,759.7601068999993,None,759.7601068999993,None,761.7104201000002,None,761.7104201000002,None,761.7104201000002,None,763.6929485,764.1929268999993,763.6929485,764.1929268999993,763.6929485,764.1929268999993,761.7104201000002,None,764.2095919299993,None,764.2095919299993,None,764.2095919299993,None,0.010432330000185175,None,764.2095919299993,None,764.2095919299993,None,764.2095919299993,None,764.2095919299993,None,764.2095919299993,None,764.2095919299993,None,764.2177836999999,None,764.2177836999999,None,764.2177836999999,None,0.00407263000124658,0.5040726300012466,764.2177836999999,None,764.2177836999999,None,764.2177836999999,None,764.2177836999999,None,764.2177836999999,None,764.2177836999999,None,766.2083934000002,766.2083934000002,-37.5,1.694,150,-50,-850,,,,,,,,,,,,,,,,,,,,,,,,,,,,,,,,,,,,,,,,,,,,,,,,,,,,,,,,,,,,,,,,,,,,,,,,,,,,,,,,,,,f,24,yumeijing,2022-04-04_11h35.37.955,emotion,2022.1.2,60.00391225518104,
43,200,200,0,two,200,200,0,,,,,0,67,67,42,,,,,,,,,,,right,1.8735016999980871,767.9574370999999,None,767.9574370999999,None,769.8567303,None,769.8567303,None,769.8567303,None,771.8391781999999,772.3389554000005,771.8391781999999,772.3389554000005,771.8391781999999,772.3389554000005,769.8567303,None,772.3721401299993,None,772.3721401299993,None,772.3721401299993,None,0.01039952999963134,None,772.3721401299993,None,772.3721401299993,None,772.3721401299993,None,772.3721401299993,None,772.3721401299993,None,772.3721401299993,None,772.3807316999992,None,772.3807316999992,None,772.3807316999992,None,0.003911530000550556,0.5039115300005506,772.3807316999992,None,772.3807316999992,None,772.3807316999992,None,772.3807316999992,None,772.3807316999992,None,772.3807316999992,None,774.3715431,774.3715431,0.10000000000000142,2.838,350,150,-850,,,,,,,,,,,,,,,,,,,,,,,,,,,,,,,,,,,,,,,,,,,,,,,,,,,,,,,,,,,,,,,,,,,,,,,,,,,,,,,,,,,f,24,yumeijing,2022-04-04_11h35.37.955,emotion,2022.1.2,60.00391225518104,
71,0,-200,0,two,0,-200,0,,,,,0,68,68,70,,,,,,,,,,,down,3.1938090000003285,777.2699374999993,None,777.2699374999993,None,780.4852276999991,None,780.4852276999991,None,780.4852276999991,None,782.4678860000004,782.9673942999998,782.4678860000004,782.9673942999998,782.4678860000004,782.9673942999998,780.4852276999991,None,783.0007681299996,None,783.0007681299996,None,783.0007681299996,None,0.010731929998655687,None,783.0007681299996,None,783.0007681299996,None,783.0007681299996,None,783.0007681299996,None,783.0007681299996,None,783.0007681299996,None,783.0089076000004,None,783.0089076000004,None,783.0089076000004,None,0.004161529999691993,0.504161529999692,783.0089076000004,None,783.0089076000004,None,783.0089076000004,None,783.0089076000004,None,783.0089076000004,None,783.0089076000004,None,784.9998267999999,784.9998267999999,19.599999999999994,1.903,350,-50,-850,,,,,,,,,,,,,,,,,,,,,,,,,,,,,,,,,,,,,,,,,,,,,,,,,,,,,,,,,,,,,,,,,,,,,,,,,,,,,,,,,,,f,24,yumeijing,2022-04-04_11h35.37.955,emotion,2022.1.2,60.00391225518104,
16,0,0,200,one,0,0,200,,,,,0,69,69,15,,,,,,,,,,,right,1.681434199999785,786.9645517999998,None,786.9645517999998,None,788.6651409999995,None,788.6651409999995,None,788.6651409999995,None,790.6473110000006,791.1470934999998,790.6473110000006,791.1470934999998,790.6473110000006,791.1470934999998,788.6651409999995,None,791.1804229299998,None,791.1804229299998,None,791.1804229299998,None,0.01094182999986515,None,791.1804229299998,None,791.1804229299998,None,791.1804229299998,None,791.1804229299998,None,791.1804229299998,None,791.1804229299998,None,791.1882846000008,None,791.1882846000008,None,791.1882846000008,None,0.004650229999242583,0.5046502299992426,791.1882846000008,None,791.1882846000008,None,791.1882846000008,None,791.1882846000008,None,791.1882846000008,None,791.1882846000008,None,793.1796095999998,793.1796095999998,-5.600000000000001,3.791,350,-50,-650,,,,,,,,,,,,,,,,,,,,,,,,,,,,,,,,,,,,,,,,,,,,,,,,,,,,,,,,,,,,,,,,,,,,,,,,,,,,,,,,,,,f,24,yumeijing,2022-04-04_11h35.37.955,emotion,2022.1.2,60.00391225518104,
85,-200,-200,0,one,-200,-200,0,,,,,0,70,70,84,,,,,,,,,,,right,1.7965588999995816,797.0277184000006,None,797.0277184000006,None,798.8437826999998,None,798.8437826999998,None,798.8437826999998,None,800.8260704000004,801.3258361999997,800.8260704000004,801.3258361999997,800.8260704000004,801.3258361999997,798.8437826999998,None,801.3588568300004,None,801.3588568300004,None,801.3588568300004,None,0.010792130000481848,None,801.3588568300004,None,801.3588568300004,None,801.3588568300004,None,801.3588568300004,None,801.3588568300004,None,801.3588568300004,None,801.3670204999999,None,801.3670204999999,None,801.3670204999999,None,0.003903030001310981,0.503903030001311,801.3670204999999,None,801.3670204999999,None,801.3670204999999,None,801.3670204999999,None,801.3670204999999,None,801.3670204999999,None,803.3581758,803.3581758,-24.5,2.65,150,-250,-650,,,,,,,,,,,,,,,,,,,,,,,,,,,,,,,,,,,,,,,,,,,,,,,,,,,,,,,,,,,,,,,,,,,,,,,,,,,,,,,,,,,f,24,yumeijing,2022-04-04_11h35.37.955,emotion,2022.1.2,60.00391225518104,
27,50,50,200,one,50,50,200,,,,,0,71,71,26,,,,,,,,,,,right,1.6396420000000944,806.0576624000005,None,806.0576624000005,None,807.7227815000006,None,807.7227815000006,None,807.7227815000006,None,809.7050885000008,810.2051754999993,809.7050885000008,810.2051754999993,809.7050885000008,810.2051754999993,807.7227815000006,None,810.2218405299993,None,810.2218405299993,None,810.2218405299993,None,0.010395029999926919,None,810.2218405299993,None,810.2218405299993,None,810.2218405299993,None,810.2218405299993,None,810.2218405299993,None,810.2218405299993,None,810.2303773999993,None,810.2303773999993,None,810.2303773999993,None,0.003007429999343003,0.503007429999343,810.2303773999993,None,810.2303773999993,None,810.2303773999993,None,810.2303773999993,None,810.2303773999993,None,810.2303773999993,None,812.2210811000004,812.2210811000004,-23.1,3.452,200,-200,-450,,,,,,,,,,,,,,,,,,,,,,,,,,,,,,,,,,,,,,,,,,,,,,,,,,,,,,,,,,,,,,,,,,,,,,,,,,,,,,,,,,,f,24,yumeijing,2022-04-04_11h35.37.955,emotion,2022.1.2,60.00391225518104,
31,200,50,50,two,200,50,50,,,,,0,72,72,30,,,,,,,,,,,right,1.5054196000000957,815.7347764999995,None,815.7347764999995,None,817.2685958000002,None,817.2685958000002,None,817.2685958000002,None,819.2509346000006,819.7508235000005,819.2509346000006,819.7508235000005,819.2509346000006,819.7508235000005,817.2685958000002,None,819.7840832299992,None,819.7840832299992,None,819.7840832299992,None,0.010426630000438308,None,819.7840832299992,None,819.7840832299992,None,819.7840832299992,None,819.7840832299992,None,819.7840832299992,None,819.7840832299992,None,819.7930997999993,None,819.7930997999993,None,819.7930997999993,None,0.003743929999473039,0.503743929999473,819.7930997999993,None,819.7930997999993,None,819.7930997999993,None,819.7930997999993,None,819.7930997999993,None,819.7930997999993,None,821.7832049999997,821.7832049999997,46.599999999999994,2.375,400,-150,-400,,,,,,,,,,,,,,,,,,,,,,,,,,,,,,,,,,,,,,,,,,,,,,,,,,,,,,,,,,,,,,,,,,,,,,,,,,,,,,,,,,,f,24,yumeijing,2022-04-04_11h35.37.955,emotion,2022.1.2,60.00391225518104,
3,50,0,200,one,50,0,200,,,,,0,73,73,2,,,,,,,,,,,down,1.3273068999988027,824.2154257999991,None,824.2154257999991,None,825.5648820999995,None,825.5648820999995,None,825.5648820999995,None,827.5473476999996,828.0470552000006,827.5473476999996,828.0470552000006,827.5473476999996,828.0470552000006,825.5648820999995,None,828.0802799300002,None,828.0802799300002,None,828.0802799300002,None,0.01027143000101205,None,828.0802799300002,None,828.0802799300002,None,828.0802799300002,None,828.0802799300002,None,828.0802799300002,None,828.0802799300002,None,828.0883190000004,None,828.0883190000004,None,828.0883190000004,None,0.0037500300004467135,0.5037500300004467,828.0883190000004,None,828.0883190000004,None,828.0883190000004,None,828.0883190000004,None,828.0883190000004,None,828.0883190000004,None,830.0794432000002,830.0794432000002,7.799999999999997,2.109,450,-150,-200,,,,,,,,,,,,,,,,,,,,,,,,,,,,,,,,,,,,,,,,,,,,,,,,,,,,,,,,,,,,,,,,,,,,,,,,,,,,,,,,,,,f,24,yumeijing,2022-04-04_11h35.37.955,emotion,2022.1.2,60.00391225518104,
36,50,50,0,two,50,50,0,,,,,0,74,74,35,,,,,,,,,,,down,1.518507299999328,832.2445341000002,None,832.2445341000002,None,833.7945228999997,None,833.7945228999997,None,833.7945228999997,None,835.7767755000004,836.2764289000006,835.7767755000004,836.2764289000006,835.7767755000004,836.2764289000006,833.7945228999997,None,836.3100086300003,None,836.3100086300003,None,836.3100086300003,None,0.01088142999833508,None,836.3100086300003,None,836.3100086300003,None,836.3100086300003,None,836.3100086300003,None,836.3100086300003,None,836.3100086300003,None,836.3179851000004,None,836.3179851000004,None,836.3179851000004,None,0.004463229999601026,0.504463229999601,836.3179851000004,None,836.3179851000004,None,836.3179851000004,None,836.3179851000004,None,836.3179851000004,None,836.3179851000004,None,838.3088934000007,838.3088934000007,16.599999999999994,1.544,500,-100,-200,,,,,,,,,,,,,,,,,,,,,,,,,,,,,,,,,,,,,,,,,,,,,,,,,,,,,,,,,,,,,,,,,,,,,,,,,,,,,,,,,,,f,24,yumeijing,2022-04-04_11h35.37.955,emotion,2022.1.2,60.00391225518104,
90,-50,-200,-200,one,-50,-200,-200,,,,,0,75,75,89,,,,,,,,,,,down,1.873191399999996,839.9082624000002,None,839.9082624000002,None,841.8074429000008,None,841.8074429000008,None,841.8074429000008,None,843.7900773999991,844.2895919999992,843.7900773999991,844.2895919999992,843.7900773999991,844.2895919999992,841.8074429000008,None,844.3229378300005,None,844.3229378300005,None,844.3229378300005,None,0.01038042999971367,None,844.3229378300005,None,844.3229378300005,None,844.3229378300005,None,844.3229378300005,None,844.3229378300005,None,844.3229378300005,None,844.3315273999997,None,844.3315273999997,None,844.3315273999997,None,0.003774630000407342,0.5037746300004073,844.3315273999997,None,844.3315273999997,None,844.3315273999997,None,844.3315273999997,None,844.3315273999997,None,844.3315273999997,None,846.3219568000004,846.3219568000004,34.099999999999994,2.009,450,-300,-400,,,,,,,,,,,,,,,,,,,,,,,,,,,,,,,,,,,,,,,,,,,,,,,,,,,,,,,,,,,,,,,,,,,,,,,,,,,,,,,,,,,f,24,yumeijing,2022-04-04_11h35.37.955,emotion,2022.1.2,60.00391225518104,
48,50,200,200,two,50,200,200,,,,,0,76,76,47,,,,,,,,,,,left,2.70362699999896,848.3876237000004,None,848.3876237000004,None,851.1197376,None,851.1197376,None,851.1197376,None,853.1022295999992,853.6018628000002,853.1022295999992,853.6018628000002,853.1022295999992,853.6018628000002,851.1197376,None,853.635538929999,None,853.635538929999,None,853.635538929999,None,0.010886929998378037,None,853.635538929999,None,853.635538929999,None,853.635538929999,None,853.635538929999,None,853.635538929999,None,853.635538929999,None,853.6434585000006,None,853.6434585000006,None,853.6434585000006,None,0.00335662999896158,0.5033566299989616,853.6434585000006,None,853.6434585000006,None,853.6434585000006,None,853.6434585000006,None,853.6434585000006,None,853.6434585000006,None,855.6344004999992,855.6344004999992,-10.799999999999997,1.802,500,-100,-200,,,,,,,,,,,,,,,,,,,,,,,,,,,,,,,,,,,,,,,,,,,,,,,,,,,,,,,,,,,,,,,,,,,,,,,,,,,,,,,,,,,f,24,yumeijing,2022-04-04_11h35.37.955,emotion,2022.1.2,60.00391225518104,
66,-200,0,0,one,-200,0,0,,,,,0,77,77,65,,,,,,,,,,,left,1.5494240999996691,857.4992387999991,None,857.4992387999991,None,859.0662971000002,None,859.0662971000002,None,859.0662971000002,None,861.0486118999997,861.5484880999993,861.0486118999997,861.5484880999993,861.0486118999997,861.5484880999993,859.0662971000002,None,861.581836829999,None,861.581836829999,None,861.581836829999,None,0.010703129999455996,None,861.581836829999,None,861.581836829999,None,861.581836829999,None,861.581836829999,None,861.581836829999,None,861.581836829999,None,861.5895173000008,None,861.5895173000008,None,861.5895173000008,None,0.004448129999218509,0.5044481299992185,861.5895173000008,None,861.5895173000008,None,861.5895173000008,None,861.5895173000008,None,861.5895173000008,None,861.5895173000008,None,863.5807984999992,863.5807984999992,-38.5,1.949,300,-100,-200,,,,,,,,,,,,,,,,,,,,,,,,,,,,,,,,,,,,,,,,,,,,,,,,,,,,,,,,,,,,,,,,,,,,,,,,,,,,,,,,,,,f,24,yumeijing,2022-04-04_11h35.37.955,emotion,2022.1.2,60.00391225518104,
13,0,0,50,one,0,0,50,,,,,0,78,78,12,,,,,,,,,,,left,1.4814260000002832,865.5799494000003,None,865.5799494000003,None,867.0792774999991,None,867.0792774999991,None,867.0792774999991,None,869.0617177000004,869.5614650000007,869.0617177000004,869.5614650000007,869.0617177000004,869.5614650000007,867.0792774999991,None,869.5949496300002,None,869.5949496300002,None,869.5949496300002,None,0.011052530000597471,None,869.5949496300002,None,869.5949496300002,None,869.5949496300002,None,869.5949496300002,None,869.5949496300002,None,869.5949496300002,None,869.6023423999995,None,869.6023423999995,None,869.6023423999995,None,0.004445130000021891,0.5044451300000219,869.6023423999995,None,869.6023423999995,None,869.6023423999995,None,869.6023423999995,None,869.6023423999995,None,869.6023423999995,None,871.5941120000007,871.5941120000007,0.10000000000000142,3.842,300,-100,-150,,,,,,,,,,,,,,,,,,,,,,,,,,,,,,,,,,,,,,,,,,,,,,,,,,,,,,,,,,,,,,,,,,,,,,,,,,,,,,,,,,,f,24,yumeijing,2022-04-04_11h35.37.955,emotion,2022.1.2,60.00391225518104,
65,0,-200,0,one,0,-200,0,,,,,0,79,79,64,,,,,,,,,,,down,1.7151231999996526,875.4920965999991,None,875.4920965999991,None,877.2246904999993,None,877.2246904999993,None,877.2246904999993,None,879.2071450000003,879.7070179000002,879.2071450000003,879.7070179000002,879.2071450000003,879.7070179000002,877.2246904999993,None,879.7402773300003,None,879.7402773300003,None,879.7402773300003,None,0.010720529999161954,None,879.7402773300003,None,879.7402773300003,None,879.7402773300003,None,879.7402773300003,None,879.7402773300003,None,879.7402773300003,None,879.7481437999995,None,879.7481437999995,None,879.7481437999995,None,0.004301030001442996,0.504301030001443,879.7481437999995,None,879.7481437999995,None,879.7481437999995,None,879.7481437999995,None,879.7481437999995,None,879.7481437999995,None,881.7392056999997,881.7392056999997,28.5,1.927,300,-300,-150,,,,,,,,,,,,,,,,,,,,,,,,,,,,,,,,,,,,,,,,,,,,,,,,,,,,,,,,,,,,,,,,,,,,,,,,,,,,,,,,,,,f,24,yumeijing,2022-04-04_11h35.37.955,emotion,2022.1.2,60.00391225518104,
51,-50,0,-200,one,-50,0,-200,,,,,0,80,80,50,,,,,,,,,,,right,1.8924901999980648,883.7216487000005,None,883.7216487000005,None,885.6374469000002,None,885.6374469000002,None,885.6374469000002,None,887.6198963999996,888.1198497999994,887.6198963999996,888.1198497999994,887.6198963999996,888.1198497999994,885.6374469000002,None,888.1365148299994,None,888.1365148299994,None,888.1365148299994,None,0.010310029998436221,None,888.1365148299994,None,888.1365148299994,None,888.1365148299994,None,888.1365148299994,None,888.1365148299994,None,888.1365148299994,None,888.1445426999999,None,888.1445426999999,None,888.1445426999999,None,0.0031959299976733746,0.5031959299976734,888.1445426999999,None,888.1445426999999,None,888.1445426999999,None,888.1445426999999,None,888.1445426999999,None,888.1445426999999,None,890.1356212999999,890.1356212999999,3.0,3.18,250,-300,-350,,,,,,,,,,,,,,,,,,,,,,,,,,,,,,,,,,,,,,,,,,,,,,,,,,,,,,,,,,,,,,,,,,,,,,,,,,,,,,,,,,,f,24,yumeijing,2022-04-04_11h35.37.955,emotion,2022.1.2,60.00391225518104,
21,50,0,0,two,50,0,0,,,,,0,81,81,20,,,,,,,,,,,right,2.6029419000005873,893.3671653000001,None,893.3671653000001,None,895.9993990999992,None,895.9993990999992,None,895.9993990999992,None,897.9818701999993,898.4817206999996,897.9818701999993,898.4817206999996,897.9818701999993,898.4817206999996,895.9993990999992,None,898.5149184299992,None,898.5149184299992,None,898.5149184299992,None,0.010782429999380838,None,898.5149184299992,None,898.5149184299992,None,898.5149184299992,None,898.5149184299992,None,898.5149184299992,None,898.5149184299992,None,898.5236222000003,None,898.5236222000003,None,898.5236222000003,None,0.004110930000024382,0.5041109300000244,898.5236222000003,None,898.5236222000003,None,898.5236222000003,None,898.5236222000003,None,898.5236222000003,None,898.5236222000003,None,900.514122999999,900.514122999999,24.900000000000006,1.851,300,-300,-350,,,,,,,,,,,,,,,,,,,,,,,,,,,,,,,,,,,,,,,,,,,,,,,,,,,,,,,,,,,,,,,,,,,,,,,,,,,,,,,,,,,f,24,yumeijing,2022-04-04_11h35.37.955,emotion,2022.1.2,60.00391225518104,
45,0,200,200,two,0,200,200,,,,,0,82,82,44,,,,,,,,,,,right,2.2181772999992972,902.4286706999992,None,902.4286706999992,None,904.6790416000003,None,904.6790416000003,None,904.6790416000003,None,906.6613144000003,907.1610939000002,906.6613144000003,907.1610939000002,906.6613144000003,907.1610939000002,904.6790416000003,None,907.1942701299997,None,907.1942701299997,None,907.1942701299997,None,0.01072372999988147,None,907.1942701299997,None,907.1942701299997,None,907.1942701299997,None,907.1942701299997,None,907.1942701299997,None,907.1942701299997,None,907.202278499999,None,907.202278499999,None,907.202278499999,None,0.004309029998694314,0.5043090299986943,907.202278499999,None,907.202278499999,None,907.202278499999,None,907.202278499999,None,907.202278499999,None,907.202278499999,None,909.1933530000006,909.1933530000006,-5.899999999999999,1.644,300,-100,-150,,,,,,,,,,,,,,,,,,,,,,,,,,,,,,,,,,,,,,,,,,,,,,,,,,,,,,,,,,,,,,,,,,,,,,,,,,,,,,,,,,,f,24,yumeijing,2022-04-04_11h35.37.955,emotion,2022.1.2,60.00391225518104,
41,200,50,200,one,200,50,200,,,,,0,83,83,40,,,,,,,,,,,left,1.9892481999995653,910.8926553999991,None,910.8926553999991,None,912.9081922000005,None,912.9081922000005,None,912.9081922000005,None,914.8908240000001,915.3909007000002,914.8908240000001,915.3909007000002,914.8908240000001,915.3909007000002,912.9081922000005,None,915.4075657300002,None,915.4075657300002,None,915.4075657300002,None,0.010231029998976737,None,915.4075657300002,None,915.4075657300002,None,915.4075657300002,None,915.4075657300002,None,915.4075657300002,None,915.4075657300002,None,915.4167218999992,None,915.4167218999992,None,915.4167218999992,None,0.002511130000129924,0.5025111300001299,915.4167218999992,None,915.4167218999992,None,915.4167218999992,None,915.4167218999992,None,915.4167218999992,None,915.4167218999992,None,917.4064364000005,917.4064364000005,36.0,1.559,500,-50,50,,,,,,,,,,,,,,,,,,,,,,,,,,,,,,,,,,,,,,,,,,,,,,,,,,,,,,,,,,,,,,,,,,,,,,,,,,,,,,,,,,,f,24,yumeijing,2022-04-04_11h35.37.955,emotion,2022.1.2,60.00391225518104,
22,0,0,200,two,0,0,200,,,,,0,84,84,21,,,,,,,,,,,down,2.338560399999551,919.0222847000005,None,919.0222847000005,None,921.3878939000006,None,921.3878939000006,None,921.3878939000006,None,923.3702567,923.8702916999991,923.3702567,923.8702916999991,923.3702567,923.8702916999991,921.3878939000006,None,923.8869567299992,None,923.8869567299992,None,923.8869567299992,None,0.010245929997836356,None,923.8869567299992,None,923.8869567299992,None,923.8869567299992,None,923.8869567299992,None,923.8869567299992,None,923.8869567299992,None,923.895003399999,None,923.895003399999,None,923.895003399999,None,0.0035620300004666205,0.5035620300004666,923.895003399999,None,923.895003399999,None,923.895003399999,None,923.895003399999,None,923.895003399999,None,923.895003399999,None,925.8858409000004,925.8858409000004,-0.10000000000000142,3.334,500,-50,250,,,,,,,,,,,,,,,,,,,,,,,,,,,,,,,,,,,,,,,,,,,,,,,,,,,,,,,,,,,,,,,,,,,,,,,,,,,,,,,,,,,f,24,yumeijing,2022-04-04_11h35.37.955,emotion,2022.1.2,60.00391225518104,
26,50,200,50,one,50,200,50,,,,,0,85,85,25,,,,,,,,,,,right,3.117905699999028,929.2831330999998,None,929.2831330999998,None,932.4328222999993,None,932.4328222999993,None,932.4328222999993,None,934.4153862000003,934.914901099999,934.4153862000003,934.914901099999,934.4153862000003,934.914901099999,932.4328222999993,None,934.9486005300007,None,934.9486005300007,None,934.9486005300007,None,0.010709030000725761,None,934.9486005300007,None,934.9486005300007,None,934.9486005300007,None,934.9486005300007,None,934.9486005300007,None,934.9486005300007,None,934.9566288999995,None,934.9566288999995,None,934.9566288999995,None,0.00398053000208165,0.5039805300020817,934.9566288999995,None,934.9566288999995,None,934.9566288999995,None,934.9566288999995,None,934.9566288999995,None,934.9566288999995,None,936.9473402000003,936.9473402000003,3.5,2.694,550,150,300,,,,,,,,,,,,,,,,,,,,,,,,,,,,,,,,,,,,,,,,,,,,,,,,,,,,,,,,,,,,,,,,,,,,,,,,,,,,,,,,,,,f,24,yumeijing,2022-04-04_11h35.37.955,emotion,2022.1.2,60.00391225518104,
83,-50,0,-50,two,-50,0,-50,,,,,0,86,86,82,,,,,,,,,,,down,3.410890899998776,939.6961341999995,None,939.6961341999995,None,943.1281863000004,None,943.1281863000004,None,943.1281863000004,None,945.1105714999994,945.6102042000002,945.1105714999994,945.6102042000002,945.1105714999994,945.6102042000002,943.1281863000004,None,945.6437237299999,None,945.6437237299999,None,945.6437237299999,None,0.01084992999858514,None,945.6437237299999,None,945.6437237299999,None,945.6437237299999,None,945.6437237299999,None,945.6437237299999,None,945.6437237299999,None,945.6512158000005,None,945.6512158000005,None,945.6512158000005,None,0.004206529998555197,0.5042065299985552,945.6512158000005,None,945.6512158000005,None,945.6512158000005,None,945.6512158000005,None,945.6512158000005,None,945.6512158000005,None,947.6426136999999,947.6426136999999,-3.3999999999999986,3.187,500,150,250,,,,,,,,,,,,,,,,,,,,,,,,,,,,,,,,,,,,,,,,,,,,,,,,,,,,,,,,,,,,,,,,,,,,,,,,,,,,,,,,,,,f,24,yumeijing,2022-04-04_11h35.37.955,emotion,2022.1.2,60.00391225518104,
56,0,-200,-50,two,0,-200,-50,,,,,0,87,87,55,,,,,,,,,,,right,1.665544499999669,950.8901736999997,None,950.8901736999997,None,952.5735734999998,None,952.5735734999998,None,952.5735734999998,None,954.5562496999992,955.0559231000007,954.5562496999992,955.0559231000007,954.5562496999992,955.0559231000007,952.5735734999998,None,955.0725881300007,None,955.0725881300007,None,955.0725881300007,None,0.01024703000075533,None,955.0725881300007,None,955.0725881300007,None,955.0725881300007,None,955.0725881300007,None,955.0725881300007,None,955.0725881300007,None,955.0810253,None,955.0810253,None,955.0810253,None,0.002800829999614507,0.5028008299996145,955.0810253,None,955.0810253,None,955.0810253,None,955.0810253,None,955.0810253,None,955.0810253,None,957.0718173999994,957.0718173999994,6.700000000000003,2.14,500,-50,200,,,,,,,,,,,,,,,,,,,,,,,,,,,,,,,,,,,,,,,,,,,,,,,,,,,,,,,,,,,,,,,,,,,,,,,,,,,,,,,,,,,f,24,yumeijing,2022-04-04_11h35.37.955,emotion,2022.1.2,60.00391225518104,
94,-200,-200,-50,two,-200,-200,-50,,,,,0,88,88,93,,,,,,,,,,,down,2.7804720000003726,959.2695002,None,959.2695002,None,962.069491799999,None,962.069491799999,None,962.069491799999,None,964.0517849999997,964.5516728999992,964.0517849999997,964.5516728999992,964.0517849999997,964.5516728999992,962.069491799999,None,964.5849540300007,None,964.5849540300007,None,964.5849540300007,None,0.010568030000285944,None,964.5849540300007,None,964.5849540300007,None,964.5849540300007,None,964.5849540300007,None,964.5849540300007,None,964.5849540300007,None,964.5934361,None,964.5934361,None,964.5934361,None,0.0038302300017676316,0.5038302300017676,964.5934361,None,964.5934361,None,964.5934361,None,964.5934361,None,964.5934361,None,964.5934361,None,966.5839388999993,966.5839388999993,-3.5,3.139,300,-250,150,,,,,,,,,,,,,,,,,,,,,,,,,,,,,,,,,,,,,,,,,,,,,,,,,,,,,,,,,,,,,,,,,,,,,,,,,,,,,,,,,,,f,24,yumeijing,2022-04-04_11h35.37.955,emotion,2022.1.2,60.00391225518104,
49,0,-50,-200,one,0,-50,-200,,,,,0,89,89,48,,,,,,,,,,,left,1.5425219999997353,969.7815561999996,None,969.7815561999996,None,971.3484159,None,971.3484159,None,971.3484159,None,973.3310258999991,973.8307007999992,973.3310258999991,973.8307007999992,973.3310258999991,973.8307007999992,971.3484159,None,973.86417723,None,973.86417723,None,973.86417723,None,0.010660330000973772,None,973.86417723,None,973.86417723,None,973.86417723,None,973.86417723,None,973.86417723,None,973.86417723,None,973.8727036,None,973.8727036,None,973.8727036,None,0.004064529999595834,0.5040645299995958,973.8727036,None,973.8727036,None,973.8727036,None,973.8727036,None,973.8727036,None,973.8727036,None,975.8631494000001,975.8631494000001,13.100000000000001,2.088,300,-300,-50,,,,,,,,,,,,,,,,,,,,,,,,,,,,,,,,,,,,,,,,,,,,,,,,,,,,,,,,,,,,,,,,,,,,,,,,,,,,,,,,,,,f,24,yumeijing,2022-04-04_11h35.37.955,emotion,2022.1.2,60.00391225518104,
78,-50,-50,0,one,-50,-50,0,,,,,0,90,90,77,,,,,,,,,,,right,1.4245489999993879,978.0110643999997,None,978.0110643999997,None,979.4614822999993,None,979.4614822999993,None,979.4614822999993,None,981.444088799999,981.9437947999995,981.444088799999,981.9437947999995,981.444088799999,981.9437947999995,979.4614822999993,None,981.9771244299993,None,981.9771244299993,None,981.9771244299993,None,0.010608129998217919,None,981.9771244299993,None,981.9771244299993,None,981.9771244299993,None,981.9771244299993,None,981.9771244299993,None,981.9771244299993,None,981.9847706,None,981.9847706,None,981.9847706,None,0.00414533000002848,0.5041453300000285,981.9847706,None,981.9847706,None,981.9847706,None,981.9847706,None,981.9847706,None,981.9847706,None,983.9763364999999,983.9763364999999,-0.5,6.419,250,-350,-50,,,,,,,,,,,,,,,,,,,,,,,,,,,,,,,,,,,,,,,,,,,,,,,,,,,,,,,,,,,,,,,,,,,,,,,,,,,,,,,,,,,f,24,yumeijing,2022-04-04_11h35.37.955,emotion,2022.1.2,60.00391225518104,
2,0,200,50,one,0,200,50,,,,,0,91,91,1,,,,,,,,,,,down,1.567846300000383,990.4549960000004,None,990.4549960000004,None,992.0392919000005,None,992.0392919000005,None,992.0392919000005,None,994.0214940000005,994.5210872000007,994.0214940000005,994.5210872000007,994.0214940000005,994.5210872000007,992.0392919000005,None,994.5544877300001,None,994.5544877300001,None,994.5544877300001,None,0.010691030000089086,None,994.5544877300001,None,994.5544877300001,None,994.5544877300001,None,994.5544877300001,None,994.5544877300001,None,994.5544877300001,None,994.5623407000003,None,994.5623407000003,None,994.5623407000003,None,0.004383930001495173,0.5043839300014952,994.5623407000003,None,994.5623407000003,None,994.5623407000003,None,994.5623407000003,None,994.5623407000003,None,994.5623407000003,None,996.5536804000003,996.5536804000003,-9.100000000000001,3.527,250,-150,0,,,,,,,,,,,,,,,,,,,,,,,,,,,,,,,,,,,,,,,,,,,,,,,,,,,,,,,,,,,,,,,,,,,,,,,,,,,,,,,,,,,f,24,yumeijing,2022-04-04_11h35.37.955,emotion,2022.1.2,60.00391225518104,
46,200,200,50,two,200,200,50,,,,,0,92,92,45,,,,,,,,,,,right,1.5471405000007508,1000.1353773999999,None,1000.1353773999999,None,1001.7015224999996,None,1001.7015224999996,None,1001.7015224999996,None,1003.6838822999998,1004.1837493000003,1003.6838822999998,1004.1837493000003,1003.6838822999998,1004.1837493000003,1001.7015224999996,None,1004.2165412300003,None,1004.2165412300003,None,1004.2165412300003,None,0.01051073000053293,None,1004.2165412300003,None,1004.2165412300003,None,1004.2165412300003,None,1004.2165412300003,None,1004.2165412300003,None,1004.2165412300003,None,1004.2249214999993,None,1004.2249214999993,None,1004.2249214999993,None,0.004056330000821617,0.5040563300008216,1004.2249214999993,None,1004.2249214999993,None,1004.2249214999993,None,1004.2249214999993,None,1004.2249214999993,None,1004.2249214999993,None,1006.2161311,1006.2161311,-0.20000000000000284,3.087,450,50,50,,,,,,,,,,,,,,,,,,,,,,,,,,,,,,,,,,,,,,,,,,,,,,,,,,,,,,,,,,,,,,,,,,,,,,,,,,,,,,,,,,,f,24,yumeijing,2022-04-04_11h35.37.955,emotion,2022.1.2,60.00391225518104,
53,-200,-50,0,one,-200,-50,0,,,,,0,93,93,52,,,,,,,,,,,down,1.7824392999991687,1009.3635907999997,None,1009.3635907999997,None,1011.1637341000005,None,1011.1637341000005,None,1011.1637341000005,None,1013.1460238,1013.6460953000005,1013.1460238,1013.6460953000005,1013.1460238,1013.6460953000005,1011.1637341000005,None,1013.6627603300005,None,1013.6627603300005,None,1013.6627603300005,None,0.010257830001137336,None,1013.6627603300005,None,1013.6627603300005,None,1013.6627603300005,None,1013.6627603300005,None,1013.6627603300005,None,1013.6627603300005,None,1013.6712303999993,None,1013.6712303999993,None,1013.6712303999993,None,0.0034110300002794247,0.5034110300002794,1013.6712303999993,None,1013.6712303999993,None,1013.6712303999993,None,1013.6712303999993,None,1013.6712303999993,None,1013.6712303999993,None,1015.6618165,1015.6618165,-24.5,2.572,250,0,50,,,,,,,,,,,,,,,,,,,,,,,,,,,,,,,,,,,,,,,,,,,,,,,,,,,,,,,,,,,,,,,,,,,,,,,,,,,,,,,,,,,f,24,yumeijing,2022-04-04_11h35.37.955,emotion,2022.1.2,60.00391225518104,
