trialNumber,mychoice,otherchoice,stay,skip,pointsWon,otherScore,unobtained,choicepos,pos_1,otherscore,allowedkeyresp,trials_2.thisRepN,trials_2.thisTrialN,trials_2.thisN,trials_2.thisIndex,trials.thisRepN,trials.thisTrialN,trials.thisN,trials.thisIndex,image_2.started,image_2.stopped,key_resp_2.keys,key_resp_2.rt,key_resp_2.started,key_resp_2.stopped,key_resp_6.keys,key_resp_6.rt,key_resp_6.started,key_resp_6.stopped,text.started,text.stopped,left_3.started,left_3.stopped,middle_3.started,middle_3.stopped,right_3.started,right_3.stopped,otherleft_1.started,otherleft_1.stopped,othermiddle_1.started,othermiddle_1.stopped,otherright_1.started,otherright_1.stopped,text_2.started,text_2.stopped,left_4.started,left_4.stopped,right_4.started,right_4.stopped,middle_4.started,middle_4.stopped,ISI_3.started,ISI_3.stopped,mypick.started,mypick.stopped,otherpick.started,otherpick.stopped,residal.started,residal.stopped,otherleft_5.started,otherleft_5.stopped,othermiddle_5.started,othermiddle_5.stopped,otherright_5.started,otherright_5.stopped,left_5.started,left_5.stopped,right_5.started,right_5.stopped,middle_5.started,middle_5.stopped,ISI_5.started,ISI_5.stopped,mypick_1.started,mypick_1.stopped,otherpick_1.started,otherpick_1.stopped,residal_1.started,residal_1.stopped,otherleft_6.started,otherleft_6.stopped,othermiddle_6.started,othermiddle_6.stopped,otherright_6.started,otherright_6.stopped,text_3.started,text_3.stopped,rating,ratingrt,totalScore,othertotalScore,unobtainedScore,image_4.started,image_4.stopped,key_resp_3.keys,key_resp_3.rt,key_resp_3.started,key_resp_3.stopped,image_5.started,image_5.stopped,key_resp.keys,key_resp.rt,key_resp.started,key_resp.stopped,otherleft_3.started,otherleft_3.stopped,othermiddle_3.started,othermiddle_3.stopped,otherright_3.started,otherright_3.stopped,text_4.started,text_4.stopped,ISI_2.started,ISI_2.stopped,key_resp_4.keys,key_resp_4.rt,key_resp_4.started,key_resp_4.stopped,otherleft_4.started,otherleft_4.stopped,othermiddle_4.started,othermiddle_4.stopped,otherright_4.started,otherright_4.stopped,text_5.started,text_5.stopped,left.started,left.stopped,right.started,right.stopped,middle.started,middle.stopped,ISI.started,ISI.stopped,mypick_3.started,mypick_3.stopped,otherpick_3.started,otherpick_3.stopped,residal_3.started,residal_3.stopped,otherleft.started,otherleft.stopped,othermiddle.started,othermiddle.stopped,otherright.started,otherright.stopped,right_2.started,right_2.stopped,middle_2.started,middle_2.stopped,left_2.started,left_2.stopped,ISI_4.started,ISI_4.stopped,mypick_4.started,mypick_4.stopped,otherpick_4.started,otherpick_4.stopped,residal_4.started,residal_4.stopped,otherleft_2.started,otherleft_2.stopped,othermiddle_2.started,othermiddle_2.stopped,otherright_2.started,otherright_2.stopped,text_6.started,text_6.stopped,image_3.started,image_3.stopped,key_resp_9.keys,key_resp_9.rt,key_resp_9.started,key_resp_9.stopped,gender,age,participant,date,expName,psychopyVersion,frameRate,
,,,,,,,,,,,,,,,,,,,,44.70144699999946,None,space,3.70069379999768,44.70144699999946,None,,,,,,,,,,,,,,,,,,,,,,,,,,,,,,,,,,,,,,,,,,,,,,,,,,,,,,,,,,,,,,,,,,,,,,,,,,,,,,,,,,,,,,,,,,,,,,,,,,,,,,,,,,,,,,,,,,,,,,,,,,,,,,,,,,,,,,,,,,,,,,,,,,,,,,f,23,yurun,2022_Apr_01_0902,emotion,2021.1.4,59.97422307813654,
93,0,-200,-200,two,0,-200,-200,,,,,0,0,0,92,,,,,,,,,,,left,1.316482000023825,48.491717800003244,None,48.491717800003244,None,49.83797580000828,None,49.83797580000828,None,49.83797580000828,None,51.818396899994696,52.31834999998682,51.818396899994696,52.31834999998682,51.818396899994696,52.31834999998682,49.83797580000828,None,52.351807159988674,None,52.351807159988674,None,52.351807159988674,None,0.005651560000842437,None,52.351807159988674,None,52.351807159988674,None,52.351807159988674,None,52.351807159988674,None,52.351807159988674,None,52.351807159988674,None,52.36682729999302,None,52.36682729999302,None,52.36682729999302,None,0.013594419986475259,0.5135944199864753,52.36682729999302,None,52.36682729999302,None,52.36682729999302,None,52.36682729999302,None,52.36682729999302,None,52.36682729999302,None,54.351252399996156,54.351252399996156,24.700000000000003,3.156,200,-200,-200,,,,,,,,,,,,,,,,,,,,,,,,,,,,,,,,,,,,,,,,,,,,,,,,,,,,,,,,,,,,,,,,,,,,,,,,,,,,,,,,,,,f,23,yurun,2022_Apr_01_0902,emotion,2021.1.4,59.97422307813654,
84,-50,-50,0,two,-50,-50,0,,,,,0,1,1,83,,,,,,,,,,,down,2.2839869000017643,57.599176199990325,None,57.599176199990325,None,59.90008520000265,None,59.90008520000265,None,59.90008520000265,None,61.88315060001332,62.382987199991476,61.88315060001332,62.382987199991476,61.88315060001332,62.382987199991476,59.90008520000265,None,62.39980255999253,None,62.39980255999253,None,62.39980255999253,None,0.007414959982270375,None,62.39980255999253,None,62.39980255999253,None,62.39980255999253,None,62.39980255999253,None,62.39980255999253,None,62.39980255999253,None,62.41436920000706,None,62.41436920000706,None,62.41436920000706,None,0.015087219973793253,0.5150872199737933,62.41436920000706,None,62.41436920000706,None,62.41436920000706,None,62.41436920000706,None,62.41436920000706,None,62.41436920000706,None,64.39925940000103,64.39925940000103,-0.20000000000000284,3.529,150,-250,-200,,,,,,,,,,,,,,,,,,,,,,,,,,,,,,,,,,,,,,,,,,,,,,,,,,,,,,,,,,,,,,,,,,,,,,,,,,,,,,,,,,,f,23,yurun,2022_Apr_01_0902,emotion,2021.1.4,59.97422307813654,
81,-50,-50,-200,two,-50,-50,-200,,,,,0,2,2,80,,,,,,,,,,,right,3.6821850999840535,67.98185799998464,None,67.98185799998464,None,71.68644960000529,None,71.68644960000529,None,71.68644960000529,None,73.6641959999979,74.16400449999492,73.6641959999979,74.16400449999492,73.6641959999979,74.16400449999492,71.68644960000529,None,74.19751505999594,None,74.19751505999594,None,74.19751505999594,None,0.010963659995468333,None,74.19751505999594,None,74.19751505999594,None,74.19751505999594,None,74.19751505999594,None,74.19751505999594,None,74.19751505999594,None,74.2062600000063,None,74.2062600000063,None,74.2062600000063,None,0.004329460003646091,0.5043294600036461,74.2062600000063,None,74.2062600000063,None,74.2062600000063,None,74.2062600000063,None,74.2062600000063,None,74.2062600000063,None,76.1969448000018,76.1969448000018,0.10000000000000142,2.855,100,-300,-400,,,,,,,,,,,,,,,,,,,,,,,,,,,,,,,,,,,,,,,,,,,,,,,,,,,,,,,,,,,,,,,,,,,,,,,,,,,,,,,,,,,f,23,yurun,2022_Apr_01_0902,emotion,2021.1.4,59.97422307813654,
51,-50,0,-200,one,-50,0,-200,,,,,0,3,3,50,,,,,,,,,,,down,4.82769289999851,79.11128069998813,None,79.11128069998813,None,83.9624507999979,None,83.9624507999979,None,83.9624507999979,None,85.94478930000332,86.44495330000063,85.94478930000332,86.44495330000063,85.94478930000332,86.44495330000063,83.9624507999979,None,86.4617686600017,None,86.4617686600017,None,86.4617686600017,None,0.00993756001116708,None,86.4617686600017,None,86.4617686600017,None,86.4617686600017,None,86.4617686600017,None,86.4617686600017,None,86.4617686600017,None,86.47104239999317,None,86.47104239999317,None,86.47104239999317,None,0.003400760004296899,0.5034007600042969,86.47104239999317,None,86.47104239999317,None,86.47104239999317,None,86.47104239999317,None,86.47104239999317,None,86.47104239999317,None,88.46124500001315,88.46124500001315,-25.0,3.357,50,-300,-600,,,,,,,,,,,,,,,,,,,,,,,,,,,,,,,,,,,,,,,,,,,,,,,,,,,,,,,,,,,,,,,,,,,,,,,,,,,,,,,,,,,f,23,yurun,2022_Apr_01_0902,emotion,2021.1.4,59.97422307813654,
6,200,0,50,one,200,0,50,,,,,0,4,4,5,,,,,,,,,,,left,5.70037959999172,91.87967799999751,None,91.87967799999751,None,97.61521379998885,None,97.61521379998885,None,97.61521379998885,None,99.59236000000965,100.09231239999644,99.59236000000965,100.09231239999644,99.59236000000965,100.09231239999644,97.61521379998885,None,100.12574645999703,None,100.12574645999703,None,100.12574645999703,None,0.011783959984313697,None,100.12574645999703,None,100.12574645999703,None,100.12574645999703,None,100.12574645999703,None,100.12574645999703,None,100.12574645999703,None,100.13455419999082,None,100.13455419999082,None,100.13455419999082,None,0.004470559972105548,0.5044705599721055,100.13455419999082,None,100.13455419999082,None,100.13455419999082,None,100.13455419999082,None,100.13455419999082,None,100.13455419999082,None,102.12522779998835,102.12522779998835,41.900000000000006,4.264,250,-300,-550,,,,,,,,,,,,,,,,,,,,,,,,,,,,,,,,,,,,,,,,,,,,,,,,,,,,,,,,,,,,,,,,,,,,,,,,,,,,,,,,,,,f,23,yurun,2022_Apr_01_0902,emotion,2021.1.4,59.97422307813654,
79,-200,-50,-50,two,-200,-50,-50,,,,,0,5,5,78,,,,,,,,,,,down,2.6750651999900583,106.4408209999965,None,106.4408209999965,None,109.1452205000096,None,109.1452205000096,None,109.1452205000096,None,111.12334029999329,111.62323319999268,111.12334029999329,111.62323319999268,111.12334029999329,111.62323319999268,109.1452205000096,None,111.65677206000547,None,111.65677206000547,None,111.65677206000547,None,0.011659659998258576,None,111.65677206000547,None,111.65677206000547,None,111.65677206000547,None,111.65677206000547,None,111.65677206000547,None,111.65677206000547,None,111.66619150000042,None,111.66619150000042,None,111.66619150000042,None,0.0045185600174590945,0.5045185600174591,111.66619150000042,None,111.66619150000042,None,111.66619150000042,None,111.66619150000042,None,111.66619150000042,None,111.66619150000042,None,113.65623279998545,113.65623279998545,-40.2,3.53,50,-350,-600,,,,,,,,,,,,,,,,,,,,,,,,,,,,,,,,,,,,,,,,,,,,,,,,,,,,,,,,,,,,,,,,,,,,,,,,,,,,,,,,,,,f,23,yurun,2022_Apr_01_0902,emotion,2021.1.4,59.97422307813654,
55,0,-50,-200,two,0,-50,-200,,,,,0,6,6,54,,,,,,,,,,,left,2.4524736999883316,117.23962790000951,None,117.23962790000951,None,119.72754029999487,None,119.72754029999487,None,119.72754029999487,None,121.7046827999875,122.20454189999145,121.7046827999875,122.20454189999145,121.7046827999875,122.20454189999145,119.72754029999487,None,122.23807115998935,None,122.23807115998935,None,122.23807115998935,None,0.011759159999201074,None,122.23807115998935,None,122.23807115998935,None,122.23807115998935,None,122.23807115998935,None,122.23807115998935,None,122.23807115998935,None,122.24695070000598,None,122.24695070000598,None,122.24695070000598,None,0.004546860000118613,0.5045468600001186,122.24695070000598,None,122.24695070000598,None,122.24695070000598,None,122.24695070000598,None,122.24695070000598,None,122.24695070000598,None,124.23787589999847,124.23787589999847,9.700000000000003,1.559,50,-400,-800,,,,,,,,,,,,,,,,,,,,,,,,,,,,,,,,,,,,,,,,,,,,,,,,,,,,,,,,,,,,,,,,,,,,,,,,,,,,,,,,,,,f,23,yurun,2022_Apr_01_0902,emotion,2021.1.4,59.97422307813654,
31,200,50,50,two,200,50,50,,,,,0,7,7,30,,,,,,,,,,,left,4.428359699988505,125.8599719000049,None,125.8599719000049,None,130.32401499999105,None,130.32401499999105,None,130.32401499999105,None,132.30258210000466,132.80249699999695,132.30258210000466,132.80249699999695,132.30258210000466,132.80249699999695,130.32401499999105,None,132.83593025999144,None,132.83593025999144,None,132.83593025999144,None,0.011991759994998574,None,132.83593025999144,None,132.83593025999144,None,132.83593025999144,None,132.83593025999144,None,132.83593025999144,None,132.83593025999144,None,132.845192400011,None,132.845192400011,None,132.845192400011,None,0.004933659976813942,0.5049336599768139,132.845192400011,None,132.845192400011,None,132.845192400011,None,132.845192400011,None,132.845192400011,None,132.845192400011,None,134.8354326999979,134.8354326999979,35.900000000000006,2.312,250,-350,-750,,,,,,,,,,,,,,,,,,,,,,,,,,,,,,,,,,,,,,,,,,,,,,,,,,,,,,,,,,,,,,,,,,,,,,,,,,,,,,,,,,,f,23,yurun,2022_Apr_01_0902,emotion,2021.1.4,59.97422307813654,
65,0,-200,0,one,0,-200,0,,,,,0,8,8,64,,,,,,,,,,,down,3.9040384000109043,137.2017366999935,None,137.2017366999935,None,141.1340135000064,None,141.1340135000064,None,141.1340135000064,None,143.11708500000532,143.617035400006,143.11708500000532,143.617035400006,143.11708500000532,143.617035400006,141.1340135000064,None,143.63385076000705,None,143.63385076000705,None,143.63385076000705,None,0.009952460008207709,None,143.63385076000705,None,143.63385076000705,None,143.63385076000705,None,143.63385076000705,None,143.63385076000705,None,143.63385076000705,None,143.64410169998882,None,143.64410169998882,None,143.64410169998882,None,0.003417360014282167,0.5034173600142822,143.64410169998882,None,143.64410169998882,None,143.64410169998882,None,143.64410169998882,None,143.64410169998882,None,143.64410169998882,None,145.63328300000285,145.63328300000285,45.5,2.923,250,-550,-750,,,,,,,,,,,,,,,,,,,,,,,,,,,,,,,,,,,,,,,,,,,,,,,,,,,,,,,,,,,,,,,,,,,,,,,,,,,,,,,,,,,f,23,yurun,2022_Apr_01_0902,emotion,2021.1.4,59.97422307813654,
33,50,50,200,two,50,50,200,,,,,0,9,9,32,,,,,,,,,,,right,3.170123899995815,148.6145497999969,None,148.6145497999969,None,151.80271709998487,None,151.80271709998487,None,151.80271709998487,None,153.78174229999422,154.28131689998554,153.78174229999422,154.28131689998554,153.78174229999422,154.28131689998554,151.80271709998487,None,154.3149973599997,None,154.3149973599997,None,154.3149973599997,None,0.011504359979880974,None,154.3149973599997,None,154.3149973599997,None,154.3149973599997,None,154.3149973599997,None,154.3149973599997,None,154.3149973599997,None,154.3238912000088,None,154.3238912000088,None,154.3238912000088,None,0.004660359991248697,0.5046603599912487,154.3238912000088,None,154.3238912000088,None,154.3238912000088,None,154.3238912000088,None,154.3238912000088,None,154.3238912000088,None,156.3144947999972,156.3144947999972,0.20000000000000284,5.34,300,-500,-550,,,,,,,,,,,,,,,,,,,,,,,,,,,,,,,,,,,,,,,,,,,,,,,,,,,,,,,,,,,,,,,,,,,,,,,,,,,,,,,,,,,f,23,yurun,2022_Apr_01_0902,emotion,2021.1.4,59.97422307813654,
54,-200,0,-50,one,-200,0,-50,,,,,0,10,10,53,,,,,,,,,,,right,1.7494661000091583,161.7118497999909,None,161.7118497999909,None,163.48483920001308,None,163.48483920001308,None,163.48483920001308,None,165.46268989998498,165.9625883999979,165.46268989998498,165.9625883999979,165.46268989998498,165.9625883999979,163.48483920001308,None,165.99605336000096,None,165.99605336000096,None,165.99605336000096,None,0.011901460005901754,None,165.99605336000096,None,165.99605336000096,None,165.99605336000096,None,165.99605336000096,None,165.99605336000096,None,165.99605336000096,None,166.00578569999197,None,166.00578569999197,None,166.00578569999197,None,0.004693059978308156,0.5046930599783082,166.00578569999197,None,166.00578569999197,None,166.00578569999197,None,166.00578569999197,None,166.00578569999197,None,166.00578569999197,None,167.9952515999903,167.9952515999903,-25.0,3.903,100,-500,-600,,,,,,,,,,,,,,,,,,,,,,,,,,,,,,,,,,,,,,,,,,,,,,,,,,,,,,,,,,,,,,,,,,,,,,,,,,,,,,,,,,,f,23,yurun,2022_Apr_01_0902,emotion,2021.1.4,59.97422307813654,
86,-200,0,-200,one,-200,0,-200,,,,,0,11,11,85,,,,,,,,,,,down,2.684204099990893,171.95174940000288,None,171.95174940000288,None,174.66847599999164,None,174.66847599999164,None,174.66847599999164,None,176.64385150000453,177.14371709999978,176.64385150000453,177.14371709999978,176.64385150000453,177.14371709999978,174.66847599999164,None,177.17720455999952,None,177.17720455999952,None,177.17720455999952,None,0.011865259992191568,None,177.17720455999952,None,177.17720455999952,None,177.17720455999952,None,177.17720455999952,None,177.17720455999952,None,177.17720455999952,None,177.18565979998675,None,177.18565979998675,None,177.18565979998675,None,0.004685860010795295,0.5046858600107953,177.18565979998675,None,177.18565979998675,None,177.18565979998675,None,177.18565979998675,None,177.18565979998675,None,177.18565979998675,None,179.17683290000423,179.17683290000423,-44.1,2.092,-100,-500,-800,,,,,,,,,,,,,,,,,,,,,,,,,,,,,,,,,,,,,,,,,,,,,,,,,,,,,,,,,,,,,,,,,,,,,,,,,,,,,,,,,,,f,23,yurun,2022_Apr_01_0902,emotion,2021.1.4,59.97422307813654,
47,200,50,200,two,200,50,200,,,,,0,12,12,46,,,,,,,,,,,down,5.158052699989639,181.32461839998723,None,181.32461839998723,None,186.51192069999524,None,186.51192069999524,None,186.51192069999524,None,188.4914829999907,188.99122160000843,188.4914829999907,188.99122160000843,188.4914829999907,188.99122160000843,186.51192069999524,None,189.02495485998807,None,189.02495485998807,None,189.02495485998807,None,0.006473659974290058,None,189.02495485998807,None,189.02495485998807,None,189.02495485998807,None,189.02495485998807,None,189.02495485998807,None,189.02495485998807,None,189.04869659998803,None,189.04869659998803,None,189.04869659998803,None,0.01057481998577714,0.5105748199857771,189.04869659998803,None,189.04869659998803,None,189.04869659998803,None,189.04869659998803,None,189.04869659998803,None,189.04869659998803,None,191.024356000009,191.024356000009,41.8,3.077,100,-450,-600,,,,,,,,,,,,,,,,,,,,,,,,,,,,,,,,,,,,,,,,,,,,,,,,,,,,,,,,,,,,,,,,,,,,,,,,,,,,,,,,,,,f,23,yurun,2022_Apr_01_0902,emotion,2021.1.4,59.97422307813654,
41,200,50,200,one,200,50,200,,,,,0,13,13,40,,,,,,,,,,,right,3.60290480000549,194.17211909999605,None,194.17211909999605,None,197.79581529999268,None,197.79581529999268,None,197.79581529999268,None,199.77258749998873,200.27250930000446,199.77258749998873,200.27250930000446,199.77258749998873,200.27250930000446,197.79581529999268,None,200.30599085998838,None,200.30599085998838,None,200.30599085998838,None,0.011768859985750169,None,200.30599085998838,None,200.30599085998838,None,200.30599085998838,None,200.30599085998838,None,200.30599085998838,None,200.30599085998838,None,200.31421849998878,None,200.31421849998878,None,200.31421849998878,None,0.004652859992347658,0.5046528599923477,200.31421849998878,None,200.31421849998878,None,200.31421849998878,None,200.31421849998878,None,200.31421849998878,None,200.31421849998878,None,202.30541249999078,202.30541249999078,39.5,2.05,300,-400,-400,,,,,,,,,,,,,,,,,,,,,,,,,,,,,,,,,,,,,,,,,,,,,,,,,,,,,,,,,,,,,,,,,,,,,,,,,,,,,,,,,,,f,23,yurun,2022_Apr_01_0902,emotion,2021.1.4,59.97422307813654,
59,-200,-50,0,two,-200,-50,0,,,,,0,14,14,58,,,,,,,,,,,left,4.943916700023692,204.4111993999977,None,204.4111993999977,None,209.3748260999855,None,209.3748260999855,None,209.3748260999855,None,211.35358220001217,211.85344589999295,211.35358220001217,211.85344589999295,211.35358220001217,211.85344589999295,209.3748260999855,None,211.88698876000709,None,211.88698876000709,None,211.88698876000709,None,0.011116959998616949,None,211.88698876000709,None,211.88698876000709,None,211.88698876000709,None,211.88698876000709,None,211.88698876000709,None,211.88698876000709,None,211.89761059999,None,211.89761059999,None,211.89761059999,None,0.003080659982515499,0.5030806599825155,211.89761059999,None,211.89761059999,None,211.89761059999,None,211.89761059999,None,211.89761059999,None,211.89761059999,None,213.88645749998977,213.88645749998977,-35.3,2.531,100,-450,-400,,,,,,,,,,,,,,,,,,,,,,,,,,,,,,,,,,,,,,,,,,,,,,,,,,,,,,,,,,,,,,,,,,,,,,,,,,,,,,,,,,,f,23,yurun,2022_Apr_01_0902,emotion,2021.1.4,59.97422307813654,
20,0,50,0,two,0,50,0,,,,,0,15,15,19,,,,,,,,,,,left,2.293364899989683,216.47203589999117,None,216.47203589999117,None,218.78881840000395,None,218.78881840000395,None,218.78881840000395,None,220.76845639999374,221.26838130000397,220.76845639999374,221.26838130000397,220.76845639999374,221.26838130000397,218.78881840000395,None,221.30181295998628,None,221.30181295998628,None,221.30181295998628,None,0.012122459971578792,None,221.30181295998628,None,221.30181295998628,None,221.30181295998628,None,221.30181295998628,None,221.30181295998628,None,221.30181295998628,None,221.3100842999993,None,221.3100842999993,None,221.3100842999993,None,0.005792259995359927,0.5057922599953599,221.3100842999993,None,221.3100842999993,None,221.3100842999993,None,221.3100842999993,None,221.3100842999993,None,221.3100842999993,None,223.30133869999554,223.30133869999554,-10.899999999999999,2.201,100,-400,-400,,,,,,,,,,,,,,,,,,,,,,,,,,,,,,,,,,,,,,,,,,,,,,,,,,,,,,,,,,,,,,,,,,,,,,,,,,,,,,,,,,,f,23,yurun,2022_Apr_01_0902,emotion,2021.1.4,59.97422307813654,
24,200,0,0,two,200,0,0,,,,,0,16,16,23,,,,,,,,,,,right,3.507956200017361,225.566089800006,None,225.566089800006,None,229.10411680000834,None,229.10411680000834,None,229.10411680000834,None,231.08318139999756,231.5829866999993,231.08318139999756,231.5829866999993,231.08318139999756,231.5829866999993,229.10411680000834,None,231.61636945998762,None,231.61636945998762,None,231.61636945998762,None,0.011629659973550588,None,231.61636945998762,None,231.61636945998762,None,231.61636945998762,None,231.61636945998762,None,231.61636945998762,None,231.61636945998762,None,231.6265063000028,None,231.6265063000028,None,231.6265063000028,None,0.004219659982481971,0.504219659982482,231.6265063000028,None,231.6265063000028,None,231.6265063000028,None,231.6265063000028,None,231.6265063000028,None,231.6265063000028,None,233.61595010000747,233.61595010000747,38.2,2.932,300,-400,-400,,,,,,,,,,,,,,,,,,,,,,,,,,,,,,,,,,,,,,,,,,,,,,,,,,,,,,,,,,,,,,,,,,,,,,,,,,,,,,,,,,,f,23,yurun,2022_Apr_01_0902,emotion,2021.1.4,59.97422307813654,
10,50,200,0,two,50,200,0,,,,,0,17,17,9,,,,,,,,,,,down,3.4686625999747775,236.5992860000115,None,236.5992860000115,None,240.1037384000083,None,240.1037384000083,None,240.1037384000083,None,242.0809455999988,242.5808221999905,242.0809455999988,242.5808221999905,242.0809455999988,242.5808221999905,240.1037384000083,None,242.61428066000227,None,242.61428066000227,None,242.61428066000227,None,0.011933659989153966,None,242.61428066000227,None,242.61428066000227,None,242.61428066000227,None,242.61428066000227,None,242.61428066000227,None,242.61428066000227,None,242.62238409998827,None,242.62238409998827,None,242.62238409998827,None,0.005577159987296909,0.5055771599872969,242.62238409998827,None,242.62238409998827,None,242.62238409998827,None,242.62238409998827,None,242.62238409998827,None,242.62238409998827,None,244.6136017999961,244.6136017999961,1.2000000000000028,2.107,350,-200,-400,,,,,,,,,,,,,,,,,,,,,,,,,,,,,,,,,,,,,,,,,,,,,,,,,,,,,,,,,,,,,,,,,,,,,,,,,,,,,,,,,,,f,23,yurun,2022_Apr_01_0902,emotion,2021.1.4,59.97422307813654,
60,-200,0,-50,two,-200,0,-50,,,,,0,18,18,59,,,,,,,,,,,left,2.3484289000043646,246.77562080000644,None,246.77562080000644,None,249.1521197000111,None,249.1521197000111,None,249.1521197000111,None,251.1290069000097,251.6290342999855,251.1290069000097,251.6290342999855,251.1290069000097,251.6290342999855,249.1521197000111,None,251.6625019600091,None,251.6625019600091,None,251.6625019600091,None,0.011570560018299147,None,251.6625019600091,None,251.6625019600091,None,251.6625019600091,None,251.6625019600091,None,251.6625019600091,None,251.6625019600091,None,251.6713582999946,None,251.6713582999946,None,251.6713582999946,None,0.004583059984724969,0.504583059984725,251.6713582999946,None,251.6713582999946,None,251.6713582999946,None,251.6713582999946,None,251.6713582999946,None,251.6713582999946,None,253.6618327999895,253.6618327999895,-42.1,1.987,150,-200,-450,,,,,,,,,,,,,,,,,,,,,,,,,,,,,,,,,,,,,,,,,,,,,,,,,,,,,,,,,,,,,,,,,,,,,,,,,,,,,,,,,,,f,23,yurun,2022_Apr_01_0902,emotion,2021.1.4,59.97422307813654,
94,-200,-200,-50,two,-200,-200,-50,,,,,0,19,19,93,,,,,,,,,,,left,3.6982549999956973,255.71239369999967,None,255.71239369999967,None,259.43380959998467,None,259.43380959998467,None,259.43380959998467,None,261.4104301999905,261.9104315000004,261.4104301999905,261.9104315000004,261.4104301999905,261.9104315000004,259.43380959998467,None,261.9437986599863,None,261.9437986599863,None,261.9437986599863,None,0.01147375997970812,None,261.9437986599863,None,261.9437986599863,None,261.9437986599863,None,261.9437986599863,None,261.9437986599863,None,261.9437986599863,None,261.9536148000043,None,261.9536148000043,None,261.9536148000043,None,0.004230959981214255,0.5042309599812143,261.9536148000043,None,261.9536148000043,None,261.9536148000043,None,261.9536148000043,None,261.9536148000043,None,261.9536148000043,None,263.94324930000585,263.94324930000585,-7.299999999999997,3.481,-50,-400,-500,,,,,,,,,,,,,,,,,,,,,,,,,,,,,,,,,,,,,,,,,,,,,,,,,,,,,,,,,,,,,,,,,,,,,,,,,,,,,,,,,,,f,23,yurun,2022_Apr_01_0902,emotion,2021.1.4,59.97422307813654,
32,50,200,50,two,50,200,50,,,,,0,20,20,31,,,,,,,,,,,right,1.8706470000033733,267.47608920000494,None,267.47608920000494,None,269.3821038999886,None,269.3821038999886,None,269.3821038999886,None,271.35847840001225,271.8581140000024,271.35847840001225,271.8581140000024,271.35847840001225,271.8581140000024,269.3821038999886,None,271.8923126600042,None,271.8923126600042,None,271.8923126600042,None,0.011817860009614378,None,271.8923126600042,None,271.8923126600042,None,271.8923126600042,None,271.8923126600042,None,271.8923126600042,None,271.8923126600042,None,271.9014055999869,None,271.9014055999869,None,271.9014055999869,None,0.004956960008712485,0.5049569600087125,271.9014055999869,None,271.9014055999869,None,271.9014055999869,None,271.9014055999869,None,271.9014055999869,None,271.9014055999869,None,273.89368020000984,273.89368020000984,-25.1,2.642,0,-200,-450,,,,,,,,,,,,,,,,,,,,,,,,,,,,,,,,,,,,,,,,,,,,,,,,,,,,,,,,,,,,,,,,,,,,,,,,,,,,,,,,,,,f,23,yurun,2022_Apr_01_0902,emotion,2021.1.4,59.97422307813654,
18,200,0,0,one,200,0,0,,,,,0,21,21,17,,,,,,,,,,,right,2.515600299986545,276.5907806000032,None,276.5907806000032,None,279.1235897000006,None,279.1235897000006,None,279.1235897000006,None,281.1066978999879,281.60628919999,281.1066978999879,281.60628919999,281.1066978999879,281.60628919999,279.1235897000006,None,281.623104559991,None,281.623104559991,None,281.623104559991,None,0.009953459986718372,None,281.623104559991,None,281.623104559991,None,281.623104559991,None,281.623104559991,None,281.623104559991,None,281.623104559991,None,281.633539500006,None,281.633539500006,None,281.633539500006,None,0.003035159985302016,0.503035159985302,281.633539500006,None,281.633539500006,None,281.633539500006,None,281.633539500006,None,281.633539500006,None,281.633539500006,None,283.6227017999918,283.6227017999918,31.0,1.868,200,-200,-450,,,,,,,,,,,,,,,,,,,,,,,,,,,,,,,,,,,,,,,,,,,,,,,,,,,,,,,,,,,,,,,,,,,,,,,,,,,,,,,,,,,f,23,yurun,2022_Apr_01_0902,emotion,2021.1.4,59.97422307813654,
46,200,200,50,two,200,200,50,,,,,0,22,22,45,,,,,,,,,,,left,2.2874589000130072,285.5435221999942,None,285.5435221999942,None,287.855641800008,None,287.855641800008,None,287.855641800008,None,289.8381640999869,290.33806979999645,289.8381640999869,290.33806979999645,289.8381640999869,290.33806979999645,287.855641800008,None,290.3548851599975,None,290.3548851599975,None,290.3548851599975,None,0.009075359994312748,None,290.3548851599975,None,290.3548851599975,None,290.3548851599975,None,290.3548851599975,None,290.3548851599975,None,290.3548851599975,None,290.368367499992,None,290.368367499992,None,290.368367499992,None,1.645999145694077e-05,0.5000164599914569,290.368367499992,None,290.368367499992,None,290.368367499992,None,290.368367499992,None,290.368367499992,None,290.368367499992,None,292.35470669998904,292.35470669998904,34.0,2.378,400,0,-400,,,,,,,,,,,,,,,,,,,,,,,,,,,,,,,,,,,,,,,,,,,,,,,,,,,,,,,,,,,,,,,,,,,,,,,,,,,,,,,,,,,f,23,yurun,2022_Apr_01_0902,emotion,2021.1.4,59.97422307813654,
13,0,0,50,one,0,0,50,,,,,0,23,23,12,,,,,,,,,,,down,2.0289638999965973,294.78594370000064,None,294.78594370000064,None,296.8431403999857,None,296.8431403999857,None,296.8431403999857,None,298.8197349999973,299.3196294000081,298.8197349999973,299.3196294000081,298.8197349999973,299.3196294000081,296.8431403999857,None,299.3531314600026,None,299.3531314600026,None,299.3531314600026,None,0.011877359997015446,None,299.3531314600026,None,299.3531314600026,None,299.3531314600026,None,299.3531314600026,None,299.3531314600026,None,299.3531314600026,None,299.36180769998464,None,299.36180769998464,None,299.36180769998464,None,0.005531859991606325,0.5055318599916063,299.36180769998464,None,299.36180769998464,None,299.36180769998464,None,299.36180769998464,None,299.36180769998464,None,299.36180769998464,None,301.35258639999665,301.35258639999665,0.10000000000000142,2.232,400,0,-350,,,,,,,,,,,,,,,,,,,,,,,,,,,,,,,,,,,,,,,,,,,,,,,,,,,,,,,,,,,,,,,,,,,,,,,,,,,,,,,,,,,f,23,yurun,2022_Apr_01_0902,emotion,2021.1.4,59.97422307813654,
7,0,50,200,two,0,50,200,,,,,0,24,24,6,,,,,,,,,,,right,1.9982244999846444,303.6450763999892,None,303.6450763999892,None,305.6775229999912,None,305.6775229999912,None,305.6775229999912,None,307.6510879000125,308.1512379999913,307.6510879000125,308.1512379999913,307.6510879000125,308.1512379999913,305.6775229999912,None,308.18471005999015,None,308.18471005999015,None,308.18471005999015,None,0.01185605998034589,None,308.18471005999015,None,308.18471005999015,None,308.18471005999015,None,308.18471005999015,None,308.18471005999015,None,308.18471005999015,None,308.1932710999972,None,308.1932710999972,None,308.1932710999972,None,0.004398559947730973,0.504398559947731,308.1932710999972,None,308.1932710999972,None,308.1932710999972,None,308.1932710999972,None,308.1932710999972,None,308.1932710999972,None,310.18421040000976,310.18421040000976,-16.799999999999997,3.387,400,50,-150,,,,,,,,,,,,,,,,,,,,,,,,,,,,,,,,,,,,,,,,,,,,,,,,,,,,,,,,,,,,,,,,,,,,,,,,,,,,,,,,,,,f,23,yurun,2022_Apr_01_0902,emotion,2021.1.4,59.97422307813654,
16,0,0,200,one,0,0,200,,,,,0,25,25,15,,,,,,,,,,,left,2.214501200011,313.63188299999456,None,313.63188299999456,None,315.86959529999876,None,315.86959529999876,None,315.86959529999876,None,317.84931069999584,318.3492074999958,317.84931069999584,318.3492074999958,317.84931069999584,318.3492074999958,315.86959529999876,None,318.38270915998726,None,318.38270915998726,None,318.38270915998726,None,0.011994359985692427,None,318.38270915998726,None,318.38270915998726,None,318.38270915998726,None,318.38270915998726,None,318.38270915998726,None,318.38270915998726,None,318.39071879998664,None,318.39071879998664,None,318.39071879998664,None,0.00568525999551639,0.5056852599955164,318.39071879998664,None,318.39071879998664,None,318.39071879998664,None,318.39071879998664,None,318.39071879998664,None,318.39071879998664,None,320.3820373000053,320.3820373000053,0.29999999999999716,1.714,400,50,50,,,,,,,,,,,,,,,,,,,,,,,,,,,,,,,,,,,,,,,,,,,,,,,,,,,,,,,,,,,,,,,,,,,,,,,,,,,,,,,,,,,f,23,yurun,2022_Apr_01_0902,emotion,2021.1.4,59.97422307813654,
50,0,-200,-50,one,0,-200,-50,,,,,0,26,26,49,,,,,,,,,,,down,2.0650473999849055,322.151786500006,None,322.151786500006,None,324.2632678000082,None,324.2632678000082,None,324.2632678000082,None,326.23435370001243,326.74755410000216,326.23435370001243,326.74755410000216,326.23435370001243,326.74755410000216,324.2632678000082,None,326.7643694600032,None,326.7643694600032,None,326.7643694600032,None,0.011582859995542094,None,326.7643694600032,None,326.7643694600032,None,326.7643694600032,None,326.7643694600032,None,326.7643694600032,None,326.7643694600032,None,326.77408629999263,None,326.77408629999263,None,326.77408629999263,None,0.0047601599944755435,0.5047601599944755,326.77408629999263,None,326.77408629999263,None,326.77408629999263,None,326.77408629999263,None,326.77408629999263,None,326.77408629999263,None,328.76391129998956,328.76391129998956,15.200000000000003,1.891,400,-150,0,,,,,,,,,,,,,,,,,,,,,,,,,,,,,,,,,,,,,,,,,,,,,,,,,,,,,,,,,,,,,,,,,,,,,,,,,,,,,,,,,,,f,23,yurun,2022_Apr_01_0902,emotion,2021.1.4,59.97422307813654,
73,-200,-50,-50,one,-200,-50,-50,,,,,0,27,27,72,,,,,,,,,,,right,1.8936345000111032,330.7118521000084,None,330.7118521000084,None,332.63717890001135,None,332.63717890001135,None,332.63717890001135,None,334.61251840001205,335.11256259999936,334.61251840001205,335.11256259999936,334.61251840001205,335.11256259999936,332.63717890001135,None,335.14609175999647,None,335.14609175999647,None,335.14609175999647,None,0.011786160001065582,None,335.14609175999647,None,335.14609175999647,None,335.14609175999647,None,335.14609175999647,None,335.14609175999647,None,335.14609175999647,None,335.1551785999909,None,335.1551785999909,None,335.1551785999909,None,0.0043798600090667605,0.5043798600090668,335.1551785999909,None,335.1551785999909,None,335.1551785999909,None,335.1551785999909,None,335.1551785999909,None,335.1551785999909,None,337.14551090000896,337.14551090000896,-36.6,2.806,200,-200,-50,,,,,,,,,,,,,,,,,,,,,,,,,,,,,,,,,,,,,,,,,,,,,,,,,,,,,,,,,,,,,,,,,,,,,,,,,,,,,,,,,,,f,23,yurun,2022_Apr_01_0902,emotion,2021.1.4,59.97422307813654,
5,200,50,0,one,200,50,0,,,,,0,28,28,4,,,,,,,,,,,left,4.293163800000912,340.0100081000128,None,340.0100081000128,None,344.3323906000005,None,344.3323906000005,None,344.3323906000005,None,346.31038559999433,346.81026960001327,346.31038559999433,346.81026960001327,346.31038559999433,346.81026960001327,344.3323906000005,None,346.84380115999954,None,346.84380115999954,None,346.84380115999954,None,0.01182935998076573,None,346.84380115999954,None,346.84380115999954,None,346.84380115999954,None,346.84380115999954,None,346.84380115999954,None,346.84380115999954,None,346.85300549998647,None,346.85300549998647,None,346.85300549998647,None,0.004734659974928945,0.504734659974929,346.85300549998647,None,346.85300549998647,None,346.85300549998647,None,346.85300549998647,None,346.85300549998647,None,346.85300549998647,None,348.8429254000075,348.8429254000075,38.400000000000006,2.375,400,-150,-50,,,,,,,,,,,,,,,,,,,,,,,,,,,,,,,,,,,,,,,,,,,,,,,,,,,,,,,,,,,,,,,,,,,,,,,,,,,,,,,,,,,f,23,yurun,2022_Apr_01_0902,emotion,2021.1.4,59.97422307813654,
29,50,0,50,one,50,0,50,,,,,0,29,29,28,,,,,,,,,,,down,3.666560399986338,351.2743707000045,None,351.2743707000045,None,354.9587300999847,None,354.9587300999847,None,354.9587300999847,None,356.94162399999914,357.44153290000395,356.94162399999914,357.44153290000395,356.94162399999914,357.44153290000395,354.9587300999847,None,357.458348260005,None,357.458348260005,None,357.458348260005,None,0.004321360029280186,None,357.458348260005,None,357.458348260005,None,357.458348260005,None,357.458348260005,None,357.458348260005,None,357.458348260005,None,357.48678649999783,None,357.48678649999783,None,357.48678649999783,None,0.006980719976127148,0.5069807199761271,357.48678649999783,None,357.48678649999783,None,357.48678649999783,None,357.48678649999783,None,357.48678649999783,None,357.48678649999783,None,359.47442370001227,359.47442370001227,7.299999999999997,2.064,450,-150,0,,,,,,,,,,,,,,,,,,,,,,,,,,,,,,,,,,,,,,,,,,,,,,,,,,,,,,,,,,,,,,,,,,,,,,,,,,,,,,,,,,,f,23,yurun,2022_Apr_01_0902,emotion,2021.1.4,59.97422307813654,
83,-50,0,-50,two,-50,0,-50,,,,,0,30,30,82,,,,,,,,,,,right,4.654399699997157,361.5950557999895,None,361.5950557999895,None,366.27854259999003,None,366.27854259999003,None,366.27854259999003,None,368.25588849998894,368.7558987000084,368.25588849998894,368.7558987000084,368.25588849998894,368.7558987000084,366.27854259999003,None,368.7894216599874,None,368.7894216599874,None,368.7894216599874,None,0.01178925996646285,None,368.7894216599874,None,368.7894216599874,None,368.7894216599874,None,368.7894216599874,None,368.7894216599874,None,368.7894216599874,None,368.79847149999114,None,368.79847149999114,None,368.79847149999114,None,0.004512159968726337,0.5045121599687263,368.79847149999114,None,368.79847149999114,None,368.79847149999114,None,368.79847149999114,None,368.79847149999114,None,368.79847149999114,None,370.7889178000041,370.7889178000041,-25.0,2.641,400,-150,-50,,,,,,,,,,,,,,,,,,,,,,,,,,,,,,,,,,,,,,,,,,,,,,,,,,,,,,,,,,,,,,,,,,,,,,,,,,,,,,,,,,,f,23,yurun,2022_Apr_01_0902,emotion,2021.1.4,59.97422307813654,
96,-50,-200,-200,two,-50,-200,-200,,,,,0,31,31,95,,,,,,,,,,,left,1.6093937999976333,373.4829827999929,None,373.4829827999929,None,375.12584560000687,None,375.12584560000687,None,375.12584560000687,None,377.1042829999933,377.60423140000785,377.1042829999933,377.60423140000785,377.1042829999933,377.60423140000785,375.12584560000687,None,377.6376714599959,None,377.6376714599959,None,377.6376714599959,None,0.01119535998441279,None,377.6376714599959,None,377.6376714599959,None,377.6376714599959,None,377.6376714599959,None,377.6376714599959,None,377.6376714599959,None,377.64636939999764,None,377.64636939999764,None,377.64636939999764,None,0.00447775999782607,0.5044777599978261,377.64636939999764,None,377.64636939999764,None,377.64636939999764,None,377.64636939999764,None,377.64636939999764,None,377.64636939999764,None,379.6373054999858,379.6373054999858,13.5,7.284,350,-350,-250,,,,,,,,,,,,,,,,,,,,,,,,,,,,,,,,,,,,,,,,,,,,,,,,,,,,,,,,,,,,,,,,,,,,,,,,,,,,,,,,,,,f,23,yurun,2022_Apr_01_0902,emotion,2021.1.4,59.97422307813654,
2,0,200,50,one,0,200,50,,,,,0,32,32,1,,,,,,,,,,,down,2.388175800006138,386.9840783000109,None,386.9840783000109,None,389.40705969999544,None,389.40705969999544,None,389.40705969999544,None,391.3847674999852,391.88470729999244,391.3847674999852,391.88470729999244,391.3847674999852,391.88470729999244,389.40705969999544,None,391.9181847600033,None,391.9181847600033,None,391.9181847600033,None,0.011840560007840395,None,391.9181847600033,None,391.9181847600033,None,391.9181847600033,None,391.9181847600033,None,391.9181847600033,None,391.9181847600033,None,391.9269804999931,None,391.9269804999931,None,391.9269804999931,None,0.004598460014676675,0.5045984600146767,391.9269804999931,None,391.9269804999931,None,391.9269804999931,None,391.9269804999931,None,391.9269804999931,None,391.9269804999931,None,393.91767210001126,393.91767210001126,-12.5,6.209,350,-150,-200,,,,,,,,,,,,,,,,,,,,,,,,,,,,,,,,,,,,,,,,,,,,,,,,,,,,,,,,,,,,,,,,,,,,,,,,,,,,,,,,,,,f,23,yurun,2022_Apr_01_0902,emotion,2021.1.4,59.97422307813654,
23,0,200,0,two,0,200,0,,,,,0,33,33,22,,,,,,,,,,,right,4.267053800023859,400.1818680999859,None,400.1818680999859,None,404.4707056999905,None,404.4707056999905,None,404.4707056999905,None,406.44855140001164,406.9484175000107,406.44855140001164,406.9484175000107,406.44855140001164,406.9484175000107,404.4707056999905,None,406.9819036600005,None,406.9819036600005,None,406.9819036600005,None,0.011294759984593838,None,406.9819036600005,None,406.9819036600005,None,406.9819036600005,None,406.9819036600005,None,406.9819036600005,None,406.9819036600005,None,406.9909039000049,None,406.9909039000049,None,406.9909039000049,None,0.004788960010046139,0.5047889600100461,406.9909039000049,None,406.9909039000049,None,406.9909039000049,None,406.9909039000049,None,406.9909039000049,None,406.9909039000049,None,408.98134420000133,408.98134420000133,-42.1,2.423,350,50,-200,,,,,,,,,,,,,,,,,,,,,,,,,,,,,,,,,,,,,,,,,,,,,,,,,,,,,,,,,,,,,,,,,,,,,,,,,,,,,,,,,,,f,23,yurun,2022_Apr_01_0902,emotion,2021.1.4,59.97422307813654,
52,-50,-200,0,one,-50,-200,0,,,,,0,34,34,51,,,,,,,,,,,left,3.2122136000252794,411.46264370001154,None,411.46264370001154,None,414.7045369000116,None,414.7045369000116,None,414.7045369000116,None,416.6798325999989,417.17973629999324,416.6798325999989,417.17973629999324,416.6798325999989,417.17973629999324,414.7045369000116,None,417.2132383599877,None,417.2132383599877,None,417.2132383599877,None,0.011767759977374226,None,417.2132383599877,None,417.2132383599877,None,417.2132383599877,None,417.2132383599877,None,417.2132383599877,None,417.2132383599877,None,417.2220626999915,None,417.2220626999915,None,417.2220626999915,None,0.004589859978295863,0.5045898599782959,417.2220626999915,None,417.2220626999915,None,417.2220626999915,None,417.2220626999915,None,417.2220626999915,None,417.2220626999915,None,419.2155739000009,419.2155739000009,9.5,1.861,300,-150,-200,,,,,,,,,,,,,,,,,,,,,,,,,,,,,,,,,,,,,,,,,,,,,,,,,,,,,,,,,,,,,,,,,,,,,,,,,,,,,,,,,,,f,23,yurun,2022_Apr_01_0902,emotion,2021.1.4,59.97422307813654,
78,-50,-50,0,one,-50,-50,0,,,,,0,35,35,77,,,,,,,,,,,down,4.508818799979053,421.1315292000072,None,421.1315292000072,None,425.6658504999941,None,425.6658504999941,None,425.6658504999941,None,427.6443364000006,428.14423020000686,427.6443364000006,428.14423020000686,427.6443364000006,428.14423020000686,425.6658504999941,None,428.1777245600009,None,428.1777245600009,None,428.1777245600009,None,0.01195096000446938,None,428.1777245600009,None,428.1777245600009,None,428.1777245600009,None,428.1777245600009,None,428.1777245600009,None,428.1777245600009,None,428.185455800005,None,428.185455800005,None,428.185455800005,None,0.0054422599787358195,0.5054422599787358,428.185455800005,None,428.185455800005,None,428.185455800005,None,428.185455800005,None,428.185455800005,None,428.185455800005,None,430.1772676999972,430.1772676999972,-0.10000000000000142,1.739,250,-200,-200,,,,,,,,,,,,,,,,,,,,,,,,,,,,,,,,,,,,,,,,,,,,,,,,,,,,,,,,,,,,,,,,,,,,,,,,,,,,,,,,,,,f,23,yurun,2022_Apr_01_0902,emotion,2021.1.4,59.97422307813654,
21,50,0,0,two,50,0,0,,,,,0,36,36,20,,,,,,,,,,,down,3.6350075000082143,431.9811957000056,None,431.9811957000056,None,435.6426516000065,None,435.6426516000065,None,435.6426516000065,None,437.6257326999912,438.12560369999846,437.6257326999912,438.12560369999846,437.6257326999912,438.12560369999846,435.6426516000065,None,438.1424190599995,None,438.1424190599995,None,438.1424190599995,None,0.010086859983857721,None,438.1424190599995,None,438.1424190599995,None,438.1424190599995,None,438.1424190599995,None,438.1424190599995,None,438.1424190599995,None,438.1512599000125,None,438.1512599000125,None,438.1512599000125,None,0.0038557599764317274,0.5038557599764317,438.1512599000125,None,438.1512599000125,None,438.1512599000125,None,438.1512599000125,None,438.1512599000125,None,438.1512599000125,None,440.14187120000133,440.14187120000133,7.200000000000003,1.423,300,-200,-200,,,,,,,,,,,,,,,,,,,,,,,,,,,,,,,,,,,,,,,,,,,,,,,,,,,,,,,,,,,,,,,,,,,,,,,,,,,,,,,,,,,f,23,yurun,2022_Apr_01_0902,emotion,2021.1.4,59.97422307813654,
26,50,200,50,one,50,200,50,,,,,0,37,37,25,,,,,,,,,,,right,1.6259465999901295,441.623345,None,441.623345,None,443.2821847999876,None,443.2821847999876,None,443.2821847999876,None,445.25752419998753,445.7574317000108,445.25752419998753,445.7574317000108,445.25752419998753,445.7574317000108,443.2821847999876,None,445.79093056001,None,445.79093056001,None,445.79093056001,None,0.011911260022316128,None,445.79093056001,None,445.79093056001,None,445.79093056001,None,445.79093056001,None,445.79093056001,None,445.79093056001,None,445.79860829998506,None,445.79860829998506,None,445.79860829998506,None,0.005478859995491803,0.5054788599954918,445.79860829998506,None,445.79860829998506,None,445.79860829998506,None,445.79860829998506,None,445.79860829998506,None,445.79860829998506,None,447.7903798999905,447.7903798999905,5.799999999999997,3.788,350,0,-150,,,,,,,,,,,,,,,,,,,,,,,,,,,,,,,,,,,,,,,,,,,,,,,,,,,,,,,,,,,,,,,,,,,,,,,,,,,,,,,,,,,f,23,yurun,2022_Apr_01_0902,emotion,2021.1.4,59.97422307813654,
37,200,200,0,one,200,200,0,,,,,0,38,38,36,,,,,,,,,,,down,4.018264799989993,451.63807929999894,None,451.63807929999894,None,455.6722056999861,None,455.6722056999861,None,455.6722056999861,None,457.65513450000435,458.1558415000036,457.65513450000435,458.1558415000036,457.65513450000435,458.1558415000036,455.6722056999861,None,458.1726568600046,None,458.1726568600046,None,458.1726568600046,None,0.00950196001213044,None,458.1726568600046,None,458.1726568600046,None,458.1726568600046,None,458.1726568600046,None,458.1726568600046,None,458.1726568600046,None,458.18506709998474,None,458.18506709998474,None,458.18506709998474,None,0.0005374600004870445,0.500537460000487,458.18506709998474,None,458.18506709998474,None,458.18506709998474,None,458.18506709998474,None,458.18506709998474,None,458.18506709998474,None,460.1712817999942,460.1712817999942,0.0,3.984,550,200,-150,,,,,,,,,,,,,,,,,,,,,,,,,,,,,,,,,,,,,,,,,,,,,,,,,,,,,,,,,,,,,,,,,,,,,,,,,,,,,,,,,,,f,23,yurun,2022_Apr_01_0902,emotion,2021.1.4,59.97422307813654,
43,200,200,0,two,200,200,0,,,,,0,39,39,42,,,,,,,,,,,left,2.3319269999919925,464.21790819999296,None,464.21790819999296,None,466.5761424000084,None,466.5761424000084,None,466.5761424000084,None,468.55288410000503,469.0528742999886,468.55288410000503,469.0528742999886,468.55288410000503,469.0528742999886,466.5761424000084,None,469.0863413600076,None,469.0863413600076,None,469.0863413600076,None,0.011860759987030178,None,469.0863413600076,None,469.0863413600076,None,469.0863413600076,None,469.0863413600076,None,469.0863413600076,None,469.0863413600076,None,469.0940610000107,None,469.0940610000107,None,469.0940610000107,None,0.005673060019034892,0.5056730600190349,469.0940610000107,None,469.0940610000107,None,469.0940610000107,None,469.0940610000107,None,469.0940610000107,None,469.0940610000107,None,471.0857851000037,471.0857851000037,25.0,3.446,750,400,-150,,,,,,,,,,,,,,,,,,,,,,,,,,,,,,,,,,,,,,,,,,,,,,,,,,,,,,,,,,,,,,,,,,,,,,,,,,,,,,,,,,,f,23,yurun,2022_Apr_01_0902,emotion,2021.1.4,59.97422307813654,
11,200,50,0,two,200,50,0,,,,,0,40,40,10,,,,,,,,,,,down,3.0892441000032704,474.5850420999923,None,474.5850420999923,None,477.7079318999895,None,477.7079318999895,None,477.7079318999895,None,479.68394260000787,480.1842603000114,479.68394260000787,480.1842603000114,479.68394260000787,480.1842603000114,477.7079318999895,None,480.21744645998695,None,480.21744645998695,None,480.21744645998695,None,0.011874359974171966,None,480.21744645998695,None,480.21744645998695,None,480.21744645998695,None,480.21744645998695,None,480.21744645998695,None,480.21744645998695,None,480.22638070001267,None,480.22638070001267,None,480.22638070001267,None,0.004535859974566847,0.5045358599745668,480.22638070001267,None,480.22638070001267,None,480.22638070001267,None,480.22638070001267,None,480.22638070001267,None,480.22638070001267,None,482.2167319,482.2167319,39.8,2.198,950,450,-150,,,,,,,,,,,,,,,,,,,,,,,,,,,,,,,,,,,,,,,,,,,,,,,,,,,,,,,,,,,,,,,,,,,,,,,,,,,,,,,,,,,f,23,yurun,2022_Apr_01_0902,emotion,2021.1.4,59.97422307813654,
15,50,0,0,one,50,0,0,,,,,0,41,41,14,,,,,,,,,,,right,1.4851978999795392,484.46883140000864,None,484.46883140000864,None,485.9829993000021,None,485.9829993000021,None,485.9829993000021,None,487.9657765000011,488.4662041999982,487.9657765000011,488.4662041999982,487.9657765000011,488.4662041999982,485.9829993000021,None,488.4830195599992,None,488.4830195599992,None,488.4830195599992,None,0.005748060008045286,None,488.4830195599992,None,488.4830195599992,None,488.4830195599992,None,488.4830195599992,None,488.4830195599992,None,488.4830195599992,None,488.4996089999913,None,488.4996089999913,None,488.4996089999913,None,0.013166319986339658,0.5131663199863397,488.4996089999913,None,488.4996089999913,None,488.4996089999913,None,488.4996089999913,None,488.4996089999913,None,488.4996089999913,None,490.4819843999867,490.4819843999867,44.099999999999994,5.345,1000,450,-150,,,,,,,,,,,,,,,,,,,,,,,,,,,,,,,,,,,,,,,,,,,,,,,,,,,,,,,,,,,,,,,,,,,,,,,,,,,,,,,,,,,f,23,yurun,2022_Apr_01_0902,emotion,2021.1.4,59.97422307813654,
72,-200,0,0,two,-200,0,0,,,,,0,42,42,71,,,,,,,,,,,left,3.0033807999861892,495.8835662000056,None,495.8835662000056,None,498.9198455000005,None,498.9198455000005,None,498.9198455000005,None,500.896553700004,501.39645480000763,500.896553700004,501.39645480000763,500.896553700004,501.39645480000763,498.9198455000005,None,501.43001906001007,None,501.43001906001007,None,501.43001906001007,None,0.011706260003848001,None,501.43001906001007,None,501.43001906001007,None,501.43001906001007,None,501.43001906001007,None,501.43001906001007,None,501.43001906001007,None,501.4392998999974,None,501.4392998999974,None,501.4392998999974,None,0.004688860004534945,0.504688860004535,501.4392998999974,None,501.4392998999974,None,501.4392998999974,None,501.4392998999974,None,501.4392998999974,None,501.4392998999974,None,503.42942659999244,503.42942659999244,-36.7,3.084,800,450,-150,,,,,,,,,,,,,,,,,,,,,,,,,,,,,,,,,,,,,,,,,,,,,,,,,,,,,,,,,,,,,,,,,,,,,,,,,,,,,,,,,,,f,23,yurun,2022_Apr_01_0902,emotion,2021.1.4,59.97422307813654,
12,200,0,50,two,200,0,50,,,,,0,43,43,11,,,,,,,,,,,left,1.8073332000058144,506.5694266000064,None,506.5694266000064,None,508.3988558000128,None,508.3988558000128,None,508.3988558000128,None,510.37806089999503,510.8779898000066,510.37806089999503,510.8779898000066,510.37806089999503,510.8779898000066,508.3988558000128,None,510.9114069599949,None,510.9114069599949,None,510.9114069599949,None,0.01180125997052528,None,510.9114069599949,None,510.9114069599949,None,510.9114069599949,None,510.9114069599949,None,510.9114069599949,None,510.9114069599949,None,510.92056030000094,None,510.92056030000094,None,510.92056030000094,None,0.0042214599961880594,0.5042214599961881,510.92056030000094,None,510.92056030000094,None,510.92056030000094,None,510.92056030000094,None,510.92056030000094,None,510.92056030000094,None,512.9104960999975,512.9104960999975,44.400000000000006,2.816,1000,450,-100,,,,,,,,,,,,,,,,,,,,,,,,,,,,,,,,,,,,,,,,,,,,,,,,,,,,,,,,,,,,,,,,,,,,,,,,,,,,,,,,,,,f,23,yurun,2022_Apr_01_0902,emotion,2021.1.4,59.97422307813654,
34,0,50,50,two,0,50,50,,,,,0,44,44,33,,,,,,,,,,,right,1.5693565999972634,515.7823555000068,None,515.7823555000068,None,517.3863264000101,None,517.3863264000101,None,517.3863264000101,None,519.3600707000005,519.8606177000038,519.3600707000005,519.8606177000038,519.3600707000005,519.8606177000038,517.3863264000101,None,519.8938555599947,None,519.8938555599947,None,519.8938555599947,None,0.009402859985129908,None,519.8938555599947,None,519.8938555599947,None,519.8938555599947,None,519.8938555599947,None,519.8938555599947,None,519.8938555599947,None,519.9062566999928,None,519.9062566999928,None,519.9062566999928,None,0.000245259958319366,0.5002452599583194,519.9062566999928,None,519.9062566999928,None,519.9062566999928,None,519.9062566999928,None,519.9062566999928,None,519.9062566999928,None,521.8924155999848,521.8924155999848,-9.700000000000003,4.18,1000,500,-50,,,,,,,,,,,,,,,,,,,,,,,,,,,,,,,,,,,,,,,,,,,,,,,,,,,,,,,,,,,,,,,,,,,,,,,,,,,,,,,,,,,f,23,yurun,2022_Apr_01_0902,emotion,2021.1.4,59.97422307813654,
90,-50,-200,-200,one,-50,-200,-200,,,,,0,45,45,89,,,,,,,,,,,right,1.9408141000021715,526.1398520999937,None,526.1398520999937,None,528.1129027999996,None,528.1129027999996,None,528.1129027999996,None,530.0906074999948,530.5906532999943,530.0906074999948,530.5906532999943,530.0906074999948,530.5906532999943,528.1129027999996,None,530.6242209599935,None,530.6242209599935,None,530.6242209599935,None,0.01161165998200886,None,530.6242209599935,None,530.6242209599935,None,530.6242209599935,None,530.6242209599935,None,530.6242209599935,None,530.6242209599935,None,530.634760099987,None,530.634760099987,None,530.634760099987,None,0.004284459981136024,0.504284459981136,530.634760099987,None,530.634760099987,None,530.634760099987,None,530.634760099987,None,530.634760099987,None,530.634760099987,None,532.6237022999849,532.6237022999849,15.299999999999997,1.57,950,300,-250,,,,,,,,,,,,,,,,,,,,,,,,,,,,,,,,,,,,,,,,,,,,,,,,,,,,,,,,,,,,,,,,,,,,,,,,,,,,,,,,,,,f,23,yurun,2022_Apr_01_0902,emotion,2021.1.4,59.97422307813654,
76,0,-50,-50,one,0,-50,-50,,,,,0,46,46,75,,,,,,,,,,,right,6.80144339997787,534.2550493000017,None,534.2550493000017,None,541.0757259000093,None,541.0757259000093,None,541.0757259000093,None,543.0548688000126,543.5548644000082,543.0548688000126,543.5548644000082,543.0548688000126,543.5548644000082,541.0757259000093,None,543.5883774599992,None,543.5883774599992,None,543.5883774599992,None,0.011259560007601976,None,543.5883774599992,None,543.5883774599992,None,543.5883774599992,None,543.5883774599992,None,543.5883774599992,None,543.5883774599992,None,543.5975065999955,None,543.5975065999955,None,543.5975065999955,None,0.004633159987861291,0.5046331599878613,543.5975065999955,None,543.5975065999955,None,543.5975065999955,None,543.5975065999955,None,543.5975065999955,None,543.5975065999955,None,545.5878166999901,545.5878166999901,10.600000000000001,2.146,950,250,-300,,,,,,,,,,,,,,,,,,,,,,,,,,,,,,,,,,,,,,,,,,,,,,,,,,,,,,,,,,,,,,,,,,,,,,,,,,,,,,,,,,,f,23,yurun,2022_Apr_01_0902,emotion,2021.1.4,59.97422307813654,
8,0,200,50,two,0,200,50,,,,,0,47,47,7,,,,,,,,,,,left,3.106097099982435,547.8002409999899,None,547.8002409999899,None,550.9411316000042,None,550.9411316000042,None,550.9411316000042,None,552.9196812000009,553.4195783000032,552.9196812000009,553.4195783000032,552.9196812000009,553.4195783000032,550.9411316000042,None,553.4530342599959,None,553.4530342599959,None,553.4530342599959,None,0.011853859992697835,None,553.4530342599959,None,553.4530342599959,None,553.4530342599959,None,553.4530342599959,None,553.4530342599959,None,553.4530342599959,None,553.4619394000038,None,553.4619394000038,None,553.4619394000038,None,0.004646659974241629,0.5046466599742416,553.4619394000038,None,553.4619394000038,None,553.4619394000038,None,553.4619394000038,None,553.4619394000038,None,553.4619394000038,None,555.4525076999853,555.4525076999853,-25.3,2.494,950,450,-250,,,,,,,,,,,,,,,,,,,,,,,,,,,,,,,,,,,,,,,,,,,,,,,,,,,,,,,,,,,,,,,,,,,,,,,,,,,,,,,,,,,f,23,yurun,2022_Apr_01_0902,emotion,2021.1.4,59.97422307813654,
74,-50,-200,-50,one,-50,-200,-50,,,,,0,48,48,73,,,,,,,,,,,left,1.4314936999871861,557.9993397000071,None,557.9993397000071,None,559.4601398000086,None,559.4601398000086,None,559.4601398000086,None,561.4345113000018,561.9344093000109,561.4345113000018,561.9344093000109,561.4345113000018,561.9344093000109,559.4601398000086,None,561.9680476599955,None,561.9680476599955,None,561.9680476599955,None,0.011654359987005591,None,561.9680476599955,None,561.9680476599955,None,561.9680476599955,None,561.9680476599955,None,561.9680476599955,None,561.9680476599955,None,561.9779340999958,None,561.9779340999958,None,561.9779340999958,None,0.004484159988351166,0.5044841599883512,561.9779340999958,None,561.9779340999958,None,561.9779340999958,None,561.9779340999958,None,561.9779340999958,None,561.9779340999958,None,563.9675213999872,563.9675213999872,11.299999999999997,1.452,900,250,-300,,,,,,,,,,,,,,,,,,,,,,,,,,,,,,,,,,,,,,,,,,,,,,,,,,,,,,,,,,,,,,,,,,,,,,,,,,,,,,,,,,,f,23,yurun,2022_Apr_01_0902,emotion,2021.1.4,59.97422307813654,
35,50,0,50,two,50,0,50,,,,,0,49,49,34,,,,,,,,,,,right,2.0636266999936197,565.4824147000036,None,565.4824147000036,None,567.5706931999885,None,567.5706931999885,None,567.5706931999885,None,569.5496898000129,570.0493540999887,569.5496898000129,570.0493540999887,569.5496898000129,570.0493540999887,567.5706931999885,None,570.083091259998,None,570.083091259998,None,570.083091259998,None,0.011400060000596568,None,570.083091259998,None,570.083091259998,None,570.083091259998,None,570.083091259998,None,570.083091259998,None,570.083091259998,None,570.0933884000115,None,570.0933884000115,None,570.0933884000115,None,0.004256259999237955,0.504256259999238,570.0933884000115,None,570.0933884000115,None,570.0933884000115,None,570.0933884000115,None,570.0933884000115,None,570.0933884000115,None,572.0826319000043,572.0826319000043,15.599999999999994,2.122,950,250,-250,,,,,,,,,,,,,,,,,,,,,,,,,,,,,,,,,,,,,,,,,,,,,,,,,,,,,,,,,,,,,,,,,,,,,,,,,,,,,,,,,,,f,23,yurun,2022_Apr_01_0902,emotion,2021.1.4,59.97422307813654,
70,0,0,-200,two,0,0,-200,,,,,0,50,50,69,,,,,,,,,,,down,1.2424593000032473,574.2614347999915,None,574.2614347999915,None,575.5358496000117,None,575.5358496000117,None,575.5358496000117,None,577.5147373999935,578.0146863000118,577.5147373999935,578.0146863000118,577.5147373999935,578.0146863000118,575.5358496000117,None,578.0481696600094,None,578.0481696600094,None,578.0481696600094,None,0.011647859995719045,None,578.0481696600094,None,578.0481696600094,None,578.0481696600094,None,578.0481696600094,None,578.0481696600094,None,578.0481696600094,None,578.0580664000008,None,578.0580664000008,None,578.0580664000008,None,0.004652460018405691,0.5046524600184057,578.0580664000008,None,578.0580664000008,None,578.0580664000008,None,578.0580664000008,None,578.0580664000008,None,578.0580664000008,None,580.0475673000037,580.0475673000037,16.0,5.322,950,250,-450,,,,,,,,,,,,,,,,,,,,,,,,,,,,,,,,,,,,,,,,,,,,,,,,,,,,,,,,,,,,,,,,,,,,,,,,,,,,,,,,,,,f,23,yurun,2022_Apr_01_0902,emotion,2021.1.4,59.97422307813654,
39,0,200,200,one,0,200,200,,,,,0,51,51,38,,,,,,,,,,,down,2.5189068999898154,585.4287767999922,None,585.4287767999922,None,587.9659637000004,None,587.9659637000004,None,587.9659637000004,None,589.9456885000109,590.4455772000074,589.9456885000109,590.4455772000074,589.9456885000109,590.4455772000074,587.9659637000004,None,590.4790625599911,None,590.4790625599911,None,590.4790625599911,None,0.011937159986700863,None,590.4790625599911,None,590.4790625599911,None,590.4790625599911,None,590.4790625599911,None,590.4790625599911,None,590.4790625599911,None,590.4869985000114,None,590.4869985000114,None,590.4869985000114,None,0.005697859975043684,0.5056978599750437,590.4869985000114,None,590.4869985000114,None,590.4869985000114,None,590.4869985000114,None,590.4869985000114,None,590.4869985000114,None,592.4785002999997,592.4785002999997,-25.1,3.832,950,450,-250,,,,,,,,,,,,,,,,,,,,,,,,,,,,,,,,,,,,,,,,,,,,,,,,,,,,,,,,,,,,,,,,,,,,,,,,,,,,,,,,,,,f,23,yurun,2022_Apr_01_0902,emotion,2021.1.4,59.97422307813654,
63,-50,0,0,one,-50,0,0,,,,,0,52,52,62,,,,,,,,,,,down,2.7027738000033423,596.3665684000007,None,596.3665684000007,None,599.098740699992,None,599.098740699992,None,599.098740699992,None,601.076833500003,601.5767806000076,601.076833500003,601.5767806000076,601.076833500003,601.5767806000076,599.098740699992,None,601.6102076600131,None,601.6102076600131,None,601.6102076600131,None,0.011829860013676807,None,601.6102076600131,None,601.6102076600131,None,601.6102076600131,None,601.6102076600131,None,601.6102076600131,None,601.6102076600131,None,601.6190510999877,None,601.6190510999877,None,601.6190510999877,None,0.004703860002337024,0.504703860002337,601.6190510999877,None,601.6190510999877,None,601.6190510999877,None,601.6190510999877,None,601.6190510999877,None,601.6190510999877,None,603.6097896999854,603.6097896999854,-32.8,3.304,900,450,-250,,,,,,,,,,,,,,,,,,,,,,,,,,,,,,,,,,,,,,,,,,,,,,,,,,,,,,,,,,,,,,,,,,,,,,,,,,,,,,,,,,,f,23,yurun,2022_Apr_01_0902,emotion,2021.1.4,59.97422307813654,
67,0,0,-50,two,0,0,-50,,,,,0,53,53,66,,,,,,,,,,,down,1.4008294999948703,606.9704997999943,None,606.9704997999943,None,608.3920813000004,None,608.3920813000004,None,608.3920813000004,None,610.3749208000081,610.8748814999999,610.3749208000081,610.8748814999999,610.3749208000081,610.8748814999999,608.3920813000004,None,610.8916968600009,None,610.8916968600009,None,610.8916968600009,None,0.00990485999500379,None,610.8916968600009,None,610.8916968600009,None,610.8916968600009,None,610.8916968600009,None,610.8916968600009,None,610.8916968600009,None,610.9012226999912,None,610.9012226999912,None,610.9012226999912,None,0.0035667600168380886,0.5035667600168381,610.9012226999912,None,610.9012226999912,None,610.9012226999912,None,610.9012226999912,None,610.9012226999912,None,610.9012226999912,None,612.8909897000121,612.8909897000121,-0.20000000000000284,2.432,900,450,-300,,,,,,,,,,,,,,,,,,,,,,,,,,,,,,,,,,,,,,,,,,,,,,,,,,,,,,,,,,,,,,,,,,,,,,,,,,,,,,,,,,,f,23,yurun,2022_Apr_01_0902,emotion,2021.1.4,59.97422307813654,
48,50,200,200,two,50,200,200,,,,,0,54,54,47,,,,,,,,,,,right,2.773966000007931,615.3760624999995,None,615.3760624999995,None,618.1774193999881,None,618.1774193999881,None,618.1774193999881,None,620.157235599996,620.6562878999976,620.157235599996,620.6562878999976,620.157235599996,620.6562878999976,618.1774193999881,None,620.6897734600119,None,620.6897734600119,None,620.6897734600119,None,0.011087960010627285,None,620.6897734600119,None,620.6897734600119,None,620.6897734600119,None,620.6897734600119,None,620.6897734600119,None,620.6897734600119,None,620.6987584999879,None,620.6987584999879,None,620.6987584999879,None,0.004441859986400232,0.5044418599864002,620.6987584999879,None,620.6987584999879,None,620.6987584999879,None,620.6987584999879,None,620.6987584999879,None,620.6987584999879,None,622.6904256000125,622.6904256000125,-47.9,4.416,950,650,-100,,,,,,,,,,,,,,,,,,,,,,,,,,,,,,,,,,,,,,,,,,,,,,,,,,,,,,,,,,,,,,,,,,,,,,,,,,,,,,,,,,,f,23,yurun,2022_Apr_01_0902,emotion,2021.1.4,59.97422307813654,
28,0,50,50,one,0,50,50,,,,,0,55,55,27,,,,,,,,,,,right,2.1822905000008177,627.1682364000008,None,627.1682364000008,None,629.374696999992,None,629.374696999992,None,629.374696999992,None,631.3541894000082,631.8540125,631.3541894000082,631.8540125,631.3541894000082,631.8540125,629.374696999992,None,631.8872974600002,None,631.8872974600002,None,631.8872974600002,None,0.008804559998679906,None,631.8872974600002,None,631.8872974600002,None,631.8872974600002,None,631.8872974600002,None,631.8872974600002,None,631.8872974600002,None,631.8995977999875,None,631.8995977999875,None,631.8995977999875,None,0.0007822600018698722,0.5007822600018699,631.8995977999875,None,631.8995977999875,None,631.8995977999875,None,631.8995977999875,None,631.8995977999875,None,631.8995977999875,None,633.8870038999885,633.8870038999885,-19.8,3.575,950,700,-50,,,,,,,,,,,,,,,,,,,,,,,,,,,,,,,,,,,,,,,,,,,,,,,,,,,,,,,,,,,,,,,,,,,,,,,,,,,,,,,,,,,f,23,yurun,2022_Apr_01_0902,emotion,2021.1.4,59.97422307813654,
85,-200,-200,0,one,-200,-200,0,,,,,0,56,56,84,,,,,,,,,,,right,1.5686861999856774,637.5124133999925,None,637.5124133999925,None,639.1060659000068,None,639.1060659000068,None,639.1060659000068,None,641.08538460001,641.5854948000051,641.08538460001,641.5854948000051,641.08538460001,641.5854948000051,639.1060659000068,None,641.6189636600087,None,641.6189636600087,None,641.6189636600087,None,0.0117997600173112,None,641.6189636600087,None,641.6189636600087,None,641.6189636600087,None,641.6189636600087,None,641.6189636600087,None,641.6189636600087,None,641.6278957999893,None,641.6278957999893,None,641.6278957999893,None,0.004689859983045608,0.5046898599830456,641.6278957999893,None,641.6278957999893,None,641.6278957999893,None,641.6278957999893,None,641.6278957999893,None,641.6278957999893,None,643.6184698999859,643.6184698999859,-32.8,2.18,750,500,-50,,,,,,,,,,,,,,,,,,,,,,,,,,,,,,,,,,,,,,,,,,,,,,,,,,,,,,,,,,,,,,,,,,,,,,,,,,,,,,,,,,,f,23,yurun,2022_Apr_01_0902,emotion,2021.1.4,59.97422307813654,
53,-200,-50,0,one,-200,-50,0,,,,,0,57,57,52,,,,,,,,,,,right,1.309405899984995,645.8513440999959,None,645.8513440999959,None,647.1861490999872,None,647.1861490999872,None,647.1861490999872,None,649.1673731000046,649.6669139000005,649.1673731000046,649.6669139000005,649.1673731000046,649.6669139000005,647.1861490999872,None,649.7004834600142,None,649.7004834600142,None,649.7004834600142,None,0.011411859974032268,None,649.7004834600142,None,649.7004834600142,None,649.7004834600142,None,649.7004834600142,None,649.7004834600142,None,649.7004834600142,None,649.7106099000084,None,649.7106099000084,None,649.7106099000084,None,0.004275859973859042,0.504275859973859,649.7106099000084,None,649.7106099000084,None,649.7106099000084,None,649.7106099000084,None,649.7106099000084,None,649.7106099000084,None,651.7001743000001,651.7001743000001,-40.9,11.248,550,450,-50,,,,,,,,,,,,,,,,,,,,,,,,,,,,,,,,,,,,,,,,,,,,,,,,,,,,,,,,,,,,,,,,,,,,,,,,,,,,,,,,,,,f,23,yurun,2022_Apr_01_0902,emotion,2021.1.4,59.97422307813654,
19,0,0,50,two,0,0,50,,,,,0,58,58,18,,,,,,,,,,,right,1.5133160999976099,663.0041467999981,None,663.0041467999981,None,664.5510718000005,None,664.5510718000005,None,664.5510718000005,None,666.5305782000069,667.0304844999919,666.5305782000069,667.0304844999919,666.5305782000069,667.0304844999919,664.5510718000005,None,667.0639587600075,None,667.0639587600075,None,667.0639587600075,None,0.011635660019237548,None,667.0639587600075,None,667.0639587600075,None,667.0639587600075,None,667.0639587600075,None,667.0639587600075,None,667.0639587600075,None,667.0728139999846,None,667.0728139999846,None,667.0728139999846,None,0.004882359993644059,0.5048823599936441,667.0728139999846,None,667.0728139999846,None,667.0728139999846,None,667.0728139999846,None,667.0728139999846,None,667.0728139999846,None,669.0632448999968,669.0632448999968,-0.20000000000000284,3.019,550,450,0,,,,,,,,,,,,,,,,,,,,,,,,,,,,,,,,,,,,,,,,,,,,,,,,,,,,,,,,,,,,,,,,,,,,,,,,,,,,,,,,,,,f,23,yurun,2022_Apr_01_0902,emotion,2021.1.4,59.97422307813654,
17,0,200,0,one,0,200,0,,,,,0,59,59,16,,,,,,,,,,,right,1.9649220000137575,672.1465159000072,None,672.1465159000072,None,674.1290790000057,None,674.1290790000057,None,674.1290790000057,None,676.1117736999877,676.6117733999854,676.1117736999877,676.6117733999854,676.1117736999877,676.6117733999854,674.1290790000057,None,676.6285887599864,None,676.6285887599864,None,676.6285887599864,None,0.009129059995757416,None,676.6285887599864,None,676.6285887599864,None,676.6285887599864,None,676.6285887599864,None,676.6285887599864,None,676.6285887599864,None,676.6398656000092,None,676.6398656000092,None,676.6398656000092,None,0.0022320599819067866,0.5022320599819068,676.6398656000092,None,676.6398656000092,None,676.6398656000092,None,676.6398656000092,None,676.6398656000092,None,676.6398656000092,None,678.6279034999898,678.6279034999898,-30.1,2.942,550,650,0,,,,,,,,,,,,,,,,,,,,,,,,,,,,,,,,,,,,,,,,,,,,,,,,,,,,,,,,,,,,,,,,,,,,,,,,,,,,,,,,,,,f,23,yurun,2022_Apr_01_0902,emotion,2021.1.4,59.97422307813654,
82,0,-50,-50,two,0,-50,-50,,,,,0,60,60,81,,,,,,,,,,,right,1.7624102999980096,681.6261708000093,None,681.6261708000093,None,683.4105254999886,None,683.4105254999886,None,683.4105254999886,None,685.3942414000048,685.8934781999851,685.3942414000048,685.8934781999851,685.3942414000048,685.8934781999851,683.4105254999886,None,685.9102935599861,None,685.9102935599861,None,685.9102935599861,None,0.009924359997967258,None,685.9102935599861,None,685.9102935599861,None,685.9102935599861,None,685.9102935599861,None,685.9102935599861,None,685.9102935599861,None,685.9204099999915,None,685.9204099999915,None,685.9204099999915,None,0.002877059974707663,0.5028770599747077,685.9204099999915,None,685.9204099999915,None,685.9204099999915,None,685.9204099999915,None,685.9204099999915,None,685.9204099999915,None,687.9097240999981,687.9097240999981,9.299999999999997,2.382,550,600,-50,,,,,,,,,,,,,,,,,,,,,,,,,,,,,,,,,,,,,,,,,,,,,,,,,,,,,,,,,,,,,,,,,,,,,,,,,,,,,,,,,,,f,23,yurun,2022_Apr_01_0902,emotion,2021.1.4,59.97422307813654,
66,-200,0,0,one,-200,0,0,,,,,0,61,61,65,,,,,,,,,,,right,1.431940799986478,690.3444564999954,None,690.3444564999954,None,691.7926178000052,None,691.7926178000052,None,691.7926178000052,None,693.7752276000101,694.275120300008,693.7752276000101,694.275120300008,693.7752276000101,694.275120300008,691.7926178000052,None,694.291935660009,None,694.291935660009,None,694.291935660009,None,0.009466860006796196,None,694.291935660009,None,694.291935660009,None,694.291935660009,None,694.291935660009,None,694.291935660009,None,694.291935660009,None,694.3034921000071,None,694.3034921000071,None,694.3034921000071,None,0.0009910600201692432,0.5009910600201692,694.3034921000071,None,694.3034921000071,None,694.3034921000071,None,694.3034921000071,None,694.3034921000071,None,694.3034921000071,None,696.2914206999994,696.2914206999994,-36.6,2.754,350,600,-50,,,,,,,,,,,,,,,,,,,,,,,,,,,,,,,,,,,,,,,,,,,,,,,,,,,,,,,,,,,,,,,,,,,,,,,,,,,,,,,,,,,f,23,yurun,2022_Apr_01_0902,emotion,2021.1.4,59.97422307813654,
27,50,50,200,one,50,50,200,,,,,0,62,62,26,,,,,,,,,,,right,2.2779824000026565,699.1058858000033,None,699.1058858000033,None,701.4136495999992,None,701.4136495999992,None,701.4136495999992,None,703.3899988000048,703.8899399999937,703.3899988000048,703.8899399999937,703.3899988000048,703.8899399999937,701.4136495999992,None,703.9242401600117,None,703.9242401600117,None,703.9242401600117,None,0.00411765999160707,None,703.9242401600117,None,703.9242401600117,None,703.9242401600117,None,703.9242401600117,None,703.9242401600117,None,703.9242401600117,None,703.9577992999984,None,703.9577992999984,None,703.9577992999984,None,0.005623820034088567,0.5056238200340886,703.9577992999984,None,703.9577992999984,None,703.9577992999984,None,703.9577992999984,None,703.9577992999984,None,703.9577992999984,None,705.9394611000025,705.9394611000025,8.399999999999999,2.846,400,650,150,,,,,,,,,,,,,,,,,,,,,,,,,,,,,,,,,,,,,,,,,,,,,,,,,,,,,,,,,,,,,,,,,,,,,,,,,,,,,,,,,,,f,23,yurun,2022_Apr_01_0902,emotion,2021.1.4,59.97422307813654,
42,50,200,200,one,50,200,200,,,,,0,63,63,41,,,,,,,,,,,right,2.7661629999929573,708.8581222000066,None,708.8581222000066,None,711.6606335999968,None,711.6606335999968,None,711.6606335999968,None,713.6380795000005,714.1379644999979,713.6380795000005,714.1379644999979,713.6380795000005,714.1379644999979,711.6606335999968,None,714.1712623600091,None,714.1712623600091,None,714.1712623600091,None,0.011597859993344173,None,714.1712623600091,None,714.1712623600091,None,714.1712623600091,None,714.1712623600091,None,714.1712623600091,None,714.1712623600091,None,714.1806719999877,None,714.1806719999877,None,714.1806719999877,None,0.00452956001390703,0.504529560013907,714.1806719999877,None,714.1806719999877,None,714.1806719999877,None,714.1806719999877,None,714.1806719999877,None,714.1806719999877,None,716.1708066999854,716.1708066999854,-25.3,5.291,450,850,350,,,,,,,,,,,,,,,,,,,,,,,,,,,,,,,,,,,,,,,,,,,,,,,,,,,,,,,,,,,,,,,,,,,,,,,,,,,,,,,,,,,f,23,yurun,2022_Apr_01_0902,emotion,2021.1.4,59.97422307813654,
68,0,-50,0,two,0,-50,0,,,,,0,64,64,67,,,,,,,,,,,down,2.0088586999918334,721.5181570999848,None,721.5181570999848,None,723.5607745999878,None,723.5607745999878,None,723.5607745999878,None,725.5355783000123,726.0355775000062,725.5355783000123,726.0355775000062,725.5355783000123,726.0355775000062,723.5607745999878,None,726.0690427600115,None,726.0690427600115,None,726.0690427600115,None,0.011869060021126643,None,726.0690427600115,None,726.0690427600115,None,726.0690427600115,None,726.0690427600115,None,726.0690427600115,None,726.0690427600115,None,726.0782417999872,None,726.0782417999872,None,726.0782417999872,None,0.004669760004617274,0.5046697600046173,726.0782417999872,None,726.0782417999872,None,726.0782417999872,None,726.0782417999872,None,726.0782417999872,None,726.0782417999872,None,728.0684842999908,728.0684842999908,6.399999999999999,3.886,450,800,350,,,,,,,,,,,,,,,,,,,,,,,,,,,,,,,,,,,,,,,,,,,,,,,,,,,,,,,,,,,,,,,,,,,,,,,,,,,,,,,,,,,f,23,yurun,2022_Apr_01_0902,emotion,2021.1.4,59.97422307813654,
40,200,200,50,one,200,200,50,,,,,0,65,65,39,,,,,,,,,,,left,2.53638299999875,732.0157591000025,None,732.0157591000025,None,734.5727116999915,None,734.5727116999915,None,734.5727116999915,None,736.5498731000116,737.0501193999953,736.5498731000116,737.0501193999953,736.5498731000116,737.0501193999953,734.5727116999915,None,737.0834154599928,None,737.0834154599928,None,737.0834154599928,None,0.01181745997746475,None,737.0834154599928,None,737.0834154599928,None,737.0834154599928,None,737.0834154599928,None,737.0834154599928,None,737.0834154599928,None,737.0930868999858,None,737.0930868999858,None,737.0930868999858,None,0.004544059978798032,0.504544059978798,737.0930868999858,None,737.0930868999858,None,737.0930868999858,None,737.0930868999858,None,737.0930868999858,None,737.0930868999858,None,739.0829586999898,739.0829586999898,0.0,2.246,650,1000,400,,,,,,,,,,,,,,,,,,,,,,,,,,,,,,,,,,,,,,,,,,,,,,,,,,,,,,,,,,,,,,,,,,,,,,,,,,,,,,,,,,,f,23,yurun,2022_Apr_01_0902,emotion,2021.1.4,59.97422307813654,
25,200,50,50,one,200,50,50,,,,,0,66,66,24,,,,,,,,,,,right,1.7289956000167876,741.3891462000029,None,741.3891462000029,None,743.1385244000121,None,743.1385244000121,None,743.1385244000121,None,745.1151991999941,745.6148502999858,745.1151991999941,745.6148502999858,745.1151991999941,745.6148502999858,743.1385244000121,None,745.6483123599959,None,745.6483123599959,None,745.6483123599959,None,0.011871559981955215,None,745.6483123599959,None,745.6483123599959,None,745.6483123599959,None,745.6483123599959,None,745.6483123599959,None,745.6483123599959,None,745.6568202000053,None,745.6568202000053,None,745.6568202000053,None,0.005547059990931302,0.5055470599909313,745.6568202000053,None,745.6568202000053,None,745.6568202000053,None,745.6568202000053,None,745.6568202000053,None,745.6568202000053,None,747.6479059999983,747.6479059999983,36.5,8.629,850,1050,450,,,,,,,,,,,,,,,,,,,,,,,,,,,,,,,,,,,,,,,,,,,,,,,,,,,,,,,,,,,,,,,,,,,,,,,,,,,,,,,,,,,f,23,yurun,2022_Apr_01_0902,emotion,2021.1.4,59.97422307813654,
9,50,0,200,two,50,0,200,,,,,0,67,67,8,,,,,,,,,,,down,2.4846978000132367,756.3320791999868,None,756.3320791999868,None,758.8508894999977,None,758.8508894999977,None,758.8508894999977,None,760.82969340001,761.3295509000018,760.82969340001,761.3295509000018,760.82969340001,761.3295509000018,758.8508894999977,None,761.3620219600037,None,761.3620219600037,None,761.3620219600037,None,0.011964759993134066,None,761.3620219600037,None,761.3620219600037,None,761.3620219600037,None,761.3620219600037,None,761.3620219600037,None,761.3620219600037,None,761.3701602999936,None,761.3701602999936,None,761.3701602999936,None,0.005641459982143715,0.5056414599821437,761.3701602999936,None,761.3701602999936,None,761.3701602999936,None,761.3701602999936,None,761.3701602999936,None,761.3701602999936,None,763.361596600007,763.361596600007,10.600000000000001,1.914,900,1050,650,,,,,,,,,,,,,,,,,,,,,,,,,,,,,,,,,,,,,,,,,,,,,,,,,,,,,,,,,,,,,,,,,,,,,,,,,,,,,,,,,,,f,23,yurun,2022_Apr_01_0902,emotion,2021.1.4,59.97422307813654,
36,50,50,0,two,50,50,0,,,,,0,68,68,35,,,,,,,,,,,left,2.4244828000082634,765.3282670000044,None,765.3282670000044,None,767.7868812000088,None,767.7868812000088,None,767.7868812000088,None,769.7602260000131,770.260134000011,769.7602260000131,770.260134000011,769.7602260000131,770.260134000011,767.7868812000088,None,770.2936201600008,None,770.2936201600008,None,770.2936201600008,None,0.011823159991763532,None,770.2936201600008,None,770.2936201600008,None,770.2936201600008,None,770.2936201600008,None,770.2936201600008,None,770.2936201600008,None,770.3028752999962,None,770.3028752999962,None,770.3028752999962,None,0.004840559995500371,0.5048405599955004,770.3028752999962,None,770.3028752999962,None,770.3028752999962,None,770.3028752999962,None,770.3028752999962,None,770.3028752999962,None,772.2930617000093,772.2930617000093,7.299999999999997,1.816,950,1100,650,,,,,,,,,,,,,,,,,,,,,,,,,,,,,,,,,,,,,,,,,,,,,,,,,,,,,,,,,,,,,,,,,,,,,,,,,,,,,,,,,,,f,23,yurun,2022_Apr_01_0902,emotion,2021.1.4,59.97422307813654,
69,-50,0,0,two,-50,0,0,,,,,0,69,69,68,,,,,,,,,,,down,1.702575400006026,774.1748834000027,None,774.1748834000027,None,775.8974022000039,None,775.8974022000039,None,775.8974022000039,None,777.8751841000048,778.375235399988,777.8751841000048,778.375235399988,777.8751841000048,778.375235399988,775.8974022000039,None,778.4084029599966,None,778.4084029599966,None,778.4084029599966,None,0.011714160005794838,None,778.4084029599966,None,778.4084029599966,None,778.4084029599966,None,778.4084029599966,None,778.4084029599966,None,778.4084029599966,None,778.4180313000106,None,778.4180313000106,None,778.4180313000106,None,0.003935559972887859,0.5039355599728879,778.4180313000106,None,778.4180313000106,None,778.4180313000106,None,778.4180313000106,None,778.4180313000106,None,778.4180313000106,None,780.4081177999906,780.4081177999906,-20.0,2.531,900,1100,650,,,,,,,,,,,,,,,,,,,,,,,,,,,,,,,,,,,,,,,,,,,,,,,,,,,,,,,,,,,,,,,,,,,,,,,,,,,,,,,,,,,f,23,yurun,2022_Apr_01_0902,emotion,2021.1.4,59.97422307813654,
4,50,200,0,one,50,200,0,,,,,0,70,70,3,,,,,,,,,,,down,3.729066799976863,782.992513300007,None,782.992513300007,None,786.7444159000006,None,786.7444159000006,None,786.7444159000006,None,788.7232120000117,789.2233878000116,788.7232120000117,789.2233878000116,788.7232120000117,789.2233878000116,786.7444159000006,None,789.2565355599858,None,789.2565355599858,None,789.2565355599858,None,0.011640659969998524,None,789.2565355599858,None,789.2565355599858,None,789.2565355599858,None,789.2565355599858,None,789.2565355599858,None,789.2565355599858,None,789.2662465999892,None,789.2662465999892,None,789.2662465999892,None,0.004385959997307509,0.5043859599973075,789.2662465999892,None,789.2662465999892,None,789.2662465999892,None,789.2662465999892,None,789.2662465999892,None,789.2662465999892,None,791.2560204000038,791.2560204000038,-25.2,2.185,950,1300,650,,,,,,,,,,,,,,,,,,,,,,,,,,,,,,,,,,,,,,,,,,,,,,,,,,,,,,,,,,,,,,,,,,,,,,,,,,,,,,,,,,,f,23,yurun,2022_Apr_01_0902,emotion,2021.1.4,59.97422307813654,
30,50,50,0,one,50,50,0,,,,,0,71,71,29,,,,,,,,,,,down,1.9910133999946993,793.5041673000087,None,793.5041673000087,None,795.5269056000107,None,795.5269056000107,None,795.5269056000107,None,797.5047811999975,798.0044971999887,797.5047811999975,798.0044971999887,797.5047811999975,798.0044971999887,795.5269056000107,None,798.0380995599902,None,798.0380995599902,None,798.0380995599902,None,0.011818859988125041,None,798.0380995599902,None,798.0380995599902,None,798.0380995599902,None,798.0380995599902,None,798.0380995599902,None,798.0380995599902,None,798.0474073000078,None,798.0474073000078,None,798.0474073000078,None,0.004491859988775104,0.5044918599887751,798.0474073000078,None,798.0474073000078,None,798.0474073000078,None,798.0474073000078,None,798.0474073000078,None,798.0474073000078,None,800.0375867999974,800.0375867999974,8.299999999999997,4.496,1000,1350,650,,,,,,,,,,,,,,,,,,,,,,,,,,,,,,,,,,,,,,,,,,,,,,,,,,,,,,,,,,,,,,,,,,,,,,,,,,,,,,,,,,,f,23,yurun,2022_Apr_01_0902,emotion,2021.1.4,59.97422307813654,
56,0,-200,-50,two,0,-200,-50,,,,,0,72,72,55,,,,,,,,,,,left,1.542428100015968,804.5873461999872,None,804.5873461999872,None,806.1574113999959,None,806.1574113999959,None,806.1574113999959,None,808.1359139000124,808.6358963999955,808.1359139000124,808.6358963999955,808.1359139000124,808.6358963999955,806.1574113999959,None,808.6693639599893,None,808.6693639599893,None,808.6693639599893,None,0.011914559989236295,None,808.6693639599893,None,808.6693639599893,None,808.6693639599893,None,808.6693639599893,None,808.6693639599893,None,808.6693639599893,None,808.6777795999951,None,808.6777795999951,None,808.6777795999951,None,0.00541116000385955,0.5054111600038595,808.6777795999951,None,808.6777795999951,None,808.6777795999951,None,808.6777795999951,None,808.6777795999951,None,808.6777795999951,None,810.6688359999971,810.6688359999971,19.299999999999997,2.552,1000,1150,600,,,,,,,,,,,,,,,,,,,,,,,,,,,,,,,,,,,,,,,,,,,,,,,,,,,,,,,,,,,,,,,,,,,,,,,,,,,,,,,,,,,f,23,yurun,2022_Apr_01_0902,emotion,2021.1.4,59.97422307813654,
62,0,-50,0,one,0,-50,0,,,,,0,73,73,61,,,,,,,,,,,right,1.6197599000006448,813.2834126999951,None,813.2834126999951,None,814.9228320000111,None,814.9228320000111,None,814.9228320000111,None,816.9010230000131,817.4008921000059,816.9010230000131,817.4008921000059,816.9010230000131,817.4008921000059,814.9228320000111,None,817.4343896599952,None,817.4343896599952,None,817.4343896599952,None,0.011925059981876984,None,817.4343896599952,None,817.4343896599952,None,817.4343896599952,None,817.4343896599952,None,817.4343896599952,None,817.4343896599952,None,817.4424028999929,None,817.4424028999929,None,817.4424028999929,None,0.005521660001249984,0.50552166000125,817.4424028999929,None,817.4424028999929,None,817.4424028999929,None,817.4424028999929,None,817.4424028999929,None,817.4424028999929,None,819.4337626000051,819.4337626000051,12.799999999999997,1.961,1000,1100,600,,,,,,,,,,,,,,,,,,,,,,,,,,,,,,,,,,,,,,,,,,,,,,,,,,,,,,,,,,,,,,,,,,,,,,,,,,,,,,,,,,,f,23,yurun,2022_Apr_01_0902,emotion,2021.1.4,59.97422307813654,
75,-50,-50,-200,one,-50,-50,-200,,,,,0,74,74,74,,,,,,,,,,,left,1.1697140999895055,821.465096400003,None,821.465096400003,None,822.6544914999977,None,822.6544914999977,None,822.6544914999977,None,824.6327536999888,825.1327052999986,824.6327536999888,825.1327052999986,824.6327536999888,825.1327052999986,822.6544914999977,None,825.1661049599992,None,825.1661049599992,None,825.1661049599992,None,0.011711159982951358,None,825.1661049599992,None,825.1661049599992,None,825.1661049599992,None,825.1661049599992,None,825.1661049599992,None,825.1661049599992,None,825.1759398999857,None,825.1759398999857,None,825.1759398999857,None,0.004520459973718971,0.504520459973719,825.1759398999857,None,825.1759398999857,None,825.1759398999857,None,825.1759398999857,None,825.1759398999857,None,825.1759398999857,None,827.1655575000041,827.1655575000041,13.899999999999999,1.553,950,1050,400,,,,,,,,,,,,,,,,,,,,,,,,,,,,,,,,,,,,,,,,,,,,,,,,,,,,,,,,,,,,,,,,,,,,,,,,,,,,,,,,,,,f,23,yurun,2022_Apr_01_0902,emotion,2021.1.4,59.97422307813654,
71,0,-200,0,two,0,-200,0,,,,,0,75,75,70,,,,,,,,,,,right,1.817463300016243,828.7807356000121,None,828.7807356000121,None,830.6197628999944,None,830.6197628999944,None,830.6197628999944,None,832.597872000013,833.0977175000007,832.597872000013,833.0977175000007,832.597872000013,833.0977175000007,830.6197628999944,None,833.131247860007,None,833.131247860007,None,833.131247860007,None,0.011966760008363053,None,833.131247860007,None,833.131247860007,None,833.131247860007,None,833.131247860007,None,833.131247860007,None,833.131247860007,None,833.1391773000068,None,833.1391773000068,None,833.1391773000068,None,0.005779859988251701,0.5057798599882517,833.1391773000068,None,833.1391773000068,None,833.1391773000068,None,833.1391773000068,None,833.1391773000068,None,833.1391773000068,None,835.1306924000091,835.1306924000091,35.099999999999994,1.556,950,850,400,,,,,,,,,,,,,,,,,,,,,,,,,,,,,,,,,,,,,,,,,,,,,,,,,,,,,,,,,,,,,,,,,,,,,,,,,,,,,,,,,,,f,23,yurun,2022_Apr_01_0902,emotion,2021.1.4,59.97422307813654,
14,0,50,0,one,0,50,0,,,,,0,76,76,13,,,,,,,,,,,down,1.2163882000022568,836.7393447000068,None,836.7393447000068,None,837.9845588000026,None,837.9845588000026,None,837.9845588000026,None,839.9638867999893,840.4629597000021,839.9638867999893,840.4629597000021,839.9638867999893,840.4629597000021,837.9845588000026,None,840.4964449600142,None,840.4964449600142,None,840.4964449600142,None,0.01188886002637446,None,840.4964449600142,None,840.4964449600142,None,840.4964449600142,None,840.4964449600142,None,840.4964449600142,None,840.4964449600142,None,840.5040759000112,None,840.5040759000112,None,840.5040759000112,None,0.00561406000633724,0.5056140600063372,840.5040759000112,None,840.5040759000112,None,840.5040759000112,None,840.5040759000112,None,840.5040759000112,None,840.5040759000112,None,842.495945600007,842.495945600007,-11.100000000000001,3.076,950,900,400,,,,,,,,,,,,,,,,,,,,,,,,,,,,,,,,,,,,,,,,,,,,,,,,,,,,,,,,,,,,,,,,,,,,,,,,,,,,,,,,,,,f,23,yurun,2022_Apr_01_0902,emotion,2021.1.4,59.97422307813654,
49,0,-50,-200,one,0,-50,-200,,,,,0,77,77,48,,,,,,,,,,,left,1.2937312000140082,845.6246239999891,None,845.6246239999891,None,846.9505778999883,None,846.9505778999883,None,846.9505778999883,None,848.9279539000127,849.4278754999978,848.9279539000127,849.4278754999978,848.9279539000127,849.4278754999978,846.9505778999883,None,849.4613504599896,None,849.4613504599896,None,849.4613504599896,None,0.011758559994632378,None,849.4613504599896,None,849.4613504599896,None,849.4613504599896,None,849.4613504599896,None,849.4613504599896,None,849.4613504599896,None,849.4708393999899,None,849.4708393999899,None,849.4708393999899,None,0.004703760001575574,0.5047037600015756,849.4708393999899,None,849.4708393999899,None,849.4708393999899,None,849.4708393999899,None,849.4708393999899,None,849.4708393999899,None,851.4607041999989,851.4607041999989,19.900000000000006,1.859,950,850,200,,,,,,,,,,,,,,,,,,,,,,,,,,,,,,,,,,,,,,,,,,,,,,,,,,,,,,,,,,,,,,,,,,,,,,,,,,,,,,,,,,,f,23,yurun,2022_Apr_01_0902,emotion,2021.1.4,59.97422307813654,
95,-200,-50,-200,two,-200,-50,-200,,,,,0,78,78,94,,,,,,,,,,,right,1.3123835000151303,853.3736190999916,None,853.3736190999916,None,854.7142058000027,None,854.7142058000027,None,854.7142058000027,None,856.6930883000023,857.1929916999943,856.6930883000023,857.1929916999943,856.6930883000023,857.1929916999943,854.7142058000027,None,857.2265144600009,None,857.2265144600009,None,857.2265144600009,None,0.011805960006313398,None,857.2265144600009,None,857.2265144600009,None,857.2265144600009,None,857.2265144600009,None,857.2265144600009,None,857.2265144600009,None,857.2365392000065,None,857.2365392000065,None,857.2365392000065,None,0.004774859989993274,0.5047748599899933,857.2365392000065,None,857.2365392000065,None,857.2365392000065,None,857.2365392000065,None,857.2365392000065,None,857.2365392000065,None,859.2259920999932,859.2259920999932,-20.5,2.086,750,800,0,,,,,,,,,,,,,,,,,,,,,,,,,,,,,,,,,,,,,,,,,,,,,,,,,,,,,,,,,,,,,,,,,,,,,,,,,,,,,,,,,,,f,23,yurun,2022_Apr_01_0902,emotion,2021.1.4,59.97422307813654,
57,-50,0,-200,two,-50,0,-200,,,,,0,79,79,56,,,,,,,,,,,right,1.64248320000479,861.3638200999994,None,861.3638200999994,None,863.0248818999971,None,863.0248818999971,None,863.0248818999971,None,865.0081128999882,865.5080336999963,865.0081128999882,865.5080336999963,865.0081128999882,865.5080336999963,863.0248818999971,None,865.5248490599973,None,865.5248490599973,None,865.5248490599973,None,0.010228759987512603,None,865.5248490599973,None,865.5248490599973,None,865.5248490599973,None,865.5248490599973,None,865.5248490599973,None,865.5248490599973,None,865.5344267000037,None,865.5344267000037,None,865.5344267000037,None,0.0040740600088611245,0.5040740600088611,865.5344267000037,None,865.5344267000037,None,865.5344267000037,None,865.5344267000037,None,865.5344267000037,None,865.5344267000037,None,867.524273499992,867.524273499992,-11.0,1.625,700,800,-200,,,,,,,,,,,,,,,,,,,,,,,,,,,,,,,,,,,,,,,,,,,,,,,,,,,,,,,,,,,,,,,,,,,,,,,,,,,,,,,,,,,f,23,yurun,2022_Apr_01_0902,emotion,2021.1.4,59.97422307813654,
92,-200,0,-200,two,-200,0,-200,,,,,0,80,80,91,,,,,,,,,,,left,1.689862200000789,869.2060393999855,None,869.2060393999855,None,870.9289237000048,None,870.9289237000048,None,870.9289237000048,None,872.9073899000068,873.4073602000135,872.9073899000068,873.4073602000135,872.9073899000068,873.4073602000135,870.9289237000048,None,873.440929359995,None,873.440929359995,None,873.440929359995,None,0.010355959995649755,None,873.440929359995,None,873.440929359995,None,873.440929359995,None,873.440929359995,None,873.440929359995,None,873.440929359995,None,873.4589860000124,None,873.4589860000124,None,873.4589860000124,None,0.014223419973859563,0.5142234199738596,873.4589860000124,None,873.4589860000124,None,873.4589860000124,None,873.4589860000124,None,873.4589860000124,None,873.4589860000124,None,875.4394384000043,875.4394384000043,-46.3,3.056,500,800,-400,,,,,,,,,,,,,,,,,,,,,,,,,,,,,,,,,,,,,,,,,,,,,,,,,,,,,,,,,,,,,,,,,,,,,,,,,,,,,,,,,,,f,23,yurun,2022_Apr_01_0902,emotion,2021.1.4,59.97422307813654,
87,0,-200,-200,one,0,-200,-200,,,,,0,81,81,86,,,,,,,,,,,left,1.4973723999864887,878.5704077999981,None,878.5704077999981,None,880.0886488000106,None,880.0886488000106,None,880.0886488000106,None,882.0714194999891,882.5713422000117,882.0714194999891,882.5713422000117,882.0714194999891,882.5713422000117,880.0886488000106,None,882.5881575600127,None,882.5881575600127,None,882.5881575600127,None,0.008734159986488521,None,882.5881575600127,None,882.5881575600127,None,882.5881575600127,None,882.5881575600127,None,882.5881575600127,None,882.5881575600127,None,882.6024670999905,None,882.6024670999905,None,882.6024670999905,None,0.01618711999617517,0.5161871199961752,882.6024670999905,None,882.6024670999905,None,882.6024670999905,None,882.6024670999905,None,882.6024670999905,None,882.6024670999905,None,884.5875882999972,884.5875882999972,21.099999999999994,1.534,500,600,-600,,,,,,,,,,,,,,,,,,,,,,,,,,,,,,,,,,,,,,,,,,,,,,,,,,,,,,,,,,,,,,,,,,,,,,,,,,,,,,,,,,,f,23,yurun,2022_Apr_01_0902,emotion,2021.1.4,59.97422307813654,
45,0,200,200,two,0,200,200,,,,,0,82,82,44,,,,,,,,,,,down,1.0800661999965087,886.1724065000017,None,886.1724065000017,None,887.2768005999969,None,887.2768005999969,None,887.2768005999969,None,889.2530390000029,889.7532364999934,889.2530390000029,889.7532364999934,889.2530390000029,889.7532364999934,887.2768005999969,None,889.7867361599987,None,889.7867361599987,None,889.7867361599987,None,0.011668559978716075,None,889.7867361599987,None,889.7867361599987,None,889.7867361599987,None,889.7867361599987,None,889.7867361599987,None,889.7867361599987,None,889.7956386999867,None,889.7956386999867,None,889.7956386999867,None,0.004431659996043891,0.5044316599960439,889.7956386999867,None,889.7956386999867,None,889.7956386999867,None,889.7956386999867,None,889.7956386999867,None,889.7956386999867,None,891.7861674999876,891.7861674999876,-25.6,6.098,500,800,-400,,,,,,,,,,,,,,,,,,,,,,,,,,,,,,,,,,,,,,,,,,,,,,,,,,,,,,,,,,,,,,,,,,,,,,,,,,,,,,,,,,,f,23,yurun,2022_Apr_01_0902,emotion,2021.1.4,59.97422307813654,
44,200,0,200,two,200,0,200,,,,,0,83,83,43,,,,,,,,,,,down,1.23565139999846,897.9500531000085,None,897.9500531000085,None,899.2053069999965,None,899.2053069999965,None,899.2053069999965,None,901.1843106999877,901.6838911999948,901.1843106999877,901.6838911999948,901.1843106999877,901.6838911999948,899.2053069999965,None,901.7182796599867,None,901.7182796599867,None,901.7182796599867,None,0.011577959987334907,None,901.7182796599867,None,901.7182796599867,None,901.7182796599867,None,901.7182796599867,None,901.7182796599867,None,901.7182796599867,None,901.7267586000089,None,901.7267586000089,None,901.7267586000089,None,0.0049078599840868264,0.5049078599840868,901.7267586000089,None,901.7267586000089,None,901.7267586000089,None,901.7267586000089,None,901.7267586000089,None,901.7267586000089,None,903.7171827999991,903.7171827999991,30.099999999999994,2.028,700,800,-200,,,,,,,,,,,,,,,,,,,,,,,,,,,,,,,,,,,,,,,,,,,,,,,,,,,,,,,,,,,,,,,,,,,,,,,,,,,,,,,,,,,f,23,yurun,2022_Apr_01_0902,emotion,2021.1.4,59.97422307813654,
88,-200,-200,-50,one,-200,-200,-50,,,,,0,84,84,87,,,,,,,,,,,left,4.04380119999405,905.7972040000022,None,905.7972040000022,None,909.8712181999872,None,909.8712181999872,None,909.8712181999872,None,911.848966199992,912.3488069000014,911.848966199992,912.3488069000014,911.848966199992,912.3488069000014,909.8712181999872,None,912.382098759996,None,912.382098759996,None,912.382098759996,None,0.01167675998294726,None,912.382098759996,None,912.382098759996,None,912.382098759996,None,912.382098759996,None,912.382098759996,None,912.382098759996,None,912.3909091000096,None,912.3909091000096,None,912.3909091000096,None,0.004485559999011457,0.5044855599990115,912.3909091000096,None,912.3909091000096,None,912.3909091000096,None,912.3909091000096,None,912.3909091000096,None,912.3909091000096,None,914.3817383999994,914.3817383999994,-12.200000000000003,7.893,500,600,-250,,,,,,,,,,,,,,,,,,,,,,,,,,,,,,,,,,,,,,,,,,,,,,,,,,,,,,,,,,,,,,,,,,,,,,,,,,,,,,,,,,,f,23,yurun,2022_Apr_01_0902,emotion,2021.1.4,59.97422307813654,
80,-50,-200,-50,two,-50,-200,-50,,,,,0,85,85,79,,,,,,,,,,,left,3.082542199990712,922.3306425999908,None,922.3306425999908,None,925.4319670000114,None,925.4319670000114,None,925.4319670000114,None,927.4123436000082,927.912360199989,927.4123436000082,927.912360199989,927.4123436000082,927.912360199989,925.4319670000114,None,927.9458636599942,None,927.9458636599942,None,927.9458636599942,None,0.01173595999716781,None,927.9458636599942,None,927.9458636599942,None,927.9458636599942,None,927.9458636599942,None,927.9458636599942,None,927.9458636599942,None,927.9554137999949,None,927.9554137999949,None,927.9554137999949,None,0.004437259980477393,0.5044372599804774,927.9554137999949,None,927.9554137999949,None,927.9554137999949,None,927.9554137999949,None,927.9554137999949,None,927.9554137999949,None,929.9453350999975,929.9453350999975,10.5,2.447,450,400,-300,,,,,,,,,,,,,,,,,,,,,,,,,,,,,,,,,,,,,,,,,,,,,,,,,,,,,,,,,,,,,,,,,,,,,,,,,,,,,,,,,,,f,23,yurun,2022_Apr_01_0902,emotion,2021.1.4,59.97422307813654,
22,0,0,200,two,0,0,200,,,,,0,86,86,21,,,,,,,,,,,right,4.349726799991913,932.4475787999982,None,932.4475787999982,None,936.8313709000067,None,936.8313709000067,None,936.8313709000067,None,938.8102255999984,939.310141199996,938.8102255999984,939.310141199996,938.8102255999984,939.310141199996,936.8313709000067,None,939.3436178600008,None,939.3436178600008,None,939.3436178600008,None,0.011865659995237365,None,939.3436178600008,None,939.3436178600008,None,939.3436178600008,None,939.3436178600008,None,939.3436178600008,None,939.3436178600008,None,939.3518602999975,None,939.3518602999975,None,939.3518602999975,None,0.005627559992717579,0.5056275599927176,939.3518602999975,None,939.3518602999975,None,939.3518602999975,None,939.3518602999975,None,939.3518602999975,None,939.3518602999975,None,941.3431189999974,941.3431189999974,3.1000000000000014,1.726,450,400,-100,,,,,,,,,,,,,,,,,,,,,,,,,,,,,,,,,,,,,,,,,,,,,,,,,,,,,,,,,,,,,,,,,,,,,,,,,,,,,,,,,,,f,23,yurun,2022_Apr_01_0902,emotion,2021.1.4,59.97422307813654,
58,-50,-200,0,two,-50,-200,0,,,,,0,87,87,57,,,,,,,,,,,down,6.5205682999803685,943.1211053000006,None,943.1211053000006,None,949.6620116000122,None,949.6620116000122,None,949.6620116000122,None,951.6410537000047,952.1409335999924,951.6410537000047,952.1409335999924,951.6410537000047,952.1409335999924,949.6620116000122,None,952.1744738599867,None,952.1744738599867,None,952.1744738599867,None,0.011345259990775958,None,952.1744738599867,None,952.1744738599867,None,952.1744738599867,None,952.1744738599867,None,952.1744738599867,None,952.1744738599867,None,952.1832531999971,None,952.1832531999971,None,952.1832531999971,None,0.004429759981576353,0.5044297599815764,952.1832531999971,None,952.1832531999971,None,952.1832531999971,None,952.1832531999971,None,952.1832531999971,None,952.1832531999971,None,954.1751714999846,954.1751714999846,16.900000000000006,2.567,400,200,-100,,,,,,,,,,,,,,,,,,,,,,,,,,,,,,,,,,,,,,,,,,,,,,,,,,,,,,,,,,,,,,,,,,,,,,,,,,,,,,,,,,,f,23,yurun,2022_Apr_01_0902,emotion,2021.1.4,59.97422307813654,
77,-50,0,-50,one,-50,0,-50,,,,,0,88,88,76,,,,,,,,,,,left,2.4011822000029497,956.7964978000091,None,956.7964978000091,None,959.2299174999935,None,959.2299174999935,None,959.2299174999935,None,961.2058199000021,961.7057309999946,961.2058199000021,961.7057309999946,961.2058199000021,961.7057309999946,959.2299174999935,None,961.7391909599886,None,961.7391909599886,None,961.7391909599886,None,0.011585959990043193,None,961.7391909599886,None,961.7391909599886,None,961.7391909599886,None,961.7391909599886,None,961.7391909599886,None,961.7391909599886,None,961.7489468000131,None,961.7489468000131,None,961.7489468000131,None,0.004777659982210025,0.50477765998221,961.7489468000131,None,961.7489468000131,None,961.7489468000131,None,961.7489468000131,None,961.7489468000131,None,961.7489468000131,None,963.7386965999904,963.7386965999904,-16.4,8.473,350,200,-150,,,,,,,,,,,,,,,,,,,,,,,,,,,,,,,,,,,,,,,,,,,,,,,,,,,,,,,,,,,,,,,,,,,,,,,,,,,,,,,,,,,f,23,yurun,2022_Apr_01_0902,emotion,2021.1.4,59.97422307813654,
91,-200,-200,0,two,-200,-200,0,,,,,0,89,89,90,,,,,,,,,,,left,1.9014749999914784,972.2647362000134,None,972.2647362000134,None,974.1864747999934,None,974.1864747999934,None,974.1864747999934,None,976.1695620999963,976.6696741000051,976.1695620999963,976.6696741000051,976.1695620999963,976.6696741000051,974.1864747999934,None,976.6864894600061,None,976.6864894600061,None,976.6864894600061,None,0.004629460017895326,None,976.6864894600061,None,976.6864894600061,None,976.6864894600061,None,976.6864894600061,None,976.6864894600061,None,976.6864894600061,None,976.7070789999852,None,976.7070789999852,None,976.7070789999852,None,0.0103747199755162,0.5103747199755162,976.7070789999852,None,976.7070789999852,None,976.7070789999852,None,976.7070789999852,None,976.7070789999852,None,976.7070789999852,None,978.6857036000001,978.6857036000001,-3.1000000000000014,3.924,150,0,-150,,,,,,,,,,,,,,,,,,,,,,,,,,,,,,,,,,,,,,,,,,,,,,,,,,,,,,,,,,,,,,,,,,,,,,,,,,,,,,,,,,,f,23,yurun,2022_Apr_01_0902,emotion,2021.1.4,59.97422307813654,
38,200,0,200,one,200,0,200,,,,,0,90,90,37,,,,,,,,,,,down,2.3429076000174973,982.6787590000022,None,982.6787590000022,None,985.0574404000072,None,985.0574404000072,None,985.0574404000072,None,987.034092499991,987.5339089999907,987.034092499991,987.5339089999907,987.034092499991,987.5339089999907,985.0574404000072,None,987.5672955600079,None,987.5672955600079,None,987.5672955600079,None,0.011512160010170192,None,987.5672955600079,None,987.5672955600079,None,987.5672955600079,None,987.5672955600079,None,987.5672955600079,None,987.5672955600079,None,987.5762862999982,None,987.5762862999982,None,987.5762862999982,None,0.004838460008613765,0.5048384600086138,987.5762862999982,None,987.5762862999982,None,987.5762862999982,None,987.5762862999982,None,987.5762862999982,None,987.5762862999982,None,989.5669050999859,989.5669050999859,40.7,6.017,350,0,50,,,,,,,,,,,,,,,,,,,,,,,,,,,,,,,,,,,,,,,,,,,,,,,,,,,,,,,,,,,,,,,,,,,,,,,,,,,,,,,,,,,f,23,yurun,2022_Apr_01_0902,emotion,2021.1.4,59.97422307813654,
61,0,0,-50,one,0,0,-50,,,,,0,91,91,60,,,,,,,,,,,right,2.136628700012807,995.6476287000114,None,995.6476287000114,None,997.8040447999956,None,997.8040447999956,None,997.8040447999956,None,999.7816063000064,1000.2814851999865,999.7816063000064,1000.2814851999865,999.7816063000064,1000.2814851999865,997.8040447999956,None,1000.3148895599937,None,1000.3148895599937,None,1000.3148895599937,None,0.011788059986429289,None,1000.3148895599937,None,1000.3148895599937,None,1000.3148895599937,None,1000.3148895599937,None,1000.3148895599937,None,1000.3148895599937,None,1000.3240856000048,None,1000.3240856000048,None,1000.3240856000048,None,0.00467625999590382,0.5046762599959038,1000.3240856000048,None,1000.3240856000048,None,1000.3240856000048,None,1000.3240856000048,None,1000.3240856000048,None,1000.3240856000048,None,1002.314420300012,1002.314420300012,4.299999999999997,1.676,350,0,0,,,,,,,,,,,,,,,,,,,,,,,,,,,,,,,,,,,,,,,,,,,,,,,,,,,,,,,,,,,,,,,,,,,,,,,,,,,,,,,,,,,f,23,yurun,2022_Apr_01_0902,emotion,2021.1.4,59.97422307813654,
3,50,0,200,one,50,0,200,,,,,0,92,92,2,,,,,,,,,,,down,1.74726340000052,1004.0441554999852,None,1004.0441554999852,None,1005.8175833999994,None,1005.8175833999994,None,1005.8175833999994,None,1007.7966422000027,1008.2962974999973,1007.7966422000027,1008.2962974999973,1007.7966422000027,1008.2962974999973,1005.8175833999994,None,1008.3300153600052,None,1008.3300153600052,None,1008.3300153600052,None,0.011928960011573508,None,1008.3300153600052,None,1008.3300153600052,None,1008.3300153600052,None,1008.3300153600052,None,1008.3300153600052,None,1008.3300153600052,None,1008.3389619000081,None,1008.3389619000081,None,1008.3389619000081,None,0.005441059998702258,0.5054410599987023,1008.3389619000081,None,1008.3389619000081,None,1008.3389619000081,None,1008.3389619000081,None,1008.3389619000081,None,1008.3389619000081,None,1010.3295187999902,1010.3295187999902,11.5,1.758,400,0,200,,,,,,,,,,,,,,,,,,,,,,,,,,,,,,,,,,,,,,,,,,,,,,,,,,,,,,,,,,,,,,,,,,,,,,,,,,,,,,,,,,,f,23,yurun,2022_Apr_01_0902,emotion,2021.1.4,59.97422307813654,
89,-200,-50,-200,one,-200,-50,-200,,,,,0,93,93,88,,,,,,,,,,,right,2.8175140999956056,1012.144650000002,None,1012.144650000002,None,1014.9831451000064,None,1014.9831451000064,None,1014.9831451000064,None,1016.9615001000057,1017.4614117000019,1016.9615001000057,1017.4614117000019,1016.9615001000057,1017.4614117000019,1014.9831451000064,None,1017.4949111600057,None,1017.4949111600057,None,1017.4949111600057,None,0.011041660007322207,None,1017.4949111600057,None,1017.4949111600057,None,1017.4949111600057,None,1017.4949111600057,None,1017.4949111600057,None,1017.4949111600057,None,1017.5047775999992,None,1017.5047775999992,None,1017.5047775999992,None,0.004452959983609617,0.5044529599836096,1017.5047775999992,None,1017.5047775999992,None,1017.5047775999992,None,1017.5047775999992,None,1017.5047775999992,None,1017.5047775999992,None,1019.4941871000046,1019.4941871000046,-31.0,3.384,200,-50,0,,,,,,,,,,,,,,,,,,,,,,,,,,,,,,,,,,,,,,,,,,,,,,,,,,,,,,,,,,,,,,,,,,,,,,,,,,,,,,,,,,,f,23,yurun,2022_Apr_01_0902,emotion,2021.1.4,59.97422307813654,
