Number,Letter,type,Orientation,human,face_type,image,picture,trials.thisRepN,trials.thisTrialN,trials.thisN,trials.thisIndex,text.started,text.stopped,stimulus_duration,CROSS.started,CROSS.stopped,BLANK.started,BLANK.stopped,TEST.started,TEST.stopped,key_JUDGE.keys,key_JUDGE.rt,key_JUDGE.started,key_JUDGE.stopped,image_2.started,image_2.stopped,ISI.started,ISI.stopped,q1.started,q1.stopped,q2.started,q2.stopped,q3.started,q3.stopped,text_2.started,text_2.stopped,participant,session,date,expName,psychopyVersion,frameRate,
200,G,N,315,R,N,200GN315RN,HRN,0,0,0,231,226.4821493999916,None,0.86,261.55868830002146,261.9017168999999,261.9165422000224,262.19991379999556,262.21656029997393,None,up,2.5811267000390217,262.21656029997393,None,262.21656029997393,263.06538230000297,0.06685960001777858,None,,,,,,,,,10,001,2019_Dec_25_0903,untitled,3.1.0,60.17629247076064,
489,_5,M,0,L,N,489_5M000LN,HLN,0,1,1,184,,,1.216,264.9016563000041,265.24660880002193,265.2633568000165,265.54652400000487,265.56309359997977,None,None,,265.56309359997977,None,265.56309359997977,266.7623769000056,0.060626299993600696,None,,,,,,,,,10,001,2019_Dec_25_0903,untitled,3.1.0,60.17629247076064,
002,R,N,45,R,N,002RN045RN,HRN,0,2,2,193,,,0.841,269.09882940002717,269.44335670000874,269.46086619998096,269.74289910000516,269.75989769998705,269.09882940002717,down,0.3341086999862455,269.75989769998705,None,269.75989769998705,None,0.06553760002134368,None,,,,,,,,,10,001,2019_Dec_25_0903,untitled,3.1.0,60.17629247076064,
390,_4,N,225,R,N,390_4N225RN,HRN,0,3,3,261,,,0.796,270.17526059999363,270.508510500018,270.52514370001154,270.80923920002533,270.8253815000062,None,up,1.9999408000148833,270.8253815000062,None,270.8253815000062,271.6084794999915,0.07384770002681762,None,,,,,,,,,10,001,2019_Dec_25_0903,untitled,3.1.0,60.17629247076064,
036,R,N,135,L,N,036RN135LN,HLN,0,4,4,203,,,1.326,272.9184467000305,273.2402575999731,273.25697639997816,273.540066400019,273.5566511999932,None,up,2.6148948000045493,273.5566511999932,None,273.5566511999932,274.871796499996,0.0824185999808833,None,,,,,,,,,10,001,2019_Dec_25_0903,untitled,3.1.0,60.17629247076064,
422,_4,N,225,L,N,422_4N225LN,HLN,0,5,5,269,,,0.81,276.24257419997593,276.58700410003075,276.60361539997393,276.8870209000306,276.90375130000757,None,up,1.8992592000286095,276.90375130000757,None,276.90375130000757,277.7023864000221,0.06358179997187108,None,,,,,,,,,10,001,2019_Dec_25_0903,untitled,3.1.0,60.17629247076064,
418,_4,N,45,L,N,418_4N045LN,HLN,0,6,6,265,,,1.072,278.88047710002866,279.21829250000883,279.2346886000014,279.51776870002504,279.5342464999994,None,up,1.8324528000084683,279.5342464999994,None,279.5342464999994,280.5835463000112,0.07029150001471862,None,,,,,,,,,10,001,2019_Dec_25_0903,untitled,3.1.0,60.17629247076064,
004,R,N,135,R,N,004RN135RN,HRN,0,7,7,195,,,0.783,281.4360986999818,281.7828432000242,281.7994629999739,282.0827411999926,282.099446600012,None,up,1.6836964000249282,282.099446600012,None,282.099446600012,282.8646147000254,0.06235129997367039,None,,,,,,,,,10,001,2019_Dec_25_0903,untitled,3.1.0,60.17629247076064,
198,G,N,225,R,N,198GN225RN,HRN,0,8,8,229,,,1.295,283.87921320000896,284.1972571000224,284.21508659998653,284.4964823999908,284.51409680000506,None,up,2.0811612000106834,284.51409680000506,None,284.51409680000506,285.79562440002337,0.08619539998471737,None,,,,,,,,,10,001,2019_Dec_25_0903,untitled,3.1.0,60.17629247076064,
_,_2,M,225,_,_,__2M225__,N,0,9,9,29,,,1.349,286.6694745999994,287.01097529998515,287.0275813000044,287.3119160999777,287.3286354999873,None,down,3.1821308999788016,287.3286354999873,None,287.3286354999873,288.65977349999594,0.06652089999988675,None,,,,,,,,,10,001,2019_Dec_25_0903,untitled,3.1.0,60.17629247076064,
453,_5,N,180,R,N,453_5N180RN,HRN,0,10,10,276,,,0.72,290.612005700008,290.92482309998013,290.94119219999993,291.2252961000195,291.24107819999335,None,up,1.615556100034155,291.24107819999335,None,291.24107819999335,291.94102550001116,0.09011550003197044,None,,,,,,,,,10,001,2019_Dec_25_0903,untitled,3.1.0,60.17629247076064,
400,_4,M,315,R,N,400_4M315RN,HRN,0,11,11,167,,,0.973,292.92462509998586,293.27408419997664,293.2892547000083,293.5741810000036,293.5898561999784,None,up,1.7817511999746785,293.5898561999784,None,293.5898561999784,294.53797419997863,0.06106769997859374,None,,,,,,,,,10,001,2019_Dec_25_0903,untitled,3.1.0,60.17629247076064,
431,_4,M,270,L,N,431_4M270LN,HLN,0,12,12,174,,,0.8140000000000001,295.44192850001855,295.7873413999914,295.8055628000293,296.0888743000105,296.10405700001866,None,down,2.6156946000410244,296.10405700001866,None,296.10405700001866,296.90308249997906,0.06366320000961423,None,,,,,,,,,10,001,2019_Dec_25_0903,untitled,3.1.0,60.17629247076064,
176,F,M,315,L,N,176FM315LN,HLN,0,13,13,127,,,1.068,298.8213702000212,299.1341046000016,299.15077389997896,299.43481200002134,299.4504981000209,None,up,1.7822947000386193,299.4504981000209,None,299.4504981000209,300.49948499997845,0.0899840000201948,None,,,,,,,,,10,001,2019_Dec_25_0903,untitled,3.1.0,60.17629247076064,
229,G,N,180,L,N,229GN180LN,HLN,0,14,14,236,,,0.743,301.3027126999805,301.6488517000107,301.66520829999354,301.94873300002655,301.9648549000267,None,up,1.5656701999832876,301.9648549000267,None,301.9648549000267,302.6976757000084,0.06325890001608059,None,,,,,,,,,10,001,2019_Dec_25_0903,untitled,3.1.0,60.17629247076064,
141,F,M,180,R,N,141FM180RN,HRN,0,15,15,116,,,1.357,303.59906410000985,303.94641829998,303.9635562999756,304.24698469997384,304.26297350000823,None,up,2.167066399997566,304.26297350000823,None,304.26297350000823,305.5951495000045,0.06174410000676289,None,,,,,,,,,10,001,2019_Dec_25_0903,untitled,3.1.0,60.17629247076064,
129,F,N,0,R,N,129FN000RN,HRN,0,16,16,208,,,1.397,306.4975771000027,306.8279266000027,306.86075360001996,307.1441847999813,307.160378200002,None,up,2.0494013999705203,307.160378200002,None,307.160378200002,308.5425352000166,0.060912000015378,None,,,,,,,,,10,001,2019_Dec_25_0903,untitled,3.1.0,60.17629247076064,
269,_2,M,180,R,N,269_2M180RN,HRN,0,17,17,148,,,1.113,309.2859629000304,309.6250306000002,309.64190970000345,309.9247486999957,309.94139490003,None,down,2.033586599980481,309.94139490003,None,309.94139490003,311.0399070000276,0.0690405000350438,None,,,,,,,,,10,001,2019_Dec_25_0903,untitled,3.1.0,60.17629247076064,
_,_2,N,180,_,_,__2N180__,N,0,18,18,76,,,1.322,312.0435925999773,312.3892710999935,312.4059663999942,312.68890940002166,312.70571730000665,None,up,2.8663899000384845,312.70571730000665,None,312.70571730000665,314.0053460000199,0.061958400008734316,None,,,,,,,,,10,001,2019_Dec_25_0903,untitled,3.1.0,60.17629247076064,
272,_2,M,315,R,N,272_2M315RN,HRN,0,19,19,151,,,1.042,315.6414160000277,315.9863716000109,316.0030389999738,316.2862740000128,316.30278010002803,None,up,2.3664002000004984,316.30278010002803,None,316.30278010002803,317.3347270999802,0.062015000032261014,None,,,,,,,,,10,001,2019_Dec_25_0903,untitled,3.1.0,60.17629247076064,
267,_2,M,90,R,N,267_2M090RN,HRN,0,20,20,146,,,1.297,318.7509530999814,319.0836328000296,319.10175949998666,319.3830383999739,319.4009215999977,None,down,2.764694499957841,319.4009215999977,None,319.4009215999977,320.68221589998575,0.07465339999180287,None,,,,,,,,,10,001,2019_Dec_25_0903,untitled,3.1.0,60.17629247076064,
293,_2,N,180,L,N,293_2N180LN,HLN,0,21,21,252,,,0.861,322.23475960001815,322.5810188999749,322.5973962999997,322.87991770001827,322.89635950000957,None,up,2.2509581000194885,322.89635950000957,None,322.89635950000957,323.746236099978,0.062103800009936094,None,,,,,,,,,10,001,2019_Dec_25_0903,untitled,3.1.0,60.17629247076064,
395,_4,M,90,R,N,395_4M090RN,HRN,0,22,22,162,,,1.061,325.22408740001265,325.56138189998455,325.5782620999962,325.86071839998476,325.87737699999707,None,down,3.334932400030084,325.87737699999707,None,325.87737699999707,326.92714819998946,0.06942929996876046,None,,,,,,,,,10,001,2019_Dec_25_0903,untitled,3.1.0,60.17629247076064,
_,R,N,180,_,_,_RN180__,N,0,23,23,68,,,1.014,329.30640509998193,329.6250658999779,329.64138169999933,329.92410070000915,329.94070189999184,None,up,1.7498798999586143,329.94070189999184,None,329.94070189999184,330.93978810001863,0.08612240001093596,None,,,,,,,,,10,001,2019_Dec_25_0903,untitled,3.1.0,60.17629247076064,
_,G,M,0,_,_,_GM000__,N,0,24,24,8,,,1.215,331.785303200013,332.1055948000285,332.1222015999956,332.4050299000228,332.4217924000113,None,up,2.015564800007269,332.4217924000113,None,332.4217924000113,333.6205755000119,0.08268059999682009,None,,,,,,,,,10,001,2019_Dec_25_0903,untitled,3.1.0,60.17629247076064,
_,R,N,90,_,_,_RN090__,N,0,25,25,66,,,0.764,334.50450759998057,334.8545914000133,334.8699687999906,335.1533991000033,335.17003460001433,None,up,1.5321250000270084,335.17003460001433,None,335.17003460001433,335.91882189997705,0.059700599987991154,None,,,,,,,,,10,001,2019_Dec_25_0903,untitled,3.1.0,60.17629247076064,
258,_2,N,45,R,N,258_2N045RN,HRN,0,26,26,241,,,1.158,336.7898154000286,337.1185835999786,337.13415050000185,337.41730289999396,337.434190400003,None,down,2.3827172000310384,337.434190400003,None,337.434190400003,338.58317439997336,0.07870499999262393,None,,,,,,,,,10,001,2019_Dec_25_0903,untitled,3.1.0,60.17629247076064,
295,_2,N,270,L,N,295_2N270LN,HLN,0,27,27,254,,,1.093,339.89303330000257,340.2313993999851,340.24838030000683,340.53104829997756,340.5483403999824,None,up,2.6984219000441954,340.5483403999824,None,340.5483403999824,341.6306222000276,0.06925529998261482,None,,,,,,,,,10,001,2019_Dec_25_0903,untitled,3.1.0,60.17629247076064,
_,R,N,0,_,_,_RN000__,N,0,28,28,64,,,0.706,343.31690159998834,343.66187539999373,343.67858519998845,343.96198620001087,343.97837040002923,None,up,1.5660392999998294,343.97837040002923,None,343.97837040002923,344.6605645000236,0.06383320002350956,None,,,,,,,,,10,001,2019_Dec_25_0903,untitled,3.1.0,60.17629247076064,
_,F,N,180,_,_,_FN180__,N,0,29,29,52,,,1.319,345.61080229998333,345.95980569999665,345.97655770002166,346.2597681999905,346.2763888000045,None,up,2.2483215000247583,346.2763888000045,None,346.2763888000045,347.57507790002273,0.06008329999167472,None,,,,,,,,,10,001,2019_Dec_25_0903,untitled,3.1.0,60.17629247076064,
015,R,M,270,R,N,015RM270RN,HRN,0,30,30,102,,,0.838,348.5961505000014,348.9409397999989,348.9573696000152,349.2400609999895,349.25775990000693,None,down,2.1143581999931484,349.25775990000693,None,349.25775990000693,350.0727861999767,0.06485329999122769,None,,,,,,,,,10,001,2019_Dec_25_0903,untitled,3.1.0,60.17629247076064,
456,_5,N,315,R,N,456_5N315RN,HRN,0,31,31,279,,,1.397,351.4420670000254,351.7888697999879,351.80553190002684,352.0888461000286,352.1043349999818,None,up,2.6482052999781445,352.1043349999818,None,352.1043349999818,353.4862615999882,0.06320319999940693,None,,,,,,,,,10,001,2019_Dec_25_0903,untitled,3.1.0,60.17629247076064,
_,_4,N,225,_,_,__4N225__,N,0,32,32,85,,,1.295,354.8263413999812,355.1685391999781,355.1855806999956,355.4689565000008,355.4857445000089,None,up,2.0475586999673396,355.4857445000089,None,355.4857445000089,356.7671984999906,0.06658769998466596,None,,,,,,,,,10,001,2019_Dec_25_0903,untitled,3.1.0,60.17629247076064,
_,_2,N,0,_,_,__2N000__,N,0,33,33,72,,,1.161,357.60148660000414,357.94999839999946,357.96613830002025,358.24888969998574,358.2661597999977,None,down,2.2154024999472313,358.2661597999977,None,358.2661597999977,359.416432900005,0.06128170003648847,None,,,,,,,,,10,001,2019_Dec_25_0903,untitled,3.1.0,60.17629247076064,
270,_2,M,225,R,N,270_2M225RN,HRN,0,34,34,149,,,0.929,360.54958480002824,360.8971071999986,360.9134495999897,361.19685379997827,361.2148986000102,None,up,2.9653445999720134,361.2148986000102,None,361.2148986000102,362.1289676000015,0.061016099993139505,None,,,,,,,,,10,001,2019_Dec_25_0903,untitled,3.1.0,60.17629247076064,
171,F,M,90,L,N,171FM090LN,HLN,0,35,35,122,,,0.897,364.2633560000104,364.5939178999979,364.61044519999996,364.893445099995,364.9100142000243,None,down,2.8007758000167087,364.9100142000243,None,364.9100142000243,365.7928785000113,0.07465419999789447,None,,,,,,,,,10,001,2019_Dec_25_0903,untitled,3.1.0,60.17629247076064,
290,_2,N,45,L,N,290_2N045LN,HLN,0,36,36,249,,,0.751,367.7803146999795,368.12373190000653,368.14053089998197,368.4240944000194,368.44024369999534,None,up,1.7002345999935642,368.44024369999534,None,368.44024369999534,369.17319260002114,0.06283800001256168,None,,,,,,,,,10,001,2019_Dec_25_0903,untitled,3.1.0,60.17629247076064,
010,R,M,45,R,N,010RM045RN,HRN,0,37,37,97,,,1.356,370.23065779998433,370.5550635000109,370.57189239998115,370.85515499999747,370.87143330002436,None,down,2.9016927999909967,370.87143330002436,None,370.87143330002436,372.20390670001507,0.08262070000637323,None,,,,,,,,,10,001,2019_Dec_25_0903,untitled,3.1.0,60.17629247076064,
235,G,M,90,L,N,235GM090LN,HLN,0,38,38,138,,,1.154,373.8419143999927,374.1853472000221,374.20214429998305,374.4850308999885,374.50175330002094,None,None,,374.50175330002094,None,374.50175330002094,375.6336052999832,0.062070899992249906,None,,,,,,,,,10,001,2019_Dec_25_0903,untitled,3.1.0,60.17629247076064,
_,F,M,315,_,_,_FM315__,N,0,39,39,7,,,1.054,378.04905829997733,378.3823655999731,378.3988244999782,378.68182140000863,378.69800289999694,378.04905829997733,down,2.3159455999848433,378.69800289999694,None,378.69800289999694,379.7305344999768,0.07463530002860352,None,,,,,,,,,10,001,2019_Dec_25_0903,untitled,3.1.0,60.17629247076064,
451,_5,N,90,R,N,451_5N090RN,HRN,0,40,40,274,,,0.919,381.1132400999777,381.4290673999931,381.4457015999942,381.72878040000796,381.74576560000423,None,up,2.365065500023775,381.74576560000423,None,381.74576560000423,382.6447687000036,0.08960240002488717,None,,,,,,,,,10,001,2019_Dec_25_0903,untitled,3.1.0,60.17629247076064,
261,_2,N,180,R,N,261_2N180RN,HRN,0,41,41,244,,,1.286,384.1801470000064,384.5264621999813,384.54348709998885,384.8264590000035,384.84237319999374,None,up,2.515297499950975,384.84237319999374,None,384.84237319999374,386.108316799975,0.06205519998911768,None,,,,,,,,,10,001,2019_Dec_25_0903,untitled,3.1.0,60.17629247076064,
_,G,M,180,_,_,_GM180__,N,0,42,42,12,,,1.336,387.4240831999923,387.77344590000575,387.7905463000061,388.0731252999976,388.0899314000271,None,up,2.8143478999845684,388.0899314000271,None,388.0899314000271,389.4052066000295,0.059106099943164736,None,,,,,,,,,10,001,2019_Dec_25_0903,untitled,3.1.0,60.17629247076064,
_,_2,M,45,_,_,__2M045__,N,0,43,43,25,,,1.05,390.9719133999897,391.32086059998255,391.3372244000202,391.6204019000288,391.63702959998045,None,down,2.9167359999846667,391.63702959998045,None,391.63702959998045,392.66985140001634,0.06048779998673126,None,,,,,,,,,10,001,2019_Dec_25_0903,untitled,3.1.0,60.17629247076064,
_,G,N,225,_,_,_GN225__,N,0,44,44,61,,,1.119,394.6219024999882,394.96763790003024,394.9848104999983,395.2680621999898,395.28484819998266,None,up,2.24740659998497,395.28484819998266,None,395.28484819998266,396.3829155000276,0.060740699991583824,None,,,,,,,,,10,001,2019_Dec_25_0903,untitled,3.1.0,60.17629247076064,
164,F,N,135,L,N,164FN135LN,HLN,0,45,45,219,,,0.73,397.6014452999807,397.9483998999931,397.96610979997786,398.24773679999635,398.264992100012,None,up,1.7656398999970406,398.264992100012,None,398.264992100012,398.9804494000273,0.062201499997172505,None,,,,,,,,,10,001,2019_Dec_25_0903,untitled,3.1.0,60.17629247076064,
_,F,N,0,_,_,_FN000__,N,0,46,46,48,,,1.147,400.1135954000056,400.4460245000082,400.4626799999969,400.74545380001655,400.7617213000194,None,up,1.96615470002871,400.7617213000194,None,400.7617213000194,401.89541880000615,0.07563520001713187,None,,,,,,,,,10,001,2019_Dec_25_0903,untitled,3.1.0,60.17629247076064,
_,R,M,135,_,_,_RM135__,N,0,47,47,19,,,0.733,402.8014646000229,403.1438011000282,403.16034030000446,403.4437727999757,403.4601539000287,None,down,2.74953979998827,403.4601539000287,None,403.4601539000287,404.1764407000155,0.06587869999930263,None,,,,,,,,,10,001,2019_Dec_25_0903,untitled,3.1.0,60.17629247076064,
_,_2,N,315,_,_,__2N315__,N,0,48,48,79,,,1.0190000000000001,406.27919069997733,406.6246795000043,406.6405428000144,406.9239777000039,406.94019599998137,None,up,2.4335506000206806,406.94019599998137,None,406.94019599998137,407.93944420001935,0.06275840004673228,None,,,,,,,,,10,001,2019_Dec_25_0903,untitled,3.1.0,60.17629247076064,
033,R,N,0,L,N,033RN000LN,HLN,0,49,49,200,,,1.189,409.44201150001027,409.78791030001594,409.80463899997994,410.08731380000245,410.10508980002487,None,up,1.9502016000333242,410.10508980002487,None,410.10508980002487,411.26997329998994,0.06064749998040497,None,,,,,,,,,10,001,2019_Dec_25_0903,untitled,3.1.0,60.17629247076064,
487,_5,N,270,L,N,487_5N270LN,HLN,0,50,50,286,,,1.0170000000000001,412.12914879998425,412.46875350002665,412.48541520000435,412.769168000028,412.7853410000098,None,up,2.2824360000086017,412.7853410000098,None,412.7853410000098,413.7841528999852,0.06739000004017726,None,,,,,,,,,10,001,2019_Dec_25_0903,untitled,3.1.0,60.17629247076064,
_,R,M,45,_,_,_RM045__,N,0,51,51,17,,,0.929,415.143505199987,415.48280290002003,415.4995604000287,415.7821568999789,415.7991102000233,None,down,2.498501100053545,415.7991102000233,None,415.7991102000233,416.7155723000178,0.06910749996313825,None,,,,,,,,,10,001,2019_Dec_25_0903,untitled,3.1.0,60.17629247076064,
397,_4,M,180,R,N,397_4M180RN,HRN,0,52,52,164,,,0.893,418.38720499997726,418.7133735999814,418.72998709999956,419.0133585000294,419.03004029998556,None,up,3.0479159000096843,419.03004029998556,None,419.03004029998556,419.91212350002024,0.0822032000287436,None,,,,,,,,,10,001,2019_Dec_25_0903,untitled,3.1.0,60.17629247076064,
426,_4,M,45,L,N,426_4M045LN,HLN,0,53,53,169,,,0.916,422.1490906000254,422.4929683000082,422.5098955000285,422.7931781000225,422.809352900018,None,down,2.5002254999708384,422.809352900018,None,422.809352900018,423.7091269000084,0.06428489997051656,None,,,,,,,,,10,001,2019_Dec_25_0903,untitled,3.1.0,60.17629247076064,
421,_4,N,180,L,N,421_4N180LN,HLN,0,54,54,268,,,0.9440000000000001,425.37836249999236,425.72407699999167,425.7406450000126,426.0242266000132,426.0405144999968,None,up,2.3645676999585703,426.0405144999968,None,426.0405144999968,426.9727465999895,0.0622023000032641,None,,,,,,,,,10,001,2019_Dec_25_0903,untitled,3.1.0,60.17629247076064,
488,_5,N,315,L,N,488_5N315LN,HLN,0,55,55,287,,,0.912,428.47325999999885,428.82186450000154,428.8380463999929,429.1211156999925,429.13754989998415,None,up,2.2811759999603964,429.13754989998415,None,429.13754989998415,430.038898000028,0.06101860001217574,None,,,,,,,,,10,001,2019_Dec_25_0903,untitled,3.1.0,60.17629247076064,
238,G,M,225,L,N,238GM225LN,HLN,0,56,56,141,,,0.836,431.48689280002145,431.8356857000035,431.8514902999741,432.1352579999948,432.15195239998866,None,down,2.6314388000173494,432.15195239998866,None,432.15195239998866,432.96751619997667,0.061275599990040064,None,,,,,,,,,10,001,2019_Dec_25_0903,untitled,3.1.0,60.17629247076064,
425,_4,M,0,L,N,425_4M000LN,HLN,0,57,57,168,,,0.968,434.85188530001324,435.199217699992,435.21574970002985,435.49804550001863,435.5150412999792,None,up,2.0486505000153556,435.5150412999792,None,435.5150412999792,436.4645345999743,0.06133860000409186,None,,,,,,,,,10,001,2019_Dec_25_0903,untitled,3.1.0,60.17629247076064,
_,_5,M,90,_,_,__5M090__,N,0,58,58,42,,,1.2530000000000001,437.6311077999999,437.97991990001174,437.99680199997965,438.2797284999979,438.2964157999959,None,None,,438.2964157999959,None,438.2964157999959,439.52848249999806,0.060473899997305125,None,,,,,,,,,10,001,2019_Dec_25_0903,untitled,3.1.0,60.17629247076064,
387,_4,N,90,R,N,387_4N090RN,HRN,0,59,59,258,,,0.973,441.82852300000377,442.17638189997524,442.1930250999867,442.47696340002585,442.49360520002665,441.82852300000377,down,2.482503800012637,442.49360520002665,None,442.49360520002665,443.4414981000009,0.06126139999832958,None,,,,,,,,,10,001,2019_Dec_25_0903,untitled,3.1.0,60.17629247076064,
291,_2,N,90,L,N,291_2N090LN,HLN,0,60,60,250,,,0.861,445.06238860002486,445.38993539998773,445.40638649999164,445.6895006999839,445.7066100999946,None,up,2.5330458999960683,445.7066100999946,None,445.7066100999946,446.5553092000191,0.07813360000727698,None,,,,,,,,,10,001,2019_Dec_25_0903,untitled,3.1.0,60.17629247076064,
011,R,M,90,R,N,011RM090RN,HRN,0,61,61,98,,,0.965,448.3079719999805,448.65383490000386,448.67063840001356,448.95347050001146,448.97027140000137,None,down,2.6165146000566892,448.97027140000137,None,448.97027140000137,449.9194718999788,0.061481400043703616,None,,,,,,,,,10,001,2019_Dec_25_0903,untitled,3.1.0,60.17629247076064,
300,_2,M,135,L,N,300_2M135LN,HLN,0,62,62,155,,,0.8190000000000001,451.6686028999975,452.0010119000217,452.0177870999905,452.3012458999874,452.31771269999444,None,up,3.2830289999837987,452.31771269999444,None,452.31771269999444,453.11731439997675,0.07308820000616834,None,,,,,,,,,10,001,2019_Dec_25_0903,untitled,3.1.0,60.17629247076064,
_,_4,M,90,_,_,__4M090__,N,0,63,63,34,,,1.05,455.66748330002883,456.01488909998443,456.03109699999914,456.31423800002085,456.33085139998,None,down,2.6313347999821417,456.33085139998,None,456.33085139998,457.362634900026,0.05998030002228916,None,,,,,,,,,10,001,2019_Dec_25_0903,untitled,3.1.0,60.17629247076064,
136,F,N,315,R,N,136FN315RN,HRN,0,64,64,215,,,1.339,459.0313266000012,459.37826550001046,459.3949227000121,459.6774686999852,459.6941695000278,None,up,2.665002599998843,459.6941695000278,None,459.6941695000278,461.0097767999978,0.06207039998844266,None,,,,,,,,,10,001,2019_Dec_25_0903,untitled,3.1.0,60.17629247076064,
161,F,N,0,L,N,161FN000LN,HLN,0,65,65,216,,,1.044,462.44072539999615,462.7752346000052,462.79201650002506,463.07470739999553,463.0914416000014,None,up,1.9170772000215948,463.0914416000014,None,463.0914416000014,464.1241392000229,0.07332039996981621,None,,,,,,,,,10,001,2019_Dec_25_0903,untitled,3.1.0,60.17629247076064,
396,_4,M,135,R,N,396_4M135RN,HRN,0,66,66,163,,,1.0010000000000001,465.0776638999814,465.4226867000107,465.439197300002,465.72471889998997,465.74301239999477,None,down,2.2808938000234775,465.74301239999477,None,465.74301239999477,466.7211252999841,0.061512499989476055,None,,,,,,,,,10,001,2019_Dec_25_0903,untitled,3.1.0,60.17629247076064,
_,_4,N,180,_,_,__4N180__,N,0,67,67,84,,,1.183,468.09430589998374,468.4366985000088,468.45347599999513,468.7364321000059,468.7529697000282,None,up,2.1817590999999084,468.7529697000282,None,468.7529697000282,469.91847179998877,0.06350180000299588,None,,,,,,,,,10,001,2019_Dec_25_0903,untitled,3.1.0,60.17629247076064,
265,_2,M,0,R,N,265_2M000RN,HRN,0,68,68,144,,,1.03,471.0041657999973,471.3521490999847,471.3681305000209,471.6508481000201,471.6668250000221,None,up,1.9189387999940664,471.6668250000221,None,471.6668250000221,472.6829815999954,0.062219200015533715,None,,,,,,,,,10,001,2019_Dec_25_0903,untitled,3.1.0,60.17629247076064,
143,F,M,270,R,N,143FM270RN,HRN,0,69,69,118,,,1.202,473.6813791000168,473.99857090000296,474.01557099999627,474.2983068000176,474.31489259999944,None,down,3.083169399993494,474.31489259999944,None,474.31489259999944,475.49745269998675,0.08475489995907992,None,,,,,,,,,10,001,2019_Dec_25_0903,untitled,3.1.0,60.17629247076064,
_,_4,M,270,_,_,__4M270__,N,0,70,70,38,,,1.235,477.48091849999037,477.81180129997665,477.8305771999876,478.11142400000244,478.1290187999839,None,None,,478.1290187999839,None,478.1290187999839,479.34364069998264,0.07433650002349168,None,,,,,,,,,10,001,2019_Dec_25_0903,untitled,3.1.0,60.17629247076064,
045,R,M,180,L,N,045RM180LN,HLN,0,71,71,108,,,1.33,481.6602877000114,482.00849749997724,482.02517500001704,482.3077983999974,482.32433610002045,481.6602877000114,None,,482.32433610002045,None,482.32433610002045,483.64001219999045,0.06156670005293563,None,,,,,,,,,10,001,2019_Dec_25_0903,untitled,3.1.0,60.17629247076064,
_,F,M,135,_,_,_FM135__,N,0,72,72,3,,,1.19,485.8640800000285,486.20432800002163,486.2213344000047,486.50437929999316,486.52082809997955,485.8640800000285,down,2.8827834999538027,486.52082809997955,None,486.52082809997955,487.6859846999869,0.06898219999857247,None,,,,,,,,,10,001,2019_Dec_25_0903,untitled,3.1.0,60.17629247076064,
_,_5,N,135,_,_,__5N135__,N,0,73,73,91,,,1.204,489.47024090000195,489.8179304000223,489.8359768000082,490.118568099977,490.13477010000497,None,None,,490.13477010000497,None,490.13477010000497,491.31670030002715,0.05986620002659038,None,,,,,,,,,10,001,2019_Dec_25_0903,untitled,3.1.0,60.17629247076064,
_,F,N,135,_,_,_FN135__,N,0,74,74,51,,,0.862,493.66614560002927,494.01447430002736,494.03100610000547,494.31421859998954,494.33076699997764,493.66614560002927,up,2.116844400006812,494.33076699997764,None,494.33076699997764,495.18026490003103,0.059999899996910244,None,,,,,,,,,10,001,2019_Dec_25_0903,untitled,3.1.0,60.17629247076064,
195,G,N,90,R,N,195GN090RN,HRN,0,75,75,226,,,0.904,496.51746800000547,496.8618093000259,496.87832110002637,497.16150719998404,497.17845770000713,None,down,2.28411840001354,497.17845770000713,None,497.17845770000713,498.06037439999636,0.0627725999802351,None,,,,,,,,,10,001,2019_Dec_25_0903,untitled,3.1.0,60.17629247076064,
_,G,M,135,_,_,_GM135__,N,0,76,76,11,,,1.379,499.53064309997717,499.87584749999223,499.8930549999932,500.1755926000187,500.19208629999775,None,down,2.8342207000241615,500.19208629999775,None,500.19208629999775,501.5580501999939,0.0610224999836646,None,,,,,,,,,10,001,2019_Dec_25_0903,untitled,3.1.0,60.17629247076064,
008,R,N,315,R,N,008RN315RN,HRN,0,77,77,199,,,1.088,503.09487069997704,503.439461699978,503.45629820000613,503.7394780999748,503.75564039999153,None,up,2.067433800024446,503.75564039999153,None,503.75564039999153,504.82237750000786,0.06075060000875965,None,,,,,,,,,10,001,2019_Dec_25_0903,untitled,3.1.0,60.17629247076064,
_,F,N,315,_,_,_FN315__,N,0,78,78,55,,,1.219,505.89432800002396,506.236630600004,506.2532524000271,506.53675889997976,506.55376089998754,None,down,2.9144045999855734,506.55376089998754,None,506.55376089998754,507.75233440002194,0.06307590001961216,None,,,,,,,,,10,001,2019_Dec_25_0903,untitled,3.1.0,60.17629247076064,
174,F,M,225,L,N,174FM225LN,HLN,0,79,79,125,,,0.782,509.53898529999424,509.8837532000034,509.9008446999942,510.1847652000142,510.20053319999715,None,up,1.9818986000027508,510.20053319999715,None,510.20053319999715,510.966350600007,0.0639143000007607,None,,,,,,,,,10,001,2019_Dec_25_0903,untitled,3.1.0,60.17629247076064,
304,_2,M,315,L,N,304_2M315LN,HLN,0,80,80,159,,,0.782,512.2504041999928,512.5980394000071,512.6156002000207,512.8987807999947,512.9167020000168,None,up,3.37927039997885,512.9167020000168,None,512.9167020000168,513.68053100002,0.061056300008203834,None,,,,,,,,,10,001,2019_Dec_25_0903,untitled,3.1.0,60.17629247076064,
398,_4,M,225,R,N,398_4M225RN,HRN,0,81,81,165,,,0.897,516.3783901000279,516.7114673000178,516.7279284999822,517.0111235000077,517.0275005000294,None,down,2.582100600004196,517.0275005000294,None,517.0275005000294,517.9107413000311,0.07351349998498335,None,,,,,,,,,10,001,2019_Dec_25_0903,untitled,3.1.0,60.17629247076064,
207,G,M,270,R,N,207GM270RN,HRN,0,82,82,134,,,0.9530000000000001,519.6842438000022,520.0246279999847,520.042049199983,520.325429700024,520.3414864999941,None,up,2.9321751999668777,520.3414864999941,None,520.3414864999941,521.2740428000106,0.06770369998412207,None,,,,,,,,,10,001,2019_Dec_25_0903,untitled,3.1.0,60.17629247076064,
135,F,N,270,R,N,135FN270RN,HRN,0,83,83,214,,,1.174,523.3476498000091,523.6887403000146,523.7058161000023,523.988382200012,524.0050544000114,None,up,2.8978739000158384,524.0050544000114,None,524.0050544000114,525.15371709998,0.0671532999840565,None,,,,,,,,,10,001,2019_Dec_25_0903,untitled,3.1.0,60.17629247076064,
007,R,N,270,R,N,007RN270RN,HRN,0,84,84,198,,,1.3940000000000001,526.9733368000016,527.3186306999996,527.3361207999988,527.6184477999923,527.6347841999959,None,up,2.298204699996859,527.6347841999959,None,527.6347841999959,529.0174106999766,0.0631434999522753,None,,,,,,,,,10,001,2019_Dec_25_0903,untitled,3.1.0,60.17629247076064,
493,_5,M,180,L,N,493_5M180LN,HLN,0,85,85,188,,,1.227,530.0034268000163,530.3495023000287,530.3660478999955,530.6492302999832,530.6655443999916,None,up,2.8479974000365473,530.6655443999916,None,530.6655443999916,531.881404099986,0.06385380000574514,None,,,,,,,,,10,001,2019_Dec_25_0903,untitled,3.1.0,60.17629247076064,
457,_5,M,0,R,N,457_5M000RN,HRN,0,86,86,176,,,1.188,533.5840162999812,533.9296899000183,533.9461585999816,534.2294421999832,534.2464210999897,None,None,,534.2464210999897,None,534.2464210999897,535.4114506000187,0.06322209996869788,None,,,,,,,,,10,001,2019_Dec_25_0903,untitled,3.1.0,60.17629247076064,
_,_4,M,315,_,_,__4M315__,N,0,87,87,39,,,0.847,537.7896305000177,538.1260403000051,538.1425127999973,538.4258886000025,538.4422618999961,537.7896305000177,up,1.801417499955278,538.4422618999961,None,538.4422618999961,539.2758167000138,0.07300380000378937,None,,,,,,,,,10,001,2019_Dec_25_0903,untitled,3.1.0,60.17629247076064,
_,F,M,270,_,_,_FM270__,N,0,88,88,6,,,1.151,540.3119485999923,540.657029199996,540.6737585000228,540.9568170999992,540.9733214000007,None,down,2.3336211999994703,540.9733214000007,None,540.9733214000007,542.1057539000176,0.06129860004875809,None,,,,,,,,,10,001,2019_Dec_25_0903,untitled,3.1.0,60.17629247076064,
_,_5,M,135,_,_,__5M135__,N,0,89,89,43,,,1.018,543.3757379000308,543.7210764000192,543.7378369999933,544.0209468000103,544.0375471999869,None,up,2.7150597000145353,544.0375471999869,None,544.0375471999869,545.0368436999852,0.061945100023876876,None,,,,,,,,,10,001,2019_Dec_25_0903,untitled,3.1.0,60.17629247076064,
302,_2,M,225,L,N,302_2M225LN,HLN,0,90,90,157,,,1.066,546.8471115999855,547.1674765999778,547.1849627000047,547.4677475999924,547.4846861999831,None,down,2.9978701999643818,547.4846861999831,None,547.4846861999831,548.5330888999742,0.06396289996337146,None,,,,,,,,,10,001,2019_Dec_25_0903,untitled,3.1.0,60.17629247076064,
044,R,M,135,L,N,044RM135LN,HLN,0,91,91,107,,,0.966,550.5603787000291,550.8978639999987,550.9149067000253,551.197953200026,551.2146043999819,None,up,1.8650468999985605,551.2146043999819,None,551.2146043999819,552.1638677000301,0.06992619996890426,None,,,,,,,,,10,001,2019_Dec_25_0903,untitled,3.1.0,60.17629247076064,
012,R,M,135,R,N,012RM135RN,HRN,0,92,92,99,,,0.975,553.1493519999785,553.497023199976,553.5125531000085,553.7960659000091,553.8123819999746,None,up,1.634075700014364,553.8123819999746,None,553.8123819999746,554.7618900000234,0.06275899999309331,None,,,,,,,,,10,001,2019_Dec_25_0903,untitled,3.1.0,60.17629247076064,
_,_4,N,315,_,_,__4N315__,N,0,93,93,87,,,1.091,555.518838500022,555.8608439000091,555.8772003999911,556.1609106999822,556.1769964999985,None,up,2.464570999960415,556.1769964999985,None,556.1769964999985,557.2587664999883,0.06495430000359192,None,,,,,,,,,10,001,2019_Dec_25_0903,untitled,3.1.0,60.17629247076064,
394,_4,M,45,R,N,394_4M045RN,HRN,0,94,94,161,,,0.754,558.7165774999885,559.0574068999849,559.074400499987,559.3575663000229,559.3750188000267,None,down,2.3827165000257082,559.3750188000267,None,559.3750188000267,560.1069402000285,0.06744409998646006,None,,,,,,,,,10,001,2019_Dec_25_0903,untitled,3.1.0,60.17629247076064,
167,F,N,270,L,N,167FN270LN,HLN,0,95,95,222,,,0.878,561.8275022000307,562.1717687000055,562.1883586000185,562.4713138000225,562.4882902000099,None,up,2.714137400034815,562.4882902000099,None,562.4882902000099,563.3538389999885,0.06283070001518354,None,,,,,,,,,10,001,2019_Dec_25_0903,untitled,3.1.0,60.17629247076064,
385,_4,N,0,R,N,385_4N000RN,HRN,0,96,96,256,,,0.709,565.2703275000094,565.6186141999788,565.634976900008,565.9182027999777,565.9346888000146,None,up,1.6332212000270374,565.9346888000146,None,565.9346888000146,566.6186787000042,0.06084060005377978,None,,,,,,,,,10,001,2019_Dec_25_0903,untitled,3.1.0,60.17629247076064,
231,G,N,270,L,N,231GN270LN,HLN,0,97,97,238,,,1.373,567.6542219999828,567.983243900002,568.0001917000045,568.283133400022,568.2996170999832,None,down,2.8493692000047304,568.2996170999832,None,568.2996170999832,569.6484683000017,0.07816019997699186,None,,,,,,,,,10,001,2019_Dec_25_0903,untitled,3.1.0,60.17629247076064,
038,R,N,225,L,N,038RN225LN,HLN,0,98,98,205,,,1.268,571.2269029000308,571.5633700999897,571.5803434000118,571.8631815999979,571.8800829999964,None,up,2.0659358000266366,571.8800829999964,None,571.8800829999964,573.1287941000191,0.07037949998630211,None,,,,,,,,,10,001,2019_Dec_25_0903,untitled,3.1.0,60.17629247076064,
203,G,M,90,R,N,203GM090RN,HRN,0,99,99,130,,,0.807,574.0134990999941,574.3610213000211,574.3776943000266,574.660878100025,574.6773439000244,None,down,2.320129600004293,574.6773439000244,None,574.6773439000244,575.4602808000054,0.060912499960977584,None,,,,,,,,,10,001,2019_Dec_25_0903,untitled,3.1.0,60.17629247076064,
268,_2,M,135,R,N,268_2M135RN,HRN,0,100,100,147,,,0.863,577.0664982000017,577.4082721000304,577.4252691000002,577.7091578000109,577.7247679000138,None,up,2.398341599968262,577.7247679000138,None,577.7247679000138,578.5735695000039,0.06218710000393912,None,,,,,,,,,10,001,2019_Dec_25_0903,untitled,3.1.0,60.17629247076064,
_,_2,M,315,_,_,__2M315__,N,0,101,101,31,,,1.075,580.2149656999973,580.5389888000209,580.5558142000227,580.8383437999873,580.8552691999939,None,up,2.999567900027614,580.8552691999939,None,580.8552691999939,581.9044967999798,0.08501689997501671,None,,,,,,,,,10,001,2019_Dec_25_0903,untitled,3.1.0,60.17629247076064,
_,_2,N,45,_,_,__2N045__,N,0,102,102,73,,,1.36,583.9359480999992,584.2692284000223,584.2858667999972,584.569073199993,584.5852512000129,None,up,2.703761000011582,584.5852512000129,None,584.5852512000129,585.9346869000001,0.07296950003365055,None,,,,,,,,,10,001,2019_Dec_25_0903,untitled,3.1.0,60.17629247076064,
_,G,N,90,_,_,_GN090__,N,0,103,103,58,,,1.367,587.3656846000231,587.6994856999954,587.7160473000258,587.9987906999886,588.016322600015,None,up,3.2803434999659657,588.016322600015,None,588.016322600015,589.3647791999974,0.06880120001733303,None,,,,,,,,,10,001,2019_Dec_25_0903,untitled,3.1.0,60.17629247076064,
482,_5,N,45,L,N,482_5N045LN,HLN,0,104,104,281,,,0.916,591.3708626999869,591.7136731999926,591.7296236000257,592.0124379000044,592.0292155999923,None,up,2.0152747000101954,592.0292155999923,None,592.0292155999923,592.9291290999972,0.06671970000024885,None,,,,,,,,,10,001,2019_Dec_25_0903,untitled,3.1.0,60.17629247076064,
392,_4,N,315,R,N,392_4N315RN,HRN,0,105,105,263,,,0.76,594.1307342000073,594.4603376000305,594.476937600004,594.7601946999785,594.7770448999945,None,up,1.7648043000372127,594.7770448999945,None,594.7770448999945,595.5255249000038,0.07714720000512898,None,,,,,,,,,10,001,2019_Dec_25_0903,untitled,3.1.0,60.17629247076064,
483,_5,N,90,L,N,483_5N090LN,HLN,0,106,106,282,,,1.3,596.6101651000208,596.9584392000106,596.9750788999954,597.2575841000071,597.2746393000125,None,up,2.131676199962385,597.2746393000125,None,597.2746393000125,598.5565950000309,0.06159970001317561,None,,,,,,,,,10,001,2019_Dec_25_0903,untitled,3.1.0,60.17629247076064,
237,G,M,180,L,N,237GM180LN,HLN,0,107,107,140,,,0.8140000000000001,599.4738559999969,599.8224527999992,599.8389449000242,600.1215830000001,600.1387883999851,None,down,2.9008482999633998,600.1387883999851,None,600.1387883999851,600.9377414999763,0.05991750000976026,None,,,,,,,,,10,001,2019_Dec_25_0903,untitled,3.1.0,60.17629247076064,
_,_5,N,270,_,_,__5N270__,N,0,108,108,94,,,1.195,603.1067571999738,603.4521784000099,603.4688794999965,603.7525287999888,603.7687735999934,None,up,2.4651795999961905,603.7687735999934,None,603.7687735999934,604.9515058000106,0.060448599979281425,None,,,,,,,,,10,001,2019_Dec_25_0903,untitled,3.1.0,60.17629247076064,
420,_4,N,135,L,N,420_4N135LN,HLN,0,109,109,267,,,1.233,606.3026935000089,606.6516668000259,606.6664378999849,606.9489277999965,606.9657638000208,None,up,2.2181383999995887,606.9657638000208,None,606.9657638000208,608.1826551000122,0.06190279999282211,None,,,,,,,,,10,001,2019_Dec_25_0903,untitled,3.1.0,60.17629247076064,
_,F,M,180,_,_,_FM180__,N,0,110,110,4,,,0.887,609.2522107000113,609.5974747000146,609.6138588999747,609.896971500013,609.9133146000095,None,up,1.9485781000112183,609.9133146000095,None,609.9133146000095,610.7797034999821,0.06175380002241582,None,,,,,,,,,10,001,2019_Dec_25_0903,untitled,3.1.0,60.17629247076064,
298,_2,M,45,L,N,298_2M045LN,HLN,0,111,111,153,,,0.929,611.9343527000165,612.2776102999924,612.2948237999808,612.5775261999806,612.5940110000083,None,up,2.2665604999638163,612.5940110000083,None,612.5940110000083,613.5098424999742,0.06404849997488782,None,,,,,,,,,10,001,2019_Dec_25_0903,untitled,3.1.0,60.17629247076064,
013,R,M,180,R,N,013RM180RN,HRN,0,112,112,100,,,0.758,614.9494485000032,615.2757848000037,615.2924854999874,615.5757744000293,615.5921203999897,None,up,1.515644599974621,615.5921203999897,None,615.5921203999897,616.3409494999796,0.077796199999284,None,,,,,,,,,10,001,2019_Dec_25_0903,untitled,3.1.0,60.17629247076064,
_,G,M,270,_,_,_GM270__,N,0,113,113,14,,,1.07,617.180198099988,617.5249487999827,617.5418757000007,617.8231534999795,617.8395401000162,None,down,2.450450800010003,617.8395401000162,None,617.8395401000162,618.8884831999894,0.06514249998144805,None,,,,,,,,,10,001,2019_Dec_25_0903,untitled,3.1.0,60.17629247076064,
043,R,M,90,L,N,043RM090LN,HLN,0,114,114,106,,,0.931,620.3590069999918,620.7039392000297,620.7209877999849,621.0040273999912,621.020490200026,None,down,2.3332588000339456,621.020490200026,None,621.020490200026,621.9364069000003,0.0617179999826476,None,,,,,,,,,10,001,2019_Dec_25_0903,untitled,3.1.0,60.17629247076064,
162,F,N,45,L,N,162FN045LN,HLN,0,115,115,217,,,0.926,623.4220362000051,623.7684086000081,623.7848213000107,624.0681914999732,624.0845571000245,None,up,1.8486407999880612,624.0845571000245,None,624.0845571000245,625.0000805999734,0.060919900017324835,None,,,,,,,,,10,001,2019_Dec_25_0903,untitled,3.1.0,60.17629247076064,
193,G,N,0,R,N,193GN000RN,HRN,0,116,116,224,,,1.025,626.0094314999878,626.3491988999886,626.3659419000032,626.6489527000231,626.6664710000041,None,up,1.8478365000337362,626.6664710000041,None,626.6664710000041,627.6641674999846,0.06859580002492294,None,,,,,,,,,10,001,2019_Dec_25_0903,untitled,3.1.0,60.17629247076064,
452,_5,N,135,R,N,452_5N135RN,HRN,0,117,117,275,,,1.04,628.5960856000311,628.9312494000187,628.9475107999751,629.2303393000038,629.2481816000072,None,up,1.9643835999886505,629.2481816000072,None,629.2481816000072,630.2622835999937,0.07424769998760894,None,,,,,,,,,10,001,2019_Dec_25_0903,untitled,3.1.0,60.17629247076064,
484,_5,N,135,L,N,484_5N135LN,HLN,0,118,118,283,,,1.2750000000000001,631.2808739999891,631.6280983000179,631.6446125999792,631.9274748999742,631.9441010000301,None,up,2.0660277000279166,631.9441010000301,None,631.9441010000301,633.2089611000265,0.06070570001611486,None,,,,,,,,,10,001,2019_Dec_25_0903,untitled,3.1.0,60.17629247076064,
134,F,N,225,R,N,134FN225RN,HRN,0,119,119,213,,,1.1280000000000001,634.0779612999759,634.4248259000015,634.441661400022,634.7252561000059,634.7414557000156,None,up,3.0489098000107333,634.7414557000156,None,634.7414557000156,635.8577091000043,0.061536399996839464,None,,,,,,,,,10,001,2019_Dec_25_0903,untitled,3.1.0,60.17629247076064,
227,G,N,90,L,N,227GN090LN,HLN,0,120,120,234,,,0.934,637.8626249000081,638.205051500001,638.2219427999808,638.5048206999782,638.5214614000288,None,up,2.2155033000162803,638.5214614000288,None,638.5214614000288,639.4378486999776,0.06474309996701777,None,,,,,,,,,10,001,2019_Dec_25_0903,untitled,3.1.0,60.17629247076064,
393,_4,M,0,R,N,393_4M000RN,HRN,0,121,121,160,,,0.801,640.8186936000129,641.1537705999799,641.1695930000278,641.4525367000024,641.4693448999897,None,down,2.4315510999877006,641.4693448999897,None,641.4693448999897,642.2516608000151,0.07290470000589266,None,,,,,,,,,10,001,2019_Dec_25_0903,untitled,3.1.0,60.17629247076064,
_,F,N,270,_,_,_FN270__,N,0,122,122,54,,,1.115,643.9808086000266,644.3167727999971,644.3352262999979,644.6166942000273,644.6337643000297,None,up,1.966581100015901,644.6337643000297,None,644.6337643000297,645.732666899974,0.07295080000767484,None,,,,,,,,,10,001,2019_Dec_25_0903,untitled,3.1.0,60.17629247076064,
_,_4,M,225,_,_,__4M225__,N,0,123,123,37,,,0.911,646.687620599987,647.0144360000268,647.0311477999785,647.3143114999984,647.3312631000299,None,up,2.3160323000047356,647.3312631000299,None,647.3312631000299,648.2294005000149,0.07916070002829656,None,,,,,,,,,10,001,2019_Dec_25_0903,untitled,3.1.0,60.17629247076064,
417,_4,N,0,L,N,417_4N000LN,HLN,0,124,124,264,,,0.8250000000000001,649.7156454999931,650.0621198000154,650.0787097000284,650.3618583999923,650.378114000021,None,up,1.5173882999806665,650.378114000021,None,650.378114000021,651.1943359000143,0.0606565999914892,None,,,,,,,,,10,001,2019_Dec_25_0903,untitled,3.1.0,60.17629247076064,
_,R,M,315,_,_,_RM315__,N,0,125,125,23,,,1.294,651.9638897000114,652.3103337999783,652.3267624999862,652.6100157999899,652.6270294000278,None,down,2.696971900004428,652.6270294000278,None,652.6270294000278,653.9084299000097,0.06169349997071549,None,,,,,,,,,10,001,2019_Dec_25_0903,untitled,3.1.0,60.17629247076064,
485,_5,N,180,L,N,485_5N180LN,HLN,0,126,126,284,,,1.006,655.3934194999747,655.7410040000104,655.7569652000093,656.0400781999924,656.0566109999781,None,up,2.7316291999886744,656.0566109999781,None,656.0566109999781,657.0390619999962,0.0626559000229463,None,,,,,,,,,10,001,2019_Dec_25_0903,untitled,3.1.0,60.17629247076064,
205,G,M,180,R,N,205GM180RN,HRN,0,127,127,132,,,1.048,658.8710190000129,659.203446200001,659.2201091999887,659.5036226999946,659.5202964000055,None,down,3.0495827000122517,659.5202964000055,None,659.5202964000055,660.5518041999894,0.07566289999522269,None,,,,,,,,,10,001,2019_Dec_25_0903,untitled,3.1.0,60.17629247076064,
264,_2,N,315,R,N,264_2N315RN,HRN,0,128,128,247,,,1.231,662.6559417999815,662.9838303999859,663.0011607999913,663.2829992999905,663.3002133999835,None,up,3.447483900003135,663.3002133999835,None,663.3002133999835,664.515623299987,0.07799909997265786,None,,,,,,,,,10,001,2019_Dec_25_0903,untitled,3.1.0,60.17629247076064,
005,R,N,180,R,N,005RN180RN,HRN,0,129,129,196,,,1.234,666.8516303999932,667.1636458000285,667.1801218999899,667.4636034999858,667.4800136000267,None,up,2.183240200043656,667.4800136000267,None,667.4800136000267,668.6955805000034,0.07389530004002154,None,,,,,,,,,10,001,2019_Dec_25_0903,untitled,3.1.0,60.17629247076064,
_,_5,M,270,_,_,__5M270__,N,0,130,130,46,,,0.863,669.731191000028,670.0779775999836,670.0943939000135,670.3770374999731,670.3938405999797,None,down,2.0831890999688767,670.3938405999797,None,670.3938405999797,671.2437266000197,0.06087740004295483,None,,,,,,,,,10,001,2019_Dec_25_0903,untitled,3.1.0,60.17629247076064,
_,_5,N,180,_,_,__5N180__,N,0,131,131,92,,,1.19,672.5520985000185,672.8921063999878,672.908478599973,673.1915030999808,673.2087886999943,None,up,3.015170200029388,673.2087886999943,None,673.2087886999943,674.3737100000144,0.06766030000289902,None,,,,,,,,,10,001,2019_Dec_25_0903,untitled,3.1.0,60.17629247076064,
040,R,N,315,L,N,040RN315LN,HLN,0,132,132,207,,,1.32,676.2938160999911,676.6386287999921,676.6551434000139,676.9385941000073,676.9555075999815,None,up,2.899710799974855,676.9555075999815,None,676.9555075999815,678.2542735000025,0.06299539998872206,None,,,,,,,,,10,001,2019_Dec_25_0903,untitled,3.1.0,60.17629247076064,
271,_2,M,270,R,N,271_2M270RN,HRN,0,133,133,150,,,1.0170000000000001,679.9399444999872,680.2710943000275,680.2857398000197,680.5689774000202,680.586464699998,None,down,3.19698690000223,680.586464699998,None,680.586464699998,681.584223599988,0.07614419999299571,None,,,,,,,,,10,001,2019_Dec_25_0903,untitled,3.1.0,60.17629247076064,
492,_5,M,135,L,N,492_5M135LN,HLN,0,134,134,187,,,1.252,683.852051599999,684.2005653000087,684.2158389000106,684.4985508000245,684.5154860999901,None,down,2.8655379000119865,684.5154860999901,None,684.5154860999901,685.7479745000019,0.0615438999957405,None,,,,,,,,,10,001,2019_Dec_25_0903,untitled,3.1.0,60.17629247076064,
419,_4,N,90,L,N,419_4N090LN,HLN,0,135,135,266,,,1.029,687.4497182000196,687.795650199987,687.8120511000161,688.0952720000059,688.1117830000003,None,up,2.4315534999477677,688.1117830000003,None,688.1117830000003,689.1285365999793,0.06201250001322478,None,,,,,,,,,10,001,2019_Dec_25_0903,untitled,3.1.0,60.17629247076064,
_,R,N,45,_,_,_RN045__,N,0,136,136,65,,,0.964,690.6122611999745,690.9597670999938,690.9767486000201,691.2593003999791,691.2760505999904,None,up,1.719577899959404,691.2760505999904,None,691.2760505999904,692.2250226999749,0.06075939995935187,None,,,,,,,,,10,001,2019_Dec_25_0903,untitled,3.1.0,60.17629247076064,
003,R,N,90,R,N,003RN090RN,HRN,0,137,137,194,,,1.175,693.0634950000094,693.4076862999937,693.4244715999812,693.707838399976,693.7249262999976,None,up,3.2465670999954455,693.7249262999976,None,693.7249262999976,694.8894803000148,0.061550999991595745,None,,,,,,,,,10,001,2019_Dec_25_0903,untitled,3.1.0,60.17629247076064,
_,_5,N,225,_,_,__5N225__,N,0,138,138,93,,,0.97,697.0391827999847,697.3877310000244,697.4039732000092,697.6872633000021,697.7038300000131,None,up,2.731044100015424,697.7038300000131,None,697.7038300000131,698.6525832000189,0.059666400018613786,None,,,,,,,,,10,001,2019_Dec_25_0903,untitled,3.1.0,60.17629247076064,
_,_5,M,45,_,_,__5M045__,N,0,139,139,41,,,0.882,700.5020994999795,700.8509904000093,700.8670489999931,701.1520360999857,701.1674102999968,None,down,2.582710499991663,701.1674102999968,None,701.1674102999968,702.0329932000022,0.06031199998687953,None,,,,,,,,,10,001,2019_Dec_25_0903,untitled,3.1.0,60.17629247076064,
_,G,M,315,_,_,_GM315__,N,0,140,140,15,,,0.78,703.8258120000246,704.1643437999883,704.1810297999764,704.4638957999996,704.480217400007,None,down,2.8846252000075765,704.480217400007,None,704.480217400007,705.2467373000109,0.06773890001932159,None,,,,,,,,,10,001,2019_Dec_25_0903,untitled,3.1.0,60.17629247076064,
462,_5,M,225,R,N,462_5M225RN,HRN,0,141,141,181,,,1.03,707.4337786000106,707.7787986000185,707.7950342000113,708.0782886000234,708.0950325999875,None,None,,708.0950325999875,None,708.0950325999875,709.1099589000223,0.062045899976510555,None,,,,,,,,,10,001,2019_Dec_25_0903,untitled,3.1.0,60.17629247076064,
041,R,M,0,L,N,041RM000LN,HLN,0,142,142,104,,,1.0230000000000001,711.6267248999793,711.9745196999866,711.9914103000192,712.274348100007,712.2916455999948,711.6267248999793,up,2.131623400026001,712.2916455999948,None,712.2916455999948,713.2912737000152,0.06220649997703731,None,,,,,,,,,10,001,2019_Dec_25_0903,untitled,3.1.0,60.17629247076064,
_,_4,N,45,_,_,__4N045__,N,0,143,143,81,,,1.1,714.4900912999874,714.8386790999793,714.8557182999793,715.1384740999783,715.1549193999963,None,up,2.26501279999502,715.1549193999963,None,715.1549193999963,716.2373952000053,0.060033799964003265,None,,,,,,,,,10,001,2019_Dec_25_0903,untitled,3.1.0,60.17629247076064,
481,_5,N,0,L,N,481_5N000LN,HLN,0,144,144,280,,,0.8160000000000001,717.4883925999748,717.8362583999988,717.8528525999864,718.1360674999887,718.1528147999779,None,up,2.298239600029774,718.1528147999779,None,718.1528147999779,718.9518818000215,0.06169120001140982,None,,,,,,,,,10,001,2019_Dec_25_0903,untitled,3.1.0,60.17629247076064,
206,G,M,225,R,N,206GM225RN,HRN,0,145,145,133,,,1.311,720.519228500023,720.8668849000242,720.8834414000157,721.166207799979,721.1835806000163,None,down,2.617110799998045,721.1835806000163,None,721.1835806000163,722.4822356000077,0.06105820002267137,None,,,,,,,,,10,001,2019_Dec_25_0903,untitled,3.1.0,60.17629247076064,
_,G,M,225,_,_,_GM225__,N,0,146,146,13,,,1.221,723.8985888999887,724.2136511999997,724.2318231000099,724.5140314999735,724.5305145999882,None,down,2.8140613000141457,724.5305145999882,None,724.5305145999882,725.7291965999757,0.08909260004293174,None,,,,,,,,,10,001,2019_Dec_25_0903,untitled,3.1.0,60.17629247076064,
_,F,N,45,_,_,_FN045__,N,0,147,147,49,,,0.771,727.4117519999854,727.7609214999829,727.7775238999748,728.0607524000225,728.0772604999947,None,up,1.7321304999641143,728.0772604999947,None,728.0772604999947,728.8265729999985,0.06001120002474636,None,,,,,,,,,10,001,2019_Dec_25_0903,untitled,3.1.0,60.17629247076064,
297,_2,M,0,L,N,297_2M000LN,HLN,0,148,148,152,,,1.058,729.8884208999807,730.2251405999996,730.2427314000088,730.5256662999745,730.5418293999974,None,down,2.797577999997884,730.5418293999974,None,730.5418293999974,731.5909569999785,0.07109050004510209,None,,,,,,,,,10,001,2019_Dec_25_0903,untitled,3.1.0,60.17629247076064,
292,_2,N,135,L,N,292_2N135LN,HLN,0,149,149,251,,,0.8250000000000001,733.4108807999874,733.7549872000236,733.7715483999928,734.0549448999809,734.0723931000102,None,up,2.780577400000766,734.0723931000102,None,734.0723931000102,734.870986199996,0.06491529999766499,None,,,,,,,,,10,001,2019_Dec_25_0903,untitled,3.1.0,60.17629247076064,
_,_5,M,225,_,_,__5M225__,N,0,150,150,45,,,0.879,736.923949100019,737.2695860000094,737.2862059000181,737.5697881000233,737.5861440000008,None,None,,737.5861440000008,None,737.5861440000008,738.4513364000013,0.06402809999417514,None,,,,,,,,,10,001,2019_Dec_25_0903,untitled,3.1.0,60.17629247076064,
234,G,M,45,L,N,234GM045LN,HLN,0,151,151,137,,,1.248,741.1191397000221,741.4659698000178,741.4821891000029,741.7656486000051,741.7819108000258,741.1191397000221,up,2.3671367000206374,741.7819108000258,None,741.7819108000258,743.0138659999939,0.06098470004508272,None,,,,,,,,,10,001,2019_Dec_25_0903,untitled,3.1.0,60.17629247076064,
_,_2,N,90,_,_,__2N090__,N,0,152,152,74,,,0.863,744.2286325999885,744.5629103999818,744.579637399991,744.8625143999816,744.8792821000097,None,up,2.0340082999900915,744.8792821000097,None,744.8792821000097,745.7283274999936,0.07007900002645329,None,,,,,,,,,10,001,2019_Dec_25_0903,untitled,3.1.0,60.17629247076064,
232,G,N,315,L,N,232GN315LN,HLN,0,153,153,239,,,0.799,746.981965199986,747.327150600031,747.3436880999943,747.6270162999863,747.6433943000156,None,up,1.9984471999923699,747.6433943000156,None,747.6433943000156,748.4258570999955,0.06188349996227771,None,,,,,,,,,10,001,2019_Dec_25_0903,untitled,3.1.0,60.17629247076064,
_,_5,N,315,_,_,__5N315__,N,0,154,154,95,,,1.1400000000000001,749.7089112999965,750.0582997999736,750.0748372999951,750.3580948999734,750.3743695000303,None,down,2.437064800004009,750.3743695000303,None,750.3743695000303,751.4902429999784,0.06012670003110543,None,,,,,,,,,10,001,2019_Dec_25_0903,untitled,3.1.0,60.17629247076064,
_,_2,M,135,_,_,__2M135__,N,0,155,155,27,,,1.252,752.9119743999909,753.2384605000261,753.2384605000261,753.5381932000164,753.5381932000164,None,up,3.032844199973624,753.5381932000164,None,753.5381932000164,754.7874926999793,0.08825510001042858,None,,,,,,,,,10,001,2019_Dec_25_0903,untitled,3.1.0,60.17629247076064,
_,_2,M,180,_,_,__2M180__,N,0,156,156,28,,,1.177,756.6405963000143,756.9847462999751,757.0017395999748,757.2851254999987,757.302112800011,None,None,,757.302112800011,None,757.302112800011,758.4674849000294,0.06283410004107282,None,,,,,,,,,10,001,2019_Dec_25_0903,untitled,3.1.0,60.17629247076064,
257,_2,N,0,R,N,257_2N000RN,HRN,0,157,157,240,,,1.312,760.8359756999998,761.1823299999814,761.1992796999984,761.4811442000209,761.4979452000116,760.8359756999998,up,2.3845337000093423,761.4979452000116,None,761.4979452000116,762.7970591000048,0.06355690001510084,None,,,,,,,,,10,001,2019_Dec_25_0903,untitled,3.1.0,60.17629247076064,
299,_2,M,90,L,N,299_2M090LN,HLN,0,158,158,154,,,1.17,763.961924800009,764.2957552000298,764.3121146999765,764.5952094999957,764.6120109999902,None,down,2.4148425000021234,764.6120109999902,None,764.6120109999902,765.7609573000227,0.07219009997788817,None,,,,,,,,,10,001,2019_Dec_25_0903,untitled,3.1.0,60.17629247076064,
459,_5,M,90,R,N,459_5M090RN,HRN,0,159,159,178,,,1.033,767.0936629999778,767.4428885999951,767.4601248999825,767.7432398999808,767.7590362000046,None,down,2.8153122999938205,767.7590362000046,None,767.7590362000046,768.7760858000256,0.05964970000786707,None,,,,,,,,,10,001,2019_Dec_25_0903,untitled,3.1.0,60.17629247076064,
_,_5,M,0,_,_,__5M000__,N,0,160,160,40,,,1.086,770.6568884000299,770.9899683999829,771.0068099999917,771.2895324000274,771.3069543000311,None,down,2.847563599993009,771.3069543000311,None,771.3069543000311,772.3722623999929,0.07421120000071824,None,,,,,,,,,10,001,2019_Dec_25_0903,untitled,3.1.0,60.17629247076064,
016,R,M,315,R,N,016RM315RN,HRN,0,161,161,103,,,1.095,774.2321756000165,774.5701746999985,774.586477099976,774.8710539999884,774.8870885000215,None,up,2.215247399988584,774.8870885000215,None,774.8870885000215,775.9683134999941,0.06933779997052625,None,,,,,,,,,10,001,2019_Dec_25_0903,untitled,3.1.0,60.17629247076064,
144,F,M,315,R,N,144FM315RN,HRN,0,162,162,119,,,0.8240000000000001,777.1748420000076,777.5177041999996,777.5338942999952,777.8176474000211,777.8340505000087,None,down,2.164600799966138,777.8340505000087,None,777.8340505000087,778.6335831999895,0.06488120002904907,None,,,,,,,,,10,001,2019_Dec_25_0903,untitled,3.1.0,60.17629247076064,
039,R,N,270,L,N,039RN270LN,HLN,0,163,163,206,,,1.309,780.0679630999803,780.4150570000056,780.4316337999771,780.7147307000123,780.73151100002,None,up,2.2007538999896497,780.73151100002,None,780.73151100002,782.0134045000304,0.0626848999527283,None,,,,,,,,,10,001,2019_Dec_25_0903,untitled,3.1.0,60.17629247076064,
047,R,M,270,L,N,047RM270LN,HLN,0,164,164,110,,,1.133,783.0025526999962,783.3456258000224,783.3624190000119,783.6455589000252,783.66201119998,None,down,1.9484885000274517,783.66201119998,None,783.66201119998,784.778676100017,0.06335219996981323,None,,,,,,,,,10,001,2019_Dec_25_0903,untitled,3.1.0,60.17629247076064,
464,_5,M,315,R,N,464_5M315RN,HRN,0,165,165,183,,,1.024,785.6817527000094,786.0282122999779,786.043145100004,786.3266794999945,786.3428177000023,None,up,3.0994775000144728,786.3428177000023,None,786.3428177000023,787.3419880000292,0.06429590005427599,None,,,,,,,,,10,001,2019_Dec_25_0903,untitled,3.1.0,60.17629247076064,
042,R,M,45,L,N,042RM045LN,HLN,0,166,166,105,,,0.885,789.5107631999999,789.8569912000094,789.8737099000136,790.1564007999841,790.1732107999851,None,down,2.3502730000182055,790.1732107999851,None,790.1732107999851,791.038987100008,0.06165669998154044,None,,,,,,,,,10,001,2019_Dec_25_0903,untitled,3.1.0,60.17629247076064,
166,F,N,225,L,N,166FN225LN,HLN,0,167,167,221,,,1.329,792.5926741000148,792.9372637000051,792.9542443000246,793.2369642999838,793.2536777000059,None,up,2.3842061000177637,793.2536777000059,None,793.2536777000059,794.5688249000232,0.06252300000051036,None,,,,,,,,,10,001,2019_Dec_25_0903,untitled,3.1.0,60.17629247076064,
_,R,M,270,_,_,_RM270__,N,0,168,168,22,,,0.742,795.7045818999759,796.0514726000256,796.0679927999736,796.351626800024,796.367814600002,None,down,2.282165900047403,796.367814600002,None,796.367814600002,797.1002912999829,0.05891199997859076,None,,,,,,,,,10,001,2019_Dec_25_0903,untitled,3.1.0,60.17629247076064,
139,F,M,90,R,N,139FM090RN,HRN,0,169,169,114,,,1.335,798.7264927999931,799.0652870999766,799.0823365999968,799.3659081999795,799.381481999997,None,up,2.4834410000476055,799.381481999997,None,799.381481999997,800.6971587000298,0.06921200000215322,None,,,,,,,,,10,001,2019_Dec_25_0903,untitled,3.1.0,60.17629247076064,
009,R,M,0,R,N,009RM000RN,HRN,0,170,170,96,,,0.868,801.9388947000261,802.2794504999765,802.2956221000059,802.5787005000166,802.5952032000059,None,down,2.249216299969703,802.5952032000059,None,802.5952032000059,803.4447538999957,0.06673629995202646,None,,,,,,,,,10,001,2019_Dec_25_0903,untitled,3.1.0,60.17629247076064,
_,G,N,315,_,_,_GN315__,N,0,171,171,63,,,1.008,804.9120731999865,805.2604479999864,805.2783368999953,805.5597482000012,805.57695040002,None,up,1.9649159999680705,805.57695040002,None,805.57695040002,806.558882399986,0.0609798000077717,None,,,,,,,,,10,001,2019_Dec_25_0903,untitled,3.1.0,60.17629247076064,
494,_5,M,225,L,N,494_5M225LN,HLN,0,172,172,189,,,0.8140000000000001,807.6104110999731,807.9577917000279,807.9744921000092,808.2572827999829,808.2745315000066,None,up,2.6641794000170194,808.2745315000066,None,808.2745315000066,809.0730328999925,0.06194119999418035,None,,,,,,,,,10,001,2019_Dec_25_0903,untitled,3.1.0,60.17629247076064,
259,_2,N,90,R,N,259_2N090RN,HRN,0,173,173,242,,,1.229,811.0276179999928,811.3547650999972,811.3714206999866,811.6557991000009,811.6712937999982,None,up,2.7817177000106312,811.6712937999982,None,811.6712937999982,812.8864111999865,0.07926640001824126,None,,,,,,,,,10,001,2019_Dec_25_0903,untitled,3.1.0,60.17629247076064,
130,F,N,45,R,N,130FN045RN,HRN,0,174,174,209,,,1.327,814.521464999998,814.86825400003,814.8857568000094,815.1680184000288,815.1847252000007,None,up,2.3178798999870196,815.1847252000007,None,815.1847252000007,816.4996269000112,0.06091130001004785,None,,,,,,,,,10,001,2019_Dec_25_0903,untitled,3.1.0,60.17629247076064,
_,G,M,90,_,_,_GM090__,N,0,175,175,10,,,1.19,817.5964083999861,817.9151971000247,817.9330985000124,818.2153877000092,818.232056399982,None,down,2.3836761999991722,818.232056399982,None,818.232056399982,819.413845699979,0.08296249998966232,None,,,,,,,,,10,001,2019_Dec_25_0903,untitled,3.1.0,60.17629247076064,
035,R,N,90,L,N,035RN090LN,HLN,0,176,176,202,,,0.876,820.6836967000272,821.0296679000021,821.046662400011,821.3294169000001,821.3456949000247,None,up,1.9347240999923088,821.3456949000247,None,821.3456949000247,822.2120359999826,0.060935899964533746,None,,,,,,,,,10,001,2019_Dec_25_0903,untitled,3.1.0,60.17629247076064,
132,F,N,135,R,N,132FN135RN,HRN,0,177,177,211,,,1.072,823.3503914999892,823.6937609000015,823.711085900024,823.9936675999779,824.0103158000275,None,up,1.998838200001046,824.0103158000275,None,824.0103158000275,825.0594415999949,0.06319879996590316,None,,,,,,,,,10,001,2019_Dec_25_0903,untitled,3.1.0,60.17629247076064,
_,_4,M,180,_,_,__4M180__,N,0,178,178,36,,,0.774,826.0787652999861,826.4243864999735,826.4412218999933,826.7246182999806,826.7411257000058,None,up,2.5821570000262,826.7411257000058,None,826.7411257000058,827.4903331000241,0.06306439999025315,None,,,,,,,,,10,001,2019_Dec_25_0903,untitled,3.1.0,60.17629247076064,
142,F,M,225,R,N,142FM225RN,HRN,0,179,179,117,,,1.322,829.3964859999833,829.7391742999898,829.756027800031,830.0396666000015,830.0542488999781,None,up,2.6154982000007294,830.0542488999781,None,830.0542488999781,831.3545169000281,0.06610789999831468,None,,,,,,,,,10,001,2019_Dec_25_0903,untitled,3.1.0,60.17629247076064,
496,_5,M,315,L,N,496_5M315LN,HLN,0,180,180,191,,,0.8180000000000001,832.754654999997,833.0854755999753,833.1020820999984,833.3861952000298,833.4019526999909,None,down,2.565671199990902,833.4019526999909,None,833.4019526999909,834.2018579000141,0.07679149997420609,None,,,,,,,,,10,001,2019_Dec_25_0903,untitled,3.1.0,60.17629247076064,
048,R,M,315,L,N,048RM315LN,HLN,0,181,181,111,,,1.155,836.0584831999731,836.3828897000058,836.3993565000128,836.683209299983,836.6992742000148,None,down,2.4151935999980196,836.6992742000148,None,836.6992742000148,837.8312279999955,0.08180379995610565,None,,,,,,,,,10,001,2019_Dec_25_0903,untitled,3.1.0,60.17629247076064,
_,F,N,225,_,_,_FN225__,N,0,182,182,53,,,1.088,839.1874336000183,839.5314926999854,839.5466804999742,839.8297986999969,839.8465387999895,None,up,2.464662699960172,839.8465387999895,None,839.8465387999895,840.912050599989,0.06575500004692003,None,,,,,,,,,10,001,2019_Dec_25_0903,untitled,3.1.0,60.17629247076064,
225,G,N,0,L,N,225GN000LN,HLN,0,183,183,232,,,0.9450000000000001,842.3818665000144,842.7274145000265,842.7441400000243,843.0271825999953,843.0439480000059,None,up,2.247900399961509,843.0439480000059,None,843.0439480000059,843.9759916000185,0.06398700003046542,None,,,,,,,,,10,001,2019_Dec_25_0903,untitled,3.1.0,60.17629247076064,
006,R,N,225,R,N,006RN225RN,HRN,0,184,184,197,,,1.211,845.3601757999859,845.7081652000197,845.724733799987,846.0080577000044,846.0243361999746,None,up,2.2668134000268765,846.0243361999746,None,846.0243361999746,847.2230688999989,0.061302000016439706,None,,,,,,,,,10,001,2019_Dec_25_0903,untitled,3.1.0,60.17629247076064,
172,F,M,135,L,N,172FM135LN,HLN,0,185,185,123,,,1.37,848.3598922999809,848.7056252000039,848.7222917000181,849.0052836000104,849.0218938000035,None,up,2.0653305999585427,849.0218938000035,None,849.0218938000035,850.3703735999879,0.06172480003442615,None,,,,,,,,,10,001,2019_Dec_25_0903,untitled,3.1.0,60.17629247076064,
_,_4,N,270,_,_,__4N270__,N,0,186,186,86,,,1.026,851.1560660999967,851.5028181999805,851.519147199986,851.8028567000292,851.8193214000203,None,up,2.3326285000075586,851.8193214000203,None,851.8193214000203,852.8184108000132,0.062206200032960624,None,,,,,,,,,10,001,2019_Dec_25_0903,untitled,3.1.0,60.17629247076064,
_,_4,N,135,_,_,__4N135__,N,0,187,187,83,,,0.91,854.2190378999803,854.5669836000307,854.5835852000164,854.8661670000292,854.8831116000074,None,up,2.3318150999839418,854.8831116000074,None,854.8831116000074,855.7825373000233,0.05974859994603321,None,,,,,,,,,10,001,2019_Dec_25_0903,untitled,3.1.0,60.17629247076064,
_,G,N,180,_,_,_GN180__,N,0,188,188,60,,,1.149,857.2819999000058,857.6311682999949,857.6479833999765,857.9317569999839,857.9474076000042,None,up,2.3826387000153773,857.9474076000042,None,857.9474076000042,859.0798224000027,0.06010859995149076,None,,,,,,,,,10,001,2019_Dec_25_0903,untitled,3.1.0,60.17629247076064,
388,_4,N,135,R,N,388_4N135RN,HRN,0,189,189,259,,,1.366,860.4263184000156,860.7450629000086,860.7611198999803,861.0443973999936,861.0608761999756,None,up,2.0155772999860346,861.0608761999756,None,861.0608761999756,862.4103051000275,0.08781990001443774,None,,,,,,,,,10,001,2019_Dec_25_0903,untitled,3.1.0,60.17629247076064,
289,_2,N,0,L,N,289_2N000LN,HLN,0,190,190,248,,,1.129,863.1503415000043,863.4925035000197,863.5096373999841,863.7921018999768,863.8086738000275,None,up,2.015591100032907,863.8086738000275,None,863.8086738000275,864.924603499996,0.06630890001542866,None,,,,,,,,,10,001,2019_Dec_25_0903,untitled,3.1.0,60.17629247076064,
262,_2,N,225,R,N,262_2N225RN,HRN,0,191,191,245,,,0.803,865.8937083000201,866.2407005000277,866.2570151999826,866.5403060999815,866.5566353999893,None,up,2.6831285000080243,866.5566353999893,None,866.5566353999893,867.3388469999772,0.06311859999550506,None,,,,,,,,,10,001,2019_Dec_25_0903,untitled,3.1.0,60.17629247076064,
263,_2,N,270,R,N,263_2N270RN,HRN,0,192,192,246,,,1.182,869.3093864999828,869.6537742000073,869.6706430999911,869.9545860000071,869.9701586000156,None,up,1.8666199000435881,869.9701586000156,None,869.9701586000156,871.1359590999782,0.06287110003177077,None,,,,,,,,,10,001,2019_Dec_25_0903,untitled,3.1.0,60.17629247076064,
_,F,M,225,_,_,_FM225__,N,0,193,193,5,,,0.888,871.9094263000297,872.251334999979,872.267972200003,872.551352999988,872.5676977999974,None,up,1.6660330000449903,872.5676977999974,None,872.5676977999974,873.4339619000093,0.06541270000161603,None,,,,,,,,,10,001,2019_Dec_25_0903,untitled,3.1.0,60.17629247076064,
202,G,M,45,R,N,202GM045RN,HRN,0,194,194,129,,,1.025,874.312725100026,874.649387500016,874.6659916000208,874.9492972000153,874.9657696000068,None,down,2.9831481999717653,874.9657696000068,None,874.9657696000068,875.965209499991,0.07091490004677325,None,,,,,,,,,10,001,2019_Dec_25_0903,untitled,3.1.0,60.17629247076064,
133,F,N,180,R,N,133FN180RN,HRN,0,195,195,212,,,1.2650000000000001,878.0172746999888,878.3630177000305,878.3795404999983,878.6636240999796,878.6799748999765,None,up,2.7974413000047207,878.6799748999765,None,878.6799748999765,879.9282970000058,0.061799999966751784,None,,,,,,,,,10,001,2019_Dec_25_0903,untitled,3.1.0,60.17629247076064,
170,F,M,45,L,N,170FM045LN,HLN,0,196,196,121,,,1.334,881.5478292999906,881.8932143999846,881.910138599982,882.1933061000309,882.2102215000195,None,down,3.147644299955573,882.2102215000195,None,882.2102215000195,883.5253159999847,0.063528899976518,None,,,,,,,,,10,001,2019_Dec_25_0903,untitled,3.1.0,60.17629247076064,
296,_2,N,315,L,N,296_2N315LN,HLN,0,197,197,255,,,0.923,885.4371037000092,885.7746634000214,885.7897923000273,886.0730860999902,886.0893887000275,None,up,2.86420370003907,886.0893887000275,None,886.0893887000275,886.9887879000162,0.07182519999332726,None,,,,,,,,,10,001,2019_Dec_25_0903,untitled,3.1.0,60.17629247076064,
391,_4,N,270,R,N,391_4N270RN,HRN,0,198,198,262,,,1.2770000000000001,889.0226206000079,889.3700321000069,889.3871169000049,889.670119700022,889.6870055000181,None,down,3.4148867999901995,889.6870055000181,None,889.6870055000181,890.9517457999755,0.061441600031685084,None,,,,,,,,,10,001,2019_Dec_25_0903,untitled,3.1.0,60.17629247076064,
449,_5,N,0,R,N,449_5N000RN,HRN,0,199,199,272,,,0.715,893.1722080999753,893.5165157000301,893.5329949000152,893.8166190999909,893.8332911999896,None,up,1.8993031000136398,893.8332911999896,None,893.8332911999896,894.5329126000288,0.06346560001838952,None,,,,,,,,,10,001,2019_Dec_25_0903,untitled,3.1.0,60.17629247076064,
_,R,N,270,_,_,_RN270__,N,0,200,200,70,,,0.9520000000000001,895.8300100999768,896.1476178999874,896.1640691999928,896.4474829999963,896.4641356000211,None,up,1.8483428999898024,896.4641356000211,None,896.4641356000211,897.3961470000213,0.08636769995791838,None,,,,,,,,,10,001,2019_Dec_25_0903,untitled,3.1.0,60.17629247076064,
_,_4,M,0,_,_,__4M000__,N,0,201,201,32,,,0.973,898.388271600008,898.7291511999792,898.7455544000259,899.0289235999808,899.0456420999835,None,down,2.699348399997689,899.0456420999835,None,899.0456420999835,899.9940428999835,0.06937119999201968,None,,,,,,,,,10,001,2019_Dec_25_0903,untitled,3.1.0,60.17629247076064,
463,_5,M,270,R,N,463_5M270RN,HRN,0,202,202,182,,,0.865,901.8315118000028,902.1593330000178,902.1757004000247,902.4585977999959,902.4751336000045,None,down,2.1486366000026464,902.4751336000045,None,902.4751336000045,903.3247285999823,0.07729960000142455,None,,,,,,,,,10,001,2019_Dec_25_0903,untitled,3.1.0,60.17629247076064,
196,G,N,135,R,N,196GN135RN,HRN,0,203,203,227,,,1.025,904.6906024999917,905.0413876000093,905.0413876000093,905.3394081000006,905.3559450000175,None,up,2.531723399995826,905.3559450000175,None,905.3559450000175,906.3553245000076,0.06033659999957308,None,,,,,,,,,10,001,2019_Dec_25_0903,untitled,3.1.0,60.17629247076064,
_,_4,M,135,_,_,__4M135__,N,0,204,204,35,,,0.8200000000000001,907.9624116999912,908.3053193999804,908.3207827000297,908.6033798999852,908.6200389000005,None,down,2.7008330999524333,908.6200389000005,None,908.6200389000005,909.4195364000043,0.06771999999182299,None,,,,,,,,,10,001,2019_Dec_25_0903,untitled,3.1.0,60.17629247076064,
169,F,M,0,L,N,169FM000LN,HLN,0,205,205,120,,,1.037,911.4179347999743,911.7337181000039,911.7505725999945,912.0335147000151,912.0502335000201,None,down,2.351192800037097,912.0502335000201,None,912.0502335000201,913.0658821000252,0.08724349999101833,None,,,,,,,,,10,001,2019_Dec_25_0903,untitled,3.1.0,60.17629247076064,
389,_4,N,180,R,N,389_4N180RN,HRN,0,206,206,260,,,0.742,914.4691561000072,914.8148610999924,914.831880600017,915.1148733000155,915.1306814000127,None,up,2.050610000034794,915.1306814000127,None,915.1306814000127,915.8638245000038,0.06080390000715852,None,,,,,,,,,10,001,2019_Dec_25_0903,untitled,3.1.0,60.17629247076064,
455,_5,N,270,R,N,455_5N270RN,HRN,0,207,207,278,,,1.305,917.2489495999762,917.5957243000157,917.6121963000041,917.895323899982,917.9114551999955,None,up,2.550687899987679,917.9114551999955,None,917.9114551999955,919.1940219000098,0.060983599978499115,None,,,,,,,,,10,001,2019_Dec_25_0903,untitled,3.1.0,60.17629247076064,
_,_2,M,270,_,_,__2M270__,N,0,208,208,30,,,1.288,920.5370020000264,920.8759711000021,920.8926581999986,921.1754564000294,921.191790700017,None,down,2.582860700029414,921.191790700017,None,921.191790700017,922.4578968000133,0.06702220003353432,None,,,,,,,,,10,001,2019_Dec_25_0903,untitled,3.1.0,60.17629247076064,
138,F,M,45,R,N,138FM045RN,HRN,0,209,209,113,,,0.811,923.8435093000298,924.1897069999832,924.206617799995,924.4894911000156,924.505452500016,None,down,2.5505635000299662,924.505452500016,None,924.505452500016,925.3055330999778,0.06224389997078106,None,,,,,,,,,10,001,2019_Dec_25_0903,untitled,3.1.0,60.17629247076064,
_,_5,M,180,_,_,__5M180__,N,0,210,210,44,,,0.733,927.1239546000143,927.4705180000165,927.4871692999732,927.7704372000298,927.7872237000265,None,up,2.381081300030928,927.7872237000265,None,927.7872237000265,928.5022938000038,0.06114559998968616,None,,,,,,,,,10,001,2019_Dec_25_0903,untitled,3.1.0,60.17629247076064,
001,R,N,0,R,N,001RN000RN,HRN,0,211,211,192,,,0.798,930.2591374000185,930.5840228999732,930.6005864000181,930.8840276999981,930.9003181000007,None,up,2.3155982000171207,930.9003181000007,None,930.9003181000007,931.683171599987,0.08218040002975613,None,,,,,,,,,10,001,2019_Dec_25_0903,untitled,3.1.0,60.17629247076064,
165,F,N,180,L,N,165FN180LN,HLN,0,212,212,220,,,1.232,933.2845196999842,933.631841800001,933.6484927000129,933.9311557000037,933.9477693000226,None,up,2.831467200012412,933.9477693000226,None,933.9477693000226,935.1633886999916,0.06171500001801178,None,,,,,,,,,10,001,2019_Dec_25_0903,untitled,3.1.0,60.17629247076064,
_,G,N,135,_,_,_GN135__,N,0,213,213,59,,,1.057,936.8682847999735,937.1947759999894,937.2120564000215,937.4946452000295,937.5136196999811,None,None,,937.5136196999811,None,937.5136196999811,938.5436309999786,0.06145879998803139,None,,,,,,,,,10,001,2019_Dec_25_0903,untitled,3.1.0,60.17629247076064,
461,_5,M,180,R,N,461_5M180RN,HRN,0,214,214,180,,,1.385,941.0500698999967,941.3912292000023,941.4079351000255,941.6908665000228,941.7074484999757,941.0500698999967,None,,941.7074484999757,None,941.7074484999757,943.0727572999895,0.06810770003357902,None,,,,,,,,,10,001,2019_Dec_25_0903,untitled,3.1.0,60.17629247076064,
_,R,M,90,_,_,_RM090__,N,0,215,215,18,,,0.917,945.2386673000292,945.5880979999783,945.6049326999928,945.8883397000027,945.9039780999883,945.2386673000292,up,1.6665750999818556,945.9039780999883,None,945.9039780999883,946.8187340000295,0.06025879998924211,None,,,,,,,,,10,001,2019_Dec_25_0903,untitled,3.1.0,60.17629247076064,
034,R,N,45,L,N,034RN045LN,HLN,0,216,216,201,,,1.198,947.6393849999877,947.9857254999806,948.0023370999843,948.2857093000202,948.3022606000304,None,up,1.983202799980063,948.3022606000304,None,948.3022606000304,949.4844752000063,0.061955599987413734,None,,,,,,,,,10,001,2019_Dec_25_0903,untitled,3.1.0,60.17629247076064,
303,_2,M,270,L,N,303_2M270LN,HLN,0,217,217,158,,,0.882,950.3604786000215,950.7001455000136,950.7165212000255,950.9990667999955,951.0159427999752,None,down,1.7659691000008024,951.0159427999752,None,951.0159427999752,951.8820834999788,0.06813629996031523,None,,,,,,,,,10,001,2019_Dec_25_0903,untitled,3.1.0,60.17629247076064,
_,R,M,225,_,_,_RM225__,N,0,218,218,21,,,1.1440000000000001,952.8523421999998,953.1980569000007,953.2145408000215,953.4979006000212,953.5139184999862,None,up,2.465437699982431,953.5139184999862,None,953.5139184999862,954.6464295000187,0.062065000005532056,None,,,,,,,,,10,001,2019_Dec_25_0903,untitled,3.1.0,60.17629247076064,
173,F,M,180,L,N,173FM180LN,HLN,0,219,219,124,,,1.169,956.0486631999956,956.3952814000077,956.4118811999797,956.6951895999955,956.7115220000269,None,up,2.233991299988702,956.7115220000269,None,956.7115220000269,957.8602657000301,0.06276119995163754,None,,,,,,,,,10,001,2019_Dec_25_0903,untitled,3.1.0,60.17629247076064,
239,G,M,270,L,N,239GM270LN,HLN,0,220,220,142,,,0.963,959.0129794999957,959.3592979999958,959.3759838999831,959.6591479000053,959.6758723999956,None,down,2.43110849999357,959.6758723999956,None,959.6758723999956,960.62427879998,0.06087029998889193,None,,,,,,,,,10,001,2019_Dec_25_0903,untitled,3.1.0,60.17629247076064,
201,G,M,0,R,N,201GM000RN,HRN,0,221,221,128,,,0.73,962.190401299973,962.5228977000224,962.539706200012,962.823680499976,962.8401144000236,None,up,2.081540400045924,962.8401144000236,None,962.8401144000236,963.5551372999907,0.07538409996777773,None,,,,,,,,,10,001,2019_Dec_25_0903,untitled,3.1.0,60.17629247076064,
208,G,M,315,R,N,208GM315RN,HRN,0,222,222,135,,,1.341,964.9902900999878,965.3372888999875,965.3540071999887,965.6371559000108,965.6550595000153,None,down,3.3131079000304453,965.6550595000153,None,965.6550595000153,966.9691651000176,0.061752399953547865,None,,,,,,,,,10,001,2019_Dec_25_0903,untitled,3.1.0,60.17629247076064,
_,R,N,135,_,_,_RN135__,N,0,223,223,67,,,1.252,969.0505663999938,969.3837052999879,969.400887100026,969.6848001999897,969.699803000025,None,up,2.481546299997717,969.699803000025,None,969.699803000025,970.9336809000233,0.07342450000578538,None,,,,,,,,,10,001,2019_Dec_25_0903,untitled,3.1.0,60.17629247076064,
_,_5,N,45,_,_,__5N045__,N,0,224,224,89,,,1.034,972.2489280999871,972.5984279999975,972.6150456999894,972.8975422999938,972.9142183000222,None,up,2.114506200014148,972.9142183000222,None,972.9142183000222,973.9310741000227,0.060730100027285516,None,,,,,,,,,10,001,2019_Dec_25_0903,untitled,3.1.0,60.17629247076064,
_,_4,N,90,_,_,__4N090__,N,0,225,225,82,,,0.714,975.1029851000058,975.4449060999905,975.4613258999889,975.7447997999843,975.761978399998,None,down,2.416009299980942,975.761978399998,None,975.761978399998,976.4608398000128,0.06617409997852519,None,,,,,,,,,10,001,2019_Dec_25_0903,untitled,3.1.0,60.17629247076064,
_,G,N,45,_,_,_GN045__,N,0,226,226,57,,,1.399,978.2469645999954,978.5923775000265,978.6090619000024,978.8924429999897,978.9086986000184,None,up,2.4324701000005007,978.9086986000184,None,978.9086986000184,980.2905408000224,0.06230749998940155,None,,,,,,,,,10,001,2019_Dec_25_0903,untitled,3.1.0,60.17629247076064,
386,_4,N,45,R,N,386_4N045RN,HRN,0,227,227,257,,,1.1320000000000001,981.4437843000051,981.7561994999996,981.7728512000176,982.0561088999966,982.0723096000147,None,up,2.267357999982778,982.0723096000147,None,982.0723096000147,983.1884731000173,0.09414329996798187,None,,,,,,,,,10,001,2019_Dec_25_0903,untitled,3.1.0,60.17629247076064,
_,R,N,315,_,_,_RN315__,N,0,228,228,71,,,0.81,984.4066162999952,984.75349740003,984.770345100027,985.0529682000051,985.069613300031,None,up,1.865506500005722,985.069613300031,None,985.069613300031,985.8690358999884,0.059769999992568046,None,,,,,,,,,10,001,2019_Dec_25_0903,untitled,3.1.0,60.17629247076064,
228,G,N,135,L,N,228GN135LN,HLN,0,229,229,235,,,1.33,987.0044193000067,987.3528175000101,987.36768570001,987.6521657999838,987.6677958000218,None,down,2.2820874999742955,987.6677958000218,None,987.6677958000218,988.9838643000112,0.06261470000026748,None,,,,,,,,,10,001,2019_Dec_25_0903,untitled,3.1.0,60.17629247076064,
_,G,N,270,_,_,_GN270__,N,0,230,230,62,,,0.732,990.0368786000181,990.367306399974,990.3823805000284,990.666822500003,990.6822902000276,None,up,2.064541600004304,990.6822902000276,None,990.6822902000276,991.3973936000257,0.07997560000512749,None,,,,,,,,,10,001,2019_Dec_25_0903,untitled,3.1.0,60.17629247076064,
423,_4,N,270,L,N,423_4N270LN,HLN,0,231,231,270,,,1.124,992.8289942999836,993.1629906999879,993.1807877999963,993.4627071000286,993.4791848000023,None,down,2.316447400022298,993.4791848000023,None,993.4791848000023,994.5782845999929,0.07429690001299605,None,,,,,,,,,10,001,2019_Dec_25_0903,untitled,3.1.0,60.17629247076064,
226,G,N,45,L,N,226GN045LN,HLN,0,232,232,233,,,0.863,995.8687556000077,996.2104210000252,996.2268596999929,996.5109276000294,996.5283337000292,None,up,1.9634607999469154,996.5283337000292,None,996.5283337000292,997.3758987999754,0.06511049997061491,None,,,,,,,,,10,001,2019_Dec_25_0903,untitled,3.1.0,60.17629247076064,
233,G,M,0,L,N,233GM000LN,HLN,0,233,233,136,,,1.208,998.5617831000127,998.9083398000221,998.9243301000097,999.2080057000276,999.2241553000058,None,down,2.485239300003741,999.2241553000058,None,999.2241553000058,1000.4068778000074,0.06258249998791143,None,,,,,,,,,10,001,2019_Dec_25_0903,untitled,3.1.0,60.17629247076064,
_,F,M,45,_,_,_FM045__,N,0,234,234,1,,,0.788,1001.7834089000244,1002.1217007000232,1002.1384032000205,1002.4217202999862,1002.4380547999754,None,down,1.8673845999874175,1002.4380547999754,None,1002.4380547999754,1003.2038956999895,0.06685669999569654,None,,,,,,,,,10,001,2019_Dec_25_0903,untitled,3.1.0,60.17629247076064,
_,F,N,90,_,_,_FN090__,N,0,235,235,50,,,1.074,1004.3729760000133,1004.719352199987,1004.7360818000161,1005.0198394000181,1005.036369199981,None,up,2.1314558000303805,1005.036369199981,None,1005.036369199981,1006.0864034999977,0.05958599998848513,None,,,,,,,,,10,001,2019_Dec_25_0903,untitled,3.1.0,60.17629247076064,
_,_2,M,90,_,_,__2M090__,N,0,236,236,26,,,0.837,1007.2397543999832,1007.5834575999761,1007.6001180000021,1007.8830484999926,1007.8996577999787,None,down,2.54825210000854,1007.8996577999787,None,1007.8996577999787,1008.7162887000013,0.06453370000235736,None,,,,,,,,,10,001,2019_Dec_25_0903,untitled,3.1.0,60.17629247076064,
399,_4,M,270,R,N,399_4M270RN,HRN,0,237,237,166,,,1.067,1010.5212505999953,1010.8642528000055,1010.8810544000007,1011.1645063000033,1011.1802655999782,None,down,2.4506728000123985,1011.1802655999782,None,1011.1802655999782,1012.2682740000309,0.06623810000019148,None,,,,,,,,,10,001,2019_Dec_25_0903,untitled,3.1.0,60.17629247076064,
266,_2,M,45,R,N,266_2M045RN,HRN,0,238,238,145,,,0.777,1013.7047740999842,1014.044685699977,1014.0612601999892,1014.3442641000147,1014.3610115000047,None,down,2.015548099996522,1014.3610115000047,None,1014.3610115000047,1015.1270008999854,0.0671104000066407,None,,,,,,,,,10,001,2019_Dec_25_0903,untitled,3.1.0,60.17629247076064,
037,R,N,180,L,N,037RN180LN,HLN,0,239,239,204,,,0.925,1016.444116699975,1016.7924200000125,1016.8516415000195,1017.0923333999817,1017.1093088000198,None,down,2.031313900020905,1017.1093088000198,None,1017.1093088000198,1018.0075566999731,0.060771599994041026,None,,,,,,,,,10,001,2019_Dec_25_0903,untitled,3.1.0,60.17629247076064,
199,G,N,270,R,N,199GN270RN,HRN,0,240,240,230,,,0.843,1019.2076855999767,1019.5571436000173,1019.5734956000233,1019.8562908999738,1019.8726381000015,None,up,2.5836715000332333,1019.8726381000015,None,1019.8726381000015,1020.7057094000047,0.06012370000826195,None,,,,,,,,,10,001,2019_Dec_25_0903,untitled,3.1.0,60.17629247076064,
204,G,M,135,R,N,204GM135RN,HRN,0,241,241,131,,,1.325,1022.5256466999999,1022.8698542999919,1022.8877598000108,1023.1700942000025,1023.1866968999966,None,down,2.2478807999868877,1023.1866968999966,None,1023.1866968999966,1024.5018566999934,0.06171470001572743,None,,,,,,,,,10,001,2019_Dec_25_0903,untitled,3.1.0,60.17629247076064,
131,F,N,90,R,N,131FN090RN,HRN,0,242,242,210,,,1.2710000000000001,1025.501496199984,1025.8516452999902,1025.8686404000036,1026.1518128999742,1026.1675769999856,None,up,2.6682846999610774,1026.1675769999856,None,1026.1675769999856,1027.4359136000276,0.060235499986447394,None,,,,,,,,,10,001,2019_Dec_25_0903,untitled,3.1.0,60.17629247076064,
495,_5,M,270,L,N,495_5M270LN,HLN,0,243,243,190,,,1.051,1028.9060279999976,1029.2482270000037,1029.2650784000289,1029.5478324000142,1029.5642542000278,None,down,3.1008169000269845,1029.5642542000278,None,1029.5642542000278,1030.597168200009,0.06310609995853156,None,,,,,,,,,10,001,2019_Dec_25_0903,untitled,3.1.0,60.17629247076064,
194,G,N,45,R,N,194GN045RN,HRN,0,244,244,225,,,0.883,1032.739548099984,1033.0783272000263,1033.0950972000137,1033.3779094999772,1033.3944397000014,None,down,1.8346305000013672,1033.3944397000014,None,1033.3944397000014,1034.260625099996,0.06707900000037625,None,,,,,,,,,10,001,2019_Dec_25_0903,untitled,3.1.0,60.17629247076064,
014,R,M,225,R,N,014RM225RN,HRN,0,245,245,101,,,0.769,1035.297238499974,1035.6425901000039,1035.659107399988,1035.9425006000092,1035.9591415000032,None,up,1.6317608000244945,1035.9591415000032,None,1035.9591415000032,1036.709748400026,0.06168250000337139,None,,,,,,,,,10,001,2019_Dec_25_0903,untitled,3.1.0,60.17629247076064,
168,F,N,315,L,N,168FN315LN,HLN,0,246,246,223,,,1.287,1037.6681175000267,1038.0073062999872,1038.0261343999882,1038.3073140999768,1038.3240222000168,None,down,2.5476000999915414,1038.3240222000168,None,1038.3240222000168,1039.5888605000218,0.07085119996918365,None,,,,,,,,,10,001,2019_Dec_25_0903,untitled,3.1.0,60.17629247076064,
175,F,M,270,L,N,175FM270LN,HLN,0,247,247,126,,,1.093,1040.9554746000213,1041.2878728000214,1041.305819400004,1041.588408200012,1041.6041355999769,None,down,2.6673474999843165,1041.6041355999769,None,1041.6041355999769,1042.6864367999951,0.0755446000257507,None,,,,,,,,,10,001,2019_Dec_25_0903,untitled,3.1.0,60.17629247076064,
_,F,M,90,_,_,_FM090__,N,0,248,248,2,,,1.31,1044.3375061000115,1044.6851060999907,1044.7009166000062,1044.9843290999997,1045.0012245000107,None,down,2.5835151000064798,1045.0012245000107,None,1045.0012245000107,1046.2997831000248,0.05922540003666654,None,,,,,,,,,10,001,2019_Dec_25_0903,untitled,3.1.0,60.17629247076064,
_,_2,N,270,_,_,__2N270__,N,0,249,249,78,,,1.34,1047.6520897999872,1047.999177300022,1048.0150799999828,1048.2982168000308,1048.3148093000054,None,up,2.61553399998229,1048.3148093000054,None,1048.3148093000054,1049.6307337000035,0.058970000012777746,None,,,,,,,,,10,001,2019_Dec_25_0903,untitled,3.1.0,60.17629247076064,
_,_5,M,315,_,_,__5M315__,N,0,250,250,47,,,0.923,1051.0008677000296,1051.3455246000085,1051.3620891000028,1051.6453647000017,1051.6619952999754,None,down,2.6157242999761365,1051.6619952999754,None,1051.6619952999754,1052.5608892000164,0.06373759999405593,None,,,,,,,,,10,001,2019_Dec_25_0903,untitled,3.1.0,60.17629247076064,
428,_4,M,135,L,N,428_4M135LN,HLN,0,251,251,171,,,1.117,1054.3667400000268,1054.6926411999739,1054.7094563000137,1054.9923335000058,1055.0089271999896,None,down,2.831814499979373,1055.0089271999896,None,1055.0089271999896,1056.108145300008,0.07981699996162206,None,,,,,,,,,10,001,2019_Dec_25_0903,untitled,3.1.0,60.17629247076064,
_,_2,N,135,_,_,__2N135__,N,0,252,252,75,,,0.8290000000000001,1057.9221790999873,1058.2566232000245,1058.2731042000232,1058.5567336999811,1058.5732849999913,None,up,2.5498756999731995,1058.5732849999913,None,1058.5732849999913,1059.388204900024,0.07371009996859357,None,,,,,,,,,10,001,2019_Dec_25_0903,untitled,3.1.0,60.17629247076064,
230,G,N,225,L,N,230GN225LN,HLN,0,253,253,237,,,0.961,1061.1905574999982,1061.537270699977,1061.554875599977,1061.8364647999988,1061.8536305000307,None,up,2.16438139998354,1061.8536305000307,None,1061.8536305000307,1062.8022357000154,0.060722900030668825,None,,,,,,,,,10,001,2019_Dec_25_0903,untitled,3.1.0,60.17629247076064,
458,_5,M,45,R,N,458_5M045RN,HRN,0,254,254,177,,,1.344,1064.087451600004,1064.4342437000014,1064.4509202999761,1064.734469100018,1064.7503257999779,None,down,3.064864400017541,1064.7503257999779,None,1064.7503257999779,1066.0826267999946,0.06236520002130419,None,,,,,,,,,10,001,2019_Dec_25_0903,untitled,3.1.0,60.17629247076064,
_,R,N,225,_,_,_RN225__,N,0,255,255,69,,,0.93,1067.8885064999922,1068.2309211000102,1068.247642399976,1068.5302303999779,1068.546863400028,None,up,1.9993401999818161,1068.546863400028,None,1068.546863400028,1069.4636612000177,0.06647519994294271,None,,,,,,,,,10,001,2019_Dec_25_0903,untitled,3.1.0,60.17629247076064,
_,G,M,45,_,_,_GM045__,N,0,256,256,9,,,0.896,1070.629305600014,1070.9622379000066,1070.9784139000112,1071.2611197999795,1071.278082099976,None,down,2.4512192999827676,1071.278082099976,None,1071.278082099976,1072.16084159998,0.07423629995901138,None,,,,,,,,,10,001,2019_Dec_25_0903,untitled,3.1.0,60.17629247076064,
_,F,M,0,_,_,_FM000__,N,0,257,257,0,,,0.923,1073.799529800017,1074.1424363999977,1074.15898930002,1074.442194400006,1074.4586517999996,None,down,2.3167811999446712,1074.4586517999996,None,1074.4586517999996,1075.3580041999812,0.06313590001082048,None,,,,,,,,,10,001,2019_Dec_25_0903,untitled,3.1.0,60.17629247076064,
_,_4,N,0,_,_,__4N000__,N,0,258,258,80,,,0.781,1076.8637653000187,1077.1892934999778,1077.2064159000292,1077.489847299992,1077.5071418000152,None,up,2.0326118000084534,1077.5071418000152,None,1077.5071418000152,1078.272521900013,0.05932970001595095,None,,,,,,,,,10,001,2019_Dec_25_0903,untitled,3.1.0,60.17629247076064,
454,_5,N,225,R,N,454_5N225RN,HRN,0,259,259,277,,,1.328,1079.608706799976,1079.9539510000031,1079.9708914000075,1080.2537418000284,1080.2702920000302,None,up,3.131314199999906,1080.2702920000302,None,1080.2702920000302,1081.585688900028,0.062438299995847046,None,,,,,,,,,10,001,2019_Dec_25_0903,untitled,3.1.0,60.17629247076064,
427,_4,M,90,L,N,427_4M090LN,HLN,0,260,260,170,,,1.2710000000000001,1083.485981500009,1083.817196100019,1083.8336766000139,1084.1173981999746,1084.133682499989,None,None,,1084.133682499989,None,1084.133682499989,1085.383429199981,0.0769447999773547,None,,,,,,,,,10,001,2019_Dec_25_0903,untitled,3.1.0,60.17629247076064,
450,_5,N,45,R,N,450_5N045RN,HRN,0,261,261,273,,,1.2530000000000001,1087.664878199983,1088.0139060000074,1088.0304681999842,1088.3135293999803,1088.330618100008,1087.664878199983,up,2.7313529000384733,1088.330618100008,None,1088.330618100008,1089.5622042000177,0.06083139998372644,None,,,,,,,,,10,001,2019_Dec_25_0903,untitled,3.1.0,60.17629247076064,
197,G,N,180,R,N,197GN180RN,HRN,0,262,262,228,,,1.1460000000000001,1091.1556672999868,1091.4773314999766,1091.4937763999915,1091.7769657999743,1091.7934526000172,None,up,2.666745800001081,1091.7934526000172,None,1091.7934526000172,1092.9259573000018,0.08514959999592975,None,,,,,,,,,10,001,2019_Dec_25_0903,untitled,3.1.0,60.17629247076064,
_,_5,N,0,_,_,__5N000__,N,0,263,263,88,,,1.307,1094.527333099977,1094.8740088000195,1094.8911825999967,1095.1745991000207,1095.1909889000235,None,up,2.747711399977561,1095.1909889000235,None,1095.1909889000235,1096.4726943999995,0.0588823999860324,None,,,,,,,,,10,001,2019_Dec_25_0903,untitled,3.1.0,60.17629247076064,
260,_2,N,135,R,N,260_2N135RN,HRN,0,264,264,243,,,1.306,1098.0126959999907,1098.3547474999796,1098.3716666999971,1098.654174800031,1098.6708563999855,None,up,3.4147383000236005,1098.6708563999855,None,1098.6708563999855,1099.953144399973,0.06683429999975488,None,,,,,,,,,10,001,2019_Dec_25_0903,untitled,3.1.0,60.17629247076064,
429,_4,M,180,L,N,429_4M180LN,HLN,0,265,265,172,,,1.076,1102.1558444999973,1102.5010146999848,1102.5176702999743,1102.801190499973,1102.8182197000133,None,up,2.432487200014293,1102.8182197000133,None,1102.8182197000133,1103.8838840000099,0.06330869998782873,None,,,,,,,,,10,001,2019_Dec_25_0903,untitled,3.1.0,60.17629247076064,
486,_5,N,225,L,N,486_5N225LN,HLN,0,266,266,285,,,1.101,1105.3416355000227,1105.66489070002,1105.681616100017,1105.9649727999931,1105.9821568999905,None,up,2.3310368999955244,1105.9821568999905,None,1105.9821568999905,1107.0634424000164,0.07941770000616089,None,,,,,,,,,10,001,2019_Dec_25_0903,untitled,3.1.0,60.17629247076064,
_,_4,M,45,_,_,__4M045__,N,0,267,267,33,,,1.05,1108.3809334000107,1108.7292060999898,1108.7456209000084,1109.0298216000083,1109.0450605999795,None,down,2.633006399963051,1109.0450605999795,None,1109.0450605999795,1110.077996500011,0.060722899972461164,None,,,,,,,,,10,001,2019_Dec_25_0903,untitled,3.1.0,60.17629247076064,
_,_2,N,225,_,_,__2N225__,N,0,268,268,77,,,1.278,1111.7544600000256,1112.0928457999835,1112.1090478000115,1112.3923387000104,1112.408587599988,None,up,3.0664136999985203,1112.408587599988,None,1112.408587599988,1113.674504399998,0.06858759996248409,None,,,,,,,,,10,001,2019_Dec_25_0903,untitled,3.1.0,60.17629247076064,
491,_5,M,90,L,N,491_5M090LN,HLN,0,269,269,186,,,1.198,1115.5428153999965,1115.8896818999783,1115.9060717999819,1116.1889214999974,1116.205757800024,None,down,2.7156457999954,1116.205757800024,None,1116.205757800024,1117.388196200016,0.06068970001069829,None,,,,,,,,,10,001,2019_Dec_25_0903,untitled,3.1.0,60.17629247076064,
163,F,N,90,L,N,163FN090LN,HLN,0,270,270,218,,,1.113,1119.0006423000013,1119.3366224999772,1119.3536124000093,1119.6373060999904,1119.653066400031,None,up,2.5647826999775134,1119.653066400031,None,1119.653066400031,1120.7515041999868,0.0712478999630548,None,,,,,,,,,10,001,2019_Dec_25_0903,untitled,3.1.0,60.17629247076064,
430,_4,M,225,L,N,430_4M225LN,HLN,0,271,271,173,,,1.179,1122.299162900017,1122.6334997999948,1122.6502045000088,1122.9330380000174,1122.949632200005,None,up,3.1653110000188462,1122.949632200005,None,1122.949632200005,1124.1163126999745,0.07284159999107942,None,,,,,,,,,10,001,2019_Dec_25_0903,untitled,3.1.0,60.17629247076064,
046,R,M,225,L,N,046RM225LN,HLN,0,272,272,109,,,0.737,1126.189534300007,1126.5299139000126,1126.5462884000153,1126.8377139000222,1126.8377139000222,None,up,2.041382200026419,1126.8377139000222,None,1126.8377139000222,1127.5620685999747,0.06760330003453419,None,,,,,,,,,10,001,2019_Dec_25_0903,untitled,3.1.0,60.17629247076064,
432,_4,M,315,L,N,432_4M315LN,HLN,0,273,273,175,,,1.12,1128.963445100002,1129.294228099985,1129.310554100026,1129.5940585000208,1129.61073700001,None,None,,1129.61073700001,None,1129.61073700001,1130.7091982000275,0.07617060001939535,None,,,,,,,,,10,001,2019_Dec_25_0903,untitled,3.1.0,60.17629247076064,
301,_2,M,180,L,N,301_2M180LN,HLN,0,274,274,156,,,1.022,1133.1531334000174,1133.4903495999752,1133.5080045000068,1133.7913318999927,1133.8088712000172,1133.1531334000174,up,2.2153168999939226,1133.8088712000172,None,1133.8088712000172,1134.806259199977,0.07121869997354224,None,,,,,,,,,10,001,2019_Dec_25_0903,untitled,3.1.0,60.17629247076064,
_,R,M,0,_,_,_RM000__,N,0,275,275,16,,,1.024,1136.0921003000112,1136.4379643999855,1136.454877000011,1136.7378526999964,1136.7546414000099,None,down,2.481848999974318,1136.7546414000099,None,1136.7546414000099,1137.7703454000293,0.06105579994618893,None,,,,,,,,,10,001,2019_Dec_25_0903,untitled,3.1.0,60.17629247076064,
_,_2,M,0,_,_,__2M000__,N,0,276,276,24,,,1.103,1139.3091972999973,1139.6518667999771,1139.6693234000122,1139.9516766000306,1139.968401500024,None,up,2.617635899980087,1139.968401500024,None,1139.968401500024,1141.050905000011,0.06554410001263022,None,,,,,,,,,10,001,2019_Dec_25_0903,untitled,3.1.0,60.17629247076064,
240,G,M,315,L,N,240GM315LN,HLN,0,277,277,143,,,1.082,1142.6541502000182,1142.9991600000067,1143.0159841999994,1143.2987605999806,1143.3155530000222,None,up,2.7316843000007793,1143.3155530000222,None,1143.3155530000222,1144.3816459000227,0.06131039996398613,None,,,,,,,,,10,001,2019_Dec_25_0903,untitled,3.1.0,60.17629247076064,
236,G,M,135,L,N,236GM135LN,HLN,0,278,278,139,,,1.312,1146.1151326000108,1146.4621664999868,1146.4797778999782,1146.762670200027,1146.778940499993,None,None,,1146.778940499993,None,1146.778940499993,1148.0783760999911,0.06092760001774877,None,,,,,,,,,10,001,2019_Dec_25_0903,untitled,3.1.0,60.17629247076064,
294,_2,N,225,L,N,294_2N225LN,HLN,0,279,279,253,,,1.346,1150.3323341999785,1150.6589650000096,1150.675509200024,1150.9591348000104,1150.975829300005,1150.3323341999785,up,2.398577200016007,1150.975829300005,None,1150.975829300005,1152.307413499977,0.07989959995029494,None,,,,,,,,,10,001,2019_Dec_25_0903,untitled,3.1.0,60.17629247076064,
460,_5,M,135,R,N,460_5M135RN,HRN,0,280,280,179,,,1.307,1153.448446800001,1153.790273200022,1153.806292399997,1154.0898639999796,1154.1062184000039,None,up,2.514714799996,1154.1062184000039,None,1154.1062184000039,1155.38831379998,0.06721310003194958,None,,,,,,,,,10,001,2019_Dec_25_0903,untitled,3.1.0,60.17629247076064,
_,G,N,0,_,_,_GN000__,N,0,281,281,56,,,1.303,1156.6869999999763,1157.0371081000194,1157.0530471000238,1157.3368244000012,1157.3541978999856,None,up,2.447964899998624,1157.3541978999856,None,1157.3541978999856,1158.635915299994,0.05865709995850921,None,,,,,,,,,10,001,2019_Dec_25_0903,untitled,3.1.0,60.17629247076064,
490,_5,M,45,L,N,490_5M045LN,HLN,0,282,282,185,,,1.1300000000000001,1159.8834608999896,1160.2171766000101,1160.2335842999746,1160.5172816999839,1160.533782500017,None,down,3.1146787999896333,1160.533782500017,None,1160.533782500017,1161.6492488000076,0.07346089999191463,None,,,,,,,,,10,001,2019_Dec_25_0903,untitled,3.1.0,60.17629247076064,
140,F,M,135,R,N,140FM135RN,HRN,0,283,283,115,,,0.915,1163.726253699977,1164.064053900016,1164.0808391000028,1164.4046348999836,1164.4046348999836,None,up,2.1580980999860913,1164.4046348999836,None,1164.4046348999836,1165.2802222999744,0.07050349999917671,None,,,,,,,,,10,001,2019_Dec_25_0903,untitled,3.1.0,60.17629247076064,
137,F,M,0,R,N,137FM000RN,HRN,0,284,284,112,,,1.37,1166.6335757999914,1166.9788801000104,1166.995287000027,1167.2781385999988,1167.2955952999764,None,down,2.597041499975603,1167.2955952999764,None,1167.2955952999764,1168.643850499997,0.06386049999855459,None,,,,,,,,,10,001,2019_Dec_25_0903,untitled,3.1.0,60.17629247076064,
_,R,M,180,_,_,_RM180__,N,0,285,285,20,,,1.336,1169.9602825000184,1170.3084155999823,1170.325209499977,1170.6076182000106,1170.6243241999764,None,None,,1170.6243241999764,None,1170.6243241999764,1171.9404092999757,0.06076379999285564,None,,,,,,,,,10,001,2019_Dec_25_0903,untitled,3.1.0,60.17629247076064,
_,_5,N,90,_,_,__5N090__,N,0,286,286,90,,,0.934,1174.165332500008,1174.506174899987,1174.5230116000166,1174.8046239999821,1174.8210792000173,1174.165332500008,up,2.5150802000425756,1174.8210792000173,None,1174.8210792000173,1175.7366785000195,0.06923719996120781,None,,,,,,,,,10,001,2019_Dec_25_0903,untitled,3.1.0,60.17629247076064,
424,_4,N,315,L,N,424_4N315LN,HLN,0,287,287,271,,,0.872,1177.4043642000179,1177.7518806000007,1177.7688520000083,1178.0518645999837,1178.0688199999859,None,down,2.6810125000192784,1178.0688199999859,None,1178.0688199999859,1178.9179592999863,0.06017080001765862,None,,,,,,,,,10,001,2019_Dec_25_0903,untitled,3.1.0,60.17629247076064,
,,,,,,,,,,,,,,,,,,,,,,,,,,,,,1180.7662706000265,None,1186.2779703999986,None,1189.2108138999902,None,1193.8719512000098,None,,,,,,,
