Number,Letter,type,Orientation,human,face_type,image,picture,trials.thisRepN,trials.thisTrialN,trials.thisN,trials.thisIndex,text.started,text.stopped,stimulus_duration,CROSS.started,CROSS.stopped,BLANK.started,BLANK.stopped,TEST.started,TEST.stopped,key_JUDGE.keys,key_JUDGE.started,key_JUDGE.stopped,image_2.started,image_2.stopped,ISI.started,ISI.stopped,key_JUDGE.rt,q1.started,q1.stopped,q2.started,q2.stopped,q3.started,q3.stopped,text_2.started,text_2.stopped,participant,session,date,expName,psychopyVersion,frameRate,
237,G,M,180,L,N,237GM180LN,HLN,0,0,0,140,497.62169130000984,None,1.188,535.2010263000266,535.5389465999906,535.5559537999798,535.8386824000045,535.8555942000239,None,None,535.8555942000239,None,535.8555942000239,537.0209106000257,0.06671610003104433,None,,,,,,,,,,11,001,2019_Dec_25_0928,untitled,3.1.0,60.02952252034714,
_,_2,N,225,_,_,__2N225__,N,0,1,1,77,,,1.046,539.4196646999917,539.7688330999808,539.78551289998,540.068475099979,540.085299599974,539.4196646999917,None,540.085299599974,None,540.085299599974,541.1174663000274,0.059540800051763654,None,,,,,,,,,,11,001,2019_Dec_25_0928,untitled,3.1.0,60.02952252034714,
451,_5,N,90,R,N,451_5N090RN,HRN,0,2,2,274,,,0.768,543.6163427999709,543.9653763999813,543.9819958999869,544.2651366000064,544.2819018000155,543.6163427999709,down,544.2819018000155,None,544.2819018000155,545.0306208999828,0.060466599999926984,None,2.7021371999871917,,,,,,,,,11,001,2019_Dec_25_0928,untitled,3.1.0,60.02952252034714,
201,G,M,0,R,N,201GM000RN,HRN,0,3,3,128,,,1.068,547.0754346000031,547.3955146999797,547.4121556999744,547.6957756999764,547.7120245000115,None,down,547.7120245000115,None,547.7120245000115,548.7610153999995,0.08018579997587949,None,2.847883800044656,,,,,,,,,11,001,2019_Dec_25_0928,untitled,3.1.0,60.02952252034714,
161,F,N,0,L,N,161FN000LN,HLN,0,4,4,216,,,1.122,550.6264755000011,550.9757356999908,550.9923776999931,551.2755816000281,551.2917158000055,None,None,551.2917158000055,None,551.2917158000055,552.3925823000027,0.05904920003376901,None,,,,,,,,,,11,001,2019_Dec_25_0928,untitled,3.1.0,60.02952252034714,
_,_5,M,45,_,_,__5M045__,N,0,5,5,41,,,1.188,554.8225590999937,555.171866299992,555.188647300005,555.4719656999805,555.4883545999764,554.8225590999937,down,555.4883545999764,None,555.4883545999764,556.6541961000185,0.05868630000622943,None,3.398537600005511,,,,,,,,,11,001,2019_Dec_25_0928,untitled,3.1.0,60.02952252034714,
001,R,N,0,R,N,001RN000RN,HRN,0,6,6,192,,,0.75,558.9585871999734,559.3015570999705,559.3178940999787,559.6012955000042,559.6183510000119,None,up,559.6183510000119,None,559.6183510000119,560.3509533000179,0.06499099999200553,None,1.817365900031291,,,,,,,,,11,001,2019_Dec_25_0928,untitled,3.1.0,60.02952252034714,
292,_2,N,135,L,N,292_2N135LN,HLN,0,7,7,251,,,1.213,561.5042641999898,561.8496739999973,561.8663889999734,562.1499896000023,562.1662890000152,None,down,562.1662890000152,None,562.1662890000152,563.3648440000252,0.06170239998027682,None,2.1652899000328034,,,,,,,,,11,001,2019_Dec_25_0928,untitled,3.1.0,60.02952252034714,
271,_2,M,270,R,N,271_2M270RN,HRN,0,8,8,150,,,1.177,564.4303835000028,564.7465974999941,564.7639513000031,565.0463855999988,565.0640412999783,None,None,565.0640412999783,None,565.0640412999783,566.2288860999979,0.08950709999771789,None,,,,,,,,,,11,001,2019_Dec_25_0928,untitled,3.1.0,60.02952252034714,
131,F,N,90,R,N,131FN090RN,HRN,0,9,9,210,,,1.391,568.5967806000262,568.9433866000036,568.959987899987,569.243401499989,569.2617540999781,568.5967806000262,up,569.2617540999781,None,569.2617540999781,570.6247086999938,0.06034540000837296,None,2.480801999976393,,,,,,,,,11,001,2019_Dec_25_0928,untitled,3.1.0,60.02952252034714,
291,_2,N,90,L,N,291_2N090LN,HLN,0,10,10,250,,,0.838,571.8145849999855,572.1573287000065,572.1738309999928,572.4570882000262,572.4739778999938,None,up,572.4739778999938,None,572.4739778999938,573.2895902000018,0.0648710000095889,None,2.414822099963203,,,,,,,,,11,001,2019_Dec_25_0928,untitled,3.1.0,60.02952252034714,
144,F,M,315,R,N,144FM315RN,HRN,0,11,11,119,,,1.033,574.9597257000278,575.3042015000246,575.3208035000134,575.6038241999922,575.6208684999729,None,down,575.6208684999729,None,575.6208684999729,576.6368927999865,0.06364410003880039,None,2.24867160001304,,,,,,,,,11,001,2019_Dec_25_0928,untitled,3.1.0,60.02952252034714,
_,G,N,180,_,_,_GN180__,N,0,12,12,60,,,1.1500000000000001,577.9396591000259,578.2848289000103,578.301730200008,578.5847500999807,578.6013591000228,None,up,578.6013591000228,None,578.6013591000228,579.7345939999796,0.06347779999487102,None,3.034706800011918,,,,,,,,,11,001,2019_Dec_25_0928,untitled,3.1.0,60.02952252034714,
011,R,M,90,R,N,011RM090RN,HRN,0,13,13,98,,,0.8200000000000001,581.7044435999705,582.0487078999868,582.0656008999795,582.3483015000238,582.364705200016,None,down,582.364705200016,None,582.364705200016,583.164589299995,0.061826799996197224,None,2.3020910000195727,,,,,,,,,11,001,2019_Dec_25_0928,untitled,3.1.0,60.02952252034714,
420,_4,N,135,L,N,420_4N135LN,HLN,0,14,14,267,,,1.028,584.7358578999992,585.0792356000165,585.0962875999976,585.3790468000225,585.3957912999904,None,up,585.3957912999904,None,585.3957912999904,586.411276000028,0.062367299979086965,None,2.264862899959553,,,,,,,,,11,001,2019_Dec_25_0928,untitled,3.1.0,60.02952252034714,
_,_5,N,225,_,_,__5N225__,N,0,15,15,93,,,0.757,587.7289958000183,588.0771043000277,588.095080900006,588.3764979999978,588.3930211000261,None,down,588.3930211000261,None,588.3930211000261,589.1257560999948,0.06033090001437813,None,1.866861600021366,,,,,,,,,11,001,2019_Dec_25_0928,untitled,3.1.0,60.02952252034714,
_,R,N,315,_,_,_RN315__,N,0,16,16,71,,,0.988,590.3329452999751,590.6745059000095,590.6916583999991,590.9741769999964,590.9909454999724,None,up,590.9909454999724,None,590.9909454999724,591.9572905999958,0.06532679998781532,None,2.6812052999739535,,,,,,,,,11,001,2019_Dec_25_0928,untitled,3.1.0,60.02952252034714,
496,_5,M,315,L,N,496_5M315LN,HLN,0,17,17,191,,,1.04,593.7467706999741,594.0878939999966,594.105932299979,594.3891200000071,594.4046248000232,None,None,594.4046248000232,None,594.4046248000232,595.4215374999912,0.06786030001239851,None,,,,,,,,,,11,001,2019_Dec_25_0928,untitled,3.1.0,60.02952252034714,
_,G,M,315,_,_,_GM315__,N,0,18,18,15,,,0.7010000000000001,597.9367100999807,598.2843859000131,598.3011622999911,598.5847518999944,598.6008855000255,597.9367100999807,down,598.6008855000255,None,598.6008855000255,599.2836467999732,0.059749300009571016,None,1.9827152999932878,,,,,,,,,11,001,2019_Dec_25_0928,untitled,3.1.0,60.02952252034714,
399,_4,M,270,R,N,399_4M270RN,HRN,0,19,19,166,,,0.991,600.6585714999819,600.9984158999869,601.0161692000111,601.2985045000096,601.3151116999798,None,down,601.3151116999798,None,601.3151116999798,602.2810236000223,0.06773640000028536,None,2.048661999986507,,,,,,,,,11,001,2019_Dec_25_0928,untitled,3.1.0,60.02952252034714,
_,_4,M,180,_,_,__4M180__,N,0,20,20,36,,,1.3,603.4315191999776,603.7800341999973,603.7980539000127,604.0794154999894,604.0957081000088,None,up,604.0957081000088,None,604.0957081000088,605.3781427000067,0.06095960002858192,None,2.964824199967552,,,,,,,,,11,001,2019_Dec_25_0928,untitled,3.1.0,60.02952252034714,
488,_5,N,315,L,N,488_5N315LN,HLN,0,21,21,287,,,1.1360000000000001,607.1297026000102,607.4766940000118,607.4935927999904,607.7769471000065,607.7959474999807,None,down,607.7959474999807,None,607.7959474999807,608.9083865000284,0.06200470001203939,None,2.1121318000368774,,,,,,,,,11,001,2019_Dec_25_0928,untitled,3.1.0,60.02952252034714,
014,R,M,225,R,N,014RM225RN,HRN,0,22,22,101,,,1.139,609.980728399998,610.3247533999966,610.340864799975,610.6239606000017,610.6423023000243,None,None,610.6423023000243,None,610.6423023000243,611.7560458999942,0.0652983000036329,None,,,,,,,,,,11,001,2019_Dec_25_0928,untitled,3.1.0,60.02952252034714,
_,_4,N,225,_,_,__4N225__,N,0,23,23,85,,,1.347,614.1943442000193,614.5205082999892,614.5372336999862,614.8198833999922,614.8365499000065,614.1943442000193,None,614.8365499000065,None,614.8365499000065,616.16902999999,0.08267050003632903,None,,,,,,,,,,11,001,2019_Dec_25_0928,untitled,3.1.0,60.02952252034714,
_,R,M,45,_,_,_RM045__,N,0,24,24,17,,,0.779,618.3761663999758,618.7174323999789,618.7331937000272,619.0164277000003,619.0338479999918,618.3761663999758,up,619.0338479999918,None,619.0338479999918,619.7990453999955,0.06878470000810921,None,3.214817599975504,,,,,,,,,11,001,2019_Dec_25_0928,untitled,3.1.0,60.02952252034714,
010,R,M,45,R,N,010RM045RN,HRN,0,25,25,97,,,0.736,622.3162685999996,622.663071100018,622.679718600004,622.9629982999759,622.9794037999818,None,None,622.9794037999818,None,622.9794037999818,623.6952910000109,0.06099430000176653,None,,,,,,,,,,11,001,2019_Dec_25_0928,untitled,3.1.0,60.02952252034714,
_,_4,N,180,_,_,__4N180__,N,0,26,26,84,,,1.217,626.5140081000281,626.8598099999945,626.8763980999938,627.1597022999777,627.176306599984,626.5140081000281,up,627.176306599984,None,627.176306599984,628.3748590999749,0.06154630001401529,None,3.196856399998069,,,,,,,,,11,001,2019_Dec_25_0928,untitled,3.1.0,60.02952252034714,
_,_4,N,315,_,_,__4N315__,N,0,27,27,87,,,0.8140000000000001,630.4408371999743,630.789929200022,630.8061457999866,631.0897003000136,631.1055282999878,None,up,631.1055282999878,None,631.1055282999878,631.9046031999751,0.0601096999598667,None,1.9509653999703005,,,,,,,,,11,001,2019_Dec_25_0928,untitled,3.1.0,60.02952252034714,
139,F,M,90,R,N,139FM090RN,HRN,0,28,28,114,,,0.731,633.1232801000006,633.4707809999818,633.4868734999909,633.7701295000152,633.7868868000223,None,down,633.7868868000223,None,633.7868868000223,634.502805199998,0.06041949999053031,None,2.8992678999784403,,,,,,,,,11,001,2019_Dec_25_0928,untitled,3.1.0,60.02952252034714,
397,_4,M,180,R,N,397_4M180RN,HRN,0,29,29,164,,,1.078,636.7566171999788,637.1010778999771,637.1172766999807,637.4008448999957,637.4183412999846,None,up,637.4183412999846,None,637.4183412999846,638.4829951000283,0.06355810002423823,None,2.814188699994702,,,,,,,,,11,001,2019_Dec_25_0928,untitled,3.1.0,60.02952252034714,
422,_4,N,225,L,N,422_4N225LN,HLN,0,30,30,269,,,1.341,640.3007487999857,640.6477290000184,640.6648268999998,640.9476171999704,640.9642653000192,None,up,640.9642653000192,None,640.9642653000192,642.279646800016,0.06143919995520264,None,3.01543790003052,,,,,,,,,11,001,2019_Dec_25_0928,untitled,3.1.0,60.02952252034714,
492,_5,M,135,L,N,492_5M135LN,HLN,0,31,31,187,,,1.4000000000000001,644.0475752999773,644.3941433000145,644.4111777999788,644.6944511000183,644.7109689000063,None,None,644.7109689000063,None,644.7109689000063,646.093070700008,0.0612402000115253,None,,,,,,,,,,11,001,2019_Dec_25_0928,untitled,3.1.0,60.02952252034714,
487,_5,N,270,L,N,487_5N270LN,HLN,0,32,32,286,,,0.743,648.2426717000199,648.5906533999951,648.5906533999951,648.8900653999881,648.9065906999749,648.2426717000199,down,648.9065906999749,None,648.9065906999749,649.6235194000183,0.061313999991398305,None,2.015447599987965,,,,,,,,,11,001,2019_Dec_25_0928,untitled,3.1.0,60.02952252034714,
_,F,N,135,_,_,_FN135__,N,0,33,33,51,,,1.206,650.9896415999974,651.3382111000246,651.354770099977,651.6394507000223,651.654738400015,None,up,651.654738400015,None,651.654738400015,652.8369586999761,0.060745100025087595,None,2.8482013000175357,,,,,,,,,11,001,2019_Dec_25_0928,untitled,3.1.0,60.02952252034714,
163,F,N,90,L,N,163FN090LN,HLN,0,34,34,218,,,1.34,654.572318200022,654.9192824999918,654.9352486999705,655.218221099989,655.2347359000123,None,up,655.2347359000123,None,655.2347359000123,656.5502466000034,0.06179070001235232,None,1.9834459999692626,,,,,,,,,11,001,2019_Dec_25_0928,untitled,3.1.0,60.02952252034714,
_,G,M,90,_,_,_GM090__,N,0,35,35,10,,,0.714,657.2908507999964,657.6330162999802,657.6496458000038,657.9329782000277,657.9490778999752,None,down,657.9490778999752,None,657.9490778999752,658.6485843000119,0.0662360999849625,None,1.915758699993603,,,,,,,,,11,001,2019_Dec_25_0928,untitled,3.1.0,60.02952252034714,
431,_4,M,270,L,N,431_4M270LN,HLN,0,36,36,174,,,1.242,659.9325554000097,660.2808535000077,660.2975009999936,660.5800567999831,660.5967485000147,None,down,660.5967485000147,None,660.5967485000147,661.8125395000097,0.06065940001280978,None,3.314729899982922,,,,,,,,,11,001,2019_Dec_25_0928,untitled,3.1.0,60.02952252034714,
_,G,N,315,_,_,_GN315__,N,0,37,37,63,,,1.0030000000000001,663.9792079000035,664.3264121999964,664.3445770000108,664.6267029999872,664.6446965999785,None,None,664.6446965999785,None,664.6446965999785,665.6257965000113,0.06102470000041649,None,,,,,,,,,,11,001,2019_Dec_25_0928,untitled,3.1.0,60.02952252034714,
240,G,M,315,L,N,240GM315LN,HLN,0,38,38,143,,,0.84,668.192269399995,668.5236306000152,668.5401656000176,668.824521499977,668.8402686999761,668.192269399995,up,668.8402686999761,None,668.8402686999761,669.6553416000097,0.07716379995690659,None,2.282433599990327,,,,,,,,,11,001,2019_Dec_25_0928,untitled,3.1.0,60.02952252034714,
_,_4,N,90,_,_,__4N090__,N,0,39,39,82,,,0.741,671.196495399985,671.5379512999789,671.5539742999827,671.8374071000144,671.8539956000168,None,None,671.8539956000168,None,671.8539956000168,672.5696316999965,0.06731660000514239,None,,,,,,,,,,11,001,2019_Dec_25_0928,untitled,3.1.0,60.02952252034714,
_,_2,N,0,_,_,__2N000__,N,0,40,40,72,,,1.395,675.3847181000165,675.7337403999991,675.7505042999983,676.033245700004,676.049819900014,675.3847181000165,up,676.049819900014,None,676.049819900014,677.4324841999914,0.06089939997764304,None,2.680990799970459,,,,,,,,,11,001,2019_Dec_25_0928,untitled,3.1.0,60.02952252034714,
304,_2,M,315,L,N,304_2M315LN,HLN,0,41,41,159,,,1.231,678.8048816000228,679.1472290999955,679.1645127999946,679.4467644999968,679.4632626000093,None,down,679.4632626000093,None,679.4632626000093,680.6787784000044,0.0673201999743469,None,2.9159003000240773,,,,,,,,,11,001,2019_Dec_25_0928,untitled,3.1.0,60.02952252034714,
_,_4,M,135,_,_,__4M135__,N,0,42,42,35,,,1.301,682.4709569999832,682.7949818000197,682.8109369999729,683.0941667999723,683.1105821999954,None,down,683.1105821999954,None,683.1105821999954,684.3927971000085,0.08221080002840608,None,2.8148637999547645,,,,,,,,,11,001,2019_Dec_25_0928,untitled,3.1.0,60.02952252034714,
456,_5,N,315,R,N,456_5N315RN,HRN,0,43,43,279,,,0.747,685.9963067999925,686.3425515000126,686.3579504999798,686.6410235000076,686.6577071999782,None,down,686.6577071999782,None,686.6577071999782,687.3910345999757,0.06405889999587089,None,2.1818278999999166,,,,,,,,,11,001,2019_Dec_25_0928,untitled,3.1.0,60.02952252034714,
167,F,N,270,L,N,167FN270LN,HLN,0,44,44,222,,,0.866,688.9078556000022,689.2557849999866,689.2722451000009,689.5553164000157,689.5722981999861,None,down,689.5722981999861,None,689.5722981999861,690.4214826999814,0.06142169999657199,None,2.9474300000001676,,,,,,,,,11,001,2019_Dec_25_0928,untitled,3.1.0,60.02952252034714,
165,F,N,180,L,N,165FN180LN,HLN,0,45,45,220,,,0.723,692.607306800026,692.9350937000127,692.9533782000071,693.2352052999777,693.2520066999714,None,up,693.2520066999714,None,693.2520066999714,693.9510102000204,0.07774179999250919,None,2.581504000001587,,,,,,,,,11,001,2019_Dec_25_0928,untitled,3.1.0,60.02952252034714,
_,G,N,0,_,_,_GN000__,N,0,46,46,56,,,0.732,695.9028719000053,696.2498210999765,696.2658839999931,696.5491948000272,696.5660610999912,None,up,696.5660610999912,None,696.5660610999912,697.2817571000196,0.061832299979869276,None,2.947016399994027,,,,,,,,,11,001,2019_Dec_25_0928,untitled,3.1.0,60.02952252034714,
_,_4,M,90,_,_,__4M090__,N,0,47,47,34,,,1.262,699.6095728999935,699.9290584999835,699.9459299999871,700.2292787000188,700.2462678999873,None,down,700.2462678999873,None,700.2462678999873,701.4942199999932,0.08942309999838471,None,2.348285699961707,,,,,,,,,11,001,2019_Dec_25_0928,untitled,3.1.0,60.02952252034714,
481,_5,N,0,L,N,481_5N000LN,HLN,0,48,48,280,,,1.159,702.6640958000207,703.0099346999777,703.0266111000092,703.3107997999759,703.3262037999812,None,None,703.3262037999812,None,703.3262037999812,704.4755050999811,0.06271080003352836,None,,,,,,,,,,11,001,2019_Dec_25_0928,untitled,3.1.0,60.02952252034714,
272,_2,M,315,R,N,272_2M315RN,HRN,0,49,49,151,,,0.886,706.8575511000236,707.2062641999801,707.2229370999848,707.5060013000038,707.5225547999726,706.8575511000236,None,707.5225547999726,None,707.5225547999726,708.3888971999986,0.06013329996494576,None,,,,,,,,,,11,001,2019_Dec_25_0928,untitled,3.1.0,60.02952252034714,
_,_5,N,90,_,_,__5N090__,N,0,50,50,90,,,1.196,711.0559177999967,711.4027456999756,711.4194539000164,711.7023793000262,711.718898400024,711.0559177999967,up,711.718898400024,None,711.718898400024,712.9011561999796,0.061633799981791526,None,2.581064099969808,,,,,,,,,11,001,2019_Dec_25_0928,untitled,3.1.0,60.02952252034714,
228,G,N,135,L,N,228GN135LN,HLN,0,51,51,235,,,1.067,714.368586800003,714.716823499999,714.7330099000246,715.0161533000064,715.0324811000028,None,None,715.0324811000028,None,715.0324811000028,716.0816164999851,0.06185580004239455,None,,,,,,,,,,11,001,2019_Dec_25_0928,untitled,3.1.0,60.02952252034714,
301,_2,M,180,L,N,301_2M180LN,HLN,0,52,52,156,,,0.906,718.5698127999785,718.912708799995,718.929643600015,719.2129467999912,719.2292028000229,718.5698127999785,None,719.2292028000229,None,719.2292028000229,720.1114796000184,0.06701880000764504,None,,,,,,,,,,11,001,2019_Dec_25_0928,untitled,3.1.0,60.02952252034714,
458,_5,M,45,R,N,458_5M045RN,HRN,0,53,53,177,,,1.2650000000000001,722.7818305999972,723.1089291999815,723.1258054000209,723.4087222000235,723.4255359999952,722.7818305999972,up,723.4255359999952,None,723.4255359999952,724.6743820999982,0.08082010003272444,None,2.76457489997847,,,,,,,,,11,001,2019_Dec_25_0928,untitled,3.1.0,60.02952252034714,
166,F,N,225,L,N,166FN225LN,HLN,0,54,54,221,,,0.73,726.2640662000049,726.6065901999827,726.6229053999996,726.9067362999776,726.9220218000119,None,up,726.9220218000119,None,726.9220218000119,727.6400332999765,0.06677869998384267,None,1.749665500014089,,,,,,,,,11,001,2019_Dec_25_0928,untitled,3.1.0,60.02952252034714,
233,G,M,0,L,N,233GM000LN,HLN,0,55,55,136,,,1.218,728.7410134000238,729.0870757999946,729.1044588999939,729.3873095000163,729.404377800005,None,down,729.404377800005,None,729.404377800005,730.6025670000236,0.062115600041579455,None,2.682547500007786,,,,,,,,,11,001,2019_Dec_25_0928,untitled,3.1.0,60.02952252034714,
_,F,M,315,_,_,_FM315__,N,0,56,56,7,,,1.012,732.1555079999962,732.5008926999872,732.5187057000003,732.8005678000045,732.8176267999806,None,up,732.8176267999806,None,732.8176267999806,733.8163168000174,0.06178260000888258,None,2.55221779999556,,,,,,,,,11,001,2019_Dec_25_0928,untitled,3.1.0,60.02952252034714,
294,_2,N,225,L,N,294_2N225LN,HLN,0,57,57,253,,,0.894,735.4546629000106,735.7817310999963,735.798381200002,736.0810176000232,736.0976833999739,None,up,736.0976833999739,None,736.0976833999739,736.9804912999971,0.07558200001949444,None,2.249363299983088,,,,,,,,,11,001,2019_Dec_25_0928,untitled,3.1.0,60.02952252034714,
295,_2,N,270,L,N,295_2N270LN,HLN,0,58,58,254,,,1.087,738.4169517999981,738.7622799000237,738.7788372000214,739.0621839999803,739.0786899999948,None,up,739.0786899999948,None,739.0786899999948,740.144180400006,0.06277670001145452,None,2.2980416000355035,,,,,,,,,11,001,2019_Dec_25_0928,untitled,3.1.0,60.02952252034714,
_,_2,N,270,_,_,__2N270__,N,0,59,59,78,,,1.352,741.4440925000235,741.7937024999992,741.8093389999704,742.0932121999795,742.1090038000257,None,up,742.1090038000257,None,742.1090038000257,743.4419983000262,0.06033690000185743,None,2.2822998000192456,,,,,,,,,11,001,2019_Dec_25_0928,untitled,3.1.0,60.02952252034714,
041,R,M,0,L,N,041RM000LN,HLN,0,60,60,104,,,1.09,744.4597548000165,744.8068557999795,744.8239489999833,745.1064542999957,745.1255104999873,None,down,745.1255104999873,None,745.1255104999873,746.188425100001,0.06173869996564463,None,2.2638549000257626,,,,,,,,,11,001,2019_Dec_25_0928,untitled,3.1.0,60.02952252034714,
_,_2,M,0,_,_,__2M000__,N,0,61,61,24,,,0.801,747.4556944000069,747.8046658000094,747.8212012000149,748.1051245999988,748.1208592000185,None,down,748.1208592000185,None,748.1208592000185,748.9030035000178,0.05930990003980696,None,2.7495354000129737,,,,,,,,,11,001,2019_Dec_25_0928,untitled,3.1.0,60.02952252034714,
008,R,N,315,R,N,008RN315RN,HRN,0,62,62,199,,,1.222,750.9398185000173,751.2844337000279,751.300984499976,751.584583799995,751.6016355999745,None,down,751.6016355999745,None,751.6016355999745,752.8000215999782,0.06272399995941669,None,2.0337053000112064,,,,,,,,,11,001,2019_Dec_25_0928,untitled,3.1.0,60.02952252034714,
257,_2,N,0,R,N,257_2N000RN,HRN,0,63,63,240,,,0.864,753.7043162999908,754.0490082000033,754.0654998000246,754.348736600019,754.365446300013,None,down,754.365446300013,None,754.365446300013,755.2153290999704,0.062275499978568405,None,2.416452100034803,,,,,,,,,11,001,2019_Dec_25_0928,untitled,3.1.0,60.02952252034714,
_,F,N,315,_,_,_FN315__,N,0,64,64,55,,,0.764,756.8483435999951,757.1960874000215,757.2135717999772,757.4957124000066,757.5120313999942,None,None,757.5120313999942,None,757.5120313999942,758.2612894999911,0.05960809998214245,None,,,,,,,,,,11,001,2019_Dec_25_0928,untitled,3.1.0,60.02952252034714,
_,R,M,90,_,_,_RM090__,N,0,65,65,18,,,1.124,761.0447984000202,761.3925574999885,761.4089932999923,761.692303000018,761.7087680000113,761.0447984000202,up,761.7087680000113,None,761.7087680000113,762.8075986999902,0.060679799993522465,None,3.3161101000150666,,,,,,,,,11,001,2019_Dec_25_0928,untitled,3.1.0,60.02952252034714,
269,_2,M,180,R,N,269_2M180RN,HRN,0,66,66,148,,,0.88,765.1024707999895,765.4392302000197,765.455524799996,765.7386045000167,765.7559716000105,None,down,765.7559716000105,None,765.7559716000105,766.6210407000035,0.07053839997388422,None,2.9139353000209667,,,,,,,,,11,001,2019_Dec_25_0928,untitled,3.1.0,60.02952252034714,
386,_4,N,45,R,N,386_4N045RN,HRN,0,67,67,257,,,1.071,768.7400416000164,769.0858427999774,769.1041893999791,769.3856569000054,769.4026523000211,None,up,769.4026523000211,None,769.4026523000211,770.4509962999728,0.06308950000675395,None,1.8650033999583684,,,,,,,,,11,001,2019_Dec_25_0928,untitled,3.1.0,60.02952252034714,
296,_2,N,315,L,N,296_2N315LN,HLN,0,68,68,255,,,1.2790000000000001,771.3531784000224,771.6839552000165,771.7003099999856,771.9830769000109,771.9994164999807,None,up,771.9994164999807,None,771.9994164999807,773.265174900007,0.07871470000827685,None,2.2654054000158794,,,,,,,,,11,001,2019_Dec_25_0928,untitled,3.1.0,60.02952252034714,
457,_5,M,0,R,N,457_5M000RN,HRN,0,69,69,176,,,1.179,774.3339727999992,774.6810681999777,774.6974199999822,774.9804925000062,774.9973065999802,None,down,774.9973065999802,None,774.9973065999802,776.162865100021,0.06255360000068322,None,2.017748299986124,,,,,,,,,11,001,2019_Dec_25_0928,untitled,3.1.0,60.02952252034714,
461,_5,M,180,R,N,461_5M180RN,HRN,0,70,70,180,,,1.08,777.0820509999758,777.4284470999846,777.4451884999871,777.7283567999839,777.7448162999935,None,up,777.7448162999935,None,777.7448162999935,778.8117297000135,0.060109300015028566,None,3.181490399991162,,,,,,,,,11,001,2019_Dec_25_0928,untitled,3.1.0,60.02952252034714,
136,F,N,315,R,N,136FN315RN,HRN,0,71,71,215,,,0.855,781.0177091999794,781.341854600003,781.3583085999708,781.641406300012,781.6578248000005,None,up,781.6578248000005,None,781.6578248000005,782.4907420999953,0.08218010002747178,None,2.48224730003858,,,,,,,,,11,001,2019_Dec_25_0928,untitled,3.1.0,60.02952252034714,
005,R,N,180,R,N,005RN180RN,HRN,0,72,72,196,,,1.361,784.210008300026,784.5556440000073,784.573576099996,784.8550571000087,784.872402900015,None,up,784.872402900015,None,784.872402900015,786.2208177000284,0.06320889998460189,None,2.831112399988342,,,,,,,,,11,001,2019_Dec_25_0928,untitled,3.1.0,60.02952252034714,
_,_5,M,180,_,_,__5M180__,N,0,73,73,44,,,0.9410000000000001,787.7737885999959,788.1193001000211,788.1371508999728,788.4193150000065,788.4359238999896,None,down,788.4359238999896,None,788.4359238999896,789.3514527999796,0.06289269996341318,None,2.1660639999900013,,,,,,,,,11,001,2019_Dec_25_0928,untitled,3.1.0,60.02952252034714,
_,G,N,90,_,_,_GN090__,N,0,74,74,58,,,0.847,790.6684337999905,791.0162845000159,791.0337316999794,791.3160647000186,791.3330044000177,None,up,791.3330044000177,None,791.3330044000177,792.1657074000104,0.05918240000028163,None,2.1662963000126183,,,,,,,,,11,001,2019_Dec_25_0928,untitled,3.1.0,60.02952252034714,
_,_2,M,315,_,_,__2M315__,N,0,75,75,31,,,1.24,793.5841211000225,793.9142535999999,793.931341700023,794.2141013999935,794.2309999000281,None,down,794.2309999000281,None,794.2309999000281,795.4642114000162,0.07659329997841269,None,2.7495086999842897,,,,,,,,,11,001,2019_Dec_25_0928,untitled,3.1.0,60.02952252034714,
264,_2,N,315,R,N,264_2N315RN,HRN,0,76,76,247,,,1.229,797.0656955000013,797.3946802999708,797.4110623999732,797.6944678999716,797.7108749999898,None,up,797.7108749999898,None,797.7108749999898,798.9266003000084,0.07630489999428391,None,2.2481373999617063,,,,,,,,,11,001,2019_Dec_25_0928,untitled,3.1.0,60.02952252034714,
227,G,N,90,L,N,227GN090LN,HLN,0,77,77,234,,,1.329,800.0264849999803,800.3748854000005,800.3918134000269,800.6747680000262,800.6913620000123,None,up,800.6913620000123,None,800.6913620000123,802.0072439999785,0.05951699998695403,None,3.1672378000221215,,,,,,,,,11,001,2019_Dec_25_0928,untitled,3.1.0,60.02952252034714,
_,F,N,45,_,_,_FN045__,N,0,78,78,49,,,0.9560000000000001,803.941230299999,804.2720780000091,804.2887050000136,804.5711849000072,804.5876596000162,None,up,804.5876596000162,None,804.5876596000162,805.5371368000051,0.07359330001054332,None,2.4321891000145115,,,,,,,,,11,001,2019_Dec_25_0928,untitled,3.1.0,60.02952252034714,
388,_4,N,135,R,N,388_4N135RN,HRN,0,79,79,259,,,1.256,807.086701399996,807.4358626999892,807.452181599976,807.7352902999846,807.7519440000178,None,up,807.7519440000178,None,807.7519440000178,808.9843117999844,0.058983599999919534,None,2.8843681000289507,,,,,,,,,11,001,2019_Dec_25_0928,untitled,3.1.0,60.02952252034714,
_,R,N,45,_,_,_RN045__,N,0,80,80,65,,,0.9520000000000001,810.702462700021,811.0490602999926,811.0659845999908,811.3491190000204,811.3656635999796,None,up,811.3656635999796,None,811.3656635999796,812.298380399996,0.05917810002574697,None,2.166248800000176,,,,,,,,,11,001,2019_Dec_25_0928,untitled,3.1.0,60.02952252034714,
262,_2,N,225,R,N,262_2N225RN,HRN,0,81,81,245,,,1.084,813.6009551999741,813.946439100022,813.9637968000025,814.2463087000069,814.2635671999888,None,up,814.2635671999888,None,814.2635671999888,815.329665999976,0.06254760001320392,None,2.831518299994059,,,,,,,,,11,001,2019_Dec_25_0928,untitled,3.1.0,60.02952252034714,
489,_5,M,0,L,N,489_5M000LN,HLN,0,82,82,184,,,0.799,817.1653036000207,817.5103278000024,817.5269581999746,817.8108824000228,817.8268374999752,None,up,817.8268374999752,None,817.8268374999752,818.6090521999868,0.06320680002681911,None,3.1493350999662653,,,,,,,,,11,001,2019_Dec_25_0928,untitled,3.1.0,60.02952252034714,
195,G,N,90,R,N,195GN090RN,HRN,0,83,83,226,,,1.118,821.070989699976,821.3902195999981,821.4068370999885,821.6894923999789,821.7068305999856,None,up,821.7068305999856,None,821.7068305999856,822.8061975999735,0.0829407999990508,None,2.131881999957841,,,,,,,,,11,001,2019_Dec_25_0928,untitled,3.1.0,60.02952252034714,
015,R,M,270,R,N,015RM270RN,HRN,0,84,84,102,,,1.375,823.9104686999926,824.2543130000122,824.2704731000122,824.55353189999,824.5703290000092,None,down,824.5703290000092,None,824.5703290000092,825.9357176999911,0.06534460000693798,None,2.615754000027664,,,,,,,,,11,001,2019_Dec_25_0928,untitled,3.1.0,60.02952252034714,
_,_2,M,270,_,_,__2M270__,N,0,85,85,30,,,1.278,827.2567495999974,827.6013060000259,827.6179254999734,827.9009771000128,827.917836699984,None,None,827.917836699984,None,827.917836699984,829.1831019999809,0.06370190001325682,None,,,,,,,,,,11,001,2019_Dec_25_0928,untitled,3.1.0,60.02952252034714,
208,G,M,315,R,N,208GM315RN,HRN,0,86,86,135,,,0.785,831.4571246000123,831.7977818999789,831.8137648000265,832.0978374999831,832.1134545999812,831.4571246000123,up,832.1134545999812,None,832.1134545999812,832.8795056000235,0.06804320000810549,None,3.4144851000164635,,,,,,,,,11,001,2019_Dec_25_0928,untitled,3.1.0,60.02952252034714,
016,R,M,315,R,N,016RM315RN,HRN,0,87,87,103,,,1.127,835.599104700028,835.9435738999746,835.9609784000204,836.2435852999915,836.2604277000064,None,down,836.2604277000064,None,836.2604277000064,837.3759833999793,0.06329969997750595,None,3.2482199000078253,,,,,,,,,11,001,2019_Dec_25_0928,untitled,3.1.0,60.02952252034714,
134,F,N,225,R,N,134FN225RN,HRN,0,88,88,213,,,0.974,839.5786528000026,839.924542599998,839.9405209000106,840.2235144000151,840.2400842999923,None,None,840.2400842999923,None,840.2400842999923,841.1894257999957,0.06278809998184443,None,,,,,,,,,,11,001,2019_Dec_25_0928,untitled,3.1.0,60.02952252034714,
423,_4,N,270,L,N,423_4N270LN,HLN,0,89,89,270,,,0.834,843.7731314999983,844.1206448000157,844.13917759998,844.4203531999956,844.4378083000192,843.7731314999983,up,844.4378083000192,None,844.4378083000192,845.2525020000176,0.06268269999418408,None,1.9662293999572285,,,,,,,,,11,001,2019_Dec_25_0928,untitled,3.1.0,60.02952252034714,
_,G,M,45,_,_,_GM045__,N,0,90,90,9,,,0.976,846.4713035000023,846.8181175999925,846.8347432999872,847.1177934000152,847.1364828000078,None,down,847.1364828000078,None,847.1364828000078,848.0999946999946,0.06018390000099316,None,3.2474958000238985,,,,,,,,,11,001,2019_Dec_25_0928,untitled,3.1.0,60.02952252034714,
039,R,N,270,L,N,039RN270LN,HLN,0,91,91,206,,,1.2730000000000001,850.4679899999755,850.7982651999919,850.8145129000186,851.0978050000267,851.1145179999876,None,up,851.1145179999876,None,851.1145179999876,852.3797260000138,0.0755180999985896,None,2.264856699970551,,,,,,,,,11,001,2019_Dec_25_0928,untitled,3.1.0,60.02952252034714,
_,_2,N,45,_,_,__2N045__,N,0,92,92,73,,,0.912,853.4447133999784,853.795462500013,853.811852600018,854.0951351000112,854.1114392000018,None,up,854.1114392000018,None,854.1114392000018,855.010974499979,0.058281000005081296,None,2.065448799985461,,,,,,,,,11,001,2019_Dec_25_0928,untitled,3.1.0,60.02952252034714,
_,_5,M,225,_,_,__5M225__,N,0,93,93,45,,,1.016,856.2567816000083,856.5926779999863,856.6093428999884,856.8926120999968,856.9091799000162,None,down,856.9091799000162,None,856.9091799000162,857.9080095000099,0.0709258999559097,None,2.514579100010451,,,,,,,,,11,001,2019_Dec_25_0928,untitled,3.1.0,60.02952252034714,
012,R,M,135,R,N,012RM135RN,HRN,0,94,94,99,,,1.133,859.4936693999916,859.8400616999716,859.856802699971,860.1392773999833,860.1558634000248,None,down,860.1558634000248,None,860.1558634000248,861.2720255000168,0.06309260003035888,None,2.9328424999839626,,,,,,,,,11,001,2019_Dec_25_0928,untitled,3.1.0,60.02952252034714,
036,R,N,135,L,N,036RN135LN,HLN,0,95,95,203,,,0.812,863.1610001000226,863.5035381999915,863.5201506000012,863.8029257999733,863.8197384999949,None,up,863.8197384999949,None,863.8197384999949,864.6189559000195,0.0651862999657169,None,2.1982421999564394,,,,,,,,,11,001,2019_Dec_25_0928,untitled,3.1.0,60.02952252034714,
491,_5,M,90,L,N,491_5M090LN,HLN,0,96,96,186,,,0.861,866.0856587999733,866.434469299973,866.452948399994,866.7355695000151,866.7510713000083,None,up,866.7510713000083,None,866.7510713000083,867.6001599999727,0.06088979996275157,None,3.1662830999703147,,,,,,,,,11,001,2019_Dec_25_0928,untitled,3.1.0,60.02952252034714,
_,_4,M,45,_,_,__4M045__,N,0,97,97,33,,,0.769,870.0006718999939,870.3307055999758,870.3470784000237,870.6308735000202,870.6466383999796,None,down,870.6466383999796,None,870.6466383999796,871.3961514999974,0.07476740004494786,None,3.0671239999937825,,,,,,,,,11,001,2019_Dec_25_0928,untitled,3.1.0,60.02952252034714,
455,_5,N,270,R,N,455_5N270RN,HRN,0,98,98,278,,,0.963,873.7846770000178,874.1281403999892,874.1442673000274,874.4270556999836,874.4435994999949,None,up,874.4435994999949,None,874.4435994999949,875.3926839000196,0.06411979999393225,None,2.5338875000015832,,,,,,,,,11,001,2019_Dec_25_0928,untitled,3.1.0,60.02952252034714,
486,_5,N,225,L,N,486_5N225LN,HLN,0,99,99,285,,,1.108,877.0447057000129,877.3907324000029,877.4087625999819,877.6908894000226,877.7075988000142,None,up,877.7075988000142,None,877.7075988000142,878.8068917000201,0.0600980999879539,None,2.0341157999937423,,,,,,,,,11,001,2019_Dec_25_0928,untitled,3.1.0,60.02952252034714,
_,_5,M,315,_,_,__5M315__,N,0,100,100,47,,,1.204,879.8162947000237,880.1555976999807,880.1722693999764,880.4553152999724,880.4720958999824,None,down,880.4720958999824,None,880.4720958999824,881.6554592999746,0.06768610002472997,None,3.3303060999605805,,,,,,,,,11,001,2019_Dec_25_0928,untitled,3.1.0,60.02952252034714,
_,R,M,180,_,_,_RM180__,N,0,101,101,20,,,1.204,883.8679088000208,884.2193000999978,884.2355774000171,884.5182304999908,884.5347672000062,None,up,884.5347672000062,None,884.5347672000062,885.7177651000093,0.05873430002247915,None,3.198874199995771,,,,,,,,,11,001,2019_Dec_25_0928,untitled,3.1.0,60.02952252034714,
_,F,M,180,_,_,_FM180__,N,0,102,102,4,,,0.887,887.7992684000055,888.1483396000112,888.1654940000153,888.4483207999729,888.4652413000003,None,up,888.4652413000003,None,888.4652413000003,889.3309335000231,0.058602600009180605,None,1.8484488999820314,,,,,,,,,11,001,2019_Dec_25_0928,untitled,3.1.0,60.02952252034714,
430,_4,M,225,L,N,430_4M225LN,HLN,0,103,103,173,,,1.0210000000000001,890.3799020000151,890.7303863000125,890.746808899974,891.0299811000004,891.0459674000158,None,None,891.0459674000158,None,891.0459674000158,892.046654500009,0.05909830000018701,None,,,,,,,,,,11,001,2019_Dec_25_0928,untitled,3.1.0,60.02952252034714,
482,_5,N,45,L,N,482_5N045LN,HLN,0,104,104,281,,,0.719,894.5790842000279,894.9258977000136,894.9428937999764,895.2259434000007,895.2425889999722,894.5790842000279,up,895.2425889999722,None,895.2425889999722,895.9418245999841,0.058407099975738674,None,1.7668778999941424,,,,,,,,,11,001,2019_Dec_25_0928,untitled,3.1.0,60.02952252034714,
_,G,N,270,_,_,_GN270__,N,0,105,105,62,,,1.08,897.0830811000196,897.4244289000053,897.4402974999975,897.7233841000125,897.7402485000202,None,up,897.7402485000202,None,897.7402485000202,898.8058618999785,0.06697189999977127,None,2.514389800024219,,,,,,,,,11,001,2019_Dec_25_0928,untitled,3.1.0,60.02952252034714,
_,_4,N,45,_,_,__4N045__,N,0,106,106,81,,,1.175,900.3200084000127,900.671419100021,900.6889779000194,900.9710387000232,900.9885124000139,None,up,900.9885124000139,None,900.9885124000139,902.1364242000272,0.05831290001515299,None,2.7971004999708384,,,,,,,,,11,001,2019_Dec_25_0928,untitled,3.1.0,60.02952252034714,
424,_4,N,315,L,N,424_4N315LN,HLN,0,107,107,271,,,1.153,903.8708742000163,904.2016284000129,904.2179411000106,904.5010423000203,904.5176274999976,None,up,904.5176274999976,None,904.5176274999976,905.6499945999822,0.07672950002597645,None,1.9174624999868684,,,,,,,,,11,001,2019_Dec_25_0928,untitled,3.1.0,60.02952252034714,
393,_4,M,0,R,N,393_4M000RN,HRN,0,108,108,160,,,1.092,906.5037562000216,906.8489919999847,906.8657139000134,907.1489967000089,907.1657611000119,None,up,907.1657611000119,None,907.1657611000119,908.2474358999752,0.06160100002307445,None,1.9828994999988936,,,,,,,,,11,001,2019_Dec_25_0928,untitled,3.1.0,60.02952252034714,
045,R,M,180,L,N,045RM180LN,HLN,0,109,109,108,,,1.052,909.2153937999974,909.5634346000152,909.5798650999786,909.8629551000195,909.8795807000133,None,down,909.8795807000133,None,909.8795807000133,910.9122281000018,0.059845899988431484,None,1.8358954999712296,,,,,,,,,11,001,2019_Dec_25_0928,untitled,3.1.0,60.02952252034714,
_,_5,N,0,_,_,__5N000__,N,0,110,110,88,,,1.343,911.8121261000051,912.1273379999911,912.1441032000002,912.4276201999746,912.4443092999863,None,up,912.4443092999863,None,912.4443092999863,913.7765774999862,0.08623800001805648,None,3.099412499985192,,,,,,,,,11,001,2019_Dec_25_0928,untitled,3.1.0,60.02952252034714,
004,R,N,135,R,N,004RN135RN,HRN,0,111,111,195,,,0.996,915.613732400001,915.9576331999851,915.9744616000098,916.2575388000114,916.2740227999748,None,up,916.2740227999748,None,916.2740227999748,917.2567860999843,0.0632255999953486,None,3.283054900006391,,,,,,,,,11,001,2019_Dec_25_0928,untitled,3.1.0,60.02952252034714,
172,F,M,135,L,N,172FM135LN,HLN,0,112,112,123,,,0.89,919.625148000021,919.9711340999929,919.9875076999888,920.2703717999975,920.2871186999837,None,up,920.2871186999837,None,920.2871186999837,921.1530459999922,0.06128599995281547,None,2.8514418000122532,,,,,,,,,11,001,2019_Dec_25_0928,untitled,3.1.0,60.02952252034714,
129,F,N,0,R,N,129FN000RN,HRN,0,113,113,208,,,1.105,923.2050164000248,923.5514650000259,923.5675067999982,923.8509896000032,923.8674257000093,None,up,923.8674257000093,None,923.8674257000093,924.9498086000094,0.05989689996931702,None,1.666947000019718,,,,,,,,,11,001,2019_Dec_25_0928,untitled,3.1.0,60.02952252034714,
270,_2,M,225,R,N,270_2M225RN,HRN,0,114,114,149,,,0.977,925.6012573000044,925.9511536000064,925.9657651999732,926.2488013000111,926.2659741999814,None,None,926.2659741999814,None,926.2659741999814,927.2312832999742,0.059874199971091,None,,,,,,,,,,11,001,2019_Dec_25_0928,untitled,3.1.0,60.02952252034714,
418,_4,N,45,L,N,418_4N045LN,HLN,0,115,115,265,,,1.108,929.8001676999847,930.145473600016,930.1620909000048,930.4453462000238,930.4620066999923,929.8001676999847,up,930.4620066999923,None,930.4620066999923,931.5440091000055,0.06130529998335987,None,2.2654367000213824,,,,,,,,,11,001,2019_Dec_25_0928,untitled,3.1.0,60.02952252034714,
229,G,N,180,L,N,229GN180LN,HLN,0,116,116,236,,,1.182,932.7951376999845,933.1429909999715,933.159436499991,933.442511399975,933.4592524999753,None,None,933.4592524999753,None,933.4592524999753,934.624435900012,0.05947749997721985,None,,,,,,,,,,11,001,2019_Dec_25_0928,untitled,3.1.0,60.02952252034714,
_,_2,M,180,_,_,__2M180__,N,0,117,117,28,,,0.999,936.9888237999985,937.3388776999782,937.3557474000263,937.6400664999965,937.655090300017,936.9888237999985,up,937.655090300017,None,937.655090300017,938.6387739999918,0.057873499987181276,None,3.0978624999988824,,,,,,,,,11,001,2019_Dec_25_0928,untitled,3.1.0,60.02952252034714,
_,G,M,0,_,_,_GM000__,N,0,118,118,8,,,0.795,940.8182817000197,941.169061499997,941.185521300009,941.4686052000034,941.4851982999826,None,None,941.4851982999826,None,941.4851982999826,942.2682884000242,0.05853140004910529,None,,,,,,,,,,11,001,2019_Dec_25_0928,untitled,3.1.0,60.02952252034714,
044,R,M,135,L,N,044RM135LN,HLN,0,119,119,107,,,0.801,945.0167022999958,945.3656655999948,945.382333800022,945.665632600023,945.6839773000102,945.0167022999958,up,945.6839773000102,None,945.6839773000102,946.4675973000121,0.05955629999516532,None,2.081418899993878,,,,,,,,,11,001,2019_Dec_25_0928,untitled,3.1.0,60.02952252034714,
428,_4,M,135,L,N,428_4M135LN,HLN,0,120,120,171,,,1.055,947.8388544999762,948.1800874000182,948.1965590000036,948.4800378999789,948.4965206999914,None,up,948.4965206999914,None,948.4965206999914,949.5288486999925,0.06597530003637075,None,2.380802200001199,,,,,,,,,11,001,2019_Dec_25_0928,untitled,3.1.0,60.02952252034714,
140,F,M,135,R,N,140FM135RN,HRN,0,121,121,115,,,1.104,950.9446366999764,951.2931706000236,951.3098438999732,951.5929838999873,951.6099498000112,None,up,951.6099498000112,None,951.6099498000112,952.6924216999905,0.06035740004153922,None,2.3322257000254467,,,,,,,,,11,001,2019_Dec_25_0928,untitled,3.1.0,60.02952252034714,
_,_2,N,90,_,_,__2N090__,N,0,122,122,74,,,0.9380000000000001,954.0079849999747,954.3585233999765,954.3745651000063,954.6582382000051,954.6739916999941,None,up,954.6739916999941,None,954.6739916999941,955.5901387999766,0.058934400032740086,None,1.6652925999951549,,,,,,,,,11,001,2019_Dec_25_0928,untitled,3.1.0,60.02952252034714,
_,R,M,135,_,_,_RM135__,N,0,123,123,19,,,1.159,956.406080899993,956.7554713999853,956.7729386999854,957.055598100007,957.0728667000076,None,up,957.0728667000076,None,957.0728667000076,958.2041335999966,0.05902899999637157,None,2.381225200020708,,,,,,,,,11,001,2019_Dec_25_0928,untitled,3.1.0,60.02952252034714,
460,_5,M,135,R,N,460_5M135RN,HRN,0,124,124,179,,,1.09,959.5241659000167,959.8696189000038,959.8863723999821,960.1692973999889,960.1859505000175,None,up,960.1859505000175,None,960.1859505000175,961.2513977999915,0.06295590003719553,None,2.483175100001972,,,,,,,,,11,001,2019_Dec_25_0928,untitled,3.1.0,60.02952252034714,
135,F,N,270,R,N,135FN270RN,HRN,0,125,125,214,,,1.345,962.7381268999889,963.0832913999911,963.1004594999831,963.3835850000032,963.399512199976,None,up,963.399512199976,None,963.399512199976,964.731806900003,0.06260940001811832,None,2.1828388000139967,,,,,,,,,11,001,2019_Dec_25_0928,untitled,3.1.0,60.02952252034714,
483,_5,N,90,L,N,483_5N090LN,HLN,0,126,126,282,,,1.145,965.6498697000206,965.9977135999943,966.0144423000165,966.2982078000205,966.3147296999814,None,None,966.3147296999814,None,966.3147296999814,967.4464604000095,0.0607810000074096,None,,,,,,,,,,11,001,2019_Dec_25_0928,untitled,3.1.0,60.02952252034714,
450,_5,N,45,R,N,450_5N045RN,HRN,0,127,127,273,,,1.109,969.8532814999926,970.194299899973,970.2104533999809,970.4941102999728,970.5098654999747,969.8532814999926,up,970.5098654999747,None,970.5098654999747,971.5922219000058,0.06909220002125949,None,2.6815507999854162,,,,,,,,,11,001,2019_Dec_25_0928,untitled,3.1.0,60.02952252034714,
_,_5,N,270,_,_,__5N270__,N,0,128,128,94,,,0.971,973.2777594000218,973.6073959000059,973.6243507000036,973.9070947999717,973.9238726000185,None,up,973.9238726000185,None,973.9238726000185,974.873038300022,0.07945719995768741,None,1.7012700000195764,,,,,,,,,11,001,2019_Dec_25_0928,untitled,3.1.0,60.02952252034714,
137,F,M,0,R,N,137FM000RN,HRN,0,129,129,112,,,0.778,975.692577800015,976.0389186000102,976.0554860000266,976.3385120999883,976.3553558000131,None,None,976.3553558000131,None,976.3553558000131,977.1211435999721,0.06059020000975579,None,,,,,,,,,,11,001,2019_Dec_25_0928,untitled,3.1.0,60.02952252034714,
429,_4,M,180,L,N,429_4M180LN,HLN,0,130,130,172,,,0.737,979.9126911999774,980.2348110000021,980.2516370000085,980.5349730000016,980.551380000019,979.9126911999774,up,980.551380000019,None,980.551380000019,981.2674456000095,0.08672370004933327,None,1.4827519999817014,,,,,,,,,11,001,2019_Dec_25_0928,untitled,3.1.0,60.02952252034714,
_,R,N,135,_,_,_RN135__,N,0,131,131,67,,,0.807,982.1000536999782,982.4493679999723,982.4665526999743,982.7494924999774,982.7662528000074,None,up,982.7662528000074,None,982.7662528000074,983.5501584999729,0.05885859997943044,None,1.5654154000221752,,,,,,,,,11,001,2019_Dec_25_0928,untitled,3.1.0,60.02952252034714,
234,G,M,45,L,N,234GM045LN,HLN,0,132,132,137,,,1.113,984.4091897999751,984.7471757999738,984.7641107999953,985.0478566000238,985.0652757000062,None,down,985.0652757000062,None,985.0652757000062,986.1631195999798,0.06851650000317022,None,2.3145693000406027,,,,,,,,,11,001,2019_Dec_25_0928,untitled,3.1.0,60.02952252034714,
196,G,N,135,R,N,196GN135RN,HRN,0,133,133,227,,,1.0,987.4485218999907,987.7957403999753,987.8118593000108,988.095644999994,988.1113864000072,None,up,988.1113864000072,None,988.1113864000072,989.094483199995,0.06195960001787171,None,2.498011299991049,,,,,,,,,11,001,2019_Dec_25_0928,untitled,3.1.0,60.02952252034714,
259,_2,N,90,R,N,259_2N090RN,HRN,0,134,134,242,,,1.371,990.6767751000007,991.0266601999756,991.0420637999778,991.3259731999715,991.341987700027,None,up,991.341987700027,None,991.341987700027,992.6907132000197,0.060651700012385845,None,2.248619400023017,,,,,,,,,11,001,2019_Dec_25_0928,untitled,3.1.0,60.02952252034714,
_,F,M,225,_,_,_FM225__,N,0,135,135,5,,,0.736,993.6557333000237,994.0061630000127,994.0228184000007,994.3066051999922,994.3230805000057,None,down,994.3230805000057,None,994.3230805000057,995.0388536999817,0.05830400000559166,None,2.6974408000241965,,,,,,,,,11,001,2019_Dec_25_0928,untitled,3.1.0,60.02952252034714,
427,_4,M,90,L,N,427_4M090LN,HLN,0,136,136,170,,,0.962,997.1120315999724,997.436127300025,997.4531355000217,997.7364028000156,997.7530521000153,None,up,997.7530521000153,None,997.7530521000153,998.7025637999759,0.08250999997835606,None,2.5479366999934427,,,,,,,,,11,001,2019_Dec_25_0928,untitled,3.1.0,60.02952252034714,
164,F,N,135,L,N,164FN135LN,HLN,0,137,137,219,,,0.9540000000000001,1000.3665906999959,1000.7176629999885,1000.733699799981,1001.0172194999759,1001.0340231999871,None,up,1001.0340231999871,None,1001.0340231999871,1001.9662503,0.05884959996910766,None,2.5809749999898486,,,,,,,,,11,001,2019_Dec_25_0928,untitled,3.1.0,60.02952252034714,
_,_4,M,270,_,_,__4M270__,N,0,138,138,38,,,1.339,1003.6817719999817,1004.031335000007,1004.0476630000048,1004.3304934999906,1004.3477363000275,None,None,1004.3477363000275,None,1004.3477363000275,1005.6630995000014,0.05813779996242374,None,,,,,,,,,,11,001,2019_Dec_25_0928,untitled,3.1.0,60.02952252034714,
_,_4,M,0,_,_,__4M000__,N,0,139,139,32,,,0.891,1007.8782240999863,1008.2278243000037,1008.2440809999825,1008.5277610999765,1008.5434341999935,1007.8782240999863,up,1008.5434341999935,None,1008.5434341999935,1009.4094116999768,0.0606763000250794,None,2.866005200019572,,,,,,,,,11,001,2019_Dec_25_0928,untitled,3.1.0,60.02952252034714,
_,_2,N,315,_,_,__2N315__,N,0,140,140,79,,,1.064,1011.475964399986,1011.8237505999859,1011.8406629000092,1012.1239922000095,1012.1402179999859,None,up,1012.1402179999859,None,1012.1402179999859,1013.1895920999814,0.059719800017774105,None,3.4494420999544673,,,,,,,,,11,001,2019_Dec_25_0928,untitled,3.1.0,60.02952252034714,
_,F,N,90,_,_,_FN090__,N,0,141,141,50,,,0.873,1015.6582689000061,1016.0039347999846,1016.0206486000097,1016.303589600022,1016.3202301000129,None,up,1016.3202301000129,None,1016.3202301000129,1017.1691772000049,0.06186120002530515,None,1.8839015999692492,,,,,,,,,11,001,2019_Dec_25_0928,untitled,3.1.0,60.02952252034714,
226,G,N,45,L,N,226GN045LN,HLN,0,142,142,233,,,1.079,1018.2727857999853,1018.6182881999994,1018.6351127999951,1018.9194809999899,1018.9346263000043,None,up,1018.9346263000043,None,1018.9346263000043,1020.0004967999994,0.061742299993056804,None,3.015216000028886,,,,,,,,,11,001,2019_Dec_25_0928,untitled,3.1.0,60.02952252034714,
_,_4,N,270,_,_,__4N270__,N,0,143,143,86,,,0.865,1022.0169429000234,1022.3649715000065,1022.3816999000264,1022.6649816000136,1022.6815502999816,None,up,1022.6815502999816,None,1022.6815502999816,1023.5303058999707,0.059739100048318505,None,1.6484134999918751,,,,,,,,,11,001,2019_Dec_25_0928,untitled,3.1.0,60.02952252034714,
394,_4,M,45,R,N,394_4M045RN,HRN,0,144,144,161,,,0.709,1024.398450299981,1024.746241500019,1024.763306799985,1025.04711330001,1025.0622413000092,None,up,1025.0622413000092,None,1025.0622413000092,1025.745398900006,0.061847600038163364,None,1.6346065000398085,,,,,,,,,11,001,2019_Dec_25_0928,untitled,3.1.0,60.02952252034714,
175,F,M,270,L,N,175FM270LN,HLN,0,145,145,126,,,1.056,1026.7646050999756,1027.111542299972,1027.127578900021,1027.410553099995,1027.4269153000205,None,down,1027.4269153000205,None,1027.4269153000205,1028.459591299994,0.06099189998349175,None,2.5350184999988414,,,,,,,,,11,001,2019_Dec_25_0928,untitled,3.1.0,60.02952252034714,
_,_4,N,135,_,_,__4N135__,N,0,146,146,83,,,1.052,1030.026726400014,1030.3747535999864,1030.3924074000097,1030.6751941000111,1030.6910312999971,None,up,1030.6910312999971,None,1030.6910312999971,1031.7234709999757,0.0582239999785088,None,2.0485320999869145,,,,,,,,,11,001,2019_Dec_25_0928,untitled,3.1.0,60.02952252034714,
387,_4,N,90,R,N,387_4N090RN,HRN,0,147,147,258,,,1.085,1032.8068927000277,1033.1553746000282,1033.1717327000224,1033.4551124999998,1033.4718591999845,None,up,1033.4718591999845,None,1033.4718591999845,1034.5380041999742,0.06005090003600344,None,2.2815428000176325,,,,,,,,,11,001,2019_Dec_25_0928,untitled,3.1.0,60.02952252034714,
170,F,M,45,L,N,170FM045LN,HLN,0,148,148,121,,,0.735,1035.8207247999962,1036.1714863000088,1036.186704199994,1036.470064299996,1036.4867180999718,None,down,1036.4867180999718,None,1036.4867180999718,1037.202352799999,0.06063929997617379,None,2.117287100001704,,,,,,,,,11,001,2019_Dec_25_0928,untitled,3.1.0,60.02952252034714,
_,R,M,225,_,_,_RM225__,N,0,149,149,21,,,1.137,1038.6700358000235,1039.0170402000076,1039.03380189999,1039.3167029999895,1039.333200699999,None,None,1039.333200699999,None,1039.333200699999,1040.4488531000097,0.058967299992218614,None,,,,,,,,,,11,001,2019_Dec_25_0928,untitled,3.1.0,60.02952252034714,
390,_4,N,225,R,N,390_4N225RN,HRN,0,150,150,261,,,1.1280000000000001,1042.864132000017,1043.2136404999765,1043.230060699978,1043.5133177000098,1043.5311872999882,1042.864132000017,up,1043.5311872999882,None,1043.5311872999882,1044.6453984000254,0.05986700003268197,None,2.9820467999670655,,,,,,,,,11,001,2019_Dec_25_0928,untitled,3.1.0,60.02952252034714,
_,G,N,225,_,_,_GN225__,N,0,151,151,61,,,1.1280000000000001,1046.5796662999783,1046.927013700013,1046.9437495999737,1047.2267397000105,1047.2433252999908,None,None,1047.2433252999908,None,1047.2433252999908,1048.3591166000115,0.05846129998099059,None,,,,,,,,,,11,001,2019_Dec_25_0928,untitled,3.1.0,60.02952252034714,
_,F,N,180,_,_,_FN180__,N,0,152,152,52,,,1.107,1050.7748790999758,1051.1235087999958,1051.1402902000118,1051.424543800007,1051.4396658000187,1050.7748790999758,None,1051.4396658000187,None,1051.4396658000187,1052.5218873000122,0.06095960002858192,None,,,,,,,,,,11,001,2019_Dec_25_0928,untitled,3.1.0,60.02952252034714,
038,R,N,225,L,N,038RN225LN,HLN,0,153,153,205,,,1.115,1054.9725640999968,1055.3198424999719,1055.3366607999778,1055.6196957000066,1055.6360543000046,1054.9725640999968,down,1055.6360543000046,None,1055.6360543000046,None,0.061715500021819025,None,0.003637300047557801,,,,,,,,,11,001,2019_Dec_25_0928,untitled,3.1.0,60.02952252034714,
_,G,M,270,_,_,_GM270__,N,0,154,154,14,,,1.348,1055.7067901000264,1056.05235730001,1056.0691236000275,1056.3524820000166,1056.3686798000126,None,up,1056.3686798000126,None,1056.3686798000126,1057.701296299987,0.0603224000078626,None,2.1989072000142187,,,,,,,,,11,001,2019_Dec_25_0928,untitled,3.1.0,60.02952252034714,
048,R,M,315,L,N,048RM315LN,HLN,0,155,155,111,,,0.766,1058.6414823000086,1058.9830526000005,1059.000028599985,1059.2827629999956,1059.2992965999874,None,down,1059.2992965999874,None,1059.2992965999874,1060.048628300021,0.06583069998305291,None,2.0324534000246786,,,,,,,,,11,001,2019_Dec_25_0928,untitled,3.1.0,60.02952252034714,
493,_5,M,180,L,N,493_5M180LN,HLN,0,156,156,188,,,1.1400000000000001,1061.399424800009,1061.7474639000138,1061.7640338999918,1062.0476952000172,1062.064566200017,None,down,1062.064566200017,None,1062.064566200017,1063.1800180000137,0.060549500049091876,None,2.198480000020936,,,,,,,,,11,001,2019_Dec_25_0928,untitled,3.1.0,60.02952252034714,
_,G,N,45,_,_,_GN045__,N,0,157,157,57,,,1.098,1064.3288926000241,1064.6785858999938,1064.6950029999716,1064.980638900015,1064.9954360999982,None,up,1064.9954360999982,None,1064.9954360999982,1066.076787500002,0.05896980001125485,None,2.765819999971427,,,,,,,,,11,001,2019_Dec_25_0928,untitled,3.1.0,60.02952252034714,
_,R,N,270,_,_,_RN270__,N,0,158,158,70,,,1.248,1067.8463477999903,1068.175273699977,1068.1918351000058,1068.47504390002,1068.4914940000162,None,up,1068.4914940000162,None,1068.4914940000162,1069.7238935999922,0.07541970000602305,None,2.16457329998957,,,,,,,,,11,001,2019_Dec_25_0928,untitled,3.1.0,60.02952252034714,
_,_5,M,90,_,_,__5M090__,N,0,159,159,42,,,1.339,1070.7230839999975,1071.072377900011,1071.0890006999834,1071.371994999994,1071.388563400018,None,None,1071.388563400018,None,1071.388563400018,1072.7044698999962,0.060171499964781106,None,,,,,,,,,,11,001,2019_Dec_25_0928,untitled,3.1.0,60.02952252034714,
206,G,M,225,R,N,206GM225RN,HRN,0,160,160,133,,,0.791,1074.927946300013,1075.2695088000037,1075.2857666999917,1075.5690676000086,1075.5855848999927,1074.927946300013,up,1075.5855848999927,None,1075.5855848999927,1076.3509503999958,0.06805689999600872,None,1.5989127999637276,,,,,,,,,11,001,2019_Dec_25_0928,untitled,3.1.0,60.02952252034714,
_,_2,M,225,_,_,__2M225__,N,0,161,161,29,,,0.8230000000000001,1077.257075899979,1077.6003252000082,1077.616927199997,1077.9003297999734,1077.9170611000154,None,down,1077.9170611000154,None,1077.9170611000154,1078.715864799975,0.06412349996389821,None,1.7171086000162177,,,,,,,,,11,001,2019_Dec_25_0928,untitled,3.1.0,60.02952252034714,
303,_2,M,270,L,N,303_2M270LN,HLN,0,162,162,158,,,0.777,1079.7022873000242,1080.0477116000257,1080.0644064000226,1080.348320399993,1080.3645820000092,None,up,1080.3645820000092,None,1080.3645820000092,1081.13034470001,0.06128769996576011,None,1.915343800035771,,,,,,,,,11,001,2019_Dec_25_0928,untitled,3.1.0,60.02952252034714,
_,G,N,135,_,_,_GN135__,N,0,163,163,59,,,1.36,1082.3659906000248,1082.6958314999938,1082.7125191999949,1082.9956194999977,1083.0122486000182,None,None,1083.0122486000182,None,1083.0122486000182,1084.3610695999814,0.07767989998683333,None,,,,,,,,,,11,001,2019_Dec_25_0928,untitled,3.1.0,60.02952252034714,
398,_4,M,225,R,N,398_4M225RN,HRN,0,164,164,165,,,1.059,1086.5521384999738,1086.892409400025,1086.9089729000116,1087.192271100008,1087.208872599993,1086.5521384999738,up,1087.208872599993,None,1087.208872599993,1088.2575105999713,0.06779900001129135,None,2.464559200045187,,,,,,,,,11,001,2019_Dec_25_0928,untitled,3.1.0,60.02952252034714,
_,R,N,180,_,_,_RN180__,N,0,165,165,68,,,1.0190000000000001,1089.7432343999972,1090.0900364000117,1090.1060740000103,1090.3889629999758,1090.4053168999963,None,up,1090.4053168999963,None,1090.4053168999963,1091.4046774000162,0.06299180001951754,None,2.234723999979906,,,,,,,,,11,001,2019_Dec_25_0928,untitled,3.1.0,60.02952252034714,
040,R,N,315,L,N,040RN315LN,HLN,0,166,166,207,,,1.2610000000000001,1092.7055920999846,1093.0536482000025,1093.0703910000157,1093.353505200008,1093.3705879999907,None,up,1093.3705879999907,None,1093.3705879999907,1094.6195083999773,0.058799599995836616,None,2.0652295999461785,,,,,,,,,11,001,2019_Dec_25_0928,untitled,3.1.0,60.02952252034714,
_,_5,M,270,_,_,__5M270__,N,0,167,167,46,,,0.9390000000000001,1095.5017640999868,1095.8507502999855,1095.8678757000016,1096.150910300028,1096.167732700007,None,up,1096.167732700007,None,1096.167732700007,1097.0830593999708,0.05840789998183027,None,2.431280400021933,,,,,,,,,11,001,2019_Dec_25_0928,untitled,3.1.0,60.02952252034714,
266,_2,M,45,R,N,266_2M045RN,HRN,0,168,168,145,,,0.931,1098.6863370999927,1099.0150321000256,1099.031495000003,1099.3146866000025,1099.3307521999814,None,down,1099.3307521999814,None,1099.3307521999814,1100.246780699992,0.07887310005025938,None,2.2494517999584787,,,,,,,,,11,001,2019_Dec_25_0928,untitled,3.1.0,60.02952252034714,
449,_5,N,0,R,N,449_5N000RN,HRN,0,169,169,272,,,1.052,1101.651921199984,1101.9959811000153,1102.0126762000145,1102.2959777999786,1102.3126832999988,None,up,1102.3126832999988,None,1102.3126832999988,1103.3448925000266,0.0644042999483645,None,1.7323242000420578,,,,,,,,,11,001,2019_Dec_25_0928,untitled,3.1.0,60.02952252034714,
037,R,N,180,L,N,037RN180LN,HLN,0,170,170,204,,,0.996,1104.1107301000156,1104.4603955000057,1104.4774931999855,1104.7601866999757,1104.7765844999813,None,up,1104.7765844999813,None,1104.7765844999813,1105.760437800025,0.05885969998780638,None,2.016138300008606,,,,,,,,,11,001,2019_Dec_25_0928,untitled,3.1.0,60.02952252034714,
046,R,M,225,L,N,046RM225LN,HLN,0,171,171,109,,,1.045,1106.8690201999852,1107.2081449999823,1107.2245210999972,1107.507616100018,1107.5240225999733,None,up,1107.5240225999733,None,1107.5240225999733,1108.5565764000057,0.06908630003454164,None,2.4678006999893114,,,,,,,,,11,001,2019_Dec_25_0928,untitled,3.1.0,60.02952252034714,
395,_4,M,90,R,N,395_4M090RN,HRN,0,172,172,162,,,0.842,1110.0592489999835,1110.4050688999705,1110.4216812999803,1110.7047303,1110.7212990000262,None,up,1110.7212990000262,None,1110.7212990000262,1111.5540888999822,0.05990379996364936,None,2.0827947999932803,,,,,,,,,11,001,2019_Dec_25_0928,untitled,3.1.0,60.02952252034714,
_,F,M,0,_,_,_FM000__,N,0,173,173,0,,,1.1400000000000001,1112.8726941000205,1113.219102700008,1113.2356608000118,1113.5185427999822,1113.5351734000142,None,up,1113.5351734000142,None,1113.5351734000142,1114.651475700026,0.06200839998200536,None,1.7825762000284158,,,,,,,,,11,001,2019_Dec_25_0928,untitled,3.1.0,60.02952252034714,
426,_4,M,45,L,N,426_4M045LN,HLN,0,174,174,169,,,0.872,1115.3918908999767,1115.7333409999846,1115.7502009000164,1116.0329618999967,1116.0502399000106,None,up,1116.0502399000106,None,1116.0502399000106,1116.899612499983,0.06769170000916347,None,1.4326270000310615,,,,,,,,,11,001,2019_Dec_25_0928,untitled,3.1.0,60.02952252034714,
258,_2,N,45,R,N,258_2N045RN,HRN,0,175,175,241,,,1.221,1117.5618440000108,1117.8984921000083,1117.91506259999,1118.198601000011,1118.215401399997,None,up,1118.215401399997,None,1118.215401399997,1119.4137671000208,0.06970039999578148,None,3.064543600019533,,,,,,,,,11,001,2019_Dec_25_0928,untitled,3.1.0,60.02952252034714,
002,R,N,45,R,N,002RN045RN,HRN,0,176,176,193,,,1.2510000000000001,1121.351172099996,1121.695237900014,1121.7118790000095,1121.9951480000163,1122.0114355999976,None,down,1122.0114355999976,None,1122.0114355999976,1123.2438147999928,0.06382290000328794,None,2.5332758000004105,,,,,,,,,11,001,2019_Dec_25_0928,untitled,3.1.0,60.02952252034714,
034,R,N,45,L,N,034RN045LN,HLN,0,177,177,201,,,1.016,1124.6137068999815,1124.9590377000277,1124.9757410999737,1125.2585687999963,1125.2750937999808,None,up,1125.2750937999808,None,1125.2750937999808,1126.2754815000226,0.06236529996385798,None,3.3164354999898933,,,,,,,,,11,001,2019_Dec_25_0928,untitled,3.1.0,60.02952252034714,
261,_2,N,180,R,N,261_2N180RN,HRN,0,178,178,244,,,0.736,1128.6582720999722,1129.0054282000056,1129.022343299992,1129.305333300028,1129.3215756000136,None,up,1129.3215756000136,None,1129.3215756000136,1130.0376994999824,0.05990140000358224,None,2.766852100030519,,,,,,,,,11,001,2019_Dec_25_0928,untitled,3.1.0,60.02952252034714,
_,F,N,270,_,_,_FN270__,N,0,179,179,54,,,1.11,1132.1545242000138,1132.5027712999727,1132.5199337999802,1132.8021945999935,1132.8184398000012,None,up,1132.8184398000012,None,1132.8184398000012,1133.917450500012,0.05889929999830201,None,2.198432600009255,,,,,,,,,11,001,2019_Dec_25_0928,untitled,3.1.0,60.02952252034714,
419,_4,N,90,L,N,419_4N090LN,HLN,0,180,180,266,,,1.0070000000000001,1135.0855431000236,1135.433309999993,1135.4500058999984,1135.733093500021,1135.7497401,None,up,1135.7497401,None,1135.7497401,1136.7320258999825,0.061918599996715784,None,2.3850028999731876,,,,,,,,,11,001,2019_Dec_25_0928,untitled,3.1.0,60.02952252034714,
_,_5,N,180,_,_,__5N180__,N,0,181,181,92,,,1.053,1138.1995764999883,1138.547321400023,1138.5640530000092,1138.847017800028,1138.8637873000116,None,None,1138.8637873000116,None,1138.8637873000116,1139.895717700012,0.05780039995443076,None,,,,,,,,,,11,001,2019_Dec_25_0928,untitled,3.1.0,60.02952252034714,
421,_4,N,180,L,N,421_4N180LN,HLN,0,182,182,268,,,1.272,1142.4095738999895,1142.743599599984,1142.7602155000204,1143.0433687000186,1143.0596986999735,1142.4095738999895,up,1143.0596986999735,None,1143.0596986999735,1144.308392499981,0.07393640000373125,None,2.582227899983991,,,,,,,,,11,001,2019_Dec_25_0928,untitled,3.1.0,60.02952252034714,
_,_2,N,135,_,_,__2N135__,N,0,183,183,75,,,0.778,1145.7128440000233,1146.057215399982,1146.0738627000246,1146.3571774999727,1146.3737350999727,None,up,1146.3737350999727,None,1146.3737350999727,1147.141369400022,0.06404689996270463,None,2.4031356000341475,,,,,,,,,11,001,2019_Dec_25_0928,untitled,3.1.0,60.02952252034714,
293,_2,N,180,L,N,293_2N180LN,HLN,0,184,184,252,,,1.151,1148.8709219999728,1149.1877582999878,1149.204494900012,1149.4876593999797,1149.5044707999914,None,up,1149.5044707999914,None,1149.5044707999914,1150.6534193999832,0.08320940000703558,None,2.1002633000025526,,,,,,,,,11,001,2019_Dec_25_0928,untitled,3.1.0,60.02952252034714,
268,_2,M,135,R,N,268_2M135RN,HRN,0,185,185,147,,,1.281,1151.6715903999866,1152.0191520000226,1152.0353715000092,1152.3187054999871,1152.335422299977,None,up,1152.335422299977,None,1152.335422299977,1153.6006963999826,0.0593162999721244,None,2.332919000007678,,,,,,,,,11,001,2019_Dec_25_0928,untitled,3.1.0,60.02952252034714,
205,G,M,180,R,N,205GM180RN,HRN,0,186,186,132,,,1.318,1154.7381691000191,1155.0829799000057,1155.0991678999853,1155.3825766000082,1155.399012000009,None,None,1155.399012000009,None,1155.399012000009,1156.6981025999994,0.06244179996429011,None,,,,,,,,,,11,001,2019_Dec_25_0928,untitled,3.1.0,60.02952252034714,
391,_4,N,270,R,N,391_4N270RN,HRN,0,187,187,262,,,1.176,1158.9297161999857,1159.279165200016,1159.296911499987,1159.5786947999732,1159.595374000026,1158.9297161999857,up,1159.595374000026,None,1159.595374000026,1160.7442968999967,0.059607299976050854,None,2.265351499954704,,,,,,,,,11,001,2019_Dec_25_0928,untitled,3.1.0,60.02952252034714,
_,R,N,90,_,_,_RN090__,N,0,188,188,66,,,1.01,1161.936770099972,1162.2766316999914,1162.2940516999806,1162.5760656999773,1162.5929671999766,None,up,1162.5929671999766,None,1162.5929671999766,1163.5920055999886,0.06780150003032759,None,2.6312643999699503,,,,,,,,,11,001,2019_Dec_25_0928,untitled,3.1.0,60.02952252034714,
142,F,M,225,R,N,142FM225RN,HRN,0,189,189,117,,,1.221,1165.2987245999975,1165.6400606000097,1165.6571196999867,1165.9401333999704,1165.9565856999834,None,None,1165.9565856999834,None,1165.9565856999834,1167.1553197000176,0.06577859999379143,None,,,,,,,,,,11,001,2019_Dec_25_0928,untitled,3.1.0,60.02952252034714,
_,F,M,45,_,_,_FM045__,N,0,190,190,1,,,1.08,1169.4877637000172,1169.836877099995,1169.853402299981,1170.1364382000174,1170.1528050000197,1169.4877637000172,down,1170.1528050000197,None,1170.1528050000197,1171.2185074000154,0.05992690002312884,None,2.1993259000009857,,,,,,,,,11,001,2019_Dec_25_0928,untitled,3.1.0,60.02952252034714,
225,G,N,0,L,N,225GN000LN,HLN,0,191,191,232,,,0.84,1172.4250293999794,1172.7676963999984,1172.7840509000234,1173.0672283999738,1173.0839438000112,None,up,1173.0839438000112,None,1173.0839438000112,1173.9000222000177,0.06572409998625517,None,2.0328514000284486,,,,,,,,,11,001,2019_Dec_25_0928,untitled,3.1.0,60.02952252034714,
009,R,M,0,R,N,009RM000RN,HRN,0,192,192,96,,,1.193,1175.189972000022,1175.5317334000138,1175.5476946000126,1175.8313297000132,1175.8480504999752,None,down,1175.8480504999752,None,1175.8480504999752,1177.0303663000232,0.06581020000157878,None,2.598304699989967,,,,,,,,,11,001,2019_Dec_25_0928,untitled,3.1.0,60.02952252034714,
459,_5,M,90,R,N,459_5M090RN,HRN,0,193,193,178,,,1.379,1178.5189977000118,1178.8622914999723,1178.8785943000112,1179.161457500013,1179.1787220999831,None,up,1179.1787220999831,None,1179.1787220999831,1180.543781400018,0.06475240003783256,None,3.33208600000944,,,,,,,,,11,001,2019_Dec_25_0928,untitled,3.1.0,60.02952252034714,
202,G,M,45,R,N,202GM045RN,HRN,0,194,194,129,,,1.1340000000000001,1182.576858800021,1182.9248711999971,1182.9412904999917,1183.2246516000014,1183.2411088999943,None,down,1183.2411088999943,None,1183.2411088999943,1184.356790699996,0.05880009999964386,None,3.2479417999857105,,,,,,,,,11,001,2019_Dec_25_0928,untitled,3.1.0,60.02952252034714,
452,_5,N,135,R,N,452_5N135RN,HRN,0,195,195,275,,,1.2790000000000001,1186.5576974999858,1186.9056365999859,1186.9212077999837,1187.204845900007,1187.221429599973,None,up,1187.221429599973,None,1187.221429599973,1188.4869698000257,0.06144839996704832,None,3.4308669000165537,,,,,,,,,11,001,2019_Dec_25_0928,untitled,3.1.0,60.02952252034714,
263,_2,N,270,R,N,263_2N270RN,HRN,0,196,196,246,,,0.9470000000000001,1190.7301213999745,1191.0685460999957,1191.084886000026,1191.368031800026,1191.3861801999738,None,up,1191.3861801999738,None,1191.3861801999738,1192.317281799973,0.06821619998663664,None,2.0486479999963194,,,,,,,,,11,001,2019_Dec_25_0928,untitled,3.1.0,60.02952252034714,
_,_2,N,180,_,_,__2N180__,N,0,197,197,76,,,0.875,1193.5148912000004,1193.8489504000172,1193.8660894000204,1194.1490391999832,1194.1655960999778,None,up,1194.1655960999778,None,1194.1655960999778,1195.031454699987,0.07125400000950322,None,2.5340214999741875,,,,,,,,,11,001,2019_Dec_25_0928,untitled,3.1.0,60.02952252034714,
_,R,M,270,_,_,_RM270__,N,0,198,198,22,,,1.366,1196.7725324999774,1197.1134351000073,1197.1296837999835,1197.4124662000104,1197.4290736999828,None,down,1197.4290736999828,None,1197.4290736999828,1198.7778199000168,0.06612819997826591,None,3.197808500030078,,,,,,,,,11,001,2019_Dec_25_0928,untitled,3.1.0,60.02952252034714,
_,_4,M,225,_,_,__4M225__,N,0,199,199,37,,,1.325,1200.7117206000257,1201.043107400008,1201.0593378000194,1201.342363099975,1201.359125500021,None,down,1201.359125500021,None,1201.359125500021,1202.6743676000042,0.0762265000375919,None,2.764299300033599,,,,,,,,,11,001,2019_Dec_25_0928,untitled,3.1.0,60.02952252034714,
138,F,M,45,R,N,138FM045RN,HRN,0,200,200,113,,,1.181,1204.1898597999825,1204.5395169000258,1204.5557026999886,1204.8397886999883,1204.856645699998,None,down,1204.856645699998,None,1204.856645699998,1206.0217015999951,0.059345000016037375,None,2.4493574000080116,,,,,,,,,11,001,2019_Dec_25_0928,untitled,3.1.0,60.02952252034714,
392,_4,N,315,R,N,392_4N315RN,HRN,0,201,201,263,,,0.71,1207.3767711999826,1207.720914800011,1207.7369832000113,1208.0195245000068,1208.0365493000136,None,up,1208.0365493000136,None,1208.0365493000136,1208.7357889999985,0.06374909996520728,None,1.6332311000442132,,,,,,,,,11,001,2019_Dec_25_0928,untitled,3.1.0,60.02952252034714,
035,R,N,90,L,N,035RN090LN,HLN,0,202,202,202,,,1.215,1209.7372329999926,1210.0848591999966,1210.1022312000277,1210.3856775999884,1210.4009795999737,None,up,1210.4009795999737,None,1210.4009795999737,1211.600778800028,0.05989540001610294,None,2.500816499989014,,,,,,,,,11,001,2019_Dec_25_0928,untitled,3.1.0,60.02952252034714,
143,F,M,270,R,N,143FM270RN,HRN,0,203,203,118,,,1.018,1212.968433699978,1213.3158027000027,1213.3322598999948,1213.6150052999728,1213.6317959000007,None,down,1213.6317959000007,None,1213.6317959000007,1214.6307390999864,0.05949219997273758,None,2.4165066000423394,,,,,,,,,11,001,2019_Dec_25_0928,untitled,3.1.0,60.02952252034714,
_,G,M,225,_,_,_GM225__,N,0,204,204,13,,,0.768,1216.1166403000243,1216.462666700012,1216.480206999986,1216.7638507999945,1216.779082700028,None,down,1216.779082700028,None,1216.779082700028,1217.5283287999919,0.0616804999881424,None,2.2165923999855295,,,,,,,,,11,001,2019_Dec_25_0928,untitled,3.1.0,60.02952252034714,
_,R,M,0,_,_,_RM000__,N,0,205,205,16,,,0.89,1219.0605786999804,1219.4098271999974,1219.426395300019,1219.710153300024,1219.7271030999837,None,down,1219.7271030999837,None,1219.7271030999837,1220.5943813999766,0.05766099999891594,None,2.231448799953796,,,,,,,,,11,001,2019_Dec_25_0928,untitled,3.1.0,60.02952252034714,
_,_4,M,315,_,_,__4M315__,N,0,206,206,39,,,0.769,1222.0535699999891,1222.3739490999724,1222.3903914000257,1222.6737705999985,1222.6903037999873,None,down,1222.6903037999873,None,1222.6903037999873,1223.4399981999886,0.08381100004771724,None,1.6657017999677919,,,,,,,,,11,001,2019_Dec_25_0928,untitled,3.1.0,60.02952252034714,
385,_4,N,0,R,N,385_4N000RN,HRN,0,207,207,256,,,0.871,1224.4254251000239,1224.7722662999877,1224.7886621999787,1225.0719771999866,1225.0887706999783,None,up,1225.0887706999783,None,1225.0887706999783,1225.937554700009,0.06266850000247359,None,1.7012781999656,,,,,,,,,11,001,2019_Dec_25_0928,untitled,3.1.0,60.02952252034714,
417,_4,N,0,L,N,417_4N000LN,HLN,0,208,208,264,,,1.321,1226.8563549999963,1227.2033114000224,1227.2198225000175,1227.5029202000005,1227.519482899981,None,up,1227.519482899981,None,1227.519482899981,1228.8183609999833,0.05928700004005805,None,1.9654292999766767,,,,,,,,,11,001,2019_Dec_25_0928,untitled,3.1.0,60.02952252034714,
_,_5,N,135,_,_,__5N135__,N,0,209,209,91,,,0.896,1229.5686919,1229.9010979000013,1229.9177802000195,1230.2012915000087,1230.2177759999759,None,down,1230.2177759999759,None,1230.2177759999759,1231.1001593000256,0.07495270000072196,None,2.3810739000327885,,,,,,,,,11,001,2019_Dec_25_0928,untitled,3.1.0,60.02952252034714,
197,G,N,180,R,N,197GN180RN,HRN,0,210,210,228,,,1.326,1232.6692776000127,1233.0148965999833,1233.0314992999774,1233.3147054999718,1233.3314287000103,None,up,1233.3314287000103,None,1233.3314287000103,1234.646501899988,0.06169529998442158,None,3.230519400036428,,,,,,,,,11,001,2019_Dec_25_0928,untitled,3.1.0,60.02952252034714,
494,_5,M,225,L,N,494_5M225LN,HLN,0,211,211,189,,,0.896,1236.6287894999841,1236.9778284999775,1236.9944473999785,1237.2775541999727,1237.2940765999956,None,None,1237.2940765999956,None,1237.2940765999956,1238.1767938000266,0.05930419999640435,None,,,,,,,,,,11,001,2019_Dec_25_0928,untitled,3.1.0,60.02952252034714,
006,R,N,225,R,N,006RN225RN,HRN,0,212,212,197,,,1.375,1240.8252205000026,1241.1744144000113,1241.1911712000147,1241.4743600999936,1241.4910096999956,1240.8252205000026,up,1241.4910096999956,None,1241.4910096999956,1242.839580299973,0.05918400001246482,None,3.0501603999873623,,,,,,,,,11,001,2019_Dec_25_0928,untitled,3.1.0,60.02952252034714,
_,R,N,0,_,_,_RN000__,N,0,213,213,64,,,1.381,1244.6080174000235,1244.954394600005,1244.9711903000134,1245.254323399975,1245.2707043000264,None,up,1245.2707043000264,None,1245.2707043000264,1246.6375227000099,0.05982069997116923,None,2.1984112999634817,,,,,,,,,11,001,2019_Dec_25_0928,untitled,3.1.0,60.02952252034714,
464,_5,M,315,R,N,464_5M315RN,HRN,0,214,214,183,,,1.09,1247.537338300026,1247.885937199986,1247.9020441999892,1248.1852091000183,1248.2017860999913,None,down,1248.2017860999913,None,1248.2017860999913,1249.2672633000184,0.06153840001206845,None,2.7476794000249356,,,,,,,,,11,001,2019_Dec_25_0928,untitled,3.1.0,60.02952252034714,
199,G,N,270,R,N,199GN270RN,HRN,0,215,215,230,,,1.237,1251.0170469000004,1251.3655598000041,1251.382084699988,1251.6655442999909,1251.6825396000058,None,up,1251.6825396000058,None,1251.6825396000058,1252.8973295000033,0.059611600008793175,None,2.71409040002618,,,,,,,,,11,001,2019_Dec_25_0928,untitled,3.1.0,60.02952252034714,
_,_2,M,135,_,_,__2M135__,N,0,216,216,27,,,0.905,1254.479902799998,1254.8125930000097,1254.829699199996,1255.1124452999793,1255.1287682999973,None,up,1255.1287682999973,None,1255.1287682999973,1256.0110493000248,0.07186840003123507,None,2.350688100035768,,,,,,,,,11,001,2019_Dec_25_0928,untitled,3.1.0,60.02952252034714,
302,_2,M,225,L,N,302_2M225LN,HLN,0,217,217,157,,,1.216,1257.5448099999921,1257.8930712000001,1257.909729100007,1258.1928224000148,1258.209477700002,None,down,1258.209477700002,None,1258.209477700002,1259.4086335999891,0.05839740001829341,None,3.149053399974946,,,,,,,,,11,001,2019_Dec_25_0928,untitled,3.1.0,60.02952252034714,
485,_5,N,180,L,N,485_5N180LN,HLN,0,218,218,284,,,0.758,1261.4386280999752,1261.7732831999892,1261.7895232000155,1262.0728654999984,1262.0893565000151,None,up,1262.0893565000151,None,1262.0893565000151,1262.8395486000227,0.07086159999016672,None,2.7334147000219673,,,,,,,,,11,001,2019_Dec_25_0928,untitled,3.1.0,60.02952252034714,
141,F,M,180,R,N,141FM180RN,HRN,0,219,219,116,,,1.262,1264.8911529000034,1265.2362857999979,1265.2533552999957,1265.5369898999925,1265.5533011999796,None,up,1265.5533011999796,None,1265.5533011999796,1266.801862000022,0.061520099989138544,None,2.4980710999807343,,,,,,,,,11,001,2019_Dec_25_0928,untitled,3.1.0,60.02952252034714,
132,F,N,135,R,N,132FN135RN,HRN,0,220,220,211,,,0.862,1268.119462099974,1268.4675706999842,1268.484025200014,1268.76679720002,1268.7837198000052,None,up,1268.7837198000052,None,1268.7837198000052,1269.6335155999986,0.06129240000154823,None,1.732576600043103,,,,,,,,,11,001,2019_Dec_25_0928,untitled,3.1.0,60.02952252034714,
171,F,M,90,L,N,171FM090LN,HLN,0,221,221,122,,,1.216,1270.5838648999925,1270.9317551000277,1270.9486550000147,1271.2320856999722,1271.2481690000277,None,down,1271.2481690000277,None,1271.2481690000277,1272.4481146999751,0.059845899988431484,None,3.1316521000117064,,,,,,,,,11,001,2019_Dec_25_0928,untitled,3.1.0,60.02952252034714,
173,F,M,180,L,N,173FM180LN,HLN,0,222,222,124,,,1.036,1274.4570652000257,1274.7951497000176,1274.8117966999998,1275.0948921000236,1275.1112965000211,None,down,1275.1112965000211,None,1275.1112965000211,1276.127428399981,0.06834140000864863,None,3.3818530999706127,,,,,,,,,11,001,2019_Dec_25_0928,untitled,3.1.0,60.02952252034714,
198,G,N,225,R,N,198GN225RN,HRN,0,223,223,229,,,0.8140000000000001,1278.5588018000126,1278.9083581999876,1278.9249921999872,1279.20799179998,1279.2251655000146,None,up,1279.2251655000146,None,1279.2251655000146,1280.0239950999967,0.058454599988181144,None,1.9330437000025995,,,,,,,,,11,001,2019_Dec_25_0928,untitled,3.1.0,60.02952252034714,
290,_2,N,45,L,N,290_2N045LN,HLN,0,224,224,249,,,1.158,1281.2559695999953,1281.5726265999838,1281.5904741000268,1281.8726333000232,1281.8891569999978,None,down,1281.8891569999978,None,1281.8891569999978,1283.0382564999745,0.08685079996939749,None,2.2837645999970846,,,,,,,,,11,001,2019_Dec_25_0928,untitled,3.1.0,60.02952252034714,
_,_5,N,45,_,_,__5N045__,N,0,225,225,89,,,0.767,1284.240844600019,1284.5861565999803,1284.6047679000185,1284.887959500018,1284.9028932999936,None,up,1284.9028932999936,None,1284.9028932999936,1285.6524571999907,0.06107459997292608,None,2.4652485999977216,,,,,,,,,11,001,2019_Dec_25_0928,untitled,3.1.0,60.02952252034714,
_,F,M,90,_,_,_FM090__,N,0,226,226,2,,,1.188,1287.4350919999997,1287.784063500003,1287.8004722999758,1288.0836683000089,1288.1000989999739,None,down,1288.1000989999739,None,1288.1000989999739,1289.26607100002,0.058532800001557916,None,2.14872200001264,,,,,,,,,11,001,2019_Dec_25_0928,untitled,3.1.0,60.02952252034714,
425,_4,M,0,L,N,425_4M000LN,HLN,0,227,227,168,,,0.845,1290.3149227999966,1290.6646631999756,1290.6814336000243,1290.9648436999996,1290.9807961999904,None,up,1290.9807961999904,None,1290.9807961999904,1291.8133429000154,0.059121400001458824,None,2.184472499997355,,,,,,,,,11,001,2019_Dec_25_0928,untitled,3.1.0,60.02952252034714,
490,_5,M,45,L,N,490_5M045LN,HLN,0,228,228,185,,,1.393,1293.253004600003,1293.578639400017,1293.5953080999898,1293.8792859999812,1293.895711500023,None,up,1293.895711500023,None,1293.895711500023,1295.2770698000095,0.07849590003024787,None,3.2804470999981277,,,,,,,,,11,001,2019_Dec_25_0928,untitled,3.1.0,60.02952252034714,
298,_2,M,45,L,N,298_2M045LN,HLN,0,229,229,153,,,0.989,1297.2566161999712,1297.591729399981,1297.6083824000088,1297.891255799972,1297.908456699981,None,up,1297.908456699981,None,1297.908456699981,1298.8745058000204,0.07162410003365949,None,2.8997643999755383,,,,,,,,,11,001,2019_Dec_25_0928,untitled,3.1.0,60.02952252034714,
432,_4,M,315,L,N,432_4M315LN,HLN,0,230,230,175,,,1.182,1300.874758800026,1301.2220619000145,1301.238994400017,1301.5220856000087,1301.5391097000102,None,up,1301.5391097000102,None,1301.5391097000102,1302.7043366999715,0.059139099961612374,None,2.0480732999858446,,,,,,,,,11,001,2019_Dec_25_0928,untitled,3.1.0,60.02952252034714,
_,G,M,135,_,_,_GM135__,N,0,231,231,11,,,1.151,1303.6728635000181,1304.0031544999802,1304.0195746999816,1304.3030424999888,1304.3196684999857,None,down,1304.3196684999857,None,1304.3196684999857,1305.4521577000269,0.07708700001239777,None,3.2993099999730475,,,,,,,,,11,001,2019_Dec_25_0928,untitled,3.1.0,60.02952252034714,
013,R,M,180,R,N,013RM180RN,HRN,0,232,232,100,,,0.985,1307.686469200009,1308.032789400022,1308.0496310999733,1308.3326791999862,1308.3496230000164,None,up,1308.3496230000164,None,1308.3496230000164,1309.3148951000185,0.06046240002615377,None,3.36478740000166,,,,,,,,,11,001,2019_Dec_25_0928,untitled,3.1.0,60.02952252034714,
204,G,M,135,R,N,204GM135RN,HRN,0,233,233,131,,,0.745,1311.7807550000143,1312.1293195000035,1312.1458942000172,1312.4289830999915,1312.4462640000274,None,up,1312.4462640000274,None,1312.4462640000274,1313.1783324999851,0.05908320000162348,None,2.766975199978333,,,,,,,,,11,001,2019_Dec_25_0928,untitled,3.1.0,60.02952252034714,
007,R,N,270,R,N,007RN270RN,HRN,0,234,234,198,,,0.779,1315.2818519999855,1315.6264034999767,1315.6431814000243,1315.92642969999,1315.9429649999947,None,up,1315.9429649999947,None,1315.9429649999947,1316.7081513999728,0.06203879998065531,None,1.5151572999893688,,,,,,,,,11,001,2019_Dec_25_0928,untitled,3.1.0,60.02952252034714,
_,_2,M,90,_,_,__2M090__,N,0,235,235,26,,,0.971,1317.5274100999814,1317.8740018000244,1317.8905525999726,1318.173608299985,1318.1907572000055,None,up,1318.1907572000055,None,1318.1907572000055,1319.1398932000156,0.0627111999783665,None,3.182985200022813,,,,,,,,,11,001,2019_Dec_25_0928,untitled,3.1.0,60.02952252034714,
176,F,M,315,L,N,176FM315LN,HLN,0,236,236,127,,,1.066,1321.4400633000187,1321.7876578000141,1321.8046452000272,1322.087084800005,1322.1039029000094,None,down,1322.1039029000094,None,1322.1039029000094,1323.1533517999924,0.0585838999832049,None,3.41370510001434,,,,,,,,,11,001,2019_Dec_25_0928,untitled,3.1.0,60.02952252034714,
169,F,M,0,L,N,169FM000LN,HLN,0,237,237,120,,,1.185,1325.5913788999896,1325.934792999993,1325.950299500022,1326.2336908999714,1326.250171600026,None,down,1326.250171600026,None,1326.250171600026,1327.4165475000045,0.06673680001404136,None,2.8834251000080258,,,,,,,,,11,001,2019_Dec_25_0928,untitled,3.1.0,60.02952252034714,
_,_5,M,0,_,_,__5M000__,N,0,238,238,40,,,1.2790000000000001,1329.1982119000168,1329.547437799978,1329.5650239000097,1329.8474614999723,1329.8643555999734,None,None,1329.8643555999734,None,1329.8643555999734,1331.1301403000252,0.057845299947075546,None,,,,,,,,,,11,001,2019_Dec_25_0928,untitled,3.1.0,60.02952252034714,
484,_5,N,135,L,N,484_5N135LN,HLN,0,239,239,283,,,0.731,1333.396821799979,1333.7438298999914,1333.760567600024,1334.0437972000218,1334.060118000023,1333.396821799979,up,1334.060118000023,None,1334.060118000023,1334.7773398999707,0.06174630002351478,None,1.6841381000122055,,,,,,,,,11,001,2019_Dec_25_0928,untitled,3.1.0,60.02952252034714,
_,_5,N,315,_,_,__5N315__,N,0,240,240,95,,,1.171,1335.8125823999871,1336.1583356999909,1336.1751393000013,1336.4580114000128,1336.474593800027,None,up,1336.474593800027,None,1336.474593800027,1337.6241521000047,0.06180079997284338,None,2.784022699983325,,,,,,,,,11,001,2019_Dec_25_0928,untitled,3.1.0,60.02952252034714,
200,G,N,315,R,N,200GN315RN,HRN,0,241,241,231,,,1.349,1339.3258086999995,1339.6720229000202,1339.6881365000154,1339.9718313000049,1339.9884929999826,None,up,1339.9884929999826,None,1339.9884929999826,1341.320756400004,0.06001680000917986,None,2.5830265000113286,,,,,,,,,11,001,2019_Dec_25_0928,untitled,3.1.0,60.02952252034714,
232,G,N,315,L,N,232GN315LN,HLN,0,242,242,239,,,0.92,1342.6388632999733,1342.9855296000023,1343.0024908999912,1343.2858867999748,1343.3027622000081,None,up,1343.3027622000081,None,1343.3027622000081,1344.2026342999889,0.06042450002860278,None,2.565620700013824,,,,,,,,,11,001,2019_Dec_25_0928,untitled,3.1.0,60.02952252034714,
289,_2,N,0,L,N,289_2N000LN,HLN,0,243,243,248,,,1.2750000000000001,1345.9379088000278,1346.2827675999724,1346.299269500014,1346.5824437999981,1346.5989613999845,None,down,1346.5989613999845,None,1346.5989613999845,1347.8643228000146,0.0627286999952048,None,2.8181219999678433,,,,,,,,,11,001,2019_Dec_25_0928,untitled,3.1.0,60.02952252034714,
043,R,M,90,L,N,043RM090LN,HLN,0,244,244,106,,,0.9520000000000001,1349.5087408000254,1349.82965650002,1349.8466839999892,1350.1296667000279,1350.146289299999,None,down,1350.146289299999,None,1350.146289299999,1351.0790144000202,0.08194539998658001,None,2.264491000038106,,,,,,,,,11,001,2019_Dec_25_0928,untitled,3.1.0,60.02952252034714,
174,F,M,225,L,N,174FM225LN,HLN,0,245,245,125,,,1.247,1352.4772155000246,1352.8272990999976,1352.8444465000066,1353.1274212999851,1353.144548100012,None,down,1353.144548100012,None,1353.144548100012,1354.3756588000106,0.05922309996094555,None,3.0466940000187606,,,,,,,,,11,001,2019_Dec_25_0928,untitled,3.1.0,60.02952252034714,
_,_5,M,135,_,_,__5M135__,N,0,246,246,43,,,0.964,1356.2599996000063,1356.6080851000152,1356.6240022000275,1356.9068799000233,1356.9234273000038,None,down,1356.9234273000038,None,1356.9234273000038,1357.872700900014,0.061989299952983856,None,3.3140985000063665,,,,,,,,,11,001,2019_Dec_25_0928,untitled,3.1.0,60.02952252034714,
454,_5,N,225,R,N,454_5N225RN,HRN,0,247,247,277,,,0.75,1360.304720300017,1360.6539209000184,1360.6539209000184,1360.9542156999814,1360.9707360999892,None,up,1360.9707360999892,None,1360.9707360999892,1361.7025466000196,0.06017230002908036,None,2.366805800003931,,,,,,,,,11,001,2019_Dec_25_0928,untitled,3.1.0,60.02952252034714,
133,F,N,180,R,N,133FN180RN,HRN,0,248,248,212,,,1.067,1363.4046838000068,1363.7508393999888,1363.7676178999827,1364.050539400021,1364.0674281999818,None,up,1364.0674281999818,None,1364.0674281999818,1365.1161946000066,0.0603906000033021,None,2.81804749998264,,,,,,,,,11,001,2019_Dec_25_0928,untitled,3.1.0,60.02952252034714,
300,_2,M,135,L,N,300_2M135LN,HLN,0,249,249,155,,,1.1380000000000001,1366.9541637999937,1367.2988736000261,1367.3144905000227,1367.5977275000187,1367.6142403000267,None,down,1367.6142403000267,None,1367.6142403000267,1368.7302557000075,0.06203530001221225,None,2.6174281999701634,,,,,,,,,11,001,2019_Dec_25_0928,untitled,3.1.0,60.02952252034714,
463,_5,M,270,R,N,463_5M270RN,HRN,0,250,250,182,,,0.991,1370.2971925999736,1370.6449488999788,1370.66168010002,1370.9453434000025,1370.960987999977,None,down,1370.960987999977,None,1370.960987999977,1371.9442856999813,0.05829980003181845,None,3.1482146000489593,,,,,,,,,11,001,2019_Dec_25_0928,untitled,3.1.0,60.02952252034714,
_,_2,M,45,_,_,__2M045__,N,0,251,251,25,,,0.774,1374.1745481999824,1374.5253310999833,1374.5419012000202,1374.826193100016,1374.8414521000232,None,down,1374.8414521000232,None,1374.8414521000232,1375.5903610999812,0.05872930004261434,None,3.4486806000350043,,,,,,,,,11,001,2019_Dec_25_0928,untitled,3.1.0,60.02952252034714,
453,_5,N,180,R,N,453_5N180RN,HRN,0,252,252,276,,,0.844,1378.3584374000202,1378.7045103000128,1378.7218964999774,1379.0043783999863,1379.0208969999803,None,up,1379.0208969999803,None,1379.0208969999803,1379.8541536999983,0.060607099963817745,None,2.882931699976325,,,,,,,,,11,001,2019_Dec_25_0928,untitled,3.1.0,60.02952252034714,
400,_4,M,315,R,N,400_4M315RN,HRN,0,253,253,167,,,0.9510000000000001,1381.984368400008,1382.317864599987,1382.3347421999788,1382.6179230000125,1382.6344578000135,None,up,1382.6344578000135,None,1382.6344578000135,1383.5671104000066,0.07228759996360168,None,2.533883500029333,,,,,,,,,11,001,2019_Dec_25_0928,untitled,3.1.0,60.02952252034714,
_,F,M,270,_,_,_FM270__,N,0,254,254,6,,,0.8260000000000001,1385.234324900026,1385.5819309999933,1385.5984006000217,1385.8817729000002,1385.8982995999977,None,down,1385.8982995999977,None,1385.8982995999977,1386.7148551999708,0.05904480000026524,None,2.9651979000191204,,,,,,,,,11,001,2019_Dec_25_0928,untitled,3.1.0,60.02952252034714,
_,F,N,0,_,_,_FN000__,N,0,255,255,48,,,0.87,1388.9390530000092,1389.2793100000126,1389.2959260999924,1389.57889970002,1389.5949952999945,None,up,1389.5949952999945,None,1389.5949952999945,1390.4447649000213,0.0689289000001736,None,1.7492525999550708,,,,,,,,,11,001,2019_Dec_25_0928,untitled,3.1.0,60.02952252034714,
230,G,N,225,L,N,230GN225LN,HLN,0,256,256,237,,,0.966,1391.4168432999868,1391.7597256000154,1391.7764911000268,1392.059374400007,1392.0759866000153,None,up,1392.0759866000153,None,1392.0759866000153,1393.0255398000008,0.06534440000541508,None,2.2675234000198543,,,,,,,,,11,001,2019_Dec_25_0928,untitled,3.1.0,60.02952252034714,
_,F,M,135,_,_,_FM135__,N,0,257,257,3,,,1.051,1394.4094120999798,1394.7571282999706,1394.7735480000265,1395.0573086999939,1395.0735650000279,None,down,1395.0735650000279,None,1395.0735650000279,1396.1064627000014,0.058974599989596754,None,2.3817807000014,,,,,,,,,11,001,2019_Dec_25_0928,untitled,3.1.0,60.02952252034714,
236,G,M,135,L,N,236GM135LN,HLN,0,258,258,139,,,0.7000000000000001,1397.5428156999988,1397.871420099982,1397.888938500022,1398.1707571999868,1398.1877737999894,None,up,1398.1877737999894,None,1398.1877737999894,1398.8702958999784,0.07852630002889782,None,2.8145021000527777,,,,,,,,,11,001,2019_Dec_25_0928,untitled,3.1.0,60.02952252034714,
_,R,N,225,_,_,_RN225__,N,0,259,259,69,,,1.125,1401.0685117000248,1401.418280599988,1401.4348597999779,1401.7180474000052,1401.7346429000027,None,up,1401.7346429000027,None,1401.7346429000027,1402.8502053000266,0.05850159999681637,None,2.4164037000155076,,,,,,,,,11,001,2019_Dec_25_0928,untitled,3.1.0,60.02952252034714,
162,F,N,45,L,N,162FN045LN,HLN,0,260,260,217,,,0.899,1404.2170727999764,1404.5654088999727,1404.5819668999757,1404.8650649000192,1404.8815615000203,None,up,1404.8815615000203,None,1404.8815615000203,1405.7640661000041,0.05877340002916753,None,2.083513799996581,,,,,,,,,11,001,2019_Dec_25_0928,untitled,3.1.0,60.02952252034714,
239,G,M,270,L,N,239GM270LN,HLN,0,261,261,142,,,0.853,1407.0354687999934,1407.379534800013,1407.3958245000103,1407.679758000013,1407.6966787999845,None,down,1407.6966787999845,None,1407.6966787999845,1408.5281343000242,0.061748199979774654,None,2.913792600040324,,,,,,,,,11,001,2019_Dec_25_0928,untitled,3.1.0,60.02952252034714,
299,_2,M,90,L,N,299_2M090LN,HLN,0,262,262,154,,,1.053,1410.677092100028,1411.0265411,1411.0436604999704,1411.3278030999936,1411.343276300002,None,up,1411.343276300002,None,1411.343276300002,1412.3748723000172,0.059765600017271936,None,3.0970733999856748,,,,,,,,,11,001,2019_Dec_25_0928,untitled,3.1.0,60.02952252034714,
267,_2,M,90,R,N,267_2M090RN,HRN,0,263,263,146,,,0.758,1414.5079563999898,1414.8567156000063,1414.8731356000062,1415.1555492000189,1415.1731965999934,None,up,1415.1731965999934,None,1415.1731965999934,1415.9055705000064,0.06080679997103289,None,1.8151552000199445,,,,,,,,,11,001,2019_Dec_25_0928,untitled,3.1.0,60.02952252034714,
260,_2,N,135,R,N,260_2N135RN,HRN,0,264,264,243,,,1.399,1417.0589767000056,1417.4042793000117,1417.420879399986,1417.703900100023,1417.7203874000115,None,up,1417.7203874000115,None,1417.7203874000115,1419.102583699976,0.06361329997889698,None,2.4006548000033945,,,,,,,,,11,001,2019_Dec_25_0928,untitled,3.1.0,60.02952252034714,
193,G,N,0,R,N,193GN000RN,HRN,0,265,265,224,,,0.752,1420.1950627000188,1420.5348487999872,1420.551423500001,1420.8349119999912,1420.851354399987,None,up,1420.851354399987,None,1420.851354399987,1421.5840129000135,0.06766909995349124,None,1.8320298999897204,,,,,,,,,11,001,2019_Dec_25_0928,untitled,3.1.0,60.02952252034714,
396,_4,M,135,R,N,396_4M135RN,HRN,0,266,266,163,,,1.039,1422.7517314999714,1423.1001017999952,1423.1158773999778,1423.3994105000165,1423.4156316000153,None,up,1423.4156316000153,None,1423.4156316000153,1424.4313908999902,0.060839999991003424,None,3.397950900020078,,,,,,,,,11,001,2019_Dec_25_0928,untitled,3.1.0,60.02952252034714,
_,_4,N,0,_,_,__4N000__,N,0,267,267,80,,,1.292,1426.8801442999975,1427.2289306999883,1427.2456318999757,1427.5286146000144,1427.5457533000153,None,up,1427.5457533000153,None,1427.5457533000153,1428.8277185999905,0.05947889998788014,None,2.031529000028968,,,,,,,,,11,001,2019_Dec_25_0928,untitled,3.1.0,60.02952252034714,
297,_2,M,0,L,N,297_2M000LN,HLN,0,268,268,152,,,1.296,1429.6438710999792,1429.993620000023,1430.0105325999903,1430.2929807999753,1430.309943899978,None,down,1430.309943899978,None,1430.309943899978,1431.5918396000052,0.058864899969194084,None,2.830875499988906,,,,,,,,,11,001,2019_Dec_25_0928,untitled,3.1.0,60.02952252034714,
265,_2,M,0,R,N,265_2M000RN,HRN,0,269,269,144,,,1.17,1433.2078550999868,1433.556727999996,1433.5745850999956,1433.8574396999902,1433.8735279000248,None,up,1433.8735279000248,None,1433.8735279000248,1435.0221789000207,0.05961119994753972,None,2.766700799984392,,,,,,,,,11,001,2019_Dec_25_0928,untitled,3.1.0,60.02952252034714,
033,R,N,0,L,N,033RN000LN,HLN,0,270,270,200,,,1.0230000000000001,1436.7094729000237,1437.0544552999781,1437.0702692000195,1437.352809300006,1437.369640799996,None,up,1437.369640799996,None,1437.369640799996,1438.370196599979,0.06245810003019869,None,2.2681138000334613,,,,,,,,,11,001,2019_Dec_25_0928,untitled,3.1.0,60.02952252034714,
168,F,N,315,L,N,168FN315LN,HLN,0,271,271,223,,,1.344,1439.70450729999,1440.0509665000136,1440.0681136000203,1440.350790700002,1440.3674479000038,None,up,1440.3674479000038,None,1440.3674479000038,1441.6999416999752,0.059977700002491474,None,2.414733699988574,,,,,,,,,11,001,2019_Dec_25_0928,untitled,3.1.0,60.02952252034714,
462,_5,M,225,R,N,462_5M225RN,HRN,0,272,272,181,,,0.78,1442.857949200028,1443.1984369999846,1443.2156149999937,1443.498058600002,1443.514597499976,None,up,1443.514597499976,None,1443.514597499976,1444.2805303999921,0.06847310002194718,None,2.683434500009753,,,,,,,,,11,001,2019_Dec_25_0928,untitled,3.1.0,60.02952252034714,
047,R,M,270,L,N,047RM270LN,HLN,0,273,273,110,,,1.3940000000000001,1446.2646268000244,1446.612274300016,1446.6293277000077,1446.911585199996,1446.9282177999848,None,up,1446.9282177999848,None,1446.9282177999848,1448.3108138000243,0.05993530002888292,None,2.2823015000321902,,,,,,,,,11,001,2019_Dec_25_0928,untitled,3.1.0,60.02952252034714,
231,G,N,270,L,N,231GN270LN,HLN,0,274,274,238,,,1.018,1449.2778233999852,1449.6264705000212,1449.6426183999865,1449.9261761999805,1449.9427881999873,None,up,1449.9427881999873,None,1449.9427881999873,1450.9420610999805,0.05977120000170544,None,2.034592799958773,,,,,,,,,11,001,2019_Dec_25_0928,untitled,3.1.0,60.02952252034714,
203,G,M,90,R,N,203GM090RN,HRN,0,275,275,130,,,1.014,1452.0428834999911,1452.3902828000137,1452.406969100004,1452.6899227999966,1452.7062738999957,None,up,1452.7062738999957,None,1452.7062738999957,1453.7058348000282,0.058378899993840605,None,3.265302200044971,,,,,,,,,11,001,2019_Dec_25_0928,untitled,3.1.0,60.02952252034714,
235,G,M,90,L,N,235GM090LN,HLN,0,276,276,138,,,0.744,1456.0456301000086,1456.3881126000197,1456.4035581999924,1456.6875010000076,1456.7036826999974,None,None,1456.7036826999974,None,1456.7036826999974,1457.4365881999838,0.06719629996223375,None,,,,,,,,,,11,001,2019_Dec_25_0928,untitled,3.1.0,60.02952252034714,
495,_5,M,270,L,N,495_5M270LN,HLN,0,277,277,190,,,1.089,1460.2355229000095,1460.5837281999993,1460.5997847000253,1460.8836880999734,1460.9004957000143,1460.2355229000095,down,1460.9004957000143,None,1460.9004957000143,1461.9647566999774,0.06039160001091659,None,3.2809822999988683,,,,,,,,,11,001,2019_Dec_25_0928,untitled,3.1.0,60.02952252034714,
042,R,M,45,L,N,042RM045LN,HLN,0,278,278,105,,,1.229,1464.2543439000146,1464.5962359000114,1464.613064699981,1464.8965488999966,1464.913231500017,None,None,1464.913231500017,None,1464.913231500017,1466.1282538999803,0.06525310000870377,None,,,,,,,,,,11,001,2019_Dec_25_0928,untitled,3.1.0,60.02952252034714,
130,F,N,45,R,N,130FN045RN,HRN,0,279,279,209,,,1.325,1468.464596099977,1468.7930058999918,1468.8097628999967,1469.0923348999931,1469.108860999986,1468.464596099977,up,1469.108860999986,None,1469.108860999986,1470.4242096000235,0.07924079999793321,None,2.3154902999522164,,,,,,,,,11,001,2019_Dec_25_0928,untitled,3.1.0,60.02952252034714,
207,G,M,270,R,N,207GM270RN,HRN,0,280,280,134,,,0.9500000000000001,1471.5043445000192,1471.8405603999854,1471.856834199978,1472.1399159000139,1472.1566505000228,None,None,1472.1566505000228,None,1472.1566505000228,1473.088932099985,0.06868659995961934,None,,,,,,,,,,11,001,2019_Dec_25_0928,untitled,3.1.0,60.02952252034714,
194,G,N,45,R,N,194GN045RN,HRN,0,281,281,225,,,1.195,1475.6880818000063,1476.0367715000175,1476.0533410999924,1476.3359197999816,1476.3530598999932,1475.6880818000063,up,1476.3530598999932,None,1476.3530598999932,1477.5345620000153,0.061583800008520484,None,2.0323808999964967,,,,,,,,,11,001,2019_Dec_25_0928,untitled,3.1.0,60.02952252034714,
_,G,M,180,_,_,_GM180__,N,0,282,282,12,,,1.302,1478.4551001000218,1478.8003632000182,1478.8173417000216,1479.100839300023,1479.116939599975,None,up,1479.116939599975,None,1479.116939599975,1480.3988243999775,0.06314159999601543,None,3.2832474000169896,,,,,,,,,11,001,2019_Dec_25_0928,untitled,3.1.0,60.02952252034714,
_,R,M,315,_,_,_RM315__,N,0,283,283,23,,,1.3920000000000001,1482.466282600013,1482.8145069999737,1482.8304883000092,1483.1137544999947,1483.1308360000257,None,down,1483.1308360000257,None,1483.1308360000257,1484.512417800026,0.05873970000538975,None,3.446423999965191,,,,,,,,,11,001,2019_Dec_25_0928,untitled,3.1.0,60.02952252034714,
238,G,M,225,L,N,238GM225LN,HLN,0,284,284,141,,,0.852,1486.645224899985,1486.9937813999713,1487.0103825000115,1487.2935162999784,1487.3113387000049,None,down,1487.3113387000049,None,1487.3113387000049,1488.14259459998,0.06076630001189187,None,2.815295699983835,,,,,,,,,11,001,2019_Dec_25_0928,untitled,3.1.0,60.02952252034714,
_,F,N,225,_,_,_FN225__,N,0,285,285,53,,,0.994,1490.19415689999,1490.5407993000117,1490.557279700006,1490.8401803000015,1490.8570413999842,None,up,1490.8570413999842,None,1490.8570413999842,1491.8393862000084,0.06071509997127578,None,2.864454000024125,,,,,,,,,11,001,2019_Dec_25_0928,untitled,3.1.0,60.02952252034714,
389,_4,N,180,R,N,389_4N180RN,HRN,0,286,286,260,,,1.163,1493.7891033000196,1494.13839919999,1494.1537838000222,1494.4369003999745,1494.4538742000004,None,up,1494.4538742000004,None,1494.4538742000004,1495.6029062999878,0.05993089999537915,None,2.884077300026547,,,,,,,,,11,001,2019_Dec_25_0928,untitled,3.1.0,60.02952252034714,
003,R,N,90,R,N,003RN090RN,HRN,0,287,287,194,,,1.229,1497.4186934999889,1497.7508543999866,1497.76753740001,1498.050967600022,1498.0675155000063,None,None,1498.0675155000063,None,1498.0675155000063,1499.2846625000238,0.07200429996009916,None,,,,,,,,,,11,001,2019_Dec_25_0928,untitled,3.1.0,60.02952252034714,
,,,,,,,,,,,,,,,,,,,,,,,,,,,,,1501.5473050000146,None,1512.5209975999896,None,1515.8697180000017,None,1520.7477199999848,None,,,,,,,
