Number,Letter,type,Orientation,human,face_type,image,picture,trials.thisRepN,trials.thisTrialN,trials.thisN,trials.thisIndex,text.started,text.stopped,stimulus_duration,CROSS.started,CROSS.stopped,BLANK.started,BLANK.stopped,TEST.started,TEST.stopped,key_JUDGE.keys,key_JUDGE.started,key_JUDGE.stopped,image_2.started,image_2.stopped,ISI.started,ISI.stopped,key_JUDGE.rt,q1.started,q1.stopped,q2.started,q2.stopped,q3.started,q3.stopped,text_2.started,text_2.stopped,participant,session,date,expName,psychopyVersion,frameRate,
428,_4,M,135,L,N,428_4M135LN,HLN,0,0,0,171,12.396711200010031,None,1.25,54.20050239999546,54.54693320003571,54.54693320003571,54.84652570000617,54.84652570000617,None,None,54.84652570000617,None,54.84652570000617,56.095572800026275,0.06729570002062246,None,,,,,,,,,,12,001,2019_Dec_25_0946,untitled,3.1.0,60.06868251611715,
172,F,M,135,L,N,172FM135LN,HLN,0,1,1,123,,,1.3780000000000001,58.43059530004393,58.77608630002942,58.792673900024965,59.07626370002981,59.09392240003217,58.43059530004393,None,59.09392240003217,None,59.09392240003217,60.4585875000339,0.06308049999643117,None,,,,,,,,,,12,001,2019_Dec_25_0946,untitled,3.1.0,60.06868251611715,
_,_2,M,45,_,_,__2M045__,N,0,2,2,25,,,1.178,62.624854299996514,62.97392600000603,62.98942990001524,63.27253260003636,63.28906730003655,62.624854299996514,down,63.28906730003655,None,63.28906730003655,64.4555278000189,0.060876899980939925,None,1.2501589999883436,,,,,,,,,12,001,2019_Dec_25_0946,untitled,3.1.0,60.06868251611715,
_,_4,N,45,_,_,__4N045__,N,0,3,3,81,,,0.789,64.60638300003484,64.95473769999808,64.97052910004277,65.25444200000493,65.27115700003924,None,up,65.27115700003924,None,65.27115700003924,66.0366147000459,0.059744799975305796,None,2.399688799981959,,,,,,,,,12,001,2019_Dec_25_0946,untitled,3.1.0,60.06868251611715,
483,_5,N,90,L,N,483_5N090LN,HLN,0,4,4,282,,,1.065,67.74548650003271,68.08523160003824,68.1032005000161,68.38491190003697,68.40173189999769,None,up,68.40173189999769,None,68.40173189999769,69.4506018999964,0.06801400001859292,None,2.465491099981591,,,,,,,,,12,001,2019_Dec_25_0946,untitled,3.1.0,60.06868251611715,
234,G,M,45,L,N,234GM045LN,HLN,0,5,5,137,,,1.276,70.93781060003676,71.28247989999363,71.29922800004715,71.58189890003996,71.59906360000605,None,None,71.59906360000605,None,71.59906360000605,72.86427210003603,0.0629031999851577,None,,,,,,,,,,12,001,2019_Dec_25_0946,untitled,3.1.0,60.06868251611715,
240,G,M,315,L,N,240GM315LN,HLN,0,6,6,143,,,0.918,75.13302210002439,75.47883790003834,75.4954322000267,75.77837600000203,75.79457510000793,75.13302210002439,up,75.79457510000793,None,75.79457510000793,None,0.06254300003638491,None,0.7003988999640569,,,,,,,,,12,001,2019_Dec_25_0946,untitled,3.1.0,60.06868251611715,
129,F,N,0,R,N,129FN000RN,HRN,0,7,7,208,,,0.905,76.56358230003389,76.91044960002182,76.92759209999349,77.21044860000256,77.22699130000547,None,up,77.22699130000547,None,77.22699130000547,78.10983770003077,0.06160499999532476,None,2.6004411000176333,,,,,,,,,12,001,2019_Dec_25_0946,untitled,3.1.0,60.06868251611715,
171,F,M,90,L,N,171FM090LN,HLN,0,8,8,122,,,1.244,79.9048314000247,80.24093570001423,80.25786250003148,80.54053920001024,80.55801320000319,None,None,80.55801320000319,None,80.55801320000319,81.78944550000597,0.06927340000402182,None,,,,,,,,,,12,001,2019_Dec_25_0946,untitled,3.1.0,60.06868251611715,
238,G,M,225,L,N,238GM225LN,HLN,0,9,9,141,,,1.283,84.10292360000312,84.43735520000337,84.4544132000301,84.73712290002732,84.75407429999905,84.10292360000312,None,84.75407429999905,None,84.75407429999905,86.02065550000407,0.07425440003862604,None,,,,,,,,,,12,001,2019_Dec_25_0946,untitled,3.1.0,60.06868251611715,
_,_2,M,270,_,_,__2M270__,N,0,10,10,30,,,0.857,88.2858222000068,88.63349940004991,88.65026429999853,88.93347470002482,88.94991030002711,88.2858222000068,None,88.94991030002711,None,88.94991030002711,89.782462400035,0.06114550004713237,None,,,,,,,,,,12,001,2019_Dec_25_0946,untitled,3.1.0,60.06868251611715,
425,_4,M,0,L,N,425_4M000LN,HLN,0,11,11,168,,,0.853,92.48219030001201,92.83003010001266,92.84650050004711,93.1299704000121,93.14645550004207,92.48219030001201,down,93.14645550004207,None,93.14645550004207,None,0.06141119997482747,None,0.0674884999752976,,,,,,,,,12,001,2019_Dec_25_0946,untitled,3.1.0,60.06868251611715,
489,_5,M,0,L,N,489_5M000LN,HLN,0,12,12,184,,,1.081,93.2851467000437,93.62942730000941,93.6467149000382,93.92926340003032,93.94586820004042,None,down,93.94586820004042,None,93.94586820004042,95.01153860002523,0.06353379995562136,None,2.2663936000317335,,,,,,,,,12,001,2019_Dec_25_0946,untitled,3.1.0,60.06868251611715,
299,_2,M,90,L,N,299_2M090LN,HLN,0,13,13,154,,,0.729,96.30465629999526,96.62785940000322,96.64314669999294,96.92659069999354,96.94315210002242,None,None,96.94315210002242,None,96.94315210002242,97.65989380003884,0.08247269998537377,None,,,,,,,,,,12,001,2019_Dec_25_0946,untitled,3.1.0,60.06868251611715,
002,R,N,45,R,N,002RN045RN,HRN,0,14,14,193,,,1.08,100.4800535000395,100.82334550004452,100.83989699999802,101.12304600002244,101.13981710001826,100.4800535000395,None,101.13981710001826,None,101.13981710001826,102.2059094000142,0.06627359997946769,None,,,,,,,,,,12,001,2019_Dec_25_0946,untitled,3.1.0,60.06868251611715,
420,_4,N,135,L,N,420_4N135LN,HLN,0,15,15,267,,,0.924,104.7065821000142,105.01954430004116,105.03600650001317,105.31905410002219,105.33562140003778,104.7065821000142,up,105.33562140003778,None,105.33562140003778,106.25290900003165,0.09272180002881214,None,2.217000200005714,,,,,,,,,12,001,2019_Dec_25_0946,untitled,3.1.0,60.06868251611715,
458,_5,M,45,R,N,458_5M045RN,HRN,0,16,16,177,,,0.743,107.64301130000968,107.96722530003171,107.98387160000857,108.26706590002868,108.28424690000247,None,down,108.28424690000247,None,108.28424690000247,109.01631810003892,0.08176690002437681,None,1.7985935999895446,,,,,,,,,12,001,2019_Dec_25_0946,untitled,3.1.0,60.06868251611715,
455,_5,N,270,R,N,455_5N270RN,HRN,0,17,17,278,,,1.3,110.1523184000398,110.49831100000301,110.51603450003313,110.79865930002416,110.81475340004545,None,up,110.81475340004545,None,110.81475340004545,112.09681560000172,0.06285079999361187,None,2.7330769000109285,,,,,,,,,12,001,2019_Dec_25_0946,untitled,3.1.0,60.06868251611715,
390,_4,N,225,R,N,390_4N225RN,HRN,0,18,18,261,,,1.356,113.61623179999879,113.96200540004065,113.97868090000702,114.26131299999543,114.27795570000308,None,up,114.27795570000308,None,114.27795570000308,115.60982780001359,0.06175930000608787,None,2.2664236999698915,,,,,,,,,12,001,2019_Dec_25_0946,untitled,3.1.0,60.06868251611715,
170,F,M,45,L,N,170FM045LN,HLN,0,19,19,121,,,0.8140000000000001,116.61727950000204,116.95952970004873,116.97591910004849,117.25893450004514,117.27537730004406,None,None,117.27537730004406,None,117.27537730004406,118.07443880004575,0.06597379996674135,None,,,,,,,,,,12,001,2019_Dec_25_0946,untitled,3.1.0,60.06868251611715,
_,G,N,180,_,_,_GN180__,N,0,20,20,60,,,1.224,120.80788480001502,121.15586719999555,121.17283640004462,121.45681970001897,121.4718775000074,120.80788480001502,None,121.4718775000074,None,121.4718775000074,122.67071680002846,0.06197559996508062,None,,,,,,,,,,12,001,2019_Dec_25_0946,untitled,3.1.0,60.06868251611715,
_,_4,M,90,_,_,__4M090__,N,0,21,21,34,,,1.377,125.00359070004197,125.35171459999401,125.36894210003084,125.65182700002333,125.6682129999972,125.00359070004197,None,125.6682129999972,None,125.6682129999972,127.0345956000383,0.059254299965687096,None,,,,,,,,,,12,001,2019_Dec_25_0946,untitled,3.1.0,60.06868251611715,
009,R,M,0,R,N,009RM000RN,HRN,0,22,22,96,,,1.28,129.20035450003343,129.54932940000435,129.54932940000435,129.8498865000438,129.86468679999234,129.20035450003343,down,129.86468679999234,None,129.86468679999234,None,0.06131799996364862,None,0.08370449999347329,,,,,,,,,12,001,2019_Dec_25_0946,untitled,3.1.0,60.06868251611715,
_,R,M,315,_,_,_RM315__,N,0,23,23,23,,,0.985,130.0419015000225,130.36424850003095,130.38092620001407,130.66393660003087,130.68088200001512,None,down,130.68088200001512,None,130.68088200001512,131.64688040001784,0.08434559998568147,None,2.564062899968121,,,,,,,,,12,001,2019_Dec_25_0946,untitled,3.1.0,60.06868251611715,
_,G,M,180,_,_,_GM180__,N,0,24,24,12,,,1.165,133.31309290003264,133.66125290002674,133.67829100001836,133.96160959999543,133.97814080002718,None,None,133.97814080002718,None,133.97814080002718,135.13037690002238,0.061435299983713776,None,,,,,,,,,,12,001,2019_Dec_25_0946,untitled,3.1.0,60.06868251611715,
397,_4,M,180,R,N,397_4M180RN,HRN,0,25,25,164,,,1.3840000000000001,137.52505180001026,137.85912330000428,137.87474450003356,138.15695590001997,138.1735730000073,137.52505180001026,down,138.1735730000073,None,138.1735730000073,139.5392894000397,0.07552419998683035,None,3.0697690999950282,,,,,,,,,12,001,2019_Dec_25_0946,untitled,3.1.0,60.06868251611715,
203,G,M,90,R,N,203GM090RN,HRN,0,26,26,130,,,0.758,141.3123300000443,141.6549310000264,141.6713583000237,141.95480150001822,141.97099410003284,None,down,141.97099410003284,None,141.97099410003284,142.7211496999953,0.06146539998007938,None,2.733259700005874,,,,,,,,,12,001,2019_Dec_25_0946,untitled,3.1.0,60.06868251611715,
_,R,M,135,_,_,_RM135__,N,0,27,27,19,,,1.213,144.78776209999342,145.11884730000747,145.13458680000622,145.41769870003918,145.43469500000356,None,None,145.43469500000356,None,145.43469500000356,146.63276330003282,0.07535110000753775,None,,,,,,,,,,12,001,2019_Dec_25_0946,untitled,3.1.0,60.06868251611715,
297,_2,M,0,L,N,297_2M000LN,HLN,0,28,28,152,,,1.249,148.9935233000433,149.31461830000626,149.33159420004813,149.61411880003288,149.63071340002352,148.9935233000433,None,149.63071340002352,None,149.63071340002352,150.86275980004575,0.08886820002226159,None,,,,,,,,,,12,001,2019_Dec_25_0946,untitled,3.1.0,60.06868251611715,
259,_2,N,90,R,N,259_2N090RN,HRN,0,29,29,242,,,1.3800000000000001,153.17042400001083,153.51006130001042,153.52722490002634,153.81034470000304,153.8268148000352,153.17042400001083,up,153.8268148000352,None,153.8268148000352,155.19189770001685,0.06856700003845617,None,3.397555400035344,,,,,,,,,12,001,2019_Dec_25_0946,untitled,3.1.0,60.06868251611715,
231,G,N,270,L,N,231GN270LN,HLN,0,30,30,238,,,1.293,157.30268120003166,157.64063939999323,157.65907739999238,157.939874600037,157.9571795000229,None,None,157.9571795000229,None,157.9571795000229,159.23860139999306,0.06983559997752309,None,,,,,,,,,,12,001,2019_Dec_25_0946,untitled,3.1.0,60.06868251611715,
482,_5,N,45,L,N,482_5N045LN,HLN,0,31,31,281,,,1.2630000000000001,161.49016960000154,161.8372296000016,161.8535242000362,162.1366603000206,162.15322560002096,161.49016960000154,up,162.15322560002096,None,162.15322560002096,163.40183829999296,0.0630148999625817,None,3.2143830999848433,,,,,,,,,12,001,2019_Dec_25_0946,untitled,3.1.0,60.06868251611715,
419,_4,N,90,L,N,419_4N090LN,HLN,0,32,32,266,,,0.936,165.43739630002528,165.7828096000012,165.8004025000264,166.08422120002797,166.10001940000802,None,up,166.10001940000802,None,166.10001940000802,167.01572270004544,0.06276589998742566,None,2.2483366999658756,,,,,,,,,12,001,2019_Dec_25_0946,untitled,3.1.0,60.06868251611715,
047,R,M,270,L,N,047RM270LN,HLN,0,33,33,110,,,1.066,168.41738009999972,168.7645223000436,168.7820011000149,169.06437229999574,169.08074220002163,None,down,169.08074220002163,None,169.08074220002163,170.13054550002562,0.062361499993130565,None,2.6145301000215113,,,,,,,,,12,001,2019_Dec_25_0946,untitled,3.1.0,60.06868251611715,
_,_5,M,90,_,_,__5M090__,N,0,34,34,42,,,0.8190000000000001,171.77007359999698,172.11078360001557,172.12742620002246,172.41117160004796,172.42759640002623,None,down,172.42759640002623,None,172.42759640002623,173.22708710003644,0.06712349998997524,None,2.732368100027088,,,,,,,,,12,001,2019_Dec_25_0946,untitled,3.1.0,60.06868251611715,
_,R,N,315,_,_,_RN315__,N,0,35,35,71,,,1.202,175.23377560003428,175.5749313000124,175.59166410000762,175.87496750004357,175.8914604000165,None,up,175.8914604000165,None,175.8914604000165,177.07340630004182,0.06670570001006126,None,3.2652693000272848,,,,,,,,,12,001,2019_Dec_25_0946,untitled,3.1.0,60.06868251611715,
298,_2,M,45,L,N,298_2M045LN,HLN,0,36,36,153,,,0.962,179.22388920001686,179.5713808000437,179.58805390005,179.87131360004423,179.8874944000272,None,None,179.8874944000272,None,179.8874944000272,180.83678440004587,0.06017349998001009,None,,,,,,,,,,12,001,2019_Dec_25_0946,untitled,3.1.0,60.06868251611715,
176,F,M,315,L,N,176FM315LN,HLN,0,37,37,127,,,0.912,183.41949840000598,183.76765300001716,183.7843653000309,184.06761750002624,184.08465200004866,183.41949840000598,None,184.08465200004866,None,184.08465200004866,184.98305130004883,0.06177390000084415,None,,,,,,,,,,12,001,2019_Dec_25_0946,untitled,3.1.0,60.06868251611715,
459,_5,M,90,R,N,459_5M090RN,HRN,0,38,38,178,,,0.967,187.61612640001113,187.96407430002,187.980884300021,188.26426520000678,188.2806086000055,187.61612640001113,down,188.2806086000055,None,188.2806086000055,None,0.061524400021880865,None,0.11654449999332428,,,,,,,,,12,001,2019_Dec_25_0946,untitled,3.1.0,60.06868251611715,
463,_5,M,270,R,N,463_5M270RN,HRN,0,39,39,182,,,0.795,188.46486840001307,188.81339660001686,188.83048270002473,189.11304960004054,189.13075930002378,None,up,189.13075930002378,None,189.13075930002378,189.91205590002937,0.0605748999514617,None,1.6993875000043772,,,,,,,,,12,001,2019_Dec_25_0946,untitled,3.1.0,60.06868251611715,
464,_5,M,315,R,N,464_5M315RN,HRN,0,40,40,183,,,0.7000000000000001,190.89930029999232,191.25471120001748,191.2612779000192,191.54406720004044,191.56039600004442,None,down,191.56039600004442,None,191.56039600004442,192.2433782000444,0.06232510000700131,None,2.6987646000343375,,,,,,,,,12,001,2019_Dec_25_0946,untitled,3.1.0,60.06868251611715,
033,R,N,0,L,N,033RN000LN,HLN,0,41,41,200,,,0.9500000000000001,194.34511470003054,194.6753585000406,194.69152250001207,194.97540890000528,194.9914693000028,None,down,194.9914693000028,None,194.9914693000028,195.92409290000796,0.07732619997113943,None,2.264673799974844,,,,,,,,,12,001,2019_Dec_25_0946,untitled,3.1.0,60.06868251611715,
302,_2,M,225,L,N,302_2M225LN,HLN,0,42,42,157,,,1.099,197.32552680000663,197.67222240002593,197.69042590004392,197.9717481000116,197.98839060001774,None,down,197.98839060001774,None,197.98839060001774,199.07115500001237,0.06269809999503195,None,2.7483849999844097,,,,,,,,,12,001,2019_Dec_25_0946,untitled,3.1.0,60.06868251611715,
395,_4,M,90,R,N,395_4M090RN,HRN,0,43,43,162,,,0.847,200.8036146000377,201.152651100012,201.16917730000569,201.45265190000646,201.4693530999939,None,up,201.4693530999939,None,201.4693530999939,202.30173860001378,0.05988490005256608,None,3.098551800008863,,,,,,,,,12,001,2019_Dec_25_0946,untitled,3.1.0,60.06868251611715,
417,_4,N,0,L,N,417_4N000LN,HLN,0,44,44,264,,,1.12,204.63675120001426,204.98255430004792,205.00011220003944,205.28321130003314,205.2989761000499,None,None,205.2989761000499,None,205.2989761000499,206.39757660002215,0.062047299987170845,None,,,,,,,,,,12,001,2019_Dec_25_0946,untitled,3.1.0,60.06868251611715,
427,_4,M,90,L,N,427_4M090LN,HLN,0,45,45,170,,,0.936,208.83323980000569,209.1788741000346,209.19507850002265,209.47795410000253,209.49498700001277,208.83323980000569,down,209.49498700001277,None,209.49498700001277,210.41167350002797,0.06356849998701364,None,3.366092199983541,,,,,,,,,12,001,2019_Dec_25_0946,untitled,3.1.0,60.06868251611715,
398,_4,M,225,R,N,398_4M225RN,HRN,0,46,46,165,,,1.311,212.92988420004258,213.27512609999394,213.2917907999945,213.57504960004007,213.59182279999368,None,down,213.59182279999368,None,213.59182279999368,214.89087580004707,0.06132959999376908,None,2.5340480000013486,,,,,,,,,12,001,2019_Dec_25_0946,untitled,3.1.0,60.06868251611715,
258,_2,N,45,R,N,258_2N045RN,HRN,0,47,47,241,,,0.779,216.19392480002716,216.5388765000389,216.5557004000293,216.83862739999313,216.85521250002785,None,up,216.85521250002785,None,216.85521250002785,217.62160300003598,0.061333200021181256,None,2.732941300026141,,,,,,,,,12,001,2019_Dec_25_0946,untitled,3.1.0,60.06868251611715,
457,_5,M,0,R,N,457_5M000RN,HRN,0,48,48,176,,,1.105,219.68583160004346,220.0038897000486,220.01949470001273,220.3022190000047,220.31971210002666,None,None,220.31971210002666,None,220.31971210002666,221.41837900003884,0.08636160002788529,None,,,,,,,,,,12,001,2019_Dec_25_0946,untitled,3.1.0,60.06868251611715,
484,_5,N,135,L,N,484_5N135LN,HLN,0,49,49,283,,,1.352,223.850904299994,224.19932320003863,224.2160564000369,224.49939940002514,224.51593350002076,223.850904299994,up,224.51593350002076,None,224.51593350002076,None,0.061623500019777566,None,0.20058240002254024,,,,,,,,,12,001,2019_Dec_25_0946,untitled,3.1.0,60.06868251611715,
202,G,M,45,R,N,202GM045RN,HRN,0,50,50,129,,,1.025,224.78911700000754,225.13243930001045,225.1478713999968,225.4315379000036,225.44811200001277,None,down,225.44811200001277,None,225.44811200001277,226.46337660000427,0.06513189995894209,None,2.932167799968738,,,,,,,,,12,001,2019_Dec_25_0946,untitled,3.1.0,60.06868251611715,
387,_4,N,90,R,N,387_4N090RN,HRN,0,51,51,258,,,1.248,228.46144550002646,228.79522670002189,228.81184400001075,229.09477050002897,229.11136500001885,None,down,229.11136500001885,None,229.11136500001885,230.34389400004875,0.07303969998611137,None,3.1481047000270337,,,,,,,,,12,001,2019_Dec_25_0946,untitled,3.1.0,60.06868251611715,
_,G,N,45,_,_,_GN045__,N,0,52,52,57,,,0.738,232.32605370000238,232.67534940002952,232.6917258000467,232.97641900001327,232.99130080000032,None,None,232.99130080000032,None,232.99130080000032,233.70767010003328,0.05986380000831559,None,,,,,,,,,,12,001,2019_Dec_25_0946,untitled,3.1.0,60.06868251611715,
453,_5,N,180,R,N,453_5N180RN,HRN,0,53,53,276,,,1.106,236.5236310000182,236.87227940000594,236.88827300001867,237.17156730004353,237.18790240003727,236.5236310000182,up,237.18790240003727,None,237.18790240003727,238.2709227000014,0.06202200002735481,None,2.982180099992547,,,,,,,,,12,001,2019_Dec_25_0946,untitled,3.1.0,60.06868251611715,
385,_4,N,0,R,N,385_4N000RN,HRN,0,54,54,256,,,1.135,240.2388396000024,240.58516980003333,240.60151430004044,240.8843442000216,240.90118990000337,None,up,240.90118990000337,None,240.90118990000337,242.01700440002605,0.06194250000407919,None,2.9980260000447743,,,,,,,,,12,001,2019_Dec_25_0946,untitled,3.1.0,60.06868251611715,
014,R,M,225,R,N,014RM225RN,HRN,0,55,55,101,,,1.176,243.97840449999785,244.3153173000319,244.33104740001727,244.61509239999577,244.63145690003876,None,None,244.63145690003876,None,244.63145690003876,245.79733070003567,0.07089099998120219,None,,,,,,,,,,12,001,2019_Dec_25_0946,untitled,3.1.0,60.06868251611715,
_,_5,N,180,_,_,__5N180__,N,0,56,56,92,,,1.1300000000000001,248.16475240001455,248.51083020004444,248.5277474000468,248.8113228000002,248.82775729999412,248.16475240001455,down,248.82775729999412,None,248.82775729999412,249.94347640004708,0.061977800040040165,None,2.96459499996854,,,,,,,,,12,001,2019_Dec_25_0946,untitled,3.1.0,60.06868251611715,
237,G,M,180,L,N,237GM180LN,HLN,0,57,57,140,,,0.9580000000000001,251.8844800000079,252.20806940004695,252.22475730004953,252.507537700003,252.52418460004264,None,down,252.52418460004264,None,252.52418460004264,253.47404620004818,0.08289869996951893,None,2.451265199983027,,,,,,,,,12,001,2019_Dec_25_0946,untitled,3.1.0,60.06868251611715,
167,F,N,270,L,N,167FN270LN,HLN,0,58,58,222,,,0.782,255.04260079999221,255.38886080001248,255.40545640001073,255.68834480002988,255.70566320000216,None,up,255.70566320000216,None,255.70566320000216,256.4709428999922,0.060140500019770116,None,2.7805060000391677,,,,,,,,,12,001,2019_Dec_25_0946,untitled,3.1.0,60.06868251611715,
012,R,M,135,R,N,012RM135RN,HRN,0,59,59,99,,,0.787,258.5552627000143,258.9022605000064,258.9189023000072,259.2020868000109,259.21843450004235,None,up,259.21843450004235,None,259.21843450004235,259.98502170003485,0.062409000005573034,None,2.565751900023315,,,,,,,,,12,001,2019_Dec_25_0946,untitled,3.1.0,60.06868251611715,
_,R,N,180,_,_,_RN180__,N,0,60,60,68,,,1.101,261.85454650002066,262.1996768999961,262.2195847000112,262.49936890002573,262.51643130002776,None,down,262.51643130002776,None,262.51643130002776,263.5976443000254,0.06336020003072917,None,2.5804272000095807,,,,,,,,,12,001,2019_Dec_25_0946,untitled,3.1.0,60.06868251611715,
232,G,N,315,L,N,232GN315LN,HLN,0,61,61,239,,,1.172,265.1805667000008,265.5132201000233,265.5303346000146,265.8130877999938,265.83065060002264,None,None,265.83065060002264,None,265.83065060002264,266.97825470002135,0.07584609999321401,None,,,,,,,,,,12,001,2019_Dec_25_0946,untitled,3.1.0,60.06868251611715,
291,_2,N,90,L,N,291_2N090LN,HLN,0,62,62,250,,,0.735,269.362397000019,269.7092499000137,269.7263067000313,270.0090899000061,270.02589140000055,269.362397000019,up,270.02589140000055,None,270.02589140000055,270.74184720002813,0.06122610002057627,None,1.717981499969028,,,,,,,,,12,001,2019_Dec_25_0946,untitled,3.1.0,60.06868251611715,
144,F,M,315,R,N,144FM315RN,HRN,0,63,63,119,,,1.0170000000000001,271.82801650004694,272.157264700043,272.17463260004297,272.45795190002536,272.47381450003013,None,down,272.47381450003013,None,272.47381450003013,273.472874100029,0.07475170004181564,None,2.1150464999955148,,,,,,,,,12,001,2019_Dec_25_0946,untitled,3.1.0,60.06868251611715,
_,F,N,90,_,_,_FN090__,N,0,64,64,50,,,1.1340000000000001,274.6555735000293,275.0050056000473,275.0215900000185,275.3046727000037,275.3213981000008,None,None,275.3213981000008,None,275.3213981000008,276.4372258000076,0.05959159997291863,None,,,,,,,,,,12,001,2019_Dec_25_0946,untitled,3.1.0,60.06868251611715,
_,_4,M,135,_,_,__4M135__,N,0,65,65,35,,,1.051,278.8544986000052,279.20124389999546,279.21801509999204,279.5008603000315,279.5173196000396,278.8544986000052,down,279.5173196000396,None,279.5173196000396,280.5501542999991,0.06279280001763254,None,2.165711499983445,,,,,,,,,12,001,2019_Dec_25_0946,untitled,3.1.0,60.06868251611715,
261,_2,N,180,R,N,261_2N180RN,HRN,0,66,66,244,,,1.2510000000000001,281.7557499000104,282.0987755000242,282.1154276000452,282.3980388000491,282.415902000037,None,up,282.415902000037,None,282.415902000037,283.6482018000097,0.06361969996942207,None,2.8804401999805123,,,,,,,,,12,001,2019_Dec_25_0946,untitled,3.1.0,60.06868251611715,
_,R,N,270,_,_,_RN270__,N,0,67,67,70,,,1.1320000000000001,285.36297350004315,285.7121987999999,285.72893000004115,286.0114961999934,286.0284198000445,None,up,286.0284198000445,None,286.0284198000445,287.144007600029,0.05933680001180619,None,2.4154980999883264,,,,,,,,,12,001,2019_Dec_25_0946,untitled,3.1.0,60.06868251611715,
_,_4,N,90,_,_,__4N090__,N,0,68,68,82,,,1.085,288.5124652000377,288.85977310000453,288.87666090001585,289.15922420000425,289.1762736000237,None,up,289.1762736000237,None,289.1762736000237,290.24208390002605,0.061708099965471774,None,2.565997999976389,,,,,,,,,12,001,2019_Dec_25_0946,untitled,3.1.0,60.06868251611715,
001,R,N,0,R,N,001RN000RN,HRN,0,69,69,192,,,1.262,291.84191580000333,292.156274900015,292.1731764000142,292.4570670000394,292.4728208000306,None,up,292.4728208000306,None,292.4728208000306,293.72236220003106,0.08856900001410395,None,2.166831700014882,,,,,,,,,12,001,2019_Dec_25_0946,untitled,3.1.0,60.06868251611715,
292,_2,N,135,L,N,292_2N135LN,HLN,0,70,70,251,,,1.337,294.7075351999956,295.0545745000127,295.07070490001934,295.3541599000455,295.3704277999932,None,up,295.3704277999932,None,295.3704277999932,296.68632450001314,0.0607503000064753,None,2.415333400014788,,,,,,,,,12,001,2019_Dec_25_0946,untitled,3.1.0,60.06868251611715,
_,G,M,90,_,_,_GM090__,N,0,71,71,10,,,0.785,297.8521953000454,298.20168970001396,298.2180678000441,298.50146060000407,298.51763439999195,None,up,298.51763439999195,None,298.51763439999195,299.28406820003875,0.05951210000785068,None,3.0983935999684036,,,,,,,,,12,001,2019_Dec_25_0946,untitled,3.1.0,60.06868251611715,
_,_4,N,315,_,_,__4N315__,N,0,72,72,87,,,1.189,301.7050756000099,302.03267230000347,302.04797960002907,302.33166500000516,302.34780570003204,None,up,302.34780570003204,None,302.34780570003204,303.5132973000291,0.0792844999814406,None,2.716600699990522,,,,,,,,,12,001,2019_Dec_25_0946,untitled,3.1.0,60.06868251611715,
_,_2,N,270,_,_,__2N270__,N,0,73,73,78,,,0.937,305.13303560001077,305.47802700003376,305.495311900042,305.7781004999997,305.7945966999978,None,up,305.7945966999978,None,305.7945966999978,306.71048750000773,0.06184169999323785,None,2.2150135000119917,,,,,,,,,12,001,2019_Dec_25_0946,untitled,3.1.0,60.06868251611715,
_,F,N,270,_,_,_FN270__,N,0,74,74,54,,,1.175,308.0772573000286,308.42549290001625,308.4428656999953,308.7255097000161,308.74220060004154,None,up,308.74220060004154,None,308.74220060004154,309.8912265000399,0.060462000023107976,None,2.731454799999483,,,,,,,,,12,001,2019_Dec_25_0946,untitled,3.1.0,60.06868251611715,
296,_2,N,315,L,N,296_2N315LN,HLN,0,75,75,255,,,1.381,311.5478010000079,311.88945260003675,311.9061406000401,312.189076700015,312.20703600003617,None,down,312.20703600003617,None,312.20703600003617,313.57128180004656,0.06590159999905154,None,2.5469714000355452,,,,,,,,,12,001,2019_Dec_25_0946,untitled,3.1.0,60.06868251611715,
_,G,M,45,_,_,_GM045__,N,0,76,76,9,,,0.766,314.82000730000436,315.17017400002806,315.1867978000082,315.47017810004763,315.4894606000162,None,down,315.4894606000162,None,315.4894606000162,316.2352071000496,0.058870799955911934,None,2.9111654000007547,,,,,,,,,12,001,2019_Dec_25_0946,untitled,3.1.0,60.06868251611715,
487,_5,N,270,L,N,487_5N270LN,HLN,0,77,77,286,,,1.235,318.4761804000009,318.81641980004497,318.8338892000029,319.1178348000394,319.1335268000257,None,down,319.1335268000257,None,319.1335268000257,320.3491084999987,0.06883520004339516,None,3.2977743999799713,,,,,,,,,12,001,2019_Dec_25_0946,untitled,3.1.0,60.06868251611715,
_,R,N,225,_,_,_RN225__,N,0,78,78,69,,,0.9490000000000001,322.4975295000477,322.8468033000245,322.8638898000354,323.1467058000271,323.16445800004294,None,up,323.16445800004294,None,323.16445800004294,324.0961220000172,0.059257499990053475,None,2.813148200046271,,,,,,,,,12,001,2019_Dec_25_0946,untitled,3.1.0,60.06868251611715,
016,R,M,315,R,N,016RM315RN,HRN,0,79,79,103,,,1.1,326.0469677000074,326.39319760003127,326.40961249999236,326.69307000003755,326.70934420003323,None,down,326.70934420003323,None,326.70934420003323,327.79196940001566,0.06206289998954162,None,3.11640170001192,,,,,,,,,12,001,2019_Dec_25_0946,untitled,3.1.0,60.06868251611715,
013,R,M,180,R,N,013RM180RN,HRN,0,80,80,100,,,0.876,329.894871800032,330.24100060004275,330.25657930003945,330.5396879000473,330.55634500004817,None,None,330.55634500004817,None,330.55634500004817,331.4225428000209,0.06122750003123656,None,,,,,,,,,,12,001,2019_Dec_25_0946,untitled,3.1.0,60.06868251611715,
005,R,N,180,R,N,005RN180RN,HRN,0,81,81,196,,,1.1280000000000001,334.08898290002253,334.436048100004,334.4531627999968,334.73578780004755,334.7525932000135,334.08898290002253,up,334.7525932000135,None,334.7525932000135,335.8680762000149,0.062022099969908595,None,2.2821010000188835,,,,,,,,,12,001,2019_Dec_25_0946,untitled,3.1.0,60.06868251611715,
_,_5,M,225,_,_,__5M225__,N,0,82,82,45,,,0.746,337.10709210002096,337.44981680001365,337.4670676999958,337.75037810002686,337.7669533000444,None,up,337.7669533000444,None,337.7669533000444,338.4989592000493,0.06535420002182946,None,2.715019900002517,,,,,,,,,12,001,2019_Dec_25_0946,untitled,3.1.0,60.06868251611715,
_,_5,N,90,_,_,__5N090__,N,0,83,83,90,,,1.029,340.5533924000338,340.8977407000493,340.9145976,341.19836590002524,341.2132192000281,None,up,341.2132192000281,None,341.2132192000281,342.22971879999386,0.0644666000152938,None,2.899196700018365,,,,,,,,,12,001,2019_Dec_25_0946,untitled,3.1.0,60.06868251611715,
399,_4,M,270,R,N,399_4M270RN,HRN,0,84,84,166,,,1.307,344.18415450002067,344.5276172000449,344.5443222000031,344.8274560000282,344.8443789000157,None,down,344.8443789000157,None,344.8443789000157,346.12605600000825,0.06448729999829084,None,2.3643334999796934,,,,,,,,,12,001,2019_Dec_25_0946,untitled,3.1.0,60.06868251611715,
_,G,M,270,_,_,_GM270__,N,0,85,85,14,,,1.172,347.2768997999956,347.62530410004547,347.64190630003577,347.9246795999934,347.9415167000261,None,None,347.9415167000261,None,347.9415167000261,349.09020400000736,0.0614631999633275,None,,,,,,,,,,12,001,2019_Dec_25_0946,untitled,3.1.0,60.06868251611715,
173,F,M,180,L,N,173FM180LN,HLN,0,86,86,124,,,1.385,351.47591890004696,351.82110620004823,351.8377269000048,352.1213711000164,352.13768290000735,351.47591890004696,up,352.13768290000735,None,352.13768290000735,353.50346660002833,0.06361489999108016,None,3.282461999973748,,,,,,,,,12,001,2019_Dec_25_0946,untitled,3.1.0,60.06868251611715,
007,R,N,270,R,N,007RN270RN,HRN,0,87,87,198,,,1.072,355.5112286999938,355.83458790002624,355.85105709999334,356.1340118999942,356.1506941000116,None,up,356.1506941000116,None,356.1506941000116,357.19981960003497,0.08425399998668581,None,2.1010359000065364,,,,,,,,,12,001,2019_Dec_25_0946,untitled,3.1.0,60.06868251611715,
_,R,N,135,_,_,_RN135__,N,0,88,88,67,,,1.154,358.33094420004636,358.6663732000161,358.68223070004024,358.9652142000268,358.98144560004584,None,up,358.98144560004584,None,358.98144560004584,360.11450900003547,0.07094150001648813,None,2.8006888999952935,,,,,,,,,12,001,2019_Dec_25_0946,untitled,3.1.0,60.06868251611715,
039,R,N,270,L,N,039RN270LN,HLN,0,89,89,206,,,1.24,361.85209590004524,362.195417000039,362.2124792000395,362.4952733000391,362.5115441000089,None,up,362.5115441000089,None,362.5115441000089,363.74419870000565,0.06317259999923408,None,2.083363300014753,,,,,,,,,12,001,2019_Dec_25_0946,untitled,3.1.0,60.06868251611715,
_,_4,N,225,_,_,__4N225__,N,0,90,90,85,,,0.849,364.6600161000388,365.00964180001756,365.02675810002256,365.30954760004533,365.32590530003654,None,up,365.32590530003654,None,365.32590530003654,366.15837509999983,0.058510900009423494,None,2.148540399968624,,,,,,,,,12,001,2019_Dec_25_0946,untitled,3.1.0,60.06868251611715,
_,F,N,0,_,_,_FN000__,N,0,91,91,48,,,0.913,367.5406405000249,367.8906591000268,367.90906269999687,368.19071510003414,368.2067034000065,None,up,368.2067034000065,None,368.2067034000065,369.10630949999904,0.05921109998598695,None,1.8492840999970213,,,,,,,,,12,001,2019_Dec_25_0946,untitled,3.1.0,60.06868251611715,
043,R,M,90,L,N,043RM090LN,HLN,0,92,92,106,,,0.851,370.14321569999447,370.4712811000063,370.48820660001365,370.77163850003853,370.78795420000097,None,down,370.78795420000097,None,370.78795420000097,371.62042660004226,0.0787508999928832,None,3.183702100010123,,,,,,,,,12,001,2019_Dec_25_0946,untitled,3.1.0,60.06868251611715,
481,_5,N,0,L,N,481_5N000LN,HLN,0,93,93,280,,,1.266,374.04145070002414,374.3847752000438,374.40156120003667,374.6852476000204,374.7011357000447,None,up,374.7011357000447,None,374.7011357000447,375.9501911000116,0.06316600000718608,None,3.0179310999810696,,,,,,,,,12,001,2019_Dec_25_0946,untitled,3.1.0,60.06868251611715,
205,G,M,180,R,N,205GM180RN,HRN,0,94,94,132,,,0.834,377.7862761000288,378.13188170001376,378.14855850004824,378.4320329000475,378.4491122000036,None,up,378.4491122000036,None,378.4491122000036,379.2639555000351,0.06045430002268404,None,2.6638804000103846,,,,,,,,,12,001,2019_Dec_25_0946,untitled,3.1.0,60.06868251611715,
008,R,N,315,R,N,008RN315RN,HRN,0,95,95,199,,,0.768,381.18183820002014,381.5283034000313,381.5460024000495,381.828285399999,381.8452016999945,None,up,381.8452016999945,None,381.8452016999945,382.59476070001256,0.062183399975765496,None,2.1148165999911726,,,,,,,,,12,001,2019_Dec_25_0946,untitled,3.1.0,60.06868251611715,
_,R,M,180,_,_,_RM180__,N,0,96,96,20,,,1.094,384.02629350003554,384.3762463000021,384.3929507000139,384.6759631000459,384.6924891000381,None,None,384.6924891000381,None,384.6924891000381,385.77485650003655,0.05910399998538196,None,,,,,,,,,,12,001,2019_Dec_25_0946,untitled,3.1.0,60.06868251611715,
456,_5,N,315,R,N,456_5N315RN,HRN,0,97,97,279,,,1.285,388.23732720001135,388.57240699999966,388.5893602000433,388.8725367000443,388.88957630004734,388.23732720001135,up,388.88957630004734,None,388.88957630004734,390.1544637000188,0.07276670000283048,None,2.3810984999872744,,,,,,,,,12,001,2019_Dec_25_0946,untitled,3.1.0,60.06868251611715,
141,F,M,180,R,N,141FM180RN,HRN,0,98,98,116,,,0.9490000000000001,391.3377669000183,391.68669810000574,391.70316840003943,391.9864441000391,392.00325100001646,None,up,392.00325100001646,None,392.00325100001646,392.9355332000414,0.06033140001818538,None,2.1155851000221446,,,,,,,,,12,001,2019_Dec_25_0946,untitled,3.1.0,60.06868251611715,
389,_4,N,180,R,N,389_4N180RN,HRN,0,99,99,260,,,1.217,394.1853795000352,394.53433960000984,394.5514449000475,394.83354830002645,394.8512655000086,None,up,394.8512655000086,None,394.8512655000086,396.0495018000365,0.0592363000032492,None,2.4486522000515833,,,,,,,,,12,001,2019_Dec_25_0946,untitled,3.1.0,60.06868251611715,
424,_4,N,315,L,N,424_4N315LN,HLN,0,100,100,271,,,1.26,397.3685119000147,397.7148800000432,397.73129220004193,398.01488850003807,398.0313224000274,None,down,398.0313224000274,None,398.0313224000274,399.27994620002573,0.06155919999582693,None,2.880612700013444,,,,,,,,,12,001,2019_Dec_25_0946,untitled,3.1.0,60.06868251611715,
194,G,N,45,R,N,194GN045RN,HRN,0,101,101,225,,,1.189,400.98240050004097,401.32789640000556,401.3450359000126,401.62740190001205,401.6447366999928,None,None,401.6447366999928,None,401.6447366999928,402.8100889000343,0.0627597999991849,None,,,,,,,,,,12,001,2019_Dec_25_0946,untitled,3.1.0,60.06868251611715,
_,_2,N,315,_,_,__2N315__,N,0,102,102,79,,,0.978,405.1794562000432,405.5244325000094,405.5408752000076,405.82447839999804,405.8407162000076,405.1794562000432,up,405.8407162000076,None,405.8407162000076,406.8068696000264,0.06291819998295978,None,2.034875099954661,,,,,,,,,12,001,2019_Dec_25_0946,untitled,3.1.0,60.06868251611715,
449,_5,N,0,R,N,449_5N000RN,HRN,0,103,103,272,,,0.873,407.94369740004186,408.289964399999,408.305545900017,408.58869689999847,408.6052015000023,None,up,408.6052015000023,None,408.6052015000023,409.4547438000445,0.061303500027861446,None,2.6818229999626055,,,,,,,,,12,001,2019_Dec_25_0946,untitled,3.1.0,60.06868251611715,
004,R,N,135,R,N,004RN135RN,HRN,0,104,104,195,,,1.3920000000000001,411.3807575000101,411.70235150004737,411.7193774000043,412.0026532000047,412.01916250004433,None,up,412.01916250004433,None,412.01916250004433,413.4008277000394,0.08425160002661869,None,2.4989982999977656,,,,,,,,,12,001,2019_Dec_25_0946,untitled,3.1.0,60.06868251611715,
396,_4,M,135,R,N,396_4M135RN,HRN,0,105,105,163,,,0.847,414.60010320000583,414.93306660000235,414.94946289999643,415.2325580000179,415.2489558000234,None,None,415.2489558000234,None,415.2489558000234,416.0822168000159,0.07466109999222681,None,,,,,,,,,,12,001,2019_Dec_25_0946,untitled,3.1.0,60.06868251611715,
_,_2,N,135,_,_,__2N135__,N,0,106,106,75,,,0.933,418.78307930001756,419.13068180001574,419.1459678999963,419.42891660000896,419.44526760000736,418.78307930001756,up,419.44526760000736,None,419.44526760000736,420.36145300004864,0.06302439997671172,None,2.0329787000082433,,,,,,,,,12,001,2019_Dec_25_0946,untitled,3.1.0,60.06868251611715,
430,_4,M,225,L,N,430_4M225LN,HLN,0,107,107,173,,,0.837,421.55069240002194,421.8935743000475,421.91155740001705,422.19337320001796,422.21037099999376,None,down,422.21037099999376,None,422.21037099999376,423.02577370003564,0.06547460000729188,None,2.381735300004948,,,,,,,,,12,001,2019_Dec_25_0946,untitled,3.1.0,60.06868251611715,
162,F,N,45,L,N,162FN045LN,HLN,0,108,108,217,,,1.087,424.65970080002444,425.0072350000264,425.0237505999976,425.30752040003426,425.32404950005,None,up,425.32404950005,None,425.32404950005,426.3904175000498,0.0604410000378266,None,2.316165499971248,,,,,,,,,12,001,2019_Dec_25_0946,untitled,3.1.0,60.06868251611715,
_,F,N,225,_,_,_FN225__,N,0,109,109,53,,,1.135,427.706995000015,428.054862399993,428.07216720003635,428.3549100999953,428.3711610000464,None,None,428.3711610000464,None,428.3711610000464,429.4867788000265,0.05948679998982698,None,,,,,,,,,,12,001,2019_Dec_25_0946,untitled,3.1.0,60.06868251611715,
486,_5,N,225,L,N,486_5N225LN,HLN,0,110,110,285,,,0.7000000000000001,431.9383272000123,432.2509100000025,432.2681727000163,432.5516940000234,432.5680016000406,431.9383272000123,down,432.5680016000406,None,432.5680016000406,433.2505412000464,0.09162450005533174,None,1.799026100023184,,,,,,,,,12,001,2019_Dec_25_0946,untitled,3.1.0,60.06868251611715,
_,_2,M,225,_,_,__2M225__,N,0,111,111,29,,,0.8150000000000001,434.43498200003523,434.7826044000103,434.79871550004464,435.08178400003817,435.0989584000199,None,up,435.0989584000199,None,435.0989584000199,435.89790030004224,0.060178899962920696,None,2.566107200051192,,,,,,,,,12,001,2019_Dec_25_0946,untitled,3.1.0,60.06868251611715,
015,R,M,270,R,N,015RM270RN,HRN,0,112,112,102,,,1.165,437.76309610001044,438.07968780002557,438.0955345000257,438.3792708000401,438.39608350000344,None,down,438.39608350000344,None,438.39608350000344,439.5446337000467,0.08687860000645742,None,2.248160499962978,,,,,,,,,12,001,2019_Dec_25_0946,untitled,3.1.0,60.06868251611715,
138,F,M,45,R,N,138FM045RN,HRN,0,113,113,113,,,1.149,440.7344601000077,441.0603138000006,441.0773093000171,441.3597664000117,441.37806810002076,None,down,441.37806810002076,None,441.37806810002076,442.50862840004265,0.08183699997607619,None,2.4300765999942087,,,,,,,,,12,001,2019_Dec_25_0946,untitled,3.1.0,60.06868251611715,
130,F,N,45,R,N,130FN045RN,HRN,0,114,114,209,,,0.995,443.8900219000061,444.2253181000124,444.24069010000676,444.5236116000451,444.5402615000494,None,up,444.5402615000494,None,444.5402615000494,445.5235718000331,0.07281209999928251,None,2.900757599971257,,,,,,,,,12,001,2019_Dec_25_0946,untitled,3.1.0,60.06868251611715,
229,G,N,180,L,N,229GN180LN,HLN,0,115,115,236,,,0.967,447.5252587000141,447.85414630000014,447.87094360002084,448.15412810002454,448.17082340002526,None,up,448.17082340002526,None,448.17082340002526,449.1198648000136,0.07477020000806078,None,2.6652089999988675,,,,,,,,,12,001,2019_Dec_25_0946,untitled,3.1.0,60.06868251611715,
266,_2,M,45,R,N,266_2M045RN,HRN,0,116,116,145,,,1.302,450.9050208000117,451.2523112000199,451.2523112000199,451.55112400004873,451.56786380003905,None,None,451.56786380003905,None,451.56786380003905,452.8498045000015,0.06217689998447895,None,,,,,,,,,,12,001,2019_Dec_25_0946,untitled,3.1.0,60.06868251611715,
165,F,N,180,L,N,165FN180LN,HLN,0,117,117,220,,,1.092,455.099400600011,455.44735450000735,455.4644754000474,455.7470352000091,455.76353769999696,455.099400600011,down,455.76353769999696,None,455.76353769999696,456.82972050004173,0.05984020000323653,None,3.1317088999785483,,,,,,,,,12,001,2019_Dec_25_0946,untitled,3.1.0,60.06868251611715,
163,F,N,90,L,N,163FN090LN,HLN,0,118,118,218,,,1.175,458.9648978000041,459.31316920003155,459.32741359999636,459.61033140000654,459.6269874999998,None,up,459.6269874999998,None,459.6269874999998,460.7925954000093,0.06252089998451993,None,2.082966900023166,,,,,,,,,12,001,2019_Dec_25_0946,untitled,3.1.0,60.06868251611715,
_,R,M,0,_,_,_RM000__,N,0,119,119,16,,,1.256,461.78153290000046,462.1255558000412,462.1422237000079,462.4247481999919,462.44214500003727,None,down,462.44214500003727,None,462.44214500003727,463.6737749000313,0.06438579998211935,None,2.947586600028444,,,,,,,,,12,001,2019_Dec_25_0946,untitled,3.1.0,60.06868251611715,
_,_5,M,45,_,_,__5M045__,N,0,120,120,41,,,1.2730000000000001,465.45742019999307,465.8052220999962,465.8217801999999,466.10527659999207,466.1222213000292,None,None,466.1222213000292,None,466.1222213000292,467.3706609000219,0.061288699973374605,None,,,,,,,,,,12,001,2019_Dec_25_0946,untitled,3.1.0,60.06868251611715,
_,F,M,90,_,_,_FM090__,N,0,121,121,2,,,0.8240000000000001,469.6550392000354,470.0017526000156,470.01843980001286,470.3018224000116,470.31796210003085,469.6550392000354,down,470.31796210003085,None,470.31796210003085,471.11818290001247,0.06210550002288073,None,2.86438939999789,,,,,,,,,12,001,2019_Dec_25_0946,untitled,3.1.0,60.06868251611715,
036,R,N,135,L,N,036RN135LN,HLN,0,122,122,203,,,0.759,473.25024930003565,473.5984384000185,473.61535680003,473.89762160001555,473.91439740004716,None,up,473.91439740004716,None,473.91439740004716,474.64744800003245,0.06111749995034188,None,1.699290300020948,,,,,,,,,12,001,2019_Dec_25_0946,untitled,3.1.0,60.06868251611715,
_,R,M,90,_,_,_RM090__,N,0,123,123,18,,,1.256,475.68060920003336,476.02986260002945,476.0469425000483,476.3294484000071,476.3459367000032,None,None,476.3459367000032,None,476.3459367000032,477.5777930000331,0.059828000026755035,None,,,,,,,,,,12,001,2019_Dec_25_0946,untitled,3.1.0,60.06868251611715,
_,_4,N,180,_,_,__4N180__,N,0,124,124,84,,,0.975,479.8788848000113,480.2262181999977,480.24315140000544,480.52627020003274,480.54287599999225,479.8788848000113,up,480.54287599999225,None,480.54287599999225,481.49206890002824,0.06188479997217655,None,1.349265499971807,,,,,,,,,12,001,2019_Dec_25_0946,untitled,3.1.0,60.06868251611715,
_,_4,M,225,_,_,__4M225__,N,0,125,125,37,,,1.089,481.9611323000281,482.30766400002176,482.3241813000059,482.6074329999974,482.6238629000145,None,down,482.6238629000145,None,482.6238629000145,483.6915873000398,0.06088370003271848,None,2.2835626999731176,,,,,,,,,12,001,2019_Dec_25_0946,untitled,3.1.0,60.06868251611715,
_,_2,N,180,_,_,__2N180__,N,0,126,126,76,,,1.186,484.97255210002186,485.32160339999245,485.33779970003525,485.6214104000246,485.63790210004663,None,up,485.63790210004663,None,485.63790210004663,486.8036640000064,0.057245500036515296,None,2.2311631999909878,,,,,,,,,12,001,2019_Dec_25_0946,untitled,3.1.0,60.06868251611715,
_,_2,M,135,_,_,__2M135__,N,0,127,127,27,,,0.723,487.9389809000422,488.2855234000017,488.3031318000285,488.5858311000047,488.6018605999998,None,up,488.6018605999998,None,488.6018605999998,489.30116070003714,0.06306459999177605,None,2.334015099972021,,,,,,,,,12,001,2019_Dec_25_0946,untitled,3.1.0,60.06868251611715,
225,G,N,0,L,N,225GN000LN,HLN,0,128,128,232,,,1.153,491.00463110004785,491.3491131000337,491.36625880002975,491.6493448000401,491.6656522999983,None,down,491.6656522999983,None,491.6656522999983,492.79818840004737,0.062047499988693744,None,2.8326659000013024,,,,,,,,,12,001,2019_Dec_25_0946,untitled,3.1.0,60.06868251611715,
450,_5,N,45,R,N,450_5N045RN,HRN,0,129,129,273,,,1.289,494.5741108999937,494.91315660002874,494.9297962000128,495.2133592000464,495.2292155000032,None,up,495.2292155000032,None,495.2292155000032,496.4947800000082,0.06844389997422695,None,2.7506087999790907,,,,,,,,,12,001,2019_Dec_25_0946,untitled,3.1.0,60.06868251611715,
289,_2,N,0,L,N,289_2N000LN,HLN,0,130,130,248,,,1.125,498.04626710002776,498.39313010004116,498.41100170003483,498.6933721000096,498.70988570002373,None,down,498.70988570002373,None,498.70988570002373,499.825713200029,0.05972319998545572,None,2.564730500045698,,,,,,,,,12,001,2019_Dec_25_0946,untitled,3.1.0,60.06868251611715,
038,R,N,225,L,N,038RN225LN,HLN,0,131,131,205,,,1.295,501.36070940003265,501.6907667000196,501.7073595999973,501.99101040000096,502.00766570004635,None,up,502.00766570004635,None,502.00766570004635,503.2893019000185,0.07898720004595816,None,2.964729300001636,,,,,,,,,12,001,2019_Dec_25_0946,untitled,3.1.0,60.06868251611715,
201,G,M,0,R,N,201GM000RN,HRN,0,132,132,128,,,0.915,505.0413447000319,505.3874540000106,505.40420670004096,505.688903900038,505.70368760003475,None,down,505.70368760003475,None,505.70368760003475,506.6024175999919,0.062331699999049306,None,3.2164365999633446,,,,,,,,,12,001,2019_Dec_25_0946,untitled,3.1.0,60.06868251611715,
495,_5,M,270,L,N,495_5M270LN,HLN,0,133,133,190,,,0.843,508.98931860004086,509.33469809999224,509.350261100044,509.6334063000395,509.6498985000071,None,down,509.6498985000071,None,509.6498985000071,510.4823975000181,0.062291699985507876,None,2.3820415000081994,,,,,,,,,12,001,2019_Dec_25_0946,untitled,3.1.0,60.06868251611715,
392,_4,N,315,R,N,392_4N315RN,HRN,0,134,134,263,,,1.169,512.1024159000372,512.4480281000142,512.4647016000235,512.748163500044,512.7645140000386,None,up,512.7645140000386,None,512.7645140000386,513.9133167000255,0.06384800001978874,None,2.848402800038457,,,,,,,,,12,001,2019_Dec_25_0946,untitled,3.1.0,60.06868251611715,
304,_2,M,315,L,N,304_2M315LN,HLN,0,135,135,159,,,0.882,515.6861971000326,516.0282681999961,516.0448878000025,516.3283503000275,516.3441882000188,None,down,516.3441882000188,None,516.3441882000188,517.2100860000355,0.06584350002231076,None,3.3315331000485457,,,,,,,,,12,001,2019_Dec_25_0946,untitled,3.1.0,60.06868251611715,
006,R,N,225,R,N,006RN225RN,HRN,0,136,136,197,,,1.1260000000000001,519.7496011000476,520.0913587000105,520.107606500038,520.3912392000202,520.4075729000033,None,up,520.4075729000033,None,520.4075729000033,521.5229826000286,0.06721539999125525,None,2.451416199968662,,,,,,,,,12,001,2019_Dec_25_0946,untitled,3.1.0,60.06868251611715,
136,F,N,315,R,N,136FN315RN,HRN,0,137,137,215,,,1.1380000000000001,522.9406396000413,523.2721262000268,523.2882581000449,523.5718101999955,523.5885288999998,None,down,523.5885288999998,None,523.5885288999998,524.7041100999922,0.07340380002278835,None,3.19752879999578,,,,,,,,,12,001,2019_Dec_25_0946,untitled,3.1.0,60.06868251611715,
451,_5,N,90,R,N,451_5N090RN,HRN,0,138,138,274,,,0.711,526.8522318000323,527.2020567000145,527.219133400009,527.5017845000257,527.5177844000282,None,down,527.5177844000282,None,527.5177844000282,528.217512800009,0.05908040003851056,None,2.6319065000279807,,,,,,,,,12,001,2019_Dec_25_0946,untitled,3.1.0,60.06868251611715,
_,R,M,225,_,_,_RM225__,N,0,139,139,21,,,0.726,530.2317206000444,530.5657954000053,530.582438500016,530.8656517000054,530.881729500019,None,up,530.881729500019,None,530.881729500019,531.5984368000063,0.07321920001413673,None,2.5649565999628976,,,,,,,,,12,001,2019_Dec_25_0946,untitled,3.1.0,60.06868251611715,
485,_5,N,180,L,N,485_5N180LN,HLN,0,140,140,284,,,1.053,533.5171931000077,533.8637878000154,533.8793365000165,534.1630380999995,534.1792551000253,None,None,534.1792551000253,None,534.1792551000253,535.2112781000324,0.06265919998986647,None,,,,,,,,,,12,001,2019_Dec_25_0946,untitled,3.1.0,60.06868251611715,
_,G,N,135,_,_,_GN135__,N,0,141,141,59,,,0.987,537.7161267000483,538.0594015000388,538.0764915000182,538.3594265000429,538.3758624000475,537.7161267000483,up,538.3758624000475,None,538.3758624000475,539.3416791000054,0.06549720000475645,None,2.447904600005131,,,,,,,,,12,001,2019_Dec_25_0946,untitled,3.1.0,60.06868251611715,
_,_2,N,225,_,_,__2N225__,N,0,142,142,77,,,0.8140000000000001,540.8904014000436,541.2499530999921,541.2578516000067,541.5392400000128,541.5562781000044,None,up,541.5562781000044,None,541.5562781000044,542.3553494000225,0.05863500002305955,None,2.5994502999819815,,,,,,,,,12,001,2019_Dec_25_0946,untitled,3.1.0,60.06868251611715,
_,G,N,315,_,_,_GN315__,N,0,143,143,63,,,1.143,544.2233680000063,544.5700635000248,544.586972900026,544.8697433000198,544.8865982000134,None,up,544.8865982000134,None,544.8865982000134,546.0187505999929,0.06090619997121394,None,2.232210199988913,,,,,,,,,12,001,2019_Dec_25_0946,untitled,3.1.0,60.06868251611715,
_,_2,N,90,_,_,__2N090__,N,0,144,144,74,,,1.18,547.1860691000475,547.5342845999985,547.550972099998,547.8338251000387,547.8503413000144,None,None,547.8503413000144,None,547.8503413000144,549.0162835000083,0.06012089998694137,None,,,,,,,,,,12,001,2019_Dec_25_0946,untitled,3.1.0,60.06868251611715,
_,_2,M,180,_,_,__2M180__,N,0,145,145,28,,,1.297,551.3827114000451,551.7303295000456,551.7471123000141,552.0302315000445,552.0467785000219,551.3827114000451,down,552.0467785000219,None,552.0467785000219,None,0.06088149995775893,None,0.8013944999547675,,,,,,,,,12,001,2019_Dec_25_0946,untitled,3.1.0,60.06868251611715,
268,_2,M,135,R,N,268_2M135RN,HRN,0,146,146,147,,,1.159,552.9168800000334,553.2625628000242,553.279181800026,553.5630519000115,553.5792235000408,None,down,553.5792235000408,None,553.5792235000408,554.7273693000316,0.0611299000447616,None,2.414316400012467,,,,,,,,,12,001,2019_Dec_25_0946,untitled,3.1.0,60.06868251611715,
046,R,M,225,L,N,046RM225LN,HLN,0,147,147,109,,,1.099,556.0618725999957,556.4110189999919,556.4266380000045,556.709402700013,556.7268510000431,None,down,556.7268510000431,None,556.7268510000431,557.8084475999931,0.06135179998818785,None,3.26392279996071,,,,,,,,,12,001,2019_Dec_25_0946,untitled,3.1.0,60.06868251611715,
_,_4,M,270,_,_,__4M270__,N,0,148,148,38,,,0.726,560.0744298000354,560.4065503000165,560.4228967000381,560.7060739000444,560.7229352000286,None,None,560.7229352000286,None,560.7229352000286,561.4391008000239,0.07541069999570027,None,,,,,,,,,,12,001,2019_Dec_25_0946,untitled,3.1.0,60.06868251611715,
044,R,M,135,L,N,044RM135LN,HLN,0,149,149,107,,,1.311,564.2559493000153,564.6025111000054,564.6191359999939,564.902015700005,564.919090600044,564.2559493000153,None,564.919090600044,None,564.919090600044,566.2180691999965,0.06110599997919053,None,,,,,,,,,,12,001,2019_Dec_25_0946,untitled,3.1.0,60.06868251611715,
_,_5,M,270,_,_,__5M270__,N,0,150,150,46,,,1.397,568.4499481000239,568.7987858999986,568.8166827000096,569.0984097000328,569.1153725000331,568.4499481000239,down,569.1153725000331,None,569.1153725000331,570.497737800004,0.0601178000215441,None,3.165976900025271,,,,,,,,,12,001,2019_Dec_25_0946,untitled,3.1.0,60.06868251611715,
235,G,M,90,L,N,235GM090LN,HLN,0,151,151,138,,,1.315,572.3483913000091,572.6956195000093,572.712096000032,572.9951145999948,573.0125686000101,None,down,573.0125686000101,None,573.0125686000101,574.310724000039,0.06009399995673448,None,3.29887639998924,,,,,,,,,12,001,2019_Dec_25_0946,untitled,3.1.0,60.06868251611715,
143,F,M,270,R,N,143FM270RN,HRN,0,152,152,118,,,1.159,576.3813039000379,576.725106900034,576.7426637000171,577.0246563000255,577.0418753999984,None,None,577.0418753999984,None,577.0418753999984,578.1907922000391,0.06292659998871386,None,,,,,,,,,,12,001,2019_Dec_25_0946,untitled,3.1.0,60.06868251611715,
_,G,N,0,_,_,_GN000__,N,0,153,153,56,,,0.839,580.5870471000089,580.9215461999993,580.9394214000204,581.2215966000222,581.2573636000161,580.5870471000089,down,581.2573636000161,None,581.2573636000161,582.0545882000006,0.07110699999611825,None,1.6631666000466794,,,,,,,,,12,001,2019_Dec_25_0946,untitled,3.1.0,60.06868251611715,
386,_4,N,45,R,N,386_4N045RN,HRN,0,154,154,257,,,0.797,582.9901789000141,583.3363173000398,583.3529153999989,583.6363533000113,583.6526780000422,None,up,583.6526780000422,None,583.6526780000422,584.4352547000162,0.06222779996460304,None,2.3501854999922216,,,,,,,,,12,001,2019_Dec_25_0946,untitled,3.1.0,60.06868251611715,
269,_2,M,180,R,N,269_2M180RN,HRN,0,155,155,148,,,1.205,586.092730000033,586.4167633000179,586.4336749000358,586.7172034000396,586.7333814000012,None,down,586.7333814000012,None,586.7333814000012,587.932222500036,0.0794515999732539,None,3.0644626999855973,,,,,,,,,12,001,2019_Dec_25_0946,untitled,3.1.0,60.06868251611715,
_,R,N,90,_,_,_RN090__,N,0,156,156,66,,,1.065,589.8702926000115,590.2136112000444,590.2303594000405,590.5131830000319,590.5296495000366,None,None,590.5296495000366,None,590.5296495000366,591.5791369000217,0.06591760000446811,None,,,,,,,,,,12,001,2019_Dec_25_0946,untitled,3.1.0,60.06868251611715,
045,R,M,180,L,N,045RM180LN,HLN,0,157,157,108,,,0.78,594.0616104000364,594.4103349000216,594.4262978000334,594.7095736000338,594.7265323000029,594.0616104000364,None,594.7265323000029,None,594.7265323000029,595.4924759000423,0.061038199986796826,None,,,,,,,,,,12,001,2019_Dec_25_0946,untitled,3.1.0,60.06868251611715,
040,R,N,315,L,N,040RN315LN,HLN,0,158,158,207,,,0.98,598.2583098000032,598.6058842000202,598.6231359000085,598.9065365000279,598.9232481000363,598.2583098000032,up,598.9232481000363,None,598.9232481000363,None,0.06019649998052046,None,0.21759620000375435,,,,,,,,,12,001,2019_Dec_25_0946,untitled,3.1.0,60.06868251611715,
432,_4,M,315,L,N,432_4M315LN,HLN,0,159,159,175,,,0.76,599.2062311000191,599.555766800011,599.5722669000388,599.8556172000244,599.8721290000249,None,up,599.8721290000249,None,599.8721290000249,600.6211191000184,0.058454499987419695,None,1.9312740999739617,,,,,,,,,12,001,2019_Dec_25_0946,untitled,3.1.0,60.06868251611715,
196,G,N,135,R,N,196GN135RN,HRN,0,160,160,227,,,0.937,601.8815707000322,602.2197425000486,602.2364912000485,602.5200583999977,602.5360997000244,None,down,602.5360997000244,None,602.5360997000244,603.452175100043,0.07070790004217997,None,2.4502870999858715,,,,,,,,,12,001,2019_Dec_25_0946,untitled,3.1.0,60.06868251611715,
270,_2,M,225,R,N,270_2M225RN,HRN,0,161,161,149,,,0.997,605.0542339000385,605.4001157000312,605.4167672000476,605.7000497000408,605.7166890000226,None,None,605.7166890000226,None,605.7166890000226,606.6990776000312,0.06053790001897141,None,,,,,,,,,,12,001,2019_Dec_25_0946,untitled,3.1.0,60.06868251611715,
206,G,M,225,R,N,206GM225RN,HRN,0,162,162,133,,,0.77,609.2736476000282,609.596646799997,609.6137386000482,609.8963679000153,609.9139543000492,609.2736476000282,up,609.9139543000492,None,609.9139543000492,610.6629949000198,0.08475569996517152,None,2.547330499975942,,,,,,,,,12,001,2019_Dec_25_0946,untitled,3.1.0,60.06868251611715,
_,_5,M,180,_,_,__5M180__,N,0,163,163,44,,,0.787,612.5282795000239,612.878030300024,612.8938669000054,613.1766368999961,613.1931398000452,None,down,613.1931398000452,None,613.1931398000452,613.9601012000348,0.06020690000150353,None,2.032896000018809,,,,,,,,,12,001,2019_Dec_25_0946,untitled,3.1.0,60.06868251611715,
488,_5,N,315,L,N,488_5N315LN,HLN,0,164,164,287,,,1.272,615.3006121999933,615.641414200014,615.6588588000159,615.9409474999993,615.9577165000373,None,down,615.9577165000373,None,615.9577165000373,617.2067359000212,0.06696079997345805,None,2.7321697000297718,,,,,,,,,12,001,2019_Dec_25_0946,untitled,3.1.0,60.06868251611715,
_,_2,M,90,_,_,__2M090__,N,0,165,165,26,,,1.096,618.7619830000331,619.1052148000454,619.1221100999974,619.4056668000412,619.4213770999922,None,down,619.4213770999922,None,619.4213770999922,620.5045926000457,0.06503100000554696,None,2.6813164000050165,,,,,,,,,12,001,2019_Dec_25_0946,untitled,3.1.0,60.06868251611715,
262,_2,N,225,R,N,262_2N225RN,HRN,0,166,166,245,,,0.927,622.1788491000189,622.5187461000169,622.536132200039,622.8188674999983,622.8351495999959,None,up,622.8351495999959,None,622.8351495999959,623.7345886999974,0.06964960001641884,None,1.8993576999637298,,,,,,,,,12,001,2019_Dec_25_0946,untitled,3.1.0,60.06868251611715,
494,_5,M,225,L,N,494_5M225LN,HLN,0,167,167,189,,,0.96,624.8025292000384,625.1501248000422,625.1664836000418,625.4497414000216,625.4659014000208,None,up,625.4659014000208,None,625.4659014000208,626.4157048000488,0.060701999987941235,None,2.066678899980616,,,,,,,,,12,001,2019_Dec_25_0946,untitled,3.1.0,60.06868251611715,
490,_5,M,45,L,N,490_5M045LN,HLN,0,168,168,185,,,1.0210000000000001,627.6006554000196,627.9475553000229,627.9644063000451,628.2470432000118,628.2638596000033,None,up,628.2638596000033,None,628.2638596000033,629.2626379000139,0.06074539996916428,None,1.7670573000214063,,,,,,,,,12,001,2019_Dec_25_0946,untitled,3.1.0,60.06868251611715,
042,R,M,45,L,N,042RM045LN,HLN,0,169,169,105,,,1.058,630.1094964999938,630.4455957000027,630.4620096000144,630.7448217000347,630.7614871000405,None,None,630.7614871000405,None,630.7614871000405,631.8107786000473,0.07060269999783486,None,,,,,,,,,,12,001,2019_Dec_25_0946,untitled,3.1.0,60.06868251611715,
_,_5,N,270,_,_,__5N270__,N,0,170,170,94,,,0.72,634.2925860999967,634.6421363000409,634.6581346000312,634.9413917000056,634.9573169000214,634.2925860999967,up,634.9573169000214,None,634.9573169000214,635.6575100000482,0.05971409997437149,None,2.0008446000283584,,,,,,,,,12,001,2019_Dec_25_0946,untitled,3.1.0,60.06868251611715,
_,_5,M,0,_,_,__5M000__,N,0,171,171,40,,,1.088,637.0256940000108,637.3729684000136,637.3894561000052,637.6723202000139,637.6887515000417,None,down,637.6887515000417,None,637.6887515000417,638.7545889000176,0.060525800043251365,None,2.733659000019543,,,,,,,,,12,001,2019_Dec_25_0946,untitled,3.1.0,60.06868251611715,
431,_4,M,270,L,N,431_4M270LN,HLN,0,172,172,174,,,1.315,640.4898890000186,640.8359952000319,640.8527422000188,641.1360797000234,641.1528673000284,None,down,641.1528673000284,None,641.1528673000284,642.4512174000265,0.060463599977083504,None,2.3659774000407197,,,,,,,,,12,001,2019_Dec_25_0946,untitled,3.1.0,60.06868251611715,
164,F,N,135,L,N,164FN135LN,HLN,0,173,173,219,,,1.154,643.5872515999945,643.9333580000093,643.9501661999966,644.2329474000144,644.2494415999972,None,up,644.2494415999972,None,644.2494415999972,645.3824807000346,0.06138849997660145,None,2.466385399980936,,,,,,,,,12,001,2019_Dec_25_0946,untitled,3.1.0,60.06868251611715,
294,_2,N,225,L,N,294_2N225LN,HLN,0,174,174,253,,,1.229,646.8045798999956,647.1305053000106,647.1479050000198,647.4304886000464,647.447132900008,None,down,647.447132900008,None,647.447132900008,648.6622257000417,0.07926520000910386,None,3.0152065999573097,,,,,,,,,12,001,2019_Dec_25_0946,untitled,3.1.0,60.06868251611715,
139,F,M,90,R,N,139FM090RN,HRN,0,175,175,114,,,0.968,650.5309348000446,650.8786393000046,650.8938999000238,651.1765419000294,651.1939023000305,None,up,651.1939023000305,None,651.1939023000305,652.1428355000098,0.0616742999991402,None,2.6160564000019804,,,,,,,,,12,001,2019_Dec_25_0946,untitled,3.1.0,60.06868251611715,
133,F,N,180,R,N,133FN180RN,HRN,0,176,176,212,,,0.791,653.8807101999992,654.224344599992,654.2409581000102,654.5246160000097,654.5411120000063,None,down,654.5411120000063,None,654.5411120000063,655.3233629000024,0.06363960000453517,None,2.8190500999917276,,,,,,,,,12,001,2019_Dec_25_0946,untitled,3.1.0,60.06868251611715,
131,F,N,90,R,N,131FN090RN,HRN,0,177,177,210,,,1.0030000000000001,657.4568851999938,657.7712684000144,657.7878385999938,658.070914400043,658.0879052000237,None,down,658.0879052000237,None,658.0879052000237,659.0870773000061,0.08505809999769554,None,2.4480465999804437,,,,,,,,,12,001,2019_Dec_25_0946,untitled,3.1.0,60.06868251611715,
239,G,M,270,L,N,239GM270LN,HLN,0,178,178,142,,,1.207,660.6100754000363,660.9520255000098,660.9687985000201,661.2748308000155,661.2748308000155,None,down,661.2748308000155,None,661.2748308000155,662.4507945000078,0.0674284000415355,None,2.275292000034824,,,,,,,,,12,001,2019_Dec_25_0946,untitled,3.1.0,60.06868251611715,
290,_2,N,45,L,N,290_2N045LN,HLN,0,179,179,249,,,0.763,663.6384638000163,663.9658519999939,663.9830748999957,664.2660223999992,664.2831367000472,None,up,664.2831367000472,None,664.2831367000472,665.0320204000454,0.07979540002997965,None,2.347485499980394,,,,,,,,,12,001,2019_Dec_25_0946,untitled,3.1.0,60.06868251611715,
_,R,M,45,_,_,_RM045__,N,0,180,180,17,,,0.733,666.6987367999973,667.0472830000217,667.0633526000311,667.3467630000087,667.3629196000402,None,down,667.3629196000402,None,667.3629196000402,668.0790710000438,0.06066599994665012,None,2.4828377999947406,,,,,,,,,12,001,2019_Dec_25_0946,untitled,3.1.0,60.06868251611715,
303,_2,M,270,L,N,303_2M270LN,HLN,0,181,181,158,,,0.783,669.91731790005,670.2608600000385,670.2770070999977,670.5603602000047,670.5770280000288,None,None,670.5770280000288,None,670.5770280000288,671.3428056000266,0.0644421000033617,None,,,,,,,,,,12,001,2019_Dec_25_0946,untitled,3.1.0,60.06868251611715,
041,R,M,0,L,N,041RM000LN,HLN,0,182,182,104,,,1.119,674.1357312000473,674.4562736999942,674.4738390000421,674.7564781000256,674.7729880000115,674.1357312000473,down,674.7729880000115,None,674.7729880000115,675.8725073999958,0.08858909999253228,None,2.747957599989604,,,,,,,,,12,001,2019_Dec_25_0946,untitled,3.1.0,60.06868251611715,
161,F,N,0,L,N,161FN000LN,HLN,0,183,183,216,,,0.908,677.5879387000459,677.9369309000322,677.9536159000127,678.2378041000338,678.2534801000147,None,down,678.2534801000147,None,678.2534801000147,679.1355571000022,0.05989529995713383,None,3.0977441999712028,,,,,,,,,12,001,2019_Dec_25_0946,untitled,3.1.0,60.06868251611715,
295,_2,N,270,L,N,295_2N270LN,HLN,0,184,184,254,,,1.313,681.4312963000266,681.7670310999965,681.7847059000051,682.0668065000209,682.0834363000467,None,up,682.0834363000467,None,682.0834363000467,683.3823841999983,0.0729066000203602,None,2.498805800045375,,,,,,,,,12,001,2019_Dec_25_0946,untitled,3.1.0,60.06868251611715,
_,F,M,45,_,_,_FM045__,N,0,185,185,1,,,0.725,684.6497086000163,684.9975669000414,685.014221600024,685.2975988000399,685.3143029000494,None,down,685.3143029000494,None,685.3143029000494,686.0131587000214,0.06072700000368059,None,2.131713500013575,,,,,,,,,12,001,2019_Dec_25_0946,untitled,3.1.0,60.06868251611715,
_,F,N,135,_,_,_FN135__,N,0,186,186,51,,,0.805,687.5289155000355,687.8625090999994,687.878411600017,688.1617130000377,688.1790246000164,None,up,688.1790246000164,None,688.1790246000164,688.9603169000475,0.07293669995851815,None,2.1989498999901116,,,,,,,,,12,001,2019_Dec_25_0946,untitled,3.1.0,60.06868251611715,
_,_5,N,135,_,_,__5N135__,N,0,187,187,91,,,0.933,690.4445015999954,690.792668100039,690.8096817000187,691.0941078000469,691.109129599994,None,None,691.109129599994,None,691.109129599994,692.0247910000035,0.059411499998532236,None,,,,,,,,,,12,001,2019_Dec_25_0946,untitled,3.1.0,60.06868251611715,
142,F,M,225,R,N,142FM225RN,HRN,0,188,188,117,,,0.8260000000000001,694.6419604000403,694.9889858000097,695.0062497000326,695.2884992000181,695.3051433000364,694.6419604000403,up,695.3051433000364,None,695.3051433000364,696.1044502000441,0.06249729997944087,None,3.116076900041662,,,,,,,,,12,001,2019_Dec_25_0946,untitled,3.1.0,60.06868251611715,
454,_5,N,225,R,N,454_5N225RN,HRN,0,189,189,277,,,1.399,698.4877375999931,698.8358088000095,698.8524362000171,699.1357505000196,699.1525526000187,None,up,699.1525526000187,None,699.1525526000187,700.5345707000233,0.0595224000280723,None,2.6972844999982044,,,,,,,,,12,001,2019_Dec_25_0946,untitled,3.1.0,60.06868251611715,
426,_4,M,45,L,N,426_4M045LN,HLN,0,190,190,169,,,1.046,701.9178552000085,702.2658691999968,702.2824870000477,702.5668148000259,702.582455500029,None,up,702.582455500029,None,702.582455500029,703.6150559000089,0.0610424000187777,None,2.847815199987963,,,,,,,,,12,001,2019_Dec_25_0946,untitled,3.1.0,60.06868251611715,
_,_5,M,135,_,_,__5M135__,N,0,191,191,43,,,1.3840000000000001,705.5152908000164,705.8468257000204,705.8626559000113,706.1470853000064,706.1633677000063,None,down,706.1633677000063,None,706.1633677000063,707.5275938000414,0.0770069999853149,None,2.965160600026138,,,,,,,,,12,001,2019_Dec_25_0946,untitled,3.1.0,60.06868251611715,
423,_4,N,270,L,N,423_4N270LN,HLN,0,192,192,270,,,0.8170000000000001,709.1961978000472,709.5435255000484,709.5599556000088,709.8431298999931,709.8600022000028,None,down,709.8600022000028,None,709.8600022000028,710.6601605000324,0.06086570001207292,None,2.348849300004076,,,,,,,,,12,001,2019_Dec_25_0946,untitled,3.1.0,60.06868251611715,
233,G,M,0,L,N,233GM000LN,HLN,0,193,193,136,,,1.033,712.279413100041,712.6233153000358,712.640052200004,712.9231604000088,712.9398320000037,None,down,712.9398320000037,None,712.9398320000037,713.9552519000135,0.06338840001262724,None,2.3815001000184566,,,,,,,,,12,001,2019_Dec_25_0946,untitled,3.1.0,60.06868251611715,
462,_5,M,225,R,N,462_5M225RN,HRN,0,194,194,181,,,1.03,715.3966183000011,715.7375743000302,715.7542528000195,716.0371162000229,716.0540723000304,None,down,716.0540723000304,None,716.0540723000304,717.0691464000265,0.06845700001576915,None,3.18214029999217,,,,,,,,,12,001,2019_Dec_25_0946,untitled,3.1.0,60.06868251611715,
418,_4,N,45,L,N,418_4N045LN,HLN,0,195,195,265,,,1.343,719.3045865000458,719.6510525000049,719.6679239000077,719.951286400028,719.9680032000178,None,up,719.9680032000178,None,719.9680032000178,721.299201100017,0.06128630001330748,None,3.213263299956452,,,,,,,,,12,001,2019_Dec_25_0946,untitled,3.1.0,60.06868251611715,
204,G,M,135,R,N,204GM135RN,HRN,0,196,196,131,,,1.3800000000000001,723.2489789000247,723.5980063000461,723.614238500013,723.8970451000496,723.9135561000439,None,None,723.9135561000439,None,723.9135561000439,725.2792927999981,0.06062750000273809,None,,,,,,,,,,12,001,2019_Dec_25_0946,untitled,3.1.0,60.06868251611715,
193,G,N,0,R,N,193GN000RN,HRN,0,197,197,224,,,1.397,727.4479960000026,727.7935987000237,727.8101980999927,728.0932818000438,728.1100429000217,727.4479960000026,None,728.1100429000217,None,728.1100429000217,729.4920430000057,0.06362110003829002,None,,,,,,,,,,12,001,2019_Dec_25_0946,untitled,3.1.0,60.06868251611715,
_,F,N,315,_,_,_FN315__,N,0,198,198,55,,,1.31,731.6416842000326,731.9899702999974,732.0066219000146,732.2902432000265,732.3062889000284,731.6416842000326,up,732.3062889000284,None,732.3062889000284,733.6050273000146,0.0603222000063397,None,2.7978814000380225,,,,,,,,,12,001,2019_Dec_25_0946,untitled,3.1.0,60.06868251611715,
228,G,N,135,L,N,228GN135LN,HLN,0,199,199,235,,,0.962,735.1787103000097,735.5205733000184,735.5367705000099,735.8197154999943,735.8363452000194,None,up,735.8363452000194,None,735.8363452000194,736.7860704000341,0.06700869998894632,None,2.2820298000006005,,,,,,,,,12,001,2019_Dec_25_0946,untitled,3.1.0,60.06868251611715,
169,F,M,0,L,N,169FM000LN,HLN,0,200,200,120,,,1.186,738.192399099993,738.5340891000233,738.5507847000263,738.8347939000232,738.8507020000252,None,up,738.8507020000252,None,738.8507020000252,740.0173674999969,0.06626959994900972,None,2.847644000023138,,,,,,,,,12,001,2019_Dec_25_0946,untitled,3.1.0,60.06868251611715,
_,_5,N,45,_,_,__5N045__,N,0,201,201,89,,,0.704,741.7664283000049,742.1157811000012,742.1308072000393,742.4145901000011,742.4311375000398,None,up,742.4311375000398,None,742.4311375000398,743.113259900012,0.06153249996714294,None,1.7824132000096142,,,,,,,,,12,001,2019_Dec_25_0946,untitled,3.1.0,60.06868251611715,
_,F,M,270,_,_,_FM270__,N,0,202,202,6,,,0.8230000000000001,744.2851664000191,744.629034200043,744.6463385000243,744.9283021000447,744.9452974000014,None,up,744.9452974000014,None,744.9452974000014,745.7444791000453,0.06477520003682002,None,2.5825533000170253,,,,,,,,,12,001,2019_Dec_25_0946,untitled,3.1.0,60.06868251611715,
492,_5,M,135,L,N,492_5M135LN,HLN,0,203,203,187,,,0.9400000000000001,747.5969759,747.943361200043,747.9600776000298,748.2432043000008,748.2598956000293,None,None,748.2598956000293,None,748.2598956000293,749.1750522000366,0.06154179997975007,None,,,,,,,,,,12,001,2019_Dec_25_0946,untitled,3.1.0,60.06868251611715,
199,G,N,270,R,N,199GN270RN,HRN,0,204,204,230,,,1.1,751.7910776000354,752.1391385000315,752.15662720002,752.4398859000066,752.4553344000014,751.7910776000354,up,752.4553344000014,None,752.4553344000014,753.5374938000459,0.06131169997388497,None,3.1149136000312865,,,,,,,,,12,001,2019_Dec_25_0946,untitled,3.1.0,60.06868251611715,
452,_5,N,135,R,N,452_5N135RN,HRN,0,205,205,275,,,0.855,755.6404259999981,755.9859286000137,756.0026467000134,756.2862019000459,756.3020893000066,None,None,756.3020893000066,None,756.3020893000066,757.1347043000278,0.06235070002730936,None,,,,,,,,,,12,001,2019_Dec_25_0946,untitled,3.1.0,60.06868251611715,
168,F,N,315,L,N,168FN315LN,HLN,0,206,206,223,,,0.871,759.8337973000016,760.182166100014,760.1992064000224,760.4815103000146,760.4988936000154,759.8337973000016,down,760.4988936000154,None,760.4988936000154,761.3476651000092,0.060559900011867285,None,2.63332659995649,,,,,,,,,12,001,2019_Dec_25_0946,untitled,3.1.0,60.06868251611715,
496,_5,M,315,L,N,496_5M315LN,HLN,0,207,207,191,,,0.768,763.1999441999942,763.5459260000498,763.5622952000122,763.8463792999974,763.862224600045,None,down,763.862224600045,None,763.862224600045,764.6111335000023,0.06099460000405088,None,2.983690499968361,,,,,,,,,12,001,2019_Dec_25_0946,untitled,3.1.0,60.06868251611715,
_,G,N,90,_,_,_GN090__,N,0,208,208,58,,,1.178,766.9160503000021,767.259137200017,767.2759752999991,767.558967799996,767.5757403000025,None,up,767.5757403000025,None,767.5757403000025,768.741121100029,0.0635928999981843,None,2.5355052999802865,,,,,,,,,12,001,2019_Dec_25_0946,untitled,3.1.0,60.06868251611715,
208,G,M,315,R,N,208GM315RN,HRN,0,209,209,135,,,1.048,770.1823599000345,770.5235025000293,770.539895199996,770.8229451000225,770.8393804000225,None,down,770.8393804000225,None,770.8393804000225,771.8718988000182,0.06399910000618547,None,2.8185612999950536,,,,,,,,,12,001,2019_Dec_25_0946,untitled,3.1.0,60.06868251611715,
226,G,N,45,L,N,226GN045LN,HLN,0,210,210,233,,,1.397,773.7272201000014,774.0703042999958,774.0869956000242,774.3706255000434,774.3875555000268,None,up,774.3875555000268,None,774.3875555000268,775.7684419000288,0.06248819996835664,None,3.031956300023012,,,,,,,,,12,001,2019_Dec_25_0946,untitled,3.1.0,60.06868251611715,
293,_2,N,180,L,N,293_2N180LN,HLN,0,211,211,252,,,1.194,777.4875540999928,777.8339975000126,777.8501549999928,778.1329282000079,778.149631200009,None,None,778.149631200009,None,778.149631200009,779.3318538000458,0.061136200034525245,None,,,,,,,,,,12,001,2019_Dec_25_0946,untitled,3.1.0,60.06868251611715,
_,_5,M,315,_,_,__5M315__,N,0,212,212,47,,,1.254,781.6805124999955,782.029942299996,782.0464179000119,782.3294453000417,782.3460536000202,781.6805124999955,down,782.3460536000202,None,782.3460536000202,783.5783051000326,0.060625699989032,None,2.9822505000047386,,,,,,,,,12,001,2019_Dec_25_0946,untitled,3.1.0,60.06868251611715,
_,_4,N,0,_,_,__4N000__,N,0,213,213,80,,,0.891,785.4005047000246,785.7432149000233,785.759706300043,786.0432170000277,786.0593504999997,None,up,786.0593504999997,None,786.0593504999997,786.92509720003,0.06595560000278056,None,1.9005190000170842,,,,,,,,,12,001,2019_Dec_25_0946,untitled,3.1.0,60.06868251611715,
_,_5,N,315,_,_,__5N315__,N,0,214,214,95,,,1.309,788.0272359999944,788.3748419000185,788.3910555000184,788.6740466000047,788.6905855000368,None,up,788.6905855000368,None,788.6905855000368,789.9893703000271,0.060589500004425645,None,2.558352099964395,,,,,,,,,12,001,2019_Dec_25_0946,untitled,3.1.0,60.06868251611715,
195,G,N,90,R,N,195GN090RN,HRN,0,215,215,226,,,1.262,791.3157825000235,791.6550975000137,791.6716109000263,791.9709220000077,791.9709220000077,None,up,791.9709220000077,None,791.9709220000077,793.2195763000054,0.05975870002293959,None,2.7812469000346027,,,,,,,,,12,001,2019_Dec_25_0946,untitled,3.1.0,60.06868251611715,
035,R,N,90,L,N,035RN090LN,HLN,0,216,216,202,,,0.715,794.8213384000119,795.1685145000229,795.1848472999991,795.4683964000433,795.4854149000021,None,up,795.4854149000021,None,795.4854149000021,796.1840956000378,0.06184829998528585,None,1.6149770999909379,,,,,,,,,12,001,2019_Dec_25_0946,untitled,3.1.0,60.06868251611715,
300,_2,M,135,L,N,300_2M135LN,HLN,0,217,217,155,,,1.223,797.1705903999973,797.5164347999962,797.533070400008,797.8161169000086,797.8344026000123,None,down,797.8344026000123,None,797.8344026000123,799.0315089999931,0.06266890000551939,None,3.147630199964624,,,,,,,,,12,001,2019_Dec_25_0946,untitled,3.1.0,60.06868251611715,
391,_4,N,270,R,N,391_4N270RN,HRN,0,218,218,262,,,1.306,801.0492754000006,801.3977003000327,801.4128200000268,801.6957394000492,801.712391100009,None,up,801.712391100009,None,801.712391100009,802.9948063000338,0.06062620005104691,None,2.48288510000566,,,,,,,,,12,001,2019_Dec_25_0946,untitled,3.1.0,60.06868251611715,
388,_4,N,135,R,N,388_4N135RN,HRN,0,219,219,259,,,1.0170000000000001,804.264206300024,804.6115358000388,804.6284795000101,804.9122114000493,804.9275460000499,None,up,804.9275460000499,None,804.9275460000499,805.9253791000228,0.061869599972851574,None,2.780284999986179,,,,,,,,,12,001,2019_Dec_25_0946,untitled,3.1.0,60.06868251611715,
_,G,M,135,_,_,_GM135__,N,0,220,220,11,,,0.935,807.7775760000222,808.1234869000036,808.1399931000196,808.422996200039,808.4407674000249,None,down,808.4407674000249,None,808.4407674000249,809.3562853000476,0.06305659998906776,None,2.8129326999769546,,,,,,,,,12,001,2019_Dec_25_0946,untitled,3.1.0,60.06868251611715,
_,G,M,225,_,_,_GM225__,N,0,221,221,13,,,0.799,811.3220312000485,811.6705098000239,811.6872587000253,811.9706083000056,811.9867733000428,None,down,811.9867733000428,None,811.9867733000428,812.7694955000188,0.06132239999715239,None,3.1496178000234067,,,,,,,,,12,001,2019_Dec_25_0946,untitled,3.1.0,60.06868251611715,
134,F,N,225,R,N,134FN225RN,HRN,0,222,222,213,,,1.234,815.2279400000116,815.551201299997,815.5673500000266,815.8505897000432,815.8673166999943,None,up,815.8673166999943,None,815.8673166999943,817.0824573000427,0.08053370000561699,None,2.8656424999935552,,,,,,,,,12,001,2019_Dec_25_0946,untitled,3.1.0,60.06868251611715,
_,_4,M,315,_,_,__4M315__,N,0,223,223,39,,,1.078,818.801190600032,819.1472844000091,819.1642460000003,819.4471864000079,819.4634701000177,None,down,819.4634701000177,None,819.4634701000177,820.5293667000369,0.06035559996962547,None,2.883438200049568,,,,,,,,,12,001,2019_Dec_25_0946,untitled,3.1.0,60.06868251611715,
_,_4,N,135,_,_,__4N135__,N,0,224,224,83,,,0.841,822.4365492000361,822.760924000002,822.777716200042,823.0603719000355,823.0773699000129,None,up,823.0773699000129,None,823.0773699000129,823.9100095000467,0.08041649998631328,None,2.0997261000447907,,,,,,,,,12,001,2019_Dec_25_0946,untitled,3.1.0,60.06868251611715,
010,R,M,45,R,N,010RM045RN,HRN,0,225,225,97,,,1.2770000000000001,825.2458044000086,825.5919813000364,825.6086159000406,825.892556100036,825.9081006000051,None,None,825.9081006000051,None,825.9081006000051,827.1735593000194,0.062180700013414025,None,,,,,,,,,,12,001,2019_Dec_25_0946,untitled,3.1.0,60.06868251611715,
_,G,M,0,_,_,_GM000__,N,0,226,226,8,,,0.9440000000000001,829.4404435000033,829.7887514000176,829.805187400023,830.0883773000096,830.1044289999991,829.4404435000033,down,830.1044289999991,None,830.1044289999991,831.0380099000176,0.06108480005059391,None,2.353193199960515,,,,,,,,,12,001,2019_Dec_25_0946,untitled,3.1.0,60.06868251611715,
_,_2,N,45,_,_,__2N045__,N,0,227,227,73,,,1.391,832.5247901999974,832.8687915000482,832.8856664000195,833.1684416999924,833.185435499996,None,up,833.185435499996,None,833.185435499996,834.567245000042,0.059800399991218,None,2.6978584000025876,,,,,,,,,12,001,2019_Dec_25_0946,untitled,3.1.0,60.06868251611715,
_,_4,M,0,_,_,__4M000__,N,0,228,228,32,,,1.236,835.9516467000358,836.2993400000269,836.3159066000371,836.5989355000202,836.6151669000392,None,down,836.6151669000392,None,836.6151669000392,837.8310003000079,0.061391199997160584,None,2.598462700028904,,,,,,,,,12,001,2019_Dec_25_0946,untitled,3.1.0,60.06868251611715,
200,G,N,315,R,N,200GN315RN,HRN,0,229,229,231,,,1.1500000000000001,839.283347700024,839.6295999000431,839.6458721000236,839.9298156000441,839.945889900031,None,up,839.945889900031,None,839.945889900031,841.0783013000037,0.06227039999794215,None,2.2983296000165865,,,,,,,,,12,001,2019_Dec_25_0946,untitled,3.1.0,60.06868251611715,
011,R,M,90,R,N,011RM090RN,HRN,0,230,230,98,,,1.221,842.3162970000412,842.6603118000203,842.676757600042,842.9598200000473,842.9764550999971,None,down,842.9764550999971,None,842.9764550999971,844.1758188999956,0.06468889996176586,None,2.333892399969045,,,,,,,,,12,001,2019_Dec_25_0946,untitled,3.1.0,60.06868251611715,
_,F,M,135,_,_,_FM135__,N,0,231,231,3,,,0.758,845.389721500047,845.7237816000124,845.7408636000473,846.023646000016,846.0402368000359,None,down,846.0402368000359,None,846.0402368000359,846.7895634000306,0.07072750001680106,None,2.032962099998258,,,,,,,,,12,001,2019_Dec_25_0946,untitled,3.1.0,60.06868251611715,
394,_4,M,45,R,N,394_4M045RN,HRN,0,232,232,161,,,1.034,848.1477432000102,848.4887778999982,848.5048186000204,848.7887120000087,848.8049873000127,None,down,848.8049873000127,None,848.8049873000127,849.8209700000007,0.06733509997138754,None,2.899818299978506,,,,,,,,,12,001,2019_Dec_25_0946,untitled,3.1.0,60.06868251611715,
301,_2,M,180,L,N,301_2M180LN,HLN,0,233,233,156,,,1.0,851.7736753000063,852.1188034000224,852.1353439000086,852.4186198000098,852.4352176000248,None,up,852.4352176000248,None,852.4352176000248,853.4174174999935,0.061923000030219555,None,2.4482800999539904,,,,,,,,,12,001,2019_Dec_25_0946,untitled,3.1.0,60.06868251611715,
_,G,N,225,_,_,_GN225__,N,0,234,234,61,,,1.114,854.9520509000286,855.2995548000326,855.3161252000136,855.5989910000353,855.615696599998,None,down,855.615696599998,None,855.615696599998,856.7151860000449,0.06131159997312352,None,2.682182299962733,,,,,,,,,12,001,2019_Dec_25_0946,untitled,3.1.0,60.06868251611715,
400,_4,M,315,R,N,400_4M315RN,HRN,0,235,235,167,,,0.976,858.3689564000233,858.7130615000497,858.7295650000451,859.0130479999934,859.0293129000347,None,None,859.0293129000347,None,859.0293129000347,859.995415900019,0.0643992000259459,None,,,,,,,,,,12,001,2019_Dec_25_0946,untitled,3.1.0,60.06868251611715,
257,_2,N,0,R,N,257_2N000RN,HRN,0,236,236,240,,,1.34,862.5596375000314,862.9109182000393,862.9258446000167,863.208587900037,863.2255560000194,862.5596375000314,down,863.2255560000194,None,863.2255560000194,864.5408594000037,0.05890250002266839,None,2.41513230005512,,,,,,,,,12,001,2019_Dec_25_0946,untitled,3.1.0,60.06868251611715,
140,F,M,135,R,N,140FM135RN,HRN,0,237,237,115,,,0.932,865.7090180999949,866.0570325000444,866.0731405999977,866.3564555000048,866.3727948000305,None,None,866.3727948000305,None,866.3727948000305,867.288890100026,0.06149960000766441,None,,,,,,,,,,12,001,2019_Dec_25_0946,untitled,3.1.0,60.06868251611715,
175,F,M,270,L,N,175FM270LN,HLN,0,238,238,126,,,1.066,869.904640600027,870.2529161000275,870.2692320999922,870.5538826000411,870.56938120001,869.904640600027,down,870.56938120001,None,870.56938120001,871.6187044000253,0.06046830001287162,None,2.1001836999785155,,,,,,,,,12,001,2019_Dec_25_0946,untitled,3.1.0,60.06868251611715,
_,_2,N,0,_,_,__2N000__,N,0,239,239,72,,,0.8140000000000001,872.7367096000235,873.0840739000123,873.1004217000445,873.384095699992,873.40014350001,None,up,873.40014350001,None,873.40014350001,874.1996626000036,0.06051350000780076,None,1.9991821000003256,,,,,,,,,12,001,2019_Dec_25_0946,untitled,3.1.0,60.06868251611715,
135,F,N,270,R,N,135FN270RN,HRN,0,240,240,214,,,1.223,875.4698098000372,875.8142644000473,875.8322602999979,876.1145529000205,876.1307994000381,None,up,876.1307994000381,None,876.1307994000381,877.3300824000034,0.06364269996993244,None,2.217376399959903,,,,,,,,,12,001,2019_Dec_25_0946,untitled,3.1.0,60.06868251611715,
_,F,M,225,_,_,_FM225__,N,0,241,241,5,,,1.249,878.4208717000438,878.7621201000293,878.7788834000239,879.0622575000161,879.0788569000433,None,down,879.0788569000433,None,879.0788569000433,880.3107525000232,0.06557159998919815,None,3.2987327000009827,,,,,,,,,12,001,2019_Dec_25_0946,untitled,3.1.0,60.06868251611715,
271,_2,M,270,R,N,271_2M270RN,HRN,0,242,242,150,,,0.982,882.4617170999991,882.7921518000076,882.8084017999936,883.0920777000138,883.1081913000089,None,down,883.1081913000089,None,883.1081913000089,884.0742896000156,0.07466509996447712,None,2.6648182999924757,,,,,,,,,12,001,2019_Dec_25_0946,untitled,3.1.0,60.06868251611715,
048,R,M,315,L,N,048RM315LN,HLN,0,243,243,111,,,1.012,885.8544127999921,886.1888795000268,886.2070127000334,886.4892299000057,886.5053539000219,None,up,886.5053539000219,None,886.5053539000219,887.5041024000384,0.07210559997474775,None,2.764293899992481,,,,,,,,,12,001,2019_Dec_25_0946,untitled,3.1.0,60.06868251611715,
198,G,N,225,R,N,198GN225RN,HRN,0,244,244,229,,,0.912,889.3541757999919,889.6859560000012,889.7033695999999,889.9855923000141,890.0027691000141,None,up,890.0027691000141,None,890.0027691000141,890.9014323000447,0.07637580001028255,None,1.9159835000173189,,,,,,,,,12,001,2019_Dec_25_0946,untitled,3.1.0,60.06868251611715,
493,_5,M,180,L,N,493_5M180LN,HLN,0,245,245,188,,,1.319,891.9870278000017,892.3337515000021,892.349963500048,892.6335840999964,892.6499474000302,None,up,892.6499474000302,None,892.6499474000302,893.9487891000463,0.05993250000756234,None,2.681579500029329,,,,,,,,,12,001,2019_Dec_25_0946,untitled,3.1.0,60.06868251611715,
_,R,N,0,_,_,_RN000__,N,0,246,246,64,,,1.374,895.4013978000148,895.747811200039,895.7643581000157,896.0485001000343,896.0639970000484,None,up,896.0639970000484,None,896.0639970000484,897.4124911000254,0.06286659999750555,None,2.282736599969212,,,,,,,,,12,001,2019_Dec_25_0946,untitled,3.1.0,60.06868251611715,
_,F,M,0,_,_,_FM000__,N,0,247,247,0,,,1.083,898.4146384000196,898.7614614000195,898.7780186000164,899.061517300026,899.0779722000007,None,down,899.0779722000007,None,899.0779722000007,900.1433529999922,0.06079340004362166,None,2.1981411000015214,,,,,,,,,12,001,2019_Dec_25_0946,untitled,3.1.0,60.06868251611715,
460,_5,M,135,R,N,460_5M135RN,HRN,0,248,248,179,,,1.074,901.3454368000384,901.6922788000084,901.7087642000406,901.9918687000172,902.0085001999978,None,up,902.0085001999978,None,902.0085001999978,903.0574346000212,0.06229099998017773,None,2.3674211999750696,,,,,,,,,12,001,2019_Dec_25_0946,untitled,3.1.0,60.06868251611715,
132,F,N,135,R,N,132FN135RN,HRN,0,249,249,211,,,0.891,904.4456903000246,904.7899173000478,904.8061740000267,905.0894222999923,905.1058960999944,None,down,905.1058960999944,None,905.1058960999944,905.9716405000072,0.0625690000015311,None,2.332213399989996,,,,,,,,,12,001,2019_Dec_25_0946,untitled,3.1.0,60.06868251611715,
_,_5,N,0,_,_,__5N000__,N,0,250,250,88,,,1.295,907.5083739000256,907.8534454000182,907.8702171000186,908.1533424000372,908.1698495000019,None,up,908.1698495000019,None,908.1698495000019,909.4520314999972,0.06382189999567345,None,2.098494599980768,,,,,,,,,12,001,2019_Dec_25_0946,untitled,3.1.0,60.06868251611715,
263,_2,N,270,R,N,263_2N270RN,HRN,0,251,251,246,,,0.709,910.3357403000118,910.684796400019,910.7012472000206,910.9841049000388,911.0006845000316,None,up,911.0006845000316,None,911.0006845000316,911.6839958000346,0.05986889998894185,None,1.733496800006833,,,,,,,,,12,001,2019_Dec_25_0946,untitled,3.1.0,60.06868251611715,
260,_2,N,135,R,N,260_2N135RN,HRN,0,252,252,243,,,1.368,912.8023460000404,913.1494483000133,913.1658506999956,913.4486471000127,913.4657499000314,None,up,913.4657499000314,None,913.4657499000314,914.8145411000005,0.06127659999765456,None,2.6497072000056505,,,,,,,,,12,001,2019_Dec_25_0946,untitled,3.1.0,60.06868251611715,
_,F,M,180,_,_,_FM180__,N,0,253,253,4,,,0.896,916.1832814000081,916.5294814000372,916.5460137000191,916.8294502000208,916.8459508999949,None,up,916.8459508999949,None,916.8459508999949,917.7277954000165,0.06084970000665635,None,3.0806707000010647,,,,,,,,,12,001,2019_Dec_25_0946,untitled,3.1.0,60.06868251611715,
_,F,N,180,_,_,_FN180__,N,0,254,254,52,,,1.076,919.9941324000247,920.3429830000387,920.3593678000034,920.6422369999927,920.6602864000015,None,None,920.6602864000015,None,920.6602864000015,921.7086851000204,0.06047339999349788,None,,,,,,,,,,12,001,2019_Dec_25_0946,untitled,3.1.0,60.06868251611715,
_,_4,M,45,_,_,__4M045__,N,0,255,255,33,,,1.008,924.1919101999956,924.5394155000104,924.5558874999988,924.83893670002,924.855857400049,924.1919101999956,up,924.855857400049,None,924.855857400049,925.8378417000058,0.059891399985644966,None,2.3149591999826953,,,,,,,,,12,001,2019_Dec_25_0946,untitled,3.1.0,60.06868251611715,
137,F,M,0,R,N,137FM000RN,HRN,0,256,256,112,,,0.974,927.2444530000212,927.586473000003,927.6033609000151,927.8860210000421,927.9029227000428,None,down,927.9029227000428,None,927.9029227000428,928.852626500011,0.06646489998092875,None,2.8978859999915585,,,,,,,,,12,001,2019_Dec_25_0946,untitled,3.1.0,60.06868251611715,
_,R,M,270,_,_,_RM270__,N,0,257,257,22,,,0.866,930.8673010000493,931.2170476000174,931.2723926000181,931.5169695999939,931.5334909000085,None,down,931.5334909000085,None,931.5334909000085,932.3826601000037,0.05852040002355352,None,2.816331000009086,,,,,,,,,12,001,2019_Dec_25_0946,untitled,3.1.0,60.06868251611715,
197,G,N,180,R,N,197GN180RN,HRN,0,258,258,228,,,1.341,934.434761600045,934.7637408000301,934.7801995000336,935.0632557000499,935.0795279000304,None,up,935.0795279000304,None,935.0795279000304,936.4120922000147,0.07593950000591576,None,2.748327400011476,,,,,,,,,12,001,2019_Dec_25_0946,untitled,3.1.0,60.06868251611715,
230,G,N,225,L,N,230GN225LN,HLN,0,259,259,237,,,1.098,937.9031939000124,938.2437117000227,938.2604181999923,938.5435258999933,938.5598966000252,None,up,938.5598966000252,None,938.5598966000252,939.6424784000264,0.06857510004192591,None,1.7839566000038758,,,,,,,,,12,001,2019_Dec_25_0946,untitled,3.1.0,60.06868251611715,
227,G,N,90,L,N,227GN090LN,HLN,0,260,260,234,,,0.873,940.4117192000267,940.7579274000018,940.7747500000405,941.0583486999967,941.0748858000152,None,down,941.0748858000152,None,941.0748858000152,941.9238864000072,0.06120359996566549,None,1.0838438000064343,,,,,,,,,12,001,2019_Dec_25_0946,untitled,3.1.0,60.06868251611715,
003,R,N,90,R,N,003RN090RN,HRN,0,261,261,194,,,0.781,942.2260848000296,942.5732428000192,942.5901581000071,942.8733633999946,942.8896397000062,None,down,942.8896397000062,None,942.8896397000062,None,0.05963780003366992,None,0.5353107000119053,,,,,,,,,12,001,2019_Dec_25_0946,untitled,3.1.0,60.06868251611715,
265,_2,M,0,R,N,265_2M000RN,HRN,0,262,262,144,,,1.29,943.49349600001,943.8388185999938,943.8560411999933,944.1389079000219,944.1552166000474,None,up,944.1552166000474,None,944.1552166000474,945.421052300022,0.06190710002556443,None,2.6152767000021413,,,,,,,,,12,001,2019_Dec_25_0946,untitled,3.1.0,60.06868251611715,
_,_4,N,270,_,_,__4N270__,N,0,263,263,86,,,1.387,946.8394111000234,947.1857432000106,947.2031248999992,947.4855204000487,947.5034336000099,None,up,947.5034336000099,None,947.5034336000099,948.8679107000353,0.06223669997416437,None,3.2816583000239916,,,,,,,,,12,001,2019_Dec_25_0946,untitled,3.1.0,60.06868251611715,
_,_2,M,315,_,_,__2M315__,N,0,264,264,31,,,0.84,950.8514051000238,951.1992633000482,951.2156805000268,951.4993015000364,951.5159007000038,None,down,951.5159007000038,None,951.5159007000038,952.3313087000279,0.05990739999106154,None,2.19853019999573,,,,,,,,,12,001,2019_Dec_25_0946,untitled,3.1.0,60.06868251611715,
_,_2,M,0,_,_,__2M000__,N,0,265,265,24,,,1.066,953.783928400022,954.1295622000471,954.1467156000435,954.4293785000336,954.4458354000235,None,down,954.4458354000235,None,954.4458354000235,955.495297400048,0.061101900006178766,None,1.9821203999454156,,,,,,,,,12,001,2019_Dec_25_0946,untitled,3.1.0,60.06868251611715,
421,_4,N,180,L,N,421_4N180LN,HLN,0,266,266,268,,,1.215,956.4961190000176,956.844079100003,956.8618174000294,957.1439209000091,957.1604551000055,None,None,957.1604551000055,None,957.1604551000055,958.3593880000408,0.06135640002321452,None,,,,,,,,,,12,001,2019_Dec_25_0946,untitled,3.1.0,60.06868251611715,
264,_2,N,315,R,N,264_2N315RN,HRN,0,267,267,247,,,1.248,960.6948683999944,961.0405396000133,961.0574075000477,961.3406338000204,961.3568086000159,960.6948683999944,up,961.3568086000159,None,961.3568086000159,962.5890313000418,0.06009500002255663,None,2.964776700013317,,,,,,,,,12,001,2019_Dec_25_0946,untitled,3.1.0,60.06868251611715,
174,F,M,225,L,N,174FM225LN,HLN,0,268,268,125,,,0.783,964.3989333999925,964.7376955000218,964.7539434999926,965.0379448000458,965.0533945000498,None,up,965.0533945000498,None,965.0533945000498,965.819229900022,0.07032609998714179,None,3.367270999995526,,,,,,,,,12,001,2019_Dec_25_0946,untitled,3.1.0,60.06868251611715,
_,G,N,270,_,_,_GN270__,N,0,269,269,62,,,1.177,968.4895383000257,968.8339569999953,968.850502300018,969.1334225000464,969.1500937000383,None,up,969.1500937000383,None,969.1500937000383,970.3151827999973,0.061333500023465604,None,2.6510078000137582,,,,,,,,,12,001,2019_Dec_25_0946,untitled,3.1.0,60.06868251611715,
_,F,N,45,_,_,_FN045__,N,0,270,270,49,,,0.9380000000000001,971.8658647999982,972.2146560000256,972.2308179000393,972.5138632000308,972.5305232999963,None,down,972.5305232999963,None,972.5305232999963,973.4460915999953,0.057389199966564775,None,2.2332614000188187,,,,,,,,,12,001,2019_Dec_25_0946,untitled,3.1.0,60.06868251611715,
422,_4,N,225,L,N,422_4N225LN,HLN,0,271,271,269,,,0.732,974.8542877000291,975.1780426000478,975.1948785000131,975.4782953000395,975.4941475000232,None,down,975.4941475000232,None,975.4941475000232,976.2105346000171,0.0821202999795787,None,2.5503820000449196,,,,,,,,,12,001,2019_Dec_25_0946,untitled,3.1.0,60.06868251611715,
_,F,M,315,_,_,_FM315__,N,0,272,272,7,,,0.789,978.1126591000357,978.4592179000028,978.4753263000166,978.7587422000361,978.7748612000141,None,down,978.7748612000141,None,978.7748612000141,979.5411376000266,0.06131939997430891,None,2.1168195999925956,,,,,,,,,12,001,2019_Dec_25_0946,untitled,3.1.0,60.06868251611715,
166,F,N,225,L,N,166FN225LN,HLN,0,273,273,221,,,0.917,980.9591632999945,981.3068443000084,981.3226855000248,981.6060793999932,981.6225455999956,None,up,981.6225455999956,None,981.6225455999956,982.5221850000089,0.06022730004042387,None,2.431678000022657,,,,,,,,,12,001,2019_Dec_25_0946,untitled,3.1.0,60.06868251611715,
207,G,M,270,R,N,207GM270RN,HRN,0,274,274,134,,,1.097,984.1317325000418,984.4703496000147,984.4865452999948,984.769717600022,984.7861009000335,None,down,984.7861009000335,None,984.7861009000335,985.8683753000223,0.06954609998501837,None,2.5648405000101775,,,,,,,,,12,001,2019_Dec_25_0946,untitled,3.1.0,60.06868251611715,
_,_4,M,180,_,_,__4M180__,N,0,275,275,36,,,1.0170000000000001,987.4184968000045,987.7671846000012,987.784632600029,988.0677015000256,988.0837874000426,None,up,988.0837874000426,None,988.0837874000426,989.0834042000351,0.060928700026124716,None,3.114176300005056,,,,,,,,,12,001,2019_Dec_25_0946,untitled,3.1.0,60.06868251611715,
267,_2,M,90,R,N,267_2M090RN,HRN,0,276,276,146,,,0.888,991.2666451000259,991.6147317000432,991.6305668000132,991.9135648999945,991.9301521000452,None,down,991.9301521000452,None,991.9301521000452,992.7956223000074,0.060713799961376935,None,2.9478835000190884,,,,,,,,,12,001,2019_Dec_25_0946,untitled,3.1.0,60.06868251611715,
_,R,N,45,_,_,_RN045__,N,0,277,277,65,,,0.714,994.9477871000418,995.294627299998,995.3115248000249,995.593968900037,995.6102412000182,None,None,995.6102412000182,None,995.6102412000182,996.3099657000275,0.06297999998787418,None,,,,,,,,,,12,001,2019_Dec_25_0946,untitled,3.1.0,60.06868251611715,
034,R,N,45,L,N,034RN045LN,HLN,0,278,278,201,,,1.3920000000000001,999.145559400029,999.490302900027,999.5069776000455,999.7907538000145,999.8066945000319,999.145559400029,down,999.8066945000319,None,999.8066945000319,None,0.06354190001729876,None,0.2846576000447385,,,,,,,,,12,001,2019_Dec_25_0946,untitled,3.1.0,60.06868251611715,
_,G,M,315,_,_,_GM315__,N,0,279,279,15,,,0.913,1000.1746273000026,1000.5059203000274,1000.5231345000211,1000.805854300037,1000.8224304000032,None,down,1000.8224304000032,None,1000.8224304000032,1001.7215911000385,0.0763316999655217,None,2.2151788999908604,,,,,,,,,12,001,2019_Dec_25_0946,untitled,3.1.0,60.06868251611715,
429,_4,M,180,L,N,429_4M180LN,HLN,0,280,280,172,,,0.851,1003.1063284000265,1003.4546779000084,1003.4706538000028,1003.7539037000388,1003.7699773000204,None,down,1003.7699773000204,None,1003.7699773000204,1004.6025307000382,0.06157840002560988,None,1.701479300041683,,,,,,,,,12,001,2019_Dec_25_0946,untitled,3.1.0,60.06868251611715,
236,G,M,135,L,N,236GM135LN,HLN,0,281,281,139,,,1.323,1005.541726400028,1005.8851200000499,1005.9012297000154,1006.1842658999958,1006.2010565000237,None,up,1006.2010565000237,None,1006.2010565000237,None,0.06364240002585575,None,1.1827881000353955,,,,,,,,,12,001,2019_Dec_25_0946,untitled,3.1.0,60.06868251611715,
491,_5,M,90,L,N,491_5M090LN,HLN,0,282,282,186,,,0.918,1007.4535902000498,1007.7996240000357,1007.8165790000348,1008.0999306000303,1008.1165533000021,None,down,1008.1165533000021,None,1008.1165533000021,1009.0152475000359,0.06263729999773204,None,2.5479411000269465,,,,,,,,,12,001,2019_Dec_25_0946,untitled,3.1.0,60.06868251611715,
037,R,N,180,L,N,037RN180LN,HLN,0,283,283,204,,,1.135,1010.7439842000022,1011.0798616000102,1011.097278500034,1011.3802136000013,1011.3971038000309,None,down,1011.3971038000309,None,1011.3971038000309,1012.512128100032,0.0712982999975793,None,2.1332584000192583,,,,,,,,,12,001,2019_Dec_25_0946,untitled,3.1.0,60.06868251611715,
461,_5,M,180,R,N,461_5M180RN,HRN,0,284,284,180,,,0.8300000000000001,1013.6005792000215,1013.9458057000302,1013.9611474000267,1014.2442815999966,1014.260778099997,None,up,1014.260778099997,None,1014.260778099997,1015.0767539000371,0.06353260000469163,None,2.5833584999782033,,,,,,,,,12,001,2019_Dec_25_0946,untitled,3.1.0,60.06868251611715,
_,_5,N,225,_,_,__5N225__,N,0,285,285,93,,,0.881,1016.9102946000057,1017.2584467999986,1017.2752252999926,1017.5581950000487,1017.5749013000168,None,down,1017.5749013000168,None,1017.5749013000168,1018.4409146000398,0.05958699999609962,None,2.31706180004403,,,,,,,,,12,001,2019_Dec_25_0946,untitled,3.1.0,60.06868251611715,
272,_2,M,315,R,N,272_2M315RN,HRN,0,286,286,151,,,1.17,1019.9605014999979,1020.3055812999955,1020.3220204000245,1020.6056897999952,1020.6221345000085,None,up,1020.6221345000085,None,1020.6221345000085,1021.7709062999929,0.061824899981729686,None,3.0648033000179566,,,,,,,,,12,001,2019_Dec_25_0946,untitled,3.1.0,60.06868251611715,
393,_4,M,0,R,N,393_4M000RN,HRN,0,287,287,160,,,1.2510000000000001,1023.7565006000223,1024.1024698000401,1024.1193597000092,1024.4017471999978,1024.4187452000333,None,down,1024.4187452000333,None,1024.4187452000333,1025.6506463999976,0.06297369999811053,None,2.100632500019856,,,,,,,,,12,001,2019_Dec_25_0946,untitled,3.1.0,60.06868251611715,
,,,,,,,,,,,,,,,,,,,,,,,,,,,,,1026.5343830000493,None,1033.0110502000316,None,1039.4553994000307,None,1045.417156600044,None,,,,,,,
