Number,Letter,type,Orientation,human,face_type,image,picture,trials.thisRepN,trials.thisTrialN,trials.thisN,trials.thisIndex,text.started,text.stopped,stimulus_duration,CROSS.started,CROSS.stopped,BLANK.started,BLANK.stopped,TEST.started,TEST.stopped,key_JUDGE.keys,key_JUDGE.started,key_JUDGE.stopped,image_2.started,image_2.stopped,ISI.started,ISI.stopped,key_JUDGE.rt,q1.started,q1.stopped,q2.started,q2.stopped,q3.started,q3.stopped,text_2.started,text_2.stopped,participant,session,date,expName,psychopyVersion,frameRate,
424,_4,N,315,L,N,424_4N315LN,HLN,0,0,0,271,13.649182700028177,None,0.758,39.51762100000633,39.852710900013335,39.86911919998238,40.15239250002196,40.16894100001082,None,None,40.16894100001082,None,40.16894100001082,40.91838749998715,0.06688870000652969,None,,,,,,,,,,13,001,2019_Dec_25_1004,untitled,3.1.0,60.163874355073155,
034,R,N,45,L,N,034RN045LN,HLN,0,1,1,201,,,0.922,43.74821669998346,44.082118200021796,44.099751300003845,44.381734499998856,44.39885260001756,43.74821669998346,None,44.39885260001756,None,44.39885260001756,45.314834200020414,0.06967609998537228,None,,,,,,,,,,13,001,2019_Dec_25_1004,untitled,3.1.0,60.163874355073155,
_,_5,N,180,_,_,__5N180__,N,0,2,2,92,,,0.735,47.931992100027855,48.27837810001802,48.29537420003908,48.578509900020435,48.5947742999997,47.931992100027855,down,48.5947742999997,None,48.5947742999997,49.311070499999914,0.06225070002255961,None,2.7834936000290327,,,,,,,,,13,001,2019_Dec_25_1004,untitled,3.1.0,60.163874355073155,
_,_5,N,225,_,_,__5N225__,N,0,3,3,93,,,0.979,51.447550699987914,51.792423799983226,51.809152200003155,52.09239840001101,52.10879989998648,None,down,52.10879989998648,None,52.10879989998648,53.07455010002013,0.06270509999012575,None,2.9807782999705523,,,,,,,,,13,001,2019_Dec_25_1004,untitled,3.1.0,60.163874355073155,
131,F,N,90,R,N,131FN090RN,HRN,0,4,4,210,,,1.365,55.162617499998305,55.50596730003599,55.5226779000368,55.806664300034754,55.822277800005395,None,None,55.822277800005395,None,55.822277800005395,57.170629300002474,0.06554370000958443,None,,,,,,,,,,13,001,2019_Dec_25_1004,untitled,3.1.0,60.163874355073155,
_,_5,M,0,_,_,__5M000__,N,0,5,5,40,,,1.341,59.35639120003907,59.70179580000695,59.719576800009236,60.00173309998354,60.01863599999342,59.35639120003907,None,60.01863599999342,None,60.01863599999342,61.33401089999825,0.06301230000099167,None,,,,,,,,,,13,001,2019_Dec_25_1004,untitled,3.1.0,60.163874355073155,
300,_2,M,135,L,N,300_2M135LN,HLN,0,6,6,155,,,1.175,63.55061249999562,63.899684600008186,63.91582819999894,64.19816540001193,64.21466410002904,63.55061249999562,down,64.21466410002904,None,64.21466410002904,None,0.061016299994662404,None,0.017461900017224252,,,,,,,,,13,001,2019_Dec_25_1004,untitled,3.1.0,60.163874355073155,
_,R,N,180,_,_,_RN180__,N,0,7,7,68,,,0.742,64.30433290003566,64.64911759999814,64.66495110001415,64.94825640000636,64.96502030000556,None,up,64.96502030000556,None,64.96502030000556,65.68137300002854,0.06411049998132512,None,2.3662642000126652,,,,,,,,,13,001,2019_Dec_25_1004,untitled,3.1.0,60.163874355073155,
459,_5,M,90,R,N,459_5M090RN,HRN,0,8,8,178,,,1.194,67.39858300000196,67.74502219998976,67.76125540002249,68.04530830000294,68.06139029999031,None,down,68.06139029999031,None,68.06139029999031,69.24385209998582,0.06072830001357943,None,2.650302800000645,,,,,,,,,13,001,2019_Dec_25_1004,untitled,3.1.0,60.163874355073155,
290,_2,N,45,L,N,290_2N045LN,HLN,0,9,9,249,,,1.115,70.78006409999216,71.12578460003715,71.1425137000042,71.42497150000418,71.44234469998628,None,down,71.44234469998628,None,71.44234469998628,72.54086050001206,0.06181249994551763,None,2.5156870000064373,,,,,,,,,13,001,2019_Dec_25_1004,untitled,3.1.0,60.163874355073155,
009,R,M,0,R,N,009RM000RN,HRN,0,10,10,96,,,1.036,74.02615739998873,74.37286030000541,74.3891280000098,74.67335080000339,74.69002839998575,None,None,74.69002839998575,None,74.69002839998575,75.7051572999917,0.06085540005005896,None,,,,,,,,,,13,001,2019_Dec_25_1004,untitled,3.1.0,60.163874355073155,
208,G,M,315,R,N,208GM315RN,HRN,0,11,11,135,,,0.8170000000000001,78.25224470003741,78.5694150000345,78.58583150000777,78.86888720002025,78.88613810000243,78.25224470003741,None,78.88613810000243,None,78.88613810000243,79.68439569999464,0.08862140000564978,None,,,,,,,,,,13,001,2019_Dec_25_1004,untitled,3.1.0,60.163874355073155,
_,G,M,315,_,_,_GM315__,N,0,12,12,15,,,1.108,82.41705320001347,82.76582540001255,82.78246840002248,83.06548759998986,83.08176179998554,82.41705320001347,None,83.08176179998554,None,83.08176179998554,84.16387089999625,0.060865000006742775,None,,,,,,,,,,13,001,2019_Dec_25_1004,untitled,3.1.0,60.163874355073155,
_,R,N,270,_,_,_RN270__,N,0,13,13,70,,,1.145,86.61247230001027,86.96189289999893,86.96189289999893,87.26155579998158,87.27828510000836,86.61247230001027,down,87.27828510000836,None,87.27828510000836,88.41041910002241,0.06044530001236126,None,2.081856800010428,,,,,,,,,13,001,2019_Dec_25_1004,untitled,3.1.0,60.163874355073155,
302,_2,M,225,L,N,302_2M225LN,HLN,0,14,14,157,,,0.889,89.44473119999748,89.77638170000864,89.79289650003193,90.07596709998325,90.09222350001801,None,None,90.09222350001801,None,90.09222350001801,90.95822110003792,0.07557440001983196,None,,,,,,,,,,13,001,2019_Dec_25_1004,untitled,3.1.0,60.163874355073155,
399,_4,M,270,R,N,399_4M270RN,HRN,0,15,15,166,,,0.752,93.62335750000784,93.9726484999992,93.98884390003514,94.27312999998685,94.28898260003189,93.62335750000784,up,94.28898260003189,None,94.28898260003189,95.02125420002267,0.05989099998259917,None,2.682675599993672,,,,,,,,,13,001,2019_Dec_25_1004,untitled,3.1.0,60.163874355073155,
289,_2,N,0,L,N,289_2N000LN,HLN,0,16,16,248,,,0.811,97.04044010001235,97.38690240000142,97.40272110002115,97.68592190003255,97.70226130000083,None,None,97.70226130000083,None,97.70226130000083,98.50172609998845,0.06193969998275861,None,,,,,,,,,,13,001,2019_Dec_25_1004,untitled,3.1.0,60.163874355073155,
045,R,M,180,L,N,045RM180LN,HLN,0,17,17,108,,,0.771,101.24931590002961,101.58261109999148,101.59925680002198,101.88207110000076,101.89845500001684,101.24931590002961,down,101.89845500001684,None,101.89845500001684,102.64774660003604,0.07263239996973425,None,3.332196500035934,,,,,,,,,13,001,2019_Dec_25_1004,untitled,3.1.0,60.163874355073155,
041,R,M,0,L,N,041RM000LN,HLN,0,18,18,104,,,1.02,105.30162720003864,105.64567490003537,105.66196850000415,105.94606829999248,105.96154039999237,None,up,105.96154039999237,None,105.96154039999237,106.96133190003457,0.06418060004943982,None,3.2813121999497525,,,,,,,,,13,001,2019_Dec_25_1004,untitled,3.1.0,60.163874355073155,
496,_5,M,315,L,N,496_5M315LN,HLN,0,19,19,191,,,0.81,109.31341519998387,109.65889620000962,109.67562430002727,109.95939770003315,109.97538620000705,None,down,109.97538620000705,None,109.97538620000705,110.77464650000911,0.06345560000045225,None,2.531225499988068,,,,,,,,,13,001,2019_Dec_25_1004,untitled,3.1.0,60.163874355073155,
238,G,M,225,L,N,238GM225LN,HLN,0,20,20,141,,,1.209,112.57443770003738,112.9224014999927,112.93942230002722,113.2222824000055,113.23891140002524,None,down,113.23891140002524,None,113.23891140002524,114.42129680002108,0.060602599987760186,None,2.9312193999649025,,,,,,,,,13,001,2019_Dec_25_1004,untitled,3.1.0,60.163874355073155,
163,F,N,90,L,N,163FN090LN,HLN,0,21,21,218,,,1.367,116.2387480000034,116.58600680000382,116.60276199999498,116.88578740000958,116.90253720001783,None,up,116.90253720001783,None,116.90253720001783,118.251645500015,0.061741999990772456,None,2.531281500007026,,,,,,,,,13,001,2019_Dec_25_1004,untitled,3.1.0,60.163874355073155,
133,F,N,180,R,N,133FN180RN,HRN,0,22,22,212,,,1.216,119.50320440001087,119.84968009998556,119.86664500000188,120.14943600003608,120.16684180003358,None,None,120.16684180003358,None,120.16684180003358,121.36512070003664,0.0625630000140518,None,,,,,,,,,,13,001,2019_Dec_25_1004,untitled,3.1.0,60.163874355073155,
198,G,N,225,R,N,198GN225RN,HRN,0,23,23,229,,,1.043,123.71114410000155,124.04609010001877,124.06295340001816,124.34633770002984,124.36278409999795,123.71114410000155,up,124.36278409999795,None,124.36278409999795,125.39543480001157,0.07312640000600368,None,2.19895789999282,,,,,,,,,13,001,2019_Dec_25_1004,untitled,3.1.0,60.163874355073155,
296,_2,N,315,L,N,296_2N315LN,HLN,0,24,24,255,,,0.755,126.62914600002114,126.97804590000305,126.99393609998515,127.27640680002514,127.2930204999866,None,up,127.2930204999866,None,127.2930204999866,128.02557619998697,0.06046140001853928,None,1.8996396999573335,,,,,,,,,13,001,2019_Dec_25_1004,untitled,3.1.0,60.163874355073155,
015,R,M,270,R,N,015RM270RN,HRN,0,25,25,102,,,0.856,129.2627586000017,129.6081375000067,129.62480689998483,129.90766900003655,129.92423110001255,None,up,129.92423110001255,None,129.92423110001255,130.75738339999225,0.06325040000956506,None,1.7157740999828093,,,,,,,,,13,001,2019_Dec_25_1004,untitled,3.1.0,60.163874355073155,
_,_4,M,180,_,_,__4M180__,N,0,26,26,36,,,0.981,131.7078607000294,132.05627410003217,132.07264399999985,132.35596260003513,132.37229080003453,None,up,132.37229080003453,None,132.37229080003453,133.338051800034,0.05998699995689094,None,2.032280499988701,,,,,,,,,13,001,2019_Dec_25_1004,untitled,3.1.0,60.163874355073155,
205,G,M,180,R,N,205GM180RN,HRN,0,27,27,132,,,0.871,134.47334690002026,134.82034929998918,134.83702849998372,135.12095850001788,135.13648260000627,None,up,135.13648260000627,None,135.13648260000627,135.98629440000514,0.06233899999642745,None,3.0978000999893993,,,,,,,,,13,001,2019_Dec_25_1004,untitled,3.1.0,60.163874355073155,
_,_2,N,180,_,_,__2N180__,N,0,28,28,76,,,1.37,138.30288450000808,138.65052289998857,138.66704730002675,138.95024209999247,138.9672345999861,None,down,138.9672345999861,None,138.9672345999861,140.31545370002277,0.06186109996633604,None,3.0300033000530675,,,,,,,,,13,001,2019_Dec_25_1004,untitled,3.1.0,60.163874355073155,
_,_5,N,315,_,_,__5N315__,N,0,29,29,95,,,0.811,142.06438589998288,142.4138699999894,142.4301496000262,142.71353830001317,142.7298359000124,None,up,142.7298359000124,None,142.7298359000124,143.529061200039,0.059940400009509176,None,2.349066400027368,,,,,,,,,13,001,2019_Dec_25_1004,untitled,3.1.0,60.163874355073155,
168,F,N,315,L,N,168FN315LN,HLN,0,30,30,223,,,1.0,145.14867730002152,145.49476480000885,145.5108828000375,145.79404459998477,145.8105636999826,None,down,145.8105636999826,None,145.8105636999826,146.7931843000115,0.06159789999946952,None,2.1485853000194766,,,,,,,,,13,001,2019_Dec_25_1004,untitled,3.1.0,60.163874355073155,
387,_4,N,90,R,N,387_4N090RN,HRN,0,31,31,258,,,0.871,148.04355410003336,148.37501479999628,148.39177570003085,148.67539540003054,148.69148239999777,None,down,148.69148239999777,None,148.69148239999777,149.5407158000162,0.07584860001225024,None,1.6986453999998048,,,,,,,,,13,001,2019_Dec_25_1004,untitled,3.1.0,60.163874355073155,
_,F,N,135,_,_,_FN135__,N,0,32,32,51,,,0.934,150.45840340002906,150.8071176999947,150.82267850002972,151.10615730000427,151.12255309999455,None,None,151.12255309999455,None,151.12255309999455,152.0390721000149,0.0613654000335373,None,,,,,,,,,,13,001,2019_Dec_25_1004,untitled,3.1.0,60.163874355073155,
264,_2,N,315,R,N,264_2N315RN,HRN,0,33,33,247,,,1.209,154.65321339998627,155.00275550002698,155.0193935999996,155.3032622000319,155.31955489999382,154.65321339998627,up,155.31955489999382,None,155.31955489999382,156.501237199991,0.05919749999884516,None,2.7157608999987133,,,,,,,,,13,001,2019_Dec_25_1004,untitled,3.1.0,60.163874355073155,
172,F,M,135,L,N,172FM135LN,HLN,0,34,34,123,,,0.85,158.10450170002878,158.4493988000322,158.4669207999832,158.74970859999303,158.76602480001748,None,up,158.76602480001748,None,158.76602480001748,159.59878180001397,0.06258139997953549,None,1.6491268000099808,,,,,,,,,13,001,2019_Dec_25_1004,untitled,3.1.0,60.163874355073155,
_,G,M,135,_,_,_GM135__,N,0,35,35,11,,,1.014,160.49675049999496,160.8308229999966,160.84810470003868,161.13080029998673,161.14707980002277,None,up,161.14707980002277,None,161.14707980002277,162.1470344000263,0.07456719997571781,None,2.8145432000164874,,,,,,,,,13,001,2019_Dec_25_1004,untitled,3.1.0,60.163874355073155,
453,_5,N,180,R,N,453_5N180RN,HRN,0,36,36,276,,,0.78,164.03512349998346,164.37784149998333,164.3947036000318,164.67740929999854,164.69407870003488,None,up,164.69407870003488,None,164.69407870003488,165.45994560001418,0.06639920000452548,None,2.700173999997787,,,,,,,,,13,001,2019_Dec_25_1004,untitled,3.1.0,60.163874355073155,
_,_5,M,90,_,_,__5M090__,N,0,37,37,42,,,0.936,167.4694338000263,167.80792809999548,167.8253147000214,168.10815440001898,168.1243174999836,None,down,168.1243174999836,None,168.1243174999836,169.04026750003686,0.06654750002780929,None,1.949166000005789,,,,,,,,,13,001,2019_Dec_25_1004,untitled,3.1.0,60.163874355073155,
262,_2,N,225,R,N,262_2N225RN,HRN,0,38,38,245,,,1.112,170.14159260003362,170.48929360002512,170.50586000003386,170.78901710000355,170.80590650002705,None,up,170.80590650002705,None,170.80590650002705,171.904577600013,0.061490299995057285,None,2.0146251000114717,,,,,,,,,13,001,2019_Dec_25_1004,untitled,3.1.0,60.163874355073155,
400,_4,M,315,R,N,400_4M315RN,HRN,0,39,39,167,,,0.862,172.89349680003943,173.2368341999827,173.25307350000367,173.5364680000348,173.5533257999923,None,up,173.5533257999923,None,173.5533257999923,174.40190230001463,0.06579849997069687,None,2.5979965000296943,,,,,,,,,13,001,2019_Dec_25_1004,untitled,3.1.0,60.163874355073155,
228,G,N,135,L,N,228GN135LN,HLN,0,40,40,235,,,1.12,176.21947790001286,176.56749260000652,176.58367419999558,176.86732830002438,176.88310839998303,None,up,176.88310839998303,None,176.88310839998303,177.98235040000873,0.06148630002280697,None,1.9008759999996983,,,,,,,,,13,001,2019_Dec_25_1004,untitled,3.1.0,60.163874355073155,
194,G,N,45,R,N,194GN045RN,HRN,0,41,41,225,,,1.357,178.85139969998272,179.19825570000103,179.2149214000092,179.49802200001432,179.51470400003018,None,down,179.51470400003018,None,179.51470400003018,180.8466480000061,0.06051059998571873,None,2.2485479000024498,,,,,,,,,13,001,2019_Dec_25_1004,untitled,3.1.0,60.163874355073155,
298,_2,M,45,L,N,298_2M045LN,HLN,0,42,42,153,,,1.236,181.83242859999882,182.17883340001572,182.19535540003562,182.47863140003756,182.49553020001622,None,up,182.49553020001622,None,182.49553020001622,183.71106310002506,0.061813500011339784,None,2.7309713999857195,,,,,,,,,13,001,2019_Dec_25_1004,untitled,3.1.0,60.163874355073155,
451,_5,N,90,R,N,451_5N090RN,HRN,0,43,43,274,,,0.989,185.2968819999951,185.64265719999094,185.65940330002923,185.9422760999878,185.95929969998542,None,down,185.95929969998542,None,185.95929969998542,186.9248258000007,0.06370300002163276,None,1.8823763999971561,,,,,,,,,13,001,2019_Dec_25_1004,untitled,3.1.0,60.163874355073155,
_,_2,M,270,_,_,__2M270__,N,0,44,44,30,,,0.786,187.92590510001173,188.25836370000616,188.2736603000085,188.55678480002098,188.57370599999558,None,up,188.57370599999558,None,188.57370599999558,189.33958120003808,0.07466739998199046,None,2.717901800002437,,,,,,,,,13,001,2019_Dec_25_1004,untitled,3.1.0,60.163874355073155,
_,_4,M,45,_,_,__4M045__,N,0,45,45,33,,,0.811,191.38459390000207,191.7040416999953,191.72067740000784,192.00360779999755,192.0203954000026,None,down,192.0203954000026,None,192.0203954000026,192.81984569999622,0.08231199998408556,None,2.098366799997166,,,,,,,,,13,001,2019_Dec_25_1004,untitled,3.1.0,60.163874355073155,
490,_5,M,45,L,N,490_5M045LN,HLN,0,46,46,185,,,1.217,194.2072323000175,194.53495609998936,194.5512881000177,194.83466570003657,194.85142040002393,None,down,194.85142040002393,None,194.85142040002393,196.0500436000293,0.08006060001207516,None,2.4155101999640465,,,,,,,,,13,001,2019_Dec_25_1004,untitled,3.1.0,60.163874355073155,
169,F,M,0,L,N,169FM000LN,HLN,0,47,47,120,,,1.077,197.3359256000258,197.68251320003765,197.69860330002848,197.9825920999865,197.99830630002543,None,up,197.99830630002543,None,197.99830630002543,199.06433319998905,0.06134740001289174,None,2.3504522999865003,,,,,,,,,13,001,2019_Dec_25_1004,untitled,3.1.0,60.163874355073155,
454,_5,N,225,R,N,454_5N225RN,HRN,0,48,48,277,,,1.3,200.41816010000184,200.76264780003112,200.77971590001835,201.06293820001883,201.0792668000213,None,up,201.0792668000213,None,201.0792668000213,202.36142949998612,0.06195060000754893,None,2.2819996000034735,,,,,,,,,13,001,2019_Dec_25_1004,untitled,3.1.0,60.163874355073155,
_,G,N,180,_,_,_GN180__,N,0,49,49,60,,,0.9590000000000001,203.43474280001828,203.7775285000098,203.7936478999909,204.07676349999383,204.0936503999983,None,up,204.0936503999983,None,204.0936503999983,205.0422772000311,0.06630140001652762,None,3.3819561999989673,,,,,,,,,13,001,2019_Dec_25_1004,untitled,3.1.0,60.163874355073155,
_,_5,M,180,_,_,__5M180__,N,0,50,50,44,,,1.2750000000000001,207.54376420000335,207.88992630003486,207.90644420002354,208.19004290003795,208.20657169999322,None,None,208.20657169999322,None,208.20657169999322,209.47244420001516,0.061528999998699874,None,,,,,,,,,,13,001,2019_Dec_25_1004,untitled,3.1.0,60.163874355073155,
138,F,M,45,R,N,138FM045RN,HRN,0,51,51,113,,,0.706,211.73799980001058,212.08618240000214,212.10289350000676,212.38587340002414,212.40325640002266,211.73799980001058,down,212.40325640002266,None,212.40325640002266,213.0860652999836,0.06064939999487251,None,1.700323799974285,,,,,,,,,13,001,2019_Dec_25_1004,untitled,3.1.0,60.163874355073155,
196,G,N,135,R,N,196GN135RN,HRN,0,52,52,227,,,1.254,214.17243780003628,214.51716739998665,214.53379040001892,214.81772310001543,214.83447579998756,None,down,214.83447579998756,None,214.83447579998756,216.0661858000094,0.06214870000258088,None,2.283555099973455,,,,,,,,,13,001,2019_Dec_25_1004,untitled,3.1.0,60.163874355073155,
293,_2,N,180,L,N,293_2N180LN,HLN,0,53,53,252,,,1.367,217.19777500000782,217.53131460002623,217.54805959999794,217.83154799998738,217.84825530002126,None,up,217.84825530002126,None,217.84825530002126,219.19650740001816,0.07112800003960729,None,3.364492099964991,,,,,,,,,13,001,2019_Dec_25_1004,untitled,3.1.0,60.163874355073155,
417,_4,N,0,L,N,417_4N000LN,HLN,0,54,54,264,,,0.9490000000000001,221.2824796999921,221.62792890000856,221.64467780000996,221.92780040000798,221.94531650003046,None,down,221.94531650003046,None,221.94531650003046,222.87760010000784,0.062493400007952005,None,1.7835469999699853,,,,,,,,,13,001,2019_Dec_25_1004,untitled,3.1.0,60.163874355073155,
450,_5,N,45,R,N,450_5N045RN,HRN,0,55,55,273,,,1.052,223.79692450002767,224.1422845000052,224.1591961000231,224.44204310001805,224.45876790001057,None,up,224.45876790001057,None,224.45876790001057,225.49081149999984,0.06030680000549182,None,2.3148355999728665,,,,,,,,,13,001,2019_Dec_25_1004,untitled,3.1.0,60.163874355073155,
203,G,M,90,R,N,203GM090RN,HRN,0,56,56,130,,,0.999,226.84166289999848,227.19001570000546,227.2063917000196,227.48959750001086,227.506056800019,None,down,227.506056800019,None,227.506056800019,228.48834789998364,0.06132350000552833,None,2.298501599987503,,,,,,,,,13,001,2019_Dec_25_1004,untitled,3.1.0,60.163874355073155,
270,_2,M,225,R,N,270_2M225RN,HRN,0,57,57,149,,,1.319,229.87396480003372,230.22021940001287,230.23723460000474,230.5200924000237,230.53671539999777,None,up,230.53671539999777,None,230.53671539999777,231.83637540001655,0.062358299968764186,None,3.26606220001122,,,,,,,,,13,001,2019_Dec_25_1004,untitled,3.1.0,60.163874355073155,
132,F,N,135,R,N,132FN135RN,HRN,0,58,58,211,,,1.111,233.89447270001983,234.2166287000291,234.23393069999292,234.51672050001798,234.53328030003468,None,up,234.53328030003468,None,234.53328030003468,235.63225120003335,0.08328300004359335,None,3.2986472999909893,,,,,,,,,13,001,2019_Dec_25_1004,untitled,3.1.0,60.163874355073155,
_,R,N,135,_,_,_RN135__,N,0,59,59,67,,,0.848,237.89920990000246,238.24625359999482,238.2631993999821,238.54682420002064,238.56297820003238,None,down,238.56297820003238,None,238.56297820003238,239.3954778999905,0.06061869999393821,None,2.5519659999990836,,,,,,,,,13,001,2019_Dec_25_1004,untitled,3.1.0,60.163874355073155,
_,_5,N,270,_,_,__5N270__,N,0,60,60,94,,,0.807,241.21249100001296,241.52850120002404,241.54431510000722,241.82649770000717,241.84389349998673,None,up,241.84389349998673,None,241.84389349998673,242.64294220000738,0.08661050000227988,None,1.7151019999873824,,,,,,,,,13,001,2019_Dec_25_1004,untitled,3.1.0,60.163874355073155,
042,R,M,45,L,N,042RM045LN,HLN,0,61,61,105,,,1.17,243.62970819999464,243.9746539000189,243.9914901999873,244.2747544000158,244.29119010001887,None,up,244.29119010001887,None,244.29119010001887,245.4405219000182,0.06322140002157539,None,2.2655947000021115,,,,,,,,,13,001,2019_Dec_25_1004,untitled,3.1.0,60.163874355073155,
484,_5,N,135,L,N,484_5N135LN,HLN,0,62,62,283,,,0.937,246.62419629999204,246.97208770003635,246.98899139999412,247.27290250000078,247.28847770002903,None,up,247.28847770002903,None,247.28847770002903,248.20480469998438,0.06066980003379285,None,1.8992083999910392,,,,,,,,,13,001,2019_Dec_25_1004,untitled,3.1.0,60.163874355073155,
135,F,N,270,R,N,135FN270RN,HRN,0,63,63,214,,,0.919,249.2672052999842,249.60336100001587,249.62057070003357,249.90329210000345,249.91964079998434,None,up,249.91964079998434,None,249.91964079998434,250.81939630000852,0.07027929998002946,None,2.2820787000237033,,,,,,,,,13,001,2019_Dec_25_1004,untitled,3.1.0,60.163874355073155,
489,_5,M,0,L,N,489_5M000LN,HLN,0,64,64,184,,,1.164,252.2731904000393,252.61730819998775,252.63453760003904,252.91757490002783,252.93375900003593,None,down,252.93375900003593,None,252.93375900003593,254.08314940001583,0.06349889998091385,None,2.7982205000007525,,,,,,,,,13,001,2019_Dec_25_1004,untitled,3.1.0,60.163874355073155,
037,R,N,180,L,N,037RN180LN,HLN,0,65,65,204,,,1.0,255.79954949999228,256.1476220000186,256.16432059998624,256.4475889999885,256.46393810003065,None,up,256.46393810003065,None,256.46393810003065,257.44619260000763,0.06085150002036244,None,2.5491750999935903,,,,,,,,,13,001,2019_Dec_25_1004,untitled,3.1.0,60.163874355073155,
_,F,N,180,_,_,_FN180__,N,0,66,66,52,,,1.184,259.0816615000367,259.4284987000283,259.44474160001846,259.72792820003815,259.7448420000146,None,up,259.7448420000146,None,259.7448420000146,260.91018360003363,0.061504899989813566,None,2.765288299997337,,,,,,,,,13,001,2019_Dec_25_1004,untitled,3.1.0,60.163874355073155,
199,G,N,270,R,N,199GN270RN,HRN,0,67,67,230,,,1.3980000000000001,262.58131290000165,262.92551800003275,262.9426525000017,263.2252285000286,263.24222150002606,None,up,263.24222150002606,None,263.24222150002606,264.62368429999333,0.06435619998956099,None,2.863902600016445,,,,,,,,,13,001,2019_Dec_25_1004,untitled,3.1.0,60.163874355073155,
_,G,N,45,_,_,_GN045__,N,0,68,68,57,,,0.982,266.178873100027,266.5217168999952,266.5393026000238,266.8217771000345,266.8391212000279,None,up,266.8391212000279,None,266.8391212000279,267.80423120001797,0.06485239998437464,None,2.747693400015123,,,,,,,,,13,001,2019_Dec_25_1004,untitled,3.1.0,60.163874355073155,
_,_5,M,270,_,_,__5M270__,N,0,69,69,46,,,0.902,269.6580224999925,270.0024727000273,270.01900720002595,270.3029924000148,270.31873360002646,None,up,270.31873360002646,None,270.31873360002646,271.20127730001695,0.0642381000216119,None,2.1817883000476286,,,,,,,,,13,001,2019_Dec_25_1004,untitled,3.1.0,60.163874355073155,
043,R,M,90,L,N,043RM090LN,HLN,0,70,70,106,,,1.203,272.5685175000108,272.9176524000359,272.93319290003274,273.2163677000208,273.2328456999967,None,down,273.2328456999967,None,273.2328456999967,274.41562400001567,0.06089140003314242,None,2.6496586999855936,,,,,,,,,13,001,2019_Dec_25_1004,untitled,3.1.0,60.163874355073155,
_,G,M,45,_,_,_GM045__,N,0,71,71,9,,,1.238,275.9537638000329,276.2969413000392,276.3139486000291,276.5963087999844,276.6128393000108,None,down,276.6128393000108,None,276.6128393000108,277.8291537000332,0.06393290002597496,None,3.0490626999526285,,,,,,,,,13,001,2019_Dec_25_1004,untitled,3.1.0,60.163874355073155,
_,F,N,225,_,_,_FN225__,N,0,72,72,53,,,1.2,279.73050800000783,280.07726669998374,280.0934741999954,280.37730639998335,280.39317570003914,None,up,280.39317570003914,None,280.39317570003914,281.57553939998616,0.061460700002498925,None,2.232124699978158,,,,,,,,,13,001,2019_Dec_25_1004,untitled,3.1.0,60.163874355073155,
304,_2,M,315,L,N,304_2M315LN,HLN,0,73,73,159,,,1.2550000000000001,282.69407440000214,283.0410368000157,283.0579582999926,283.3408059999929,283.35757310001645,None,up,283.35757310001645,None,283.35757310001645,284.589580400032,0.06195599999045953,None,2.3336462000152096,,,,,,,,,13,001,2019_Dec_25_1004,untitled,3.1.0,60.163874355073155,
164,F,N,135,L,N,164FN135LN,HLN,0,74,74,219,,,1.36,285.7597148999921,286.1052706000046,286.1218590000062,286.40545690001454,286.4219014000264,None,up,286.4219014000264,None,286.4219014000264,287.7702062000171,0.06193969998275861,None,3.065353200014215,,,,,,,,,13,001,2019_Dec_25_1004,untitled,3.1.0,60.163874355073155,
_,_5,N,45,_,_,__5N045__,N,0,75,75,89,,,1.163,289.553523199982,289.90169500000775,289.91872620000504,290.20151919999626,290.218204600038,None,up,290.218204600038,None,290.218204600038,291.36688749998575,0.059217399975750595,None,2.3153445000061765,,,,,,,,,13,001,2019_Dec_25_1004,untitled,3.1.0,60.163874355073155,
493,_5,M,180,L,N,493_5M180LN,HLN,0,76,76,188,,,1.177,292.60278620000463,292.9501275999937,292.96635920001427,293.24892199999886,293.26556249998976,None,down,293.26556249998976,None,293.26556249998976,294.4307077000267,0.062205699970945716,None,2.5838897000066936,,,,,,,,,13,001,2019_Dec_25_1004,untitled,3.1.0,60.163874355073155,
_,_2,N,45,_,_,__2N045__,N,0,77,77,73,,,1.089,295.91819160000887,296.26292890001787,296.2792058000341,296.5627779000206,296.57917219999945,None,up,296.57917219999945,None,296.57917219999945,297.6449105000356,0.06220529996789992,None,2.114975400036201,,,,,,,,,13,001,2019_Dec_25_1004,untitled,3.1.0,60.163874355073155,
004,R,N,135,R,N,004RN135RN,HRN,0,78,78,195,,,1.37,298.7609035000205,299.1102610999951,299.12766990001546,299.41033079999033,299.42805640003644,None,up,299.42805640003644,None,299.42805640003644,300.77575400000205,0.05916740000247955,None,2.9301180000184104,,,,,,,,,13,001,2019_Dec_25_1004,untitled,3.1.0,60.163874355073155,
_,R,M,225,_,_,_RM225__,N,0,79,79,21,,,0.913,302.4253730000346,302.7747691000113,302.79045040003257,303.0736534000025,303.0901547000394,None,down,303.0901547000394,None,303.0901547000394,303.9896080000326,0.06027269997866824,None,3.06427839997923,,,,,,,,,13,001,2019_Dec_25_1004,untitled,3.1.0,60.163874355073155,
291,_2,N,90,L,N,291_2N090LN,HLN,0,80,80,250,,,1.024,306.22322200000053,306.57081509998534,306.5877635999932,306.87050319998525,306.8872674999875,None,up,306.8872674999875,None,306.8872674999875,307.88619699998526,0.06198400002904236,None,2.997364699956961,,,,,,,,,13,001,2019_Dec_25_1004,untitled,3.1.0,60.163874355073155,
204,G,M,135,R,N,204GM135RN,HRN,0,81,81,131,,,1.1500000000000001,309.95712380000623,310.30141910002567,310.3178453000146,310.60057820001384,310.61666649999097,None,down,310.61666649999097,None,310.61666649999097,311.74883430002956,0.0650002000038512,None,2.466097099997569,,,,,,,,,13,001,2019_Dec_25_1004,untitled,3.1.0,60.163874355073155,
_,G,N,90,_,_,_GN090__,N,0,82,82,58,,,0.787,313.1508848000085,313.49744940001983,313.51475919998484,313.7976526999846,313.81434720003745,None,up,313.81434720003745,None,313.81434720003745,314.5801527000149,0.06075339997187257,None,1.6825521999853663,,,,,,,,,13,001,2019_Dec_25_1004,untitled,3.1.0,60.163874355073155,
397,_4,M,180,R,N,397_4M180RN,HRN,0,83,83,164,,,1.246,315.56427680002525,315.9122850000276,315.92972329998156,316.2119590000366,316.2286923000356,None,None,316.2286923000356,None,316.2286923000356,317.4614728000015,0.05986719997599721,None,,,,,,,,,,13,001,2019_Dec_25_1004,untitled,3.1.0,60.163874355073155,
137,F,M,0,R,N,137FM000RN,HRN,0,84,84,112,,,1.294,319.7613896999974,320.1090145999915,320.1253232000163,320.40832380001666,320.4250148999854,319.7613896999974,up,320.4250148999854,None,320.4250148999854,321.7077974000131,0.06178179994458333,None,2.267010100011248,,,,,,,,,13,001,2019_Dec_25_1004,untitled,3.1.0,60.163874355073155,
_,_4,N,90,_,_,__4N090__,N,0,85,85,82,,,0.742,322.7583403000026,323.1065522999852,323.12285580002936,323.40569340001093,323.4227535999962,None,up,323.4227535999962,None,323.4227535999962,324.1550245999824,0.058938800008036196,None,2.464643600047566,,,,,,,,,13,001,2019_Dec_25_1004,untitled,3.1.0,60.163874355073155,
_,G,M,90,_,_,_GM090__,N,0,86,86,10,,,1.266,325.96936440002173,326.30350989999715,326.32011959998636,326.60317479999503,326.61959770001704,None,down,326.61959770001704,None,326.61959770001704,327.8690370999975,0.07379770005354658,None,2.382792900025379,,,,,,,,,13,001,2019_Dec_25_1004,untitled,3.1.0,60.163874355073155,
463,_5,M,270,R,N,463_5M270RN,HRN,0,87,87,182,,,0.8320000000000001,329.0764454000164,329.4176427000202,329.43419569998514,329.71740810002666,329.734091899998,None,up,329.734091899998,None,329.734091899998,330.5496144000208,0.06684779998613521,None,2.9811350000090897,,,,,,,,,13,001,2019_Dec_25_1004,untitled,3.1.0,60.163874355073155,
423,_4,N,270,L,N,423_4N270LN,HLN,0,88,88,270,,,1.09,332.7840215000324,333.13036870001815,333.1470481000142,333.4307053000084,333.44660259998636,None,up,333.44660259998636,None,333.44660259998636,334.51272920001065,0.06123150000348687,None,2.2156166999484412,,,,,,,,,13,001,2019_Dec_25_1004,untitled,3.1.0,60.163874355073155,
008,R,N,315,R,N,008RN315RN,HRN,0,89,89,199,,,1.369,335.7347183999955,336.0783159999992,336.0949791999883,336.37817390001146,336.3949267999851,None,up,336.3949267999851,None,336.3949267999851,337.7440459000063,0.06605389999458566,None,2.7839347000117414,,,,,,,,,13,001,2019_Dec_25_1004,untitled,3.1.0,60.163874355073155,
491,_5,M,90,L,N,491_5M090LN,HLN,0,90,90,186,,,1.356,339.2672518999898,339.5920677999966,339.6088725000154,339.89137309999205,339.90820870001335,None,down,339.90820870001335,None,339.90820870001335,341.25713450001786,0.0799377000075765,None,2.8152099999715574,,,,,,,,,13,001,2019_Dec_25_1004,untitled,3.1.0,60.163874355073155,
234,G,M,45,L,N,234GM045LN,HLN,0,91,91,137,,,1.098,342.7956140000024,343.1382454999839,343.15487060003215,343.4382227000315,343.4549716000329,None,down,343.4549716000329,None,343.4549716000329,344.53747720003594,0.06490660004783422,None,2.301464499963913,,,,,,,,,13,001,2019_Dec_25_1004,untitled,3.1.0,60.163874355073155,
001,R,N,0,R,N,001RN000RN,HRN,0,92,92,192,,,0.772,345.8230832000263,346.1694035999826,346.18554730003234,346.46906450000824,346.48553270002594,None,up,346.48553270002594,None,346.48553270002594,347.23506179999094,0.05977440002607182,None,1.6655693000066094,,,,,,,,,13,001,2019_Dec_25_1004,untitled,3.1.0,60.163874355073155,
_,_2,M,135,_,_,__2M135__,N,0,93,93,27,,,0.802,348.21843760000775,348.5676680000033,348.58412339998176,348.8668352999957,348.88430570001947,None,up,348.88430570001947,None,348.88430570001947,349.6661043000058,0.060137399996165186,None,2.4980550999753177,,,,,,,,,13,001,2019_Dec_25_1004,untitled,3.1.0,60.163874355073155,
035,R,N,90,L,N,035RN090LN,HLN,0,94,94,202,,,1.1480000000000001,351.4529441000195,351.7977643000195,351.8148485000129,352.0990888000233,352.1140178000205,None,up,352.1140178000205,None,352.1140178000205,353.24621340003796,0.0636726000229828,None,2.2667447999701835,,,,,,,,,13,001,2019_Dec_25_1004,untitled,3.1.0,60.163874355073155,
398,_4,M,225,R,N,398_4M225RN,HRN,0,95,95,165,,,0.9410000000000001,354.4524029000313,354.7951030000113,354.81246829999145,355.09480259998236,355.11122530000284,None,down,355.11122530000284,None,355.11122530000284,356.02718239999376,0.0647463999921456,None,2.648594400030561,,,,,,,,,13,001,2019_Dec_25_1004,untitled,3.1.0,60.163874355073155,
265,_2,M,0,R,N,265_2M000RN,HRN,0,96,96,144,,,1.367,357.8340685000294,358.1762035000138,358.192490299989,358.4754225999932,358.49194700003136,None,down,358.49194700003136,None,358.49194700003136,359.84112280001864,0.06600399996386841,None,2.864779199997429,,,,,,,,,13,001,2019_Dec_25_1004,untitled,3.1.0,60.163874355073155,
130,F,N,45,R,N,130FN045RN,HRN,0,97,97,209,,,1.249,361.4376866000239,361.77220629999647,361.78919789998326,362.0728642999893,362.089440700016,None,up,362.089440700016,None,362.089440700016,363.320731099986,0.07227329997112975,None,2.10100159997819,,,,,,,,,13,001,2019_Dec_25_1004,untitled,3.1.0,60.163874355073155,
_,_2,M,180,_,_,__2M180__,N,0,98,98,28,,,1.106,364.2561214999878,364.60350510000717,364.62059430003865,364.9027975000208,364.92015930003254,None,up,364.92015930003254,None,364.92015930003254,366.001753700024,0.0587457999936305,None,2.9806357999914326,,,,,,,,,13,001,2019_Dec_25_1004,untitled,3.1.0,60.163874355073155,
200,G,N,315,R,N,200GN315RN,HRN,0,99,99,231,,,0.756,367.96982589998515,368.3172184000141,368.33387580001727,368.6176429000334,368.63345790002495,None,up,368.63345790002495,None,368.63345790002495,369.3655617000186,0.06217839999590069,None,1.8325831000111066,,,,,,,,,13,001,2019_Dec_25_1004,untitled,3.1.0,60.163874355073155,
462,_5,M,225,R,N,462_5M225RN,HRN,0,100,100,181,,,1.04,370.5423027999932,370.8817027999903,370.8979420000105,371.18050700001186,371.1973040000303,None,down,371.1973040000303,None,371.1973040000303,372.2140823000227,0.06824880000203848,None,1.9177364999777637,,,,,,,,,13,001,2019_Dec_25_1004,untitled,3.1.0,60.163874355073155,
303,_2,M,270,L,N,303_2M270LN,HLN,0,101,101,158,,,0.835,373.1845060000196,373.52921340003377,373.54555750003783,373.8288634000346,373.8455313000013,None,up,373.8455313000013,None,373.8455313000013,374.66237780003576,0.06274059996940196,None,2.747874699998647,,,,,,,,,13,001,2019_Dec_25_1004,untitled,3.1.0,60.163874355073155,
_,_5,N,90,_,_,__5N090__,N,0,102,102,90,,,0.914,376.66014140000334,377.01028300001053,377.02611310000066,377.30929380003363,377.32553760003066,None,up,377.32553760003066,None,377.32553760003066,378.2246321000275,0.05797570000868291,None,2.336359800014179,,,,,,,,,13,001,2019_Dec_25_1004,untitled,3.1.0,60.163874355073155,
_,R,N,225,_,_,_RN225__,N,0,103,103,69,,,0.769,379.72853100002976,380.07331050001085,380.0903038000106,380.37332770001376,380.3895790000097,None,up,380.3895790000097,None,380.3895790000097,381.1389252000372,0.05950450000818819,None,1.817020499962382,,,,,,,,,13,001,2019_Dec_25_1004,untitled,3.1.0,60.163874355073155,
386,_4,N,45,R,N,386_4N045RN,HRN,0,104,104,257,,,1.246,382.2757052000379,382.62062280002283,382.638079700002,382.9209622000344,382.937570900016,None,up,382.937570900016,None,382.937570900016,384.16940070001874,0.06192349997581914,None,2.6148490000050515,,,,,,,,,13,001,2019_Dec_25_1004,untitled,3.1.0,60.163874355073155,
136,F,N,315,R,N,136FN315RN,HRN,0,105,105,215,,,1.03,385.62662880000426,385.96837419999065,385.9846256999881,386.2680335000041,386.2843226999976,None,up,386.2843226999976,None,386.2843226999976,387.2999695999897,0.06733930000336841,None,1.8493448999943212,,,,,,,,,13,001,2019_Dec_25_1004,untitled,3.1.0,60.163874355073155,
_,R,M,45,_,_,_RM045__,N,0,106,106,17,,,1.346,388.2131997999968,388.54899949999526,388.5655726999976,388.8487160000368,388.86577239999315,None,down,388.86577239999315,None,388.86577239999315,390.19744509999873,0.07184589997632429,None,2.2161755000124685,,,,,,,,,13,001,2019_Dec_25_1004,untitled,3.1.0,60.163874355073155,
226,G,N,45,L,N,226GN045LN,HLN,0,107,107,233,,,0.937,391.14881819998845,391.49667080002837,391.51369739999063,391.7964492000174,391.8130505000008,None,up,391.8130505000008,None,391.8130505000008,392.7294067000039,0.05962379998527467,None,1.9159622000297531,,,,,,,,,13,001,2019_Dec_25_1004,untitled,3.1.0,60.163874355073155,
_,F,N,45,_,_,_FN045__,N,0,108,108,49,,,1.166,393.7975484000053,394.1444029000122,394.1620036000386,394.44416910002474,394.4608282999834,None,up,394.4608282999834,None,394.4608282999834,395.6103385000024,0.06185800000093877,None,1.8483701000222936,,,,,,,,,13,001,2019_Dec_25_1004,untitled,3.1.0,60.163874355073155,
010,R,M,45,R,N,010RM045RN,HRN,0,109,109,97,,,0.75,396.376724700036,396.7272280000034,396.7421173999901,397.0254939000006,397.0419387000147,None,down,397.0419387000147,None,397.0419387000147,397.774430999998,0.059785099991131574,None,2.097897300031036,,,,,,,,,13,001,2019_Dec_25_1004,untitled,3.1.0,60.163874355073155,
_,_4,N,225,_,_,__4N225__,N,0,110,110,85,,,1.096,399.2070026000147,399.5566008000169,399.5728864999837,399.8562969000195,399.8723820000305,None,up,399.8723820000305,None,399.8723820000305,400.955239300034,0.05961950001074001,None,2.315418599988334,,,,,,,,,13,001,2019_Dec_25_1004,untitled,3.1.0,60.163874355073155,
_,F,M,315,_,_,_FM315__,N,0,111,111,7,,,1.212,402.2539337000344,402.60335300001316,402.62081550003495,402.9032172000152,402.9202479000087,None,down,402.9202479000087,None,402.9202479000087,404.1196857999894,0.05888629995752126,None,2.085511300014332,,,,,,,,,13,001,2019_Dec_25_1004,untitled,3.1.0,60.163874355073155,
266,_2,M,45,R,N,266_2M045RN,HRN,0,112,112,145,,,1.159,405.0996876999852,405.41812360001495,405.43396639998537,405.7173016000306,405.73381220002193,None,up,405.73381220002193,None,405.73381220002193,406.88376350002363,0.0832564000156708,None,2.498484699986875,,,,,,,,,13,001,2019_Dec_25_1004,untitled,3.1.0,60.163874355073155,
263,_2,N,270,R,N,263_2N270RN,HRN,0,113,113,246,,,0.849,408.30330890003825,408.6488172999816,408.66505070001585,408.9478928000317,408.9655131000327,None,up,408.9655131000327,None,408.9655131000327,409.7970144000137,0.06423660001019016,None,2.281004499993287,,,,,,,,,13,001,2019_Dec_25_1004,untitled,3.1.0,60.163874355073155,
421,_4,N,180,L,N,421_4N180LN,HLN,0,114,114,268,,,1.336,411.3147855999996,411.6625909000286,411.6789151999983,411.9620642000227,411.978334799991,None,up,411.978334799991,None,411.978334799991,413.2942313000094,0.0611475000041537,None,2.6501147000235505,,,,,,,,,13,001,2019_Dec_25_1004,untitled,3.1.0,60.163874355073155,
418,_4,N,45,L,N,418_4N045LN,HLN,0,115,115,265,,,1.281,414.7154422000167,415.0425444000284,415.0595805000048,415.34272449999116,415.3590610999963,None,up,415.3590610999963,None,415.3590610999963,416.62465519999387,0.07921390002593398,None,2.0154482000507414,,,,,,,,,13,001,2019_Dec_25_1004,untitled,3.1.0,60.163874355073155,
_,G,M,180,_,_,_GM180__,N,0,116,116,12,,,0.8170000000000001,417.45567100000335,417.7901509000221,417.8068394000293,418.0896068000002,418.10630410001613,None,down,418.10630410001613,None,418.10630410001613,418.90557509998325,0.07310370000777766,None,2.182536600041203,,,,,,,,,13,001,2019_Dec_25_1004,untitled,3.1.0,60.163874355073155,
142,F,M,225,R,N,142FM225RN,HRN,0,117,117,117,,,1.1,420.3639884000295,420.7043677000329,420.72114149999106,421.0044626999879,421.0212581999949,None,down,421.0212581999949,None,421.0212581999949,422.10322960000485,0.06722389999777079,None,2.4831979000009596,,,,,,,,,13,001,2019_Dec_25_1004,untitled,3.1.0,60.163874355073155,
297,_2,M,0,L,N,297_2M000LN,HLN,0,118,118,152,,,1.079,423.5732866000035,423.91926480003167,423.9351294999942,424.2180992999929,424.23506979999365,None,up,424.23506979999365,None,424.23506979999365,425.3004775000154,0.06208770000375807,None,2.513737700006459,,,,,,,,,13,001,2019_Dec_25_1004,untitled,3.1.0,60.163874355073155,
461,_5,M,180,R,N,461_5M180RN,HRN,0,119,119,180,,,1.198,426.8183804000146,427.1658729999908,427.1826422000304,427.4651674000197,427.4821005000267,None,down,427.4821005000267,None,427.4821005000267,428.66376329999184,0.06254760001320392,None,3.314334599999711,,,,,,,,,13,001,2019_Dec_25_1004,untitled,3.1.0,60.163874355073155,
005,R,N,180,R,N,005RN180RN,HRN,0,120,120,196,,,1.168,430.88047189998906,431.2118935000035,431.2287384000374,431.5115580999991,431.5287078000256,None,up,431.5287078000256,None,431.5287078000256,432.67790529999183,0.07520020002266392,None,2.4327001000056043,,,,,,,,,13,001,2019_Dec_25_1004,untitled,3.1.0,60.163874355073155,
428,_4,M,135,L,N,428_4M135LN,HLN,0,121,121,171,,,0.771,434.0315876000095,434.3759286000277,434.39268230000744,434.67571819998557,434.6925167000154,None,up,434.6925167000154,None,434.6925167000154,435.44128580001416,0.06324599997606128,None,2.54988730000332,,,,,,,,,13,001,2019_Dec_25_1004,untitled,3.1.0,60.163874355073155,
048,R,M,315,L,N,048RM315LN,HLN,0,122,122,111,,,1.083,437.31334380002227,437.6563484999933,437.6730471000192,437.9561509999912,437.97283700003754,None,down,437.97283700003754,None,437.97283700003754,439.0386704999837,0.06414799997583032,None,2.050607100012712,,,,,,,,,13,001,2019_Dec_25_1004,untitled,3.1.0,60.163874355073155,
_,_4,M,0,_,_,__4M000__,N,0,123,123,32,,,1.332,440.09010000003036,440.43735580000794,440.454045600025,440.7367789000273,440.75367850001203,None,down,440.75367850001203,None,440.75367850001203,442.06913519999944,0.05958749999990687,None,3.1475980000104755,,,,,,,,,13,001,2019_Dec_25_1004,untitled,3.1.0,60.163874355073155,
492,_5,M,135,L,N,492_5M135LN,HLN,0,124,124,187,,,1.183,443.96967329998733,444.3173560000141,444.3344252000097,444.6174143999815,444.6340502999956,None,up,444.6340502999956,None,444.6340502999956,445.7995627000346,0.060016000003088266,None,2.647880200005602,,,,,,,,,13,001,2019_Dec_25_1004,untitled,3.1.0,60.163874355073155,
036,R,N,135,L,N,036RN135LN,HLN,0,125,125,203,,,1.022,447.35000219999347,447.6976304000127,447.7142934000003,447.99708220001776,448.013923600025,None,up,448.013923600025,None,448.013923600025,449.01238299999386,0.06015420000767335,None,2.14847740001278,,,,,,,,,13,001,2019_Dec_25_1004,untitled,3.1.0,60.163874355073155,
239,G,M,270,L,N,239GM270LN,HLN,0,126,126,142,,,1.327,450.23440329998266,450.5780831000302,450.5947019000305,450.87810820003506,450.89487780001946,None,down,450.89487780001946,None,450.89487780001946,452.20993350003846,0.06495969998650253,None,2.86445019999519,,,,,,,,,13,001,2019_Dec_25_1004,untitled,3.1.0,60.163874355073155,
261,_2,N,180,R,N,261_2N180RN,HRN,0,127,127,244,,,1.127,453.8292825000244,454.1753037000308,454.19207980000647,454.47582220000913,454.49144660000456,None,up,454.49144660000456,None,454.49144660000456,455.60752700001467,0.06357719999505207,None,2.2501207999885082,,,,,,,,,13,001,2019_Dec_25_1004,untitled,3.1.0,60.163874355073155,
_,F,M,90,_,_,_FM090__,N,0,128,128,2,,,0.965,456.8121745000244,457.15669869998237,457.17327070003375,457.45624750002753,457.4731730000349,None,down,457.4731730000349,None,457.4731730000349,458.4221552000381,0.06317739997757599,None,1.8982623999472708,,,,,,,,,13,001,2019_Dec_25_1004,untitled,3.1.0,60.163874355073155,
044,R,M,135,L,N,044RM135LN,HLN,0,129,129,107,,,1.319,459.44061500002863,459.7871809999924,459.80382690002443,460.0869972000364,460.1033213000046,None,down,460.1033213000046,None,460.1033213000046,461.4023568999837,0.06063770002219826,None,3.3309770000050776,,,,,,,,,13,001,2019_Dec_25_1004,untitled,3.1.0,60.163874355073155,
167,F,N,270,L,N,167FN270LN,HLN,0,130,130,222,,,1.393,463.5189453000203,463.85033370001474,463.86688079999294,464.15061350003816,464.1667210999876,None,up,464.1667210999876,None,464.1667210999876,465.54864709998947,0.07661910000024363,None,2.7498862999491394,,,,,,,,,13,001,2019_Dec_25_1004,untitled,3.1.0,60.163874355073155,
232,G,N,315,L,N,232GN315LN,HLN,0,131,131,239,,,0.74,466.98457070003496,467.33048960001906,467.3478868000093,467.6302133999998,467.64690990000963,None,up,467.64690990000963,None,467.64690990000963,468.36316619999707,0.0607245999854058,None,2.04952590004541,,,,,,,,,13,001,2019_Dec_25_1004,untitled,3.1.0,60.163874355073155,
388,_4,N,135,R,N,388_4N135RN,HRN,0,132,132,259,,,1.102,469.78433669998776,470.11180070001865,470.1287021000171,470.4110528000165,470.4278522999957,None,up,470.4278522999957,None,470.4278522999957,471.509859599988,0.07909839996136725,None,2.9311741000274196,,,,,,,,,13,001,2019_Dec_25_1004,untitled,3.1.0,60.163874355073155,
225,G,N,0,L,N,225GN000LN,HLN,0,133,133,232,,,1.295,473.43237500003306,473.77504480001517,473.7915783000062,474.07384760002606,474.0911112999893,None,up,474.0911112999893,None,474.0911112999893,475.37308350001695,0.06508600001689047,None,2.465386999945622,,,,,,,,,13,001,2019_Dec_25_1004,untitled,3.1.0,60.163874355073155,
_,_2,N,135,_,_,__2N135__,N,0,134,134,75,,,1.105,476.6248026000103,476.9729654000257,476.989061100001,477.27408450003713,477.28998090000823,None,up,477.28998090000823,None,477.28998090000823,478.3709933999926,0.06165739998687059,None,2.0484643999952823,,,,,,,,,13,001,2019_Dec_25_1004,untitled,3.1.0,60.163874355073155,
257,_2,N,0,R,N,257_2N000RN,HRN,0,135,135,240,,,1.361,479.40614590002224,479.75301580002997,479.76951120002195,480.05227240000386,480.0688281999901,None,up,480.0688281999901,None,480.0688281999901,481.4178702000063,0.060654800035990775,None,2.267213300045114,,,,,,,,,13,001,2019_Dec_25_1004,untitled,3.1.0,60.163874355073155,
_,F,N,0,_,_,_FN000__,N,0,136,136,48,,,1.198,482.40395780000836,482.7503777000238,482.76760230003856,483.0503269000328,483.0675138999941,None,up,483.0675138999941,None,483.0675138999941,484.24935950001236,0.061359400046058,None,2.2834191999863833,,,,,,,,,13,001,2019_Dec_25_1004,untitled,3.1.0,60.163874355073155,
143,F,M,270,R,N,143FM270RN,HRN,0,137,137,118,,,0.889,485.42070359998615,485.76439800002845,485.78096659999574,486.0643455000245,486.0807605999871,None,down,486.0807605999871,None,486.0807605999871,486.94633489998523,0.06133530003717169,None,2.0175659999949858,,,,,,,,,13,001,2019_Dec_25_1004,untitled,3.1.0,60.163874355073155,
176,F,M,315,L,N,176FM315LN,HLN,0,138,138,127,,,0.792,488.1670426999917,488.5123182000243,488.52872750000097,488.81180490000406,488.82823720003944,None,down,488.82823720003944,None,488.82823720003944,489.61100199999055,0.0595826999633573,None,2.3995856000110507,,,,,,,,,13,001,2019_Dec_25_1004,untitled,3.1.0,60.163874355073155,
449,_5,N,0,R,N,449_5N000RN,HRN,0,139,139,272,,,1.296,491.29829599999357,491.6432456999901,491.65939290000824,491.9425227000029,491.9588717999868,None,up,491.9588717999868,None,491.9588717999868,493.2412526999833,0.06376979994820431,None,2.467020499985665,,,,,,,,,13,001,2019_Dec_25_1004,untitled,3.1.0,60.163874355073155,
391,_4,N,270,R,N,391_4N270RN,HRN,0,140,140,262,,,1.323,494.51352169999154,494.83983900002204,494.85693230002653,495.1396815000335,495.15643430000637,None,up,495.15643430000637,None,495.15643430000637,496.47165070002666,0.07661069999448955,None,2.1659259000443853,,,,,,,,,13,001,2019_Dec_25_1004,untitled,3.1.0,60.163874355073155,
_,G,N,225,_,_,_GN225__,N,0,141,141,61,,,1.281,497.38978480000515,497.7374071000377,497.75413590000244,498.03702079999493,498.0535847999854,None,up,498.0535847999854,None,498.0535847999854,499.3189302000101,0.05994519998785108,None,2.4154847000027075,,,,,,,,,13,001,2019_Dec_25_1004,untitled,3.1.0,60.163874355073155,
394,_4,M,45,R,N,394_4M045RN,HRN,0,142,142,161,,,1.344,500.5427017000038,500.8845991999842,500.90101189998677,501.1844167000381,501.20116190001136,None,up,501.20116190001136,None,501.20116190001136,502.53293180000037,0.06625129998428747,None,3.3985619000159204,,,,,,,,,13,001,2019_Dec_25_1004,untitled,3.1.0,60.163874355073155,
_,_4,M,135,_,_,__4M135__,N,0,143,143,35,,,0.961,504.6684130000067,505.0144046000205,505.03065890003927,505.31427889998304,505.3301336999866,None,up,505.3301336999866,None,505.3301336999866,506.27982789999805,0.060745100025087595,None,3.381440199969802,,,,,,,,,13,001,2019_Dec_25_1004,untitled,3.1.0,60.163874355073155,
_,_4,N,135,_,_,__4N135__,N,0,144,144,83,,,1.262,508.7798332000384,509.1277145000058,509.1442476999946,509.42752440000186,509.44366220000666,None,up,509.44366220000666,None,509.44366220000666,510.693538099993,0.06067500001518056,None,2.365002500009723,,,,,,,,,13,001,2019_Dec_25_1004,untitled,3.1.0,60.163874355073155,
_,_4,N,270,_,_,__4N270__,N,0,145,145,86,,,1.3860000000000001,511.87422220001463,512.2253111000173,512.241554200009,512.5250266999938,512.5414153999882,None,up,512.5414153999882,None,512.5414153999882,513.9065622999915,0.058638399990741163,None,2.716407700034324,,,,,,,,,13,001,2019_Dec_25_1004,untitled,3.1.0,60.163874355073155,
393,_4,M,0,R,N,393_4M000RN,HRN,0,146,146,160,,,1.163,515.3267555999919,515.6717126999865,515.6882981000235,515.9722872999846,515.9878947000252,None,down,515.9878947000252,None,515.9878947000252,517.1367079000338,0.06203490000916645,None,2.464814600010868,,,,,,,,,13,001,2019_Dec_25_1004,untitled,3.1.0,60.163874355073155,
_,G,N,315,_,_,_GN315__,N,0,147,147,63,,,0.925,518.5193332000053,518.8691218000022,518.8857533999835,519.1690020000096,519.1850623000064,None,up,519.1850623000064,None,519.1850623000064,520.0844588000327,0.059677500044927,None,2.54850620002253,,,,,,,,,13,001,2019_Dec_25_1004,untitled,3.1.0,60.163874355073155,
140,F,M,135,R,N,140FM135RN,HRN,0,148,148,115,,,1.1440000000000001,521.799742800009,522.1494249000098,522.1666255000164,522.4494532999815,522.4661142000114,None,None,522.4661142000114,None,522.4661142000114,523.598638000025,0.05914989998564124,None,,,,,,,,,,13,001,2019_Dec_25_1004,untitled,3.1.0,60.163874355073155,
237,G,M,180,L,N,237GM180LN,HLN,0,149,149,140,,,0.75,525.9972082999884,526.3461057000095,526.362784099998,526.6455552999978,526.6634467000258,525.9972082999884,up,526.6634467000258,None,526.6634467000258,527.3948613000102,0.06103520002216101,None,2.2337908999761567,,,,,,,,,13,001,2019_Dec_25_1004,untitled,3.1.0,60.163874355073155,
422,_4,N,225,L,N,422_4N225LN,HLN,0,150,150,269,,,0.7010000000000001,528.9987167000072,529.3095156000345,529.3267183999997,529.609692100028,529.6259614999872,None,up,529.6259614999872,None,529.6259614999872,530.3089548000135,0.08863480004947633,None,2.1002367999753915,,,,,,,,,13,001,2019_Dec_25_1004,untitled,3.1.0,60.163874355073155,
488,_5,N,315,L,N,488_5N315LN,HLN,0,151,151,287,,,1.26,531.7922571999952,532.1406616999884,532.1579537999933,532.4403756000102,532.4573227000074,None,None,532.4573227000074,None,532.4573227000074,533.7060902999947,0.05886520002968609,None,,,,,,,,,,13,001,2019_Dec_25_1004,untitled,3.1.0,60.163874355073155,
171,F,M,90,L,N,171FM090LN,HLN,0,152,152,122,,,1.111,535.9894726999919,536.3378391999868,536.3537826000247,536.6367515000165,536.6532461000024,535.9894726999919,down,536.6532461000024,None,536.6532461000024,None,0.062403200019616634,None,0.4841795999673195,,,,,,,,,13,001,2019_Dec_25_1004,untitled,3.1.0,60.163874355073155,
016,R,M,315,R,N,016RM315RN,HRN,0,153,153,103,,,0.835,537.2189379000338,537.552136400016,537.5706949000014,537.8522903000121,537.8693963999976,None,down,537.8693963999976,None,537.8693963999976,538.6854630000307,0.07249690004391596,None,2.081895600014832,,,,,,,,,13,001,2019_Dec_25_1004,untitled,3.1.0,60.163874355073155,
_,F,M,270,_,_,_FM270__,N,0,154,154,6,,,0.8260000000000001,540.0185756999999,540.3668904000078,540.385160100006,540.6662342000054,540.683317499992,None,down,540.683317499992,None,540.683317499992,541.4822917000274,0.06044180004391819,None,1.7997884000069462,,,,,,,,,13,001,2019_Dec_25_1004,untitled,3.1.0,60.163874355073155,
_,G,N,270,_,_,_GN270__,N,0,155,155,62,,,1.143,542.5498501000111,542.897787199996,542.9152419000166,543.1976474000257,543.2141454000375,None,up,543.2141454000375,None,543.2141454000375,544.346980900038,0.059698999975807965,None,2.048797600029502,,,,,,,,,13,001,2019_Dec_25_1004,untitled,3.1.0,60.163874355073155,
_,G,N,135,_,_,_GN135__,N,0,156,156,59,,,1.368,545.3304362000199,545.6793727999902,545.6962439999916,545.9786168999854,545.9951661000377,None,up,545.9951661000377,None,545.9951661000377,547.3442899000365,0.060536200006026775,None,2.7159910000045784,,,,,,,,,13,001,2019_Dec_25_1004,untitled,3.1.0,60.163874355073155,
495,_5,M,270,L,N,495_5M270LN,HLN,0,157,157,190,,,0.89,548.7838967000134,549.1259034000104,549.1426350999973,549.425725499983,549.442213100032,None,up,549.442213100032,None,549.442213100032,550.3080304000177,0.06545429996913299,None,2.96578710002359,,,,,,,,,13,001,2019_Dec_25_1004,untitled,3.1.0,60.163874355073155,
_,R,M,90,_,_,_RM090__,N,0,158,158,18,,,1.101,552.4954923000187,552.8228575999965,552.8392093000002,553.1220897000167,553.1387198999873,None,down,553.1387198999873,None,553.1387198999873,554.2222374000121,0.07833960000425577,None,2.403016399999615,,,,,,,,,13,001,2019_Dec_25_1004,untitled,3.1.0,60.163874355073155,
_,F,N,90,_,_,_FN090__,N,0,159,159,50,,,0.886,555.6364845000207,555.953267200035,555.969806100009,556.2533477999968,556.270617800008,None,up,556.270617800008,None,556.270617800008,557.1520540000056,0.08221289998618886,None,1.8315306000295095,,,,,,,,,13,001,2019_Dec_25_1004,untitled,3.1.0,60.163874355073155,
207,G,M,270,R,N,207GM270RN,HRN,0,160,160,134,,,1.397,558.1714443000383,558.5181087999954,558.5347899000044,558.8177620000206,558.8337401000317,None,down,558.8337401000317,None,558.8337401000317,560.2161706000334,0.06222540000453591,None,2.4999712000135332,,,,,,,,,13,001,2019_Dec_25_1004,untitled,3.1.0,60.163874355073155,
457,_5,M,0,R,N,457_5M000RN,HRN,0,161,161,176,,,1.333,561.4063995000324,561.7482227000291,561.7649925000151,562.0481014000252,562.0648980999831,None,down,562.0648980999831,None,562.0648980999831,563.3803709000349,0.06614359997911379,None,2.566791099961847,,,,,,,,,13,001,2019_Dec_25_1004,untitled,3.1.0,60.163874355073155,
193,G,N,0,R,N,193GN000RN,HRN,0,162,162,224,,,1.063,564.7025814999943,565.0455222000019,565.0620996000362,565.3455160000012,565.3620949999895,None,up,565.3620949999895,None,565.3620949999895,566.410434600024,0.06428570003481582,None,2.131486300029792,,,,,,,,,13,001,2019_Dec_25_1004,untitled,3.1.0,60.163874355073155,
_,G,N,0,_,_,_GN000__,N,0,163,163,56,,,0.9540000000000001,567.5610936000012,567.9097517000046,567.9276011000038,568.2095638000173,568.2267787000164,None,up,568.2267787000164,None,568.2267787000164,569.1586724999943,0.06031800003256649,None,1.7170779999578372,,,,,,,,,13,001,2019_Dec_25_1004,untitled,3.1.0,60.163874355073155,
236,G,M,135,L,N,236GM135LN,HLN,0,164,164,139,,,1.292,570.0205878000124,570.3576143000391,570.3742225000169,570.6575237000361,570.6740776000079,None,down,570.6740776000079,None,570.6740776000079,571.9558431000332,0.0686617000028491,None,2.4310518999700435,,,,,,,,,13,001,2019_Dec_25_1004,untitled,3.1.0,60.163874355073155,
_,F,M,135,_,_,_FM135__,N,0,165,165,3,,,0.81,573.1763063999824,573.5214399999822,573.5379144999897,573.8211584000383,573.8375050000031,None,down,573.8375050000031,None,573.8375050000031,574.6202035000315,0.0642935000360012,None,1.8156519000185654,,,,,,,,,13,001,2019_Dec_25_1004,untitled,3.1.0,60.163874355073155,
292,_2,N,135,L,N,292_2N135LN,HLN,0,166,166,251,,,0.962,575.720281100017,576.0690910000121,576.085899800004,576.3691630000249,576.3855833000271,None,up,576.3855833000271,None,576.3855833000271,577.334654700011,0.060260400001425296,None,2.64967140002409,,,,,,,,,13,001,2019_Dec_25_1004,untitled,3.1.0,60.163874355073155,
003,R,N,90,R,N,003RN090RN,HRN,0,167,167,194,,,1.0010000000000001,579.1034215000109,579.4494567000074,579.46574840002,579.7497326000012,579.766500000027,None,up,579.766500000027,None,579.766500000027,580.7485105000087,0.06128680001711473,None,2.664381999988109,,,,,,,,,13,001,2019_Dec_25_1004,untitled,3.1.0,60.163874355073155,
129,F,N,0,R,N,129FN000RN,HRN,0,168,168,208,,,0.875,582.5064942000317,582.8468211999862,582.8629605000024,583.1461185000371,583.1624902000185,None,up,583.1624902000185,None,583.1624902000185,584.0118010999868,0.0677572000422515,None,2.5673039999674074,,,,,,,,,13,001,2019_Dec_25_1004,untitled,3.1.0,60.163874355073155,
_,R,M,135,_,_,_RM135__,N,0,169,169,19,,,1.204,585.7961031000013,586.1438010000275,586.1611781000393,586.4438528000028,586.4605543999933,None,up,586.4605543999933,None,586.4605543999933,587.6423775000148,0.059529999969527125,None,2.397932799998671,,,,,,,,,13,001,2019_Dec_25_1004,untitled,3.1.0,60.163874355073155,
430,_4,M,225,L,N,430_4M225LN,HLN,0,170,170,173,,,0.885,588.9340318000177,589.2745936000138,589.2908633000334,589.5735725000268,589.5902114000055,None,up,589.5902114000055,None,589.5902114000055,590.4564704000368,0.06816969998180866,None,2.8515430000261404,,,,,,,,,13,001,2019_Dec_25_1004,untitled,3.1.0,60.163874355073155,
173,F,M,180,L,N,173FM180LN,HLN,0,171,171,124,,,1.1280000000000001,592.5130920000374,592.8549614000367,592.87127589999,593.1543598999851,593.170685900026,None,None,593.170685900026,None,593.170685900026,594.2866062000394,0.06425850000232458,None,,,,,,,,,,13,001,2019_Dec_25_1004,untitled,3.1.0,60.163874355073155,
392,_4,N,315,R,N,392_4N315RN,HRN,0,172,172,263,,,1.34,596.7038453000132,597.0510415000026,597.0687233000062,597.3500756000285,597.3672963000135,596.7038453000132,up,597.3672963000135,None,597.3672963000135,598.6825099000125,0.0616742999991402,None,2.2491850000224076,,,,,,,,,13,001,2019_Dec_25_1004,untitled,3.1.0,60.163874355073155,
_,R,M,270,_,_,_RM270__,N,0,173,173,22,,,0.765,599.6857164999819,600.0316249000025,600.0485311000375,600.3312681000098,600.3484225000138,None,down,600.3484225000138,None,600.3484225000138,601.0972417999874,0.06121090002125129,None,1.6982943000039086,,,,,,,,,13,001,2019_Dec_25_1004,untitled,3.1.0,60.163874355073155,
455,_5,N,270,R,N,455_5N270RN,HRN,0,174,174,278,,,0.718,602.1176938000135,602.4627299000276,602.4795211000019,602.7626888999948,602.7793728000252,None,up,602.7793728000252,None,602.7793728000252,603.4787542999838,0.06287080002948642,None,1.7657207999727689,,,,,,,,,13,001,2019_Dec_25_1004,untitled,3.1.0,60.163874355073155,
485,_5,N,180,L,N,485_5N180LN,HLN,0,175,175,284,,,1.192,604.6121105999919,604.960410300002,604.9781969999894,605.2603960999986,605.2773023000336,None,up,605.2773023000336,None,605.2773023000336,606.4427380000125,0.06002890004310757,None,2.714958500000648,,,,,,,,,13,001,2019_Dec_25_1004,untitled,3.1.0,60.163874355073155,
420,_4,N,135,L,N,420_4N135LN,HLN,0,176,176,267,,,0.9380000000000001,608.0629049999989,608.4072519000038,608.4244674000074,608.7071895999834,608.7236268999986,None,up,608.7236268999986,None,608.7236268999986,609.6396846999996,0.06367599999066442,None,2.216518700006418,,,,,,,,,13,001,2019_Dec_25_1004,untitled,3.1.0,60.163874355073155,
040,R,N,315,L,N,040RN315LN,HLN,0,177,177,207,,,0.916,611.0112365999958,611.3549218000262,611.3712621000013,611.6543302999926,611.6716911999974,None,down,611.6716911999974,None,611.6716911999974,612.5706742000184,0.06410780001897365,None,1.7818020999548025,,,,,,,,,13,001,2019_Dec_25_1004,untitled,3.1.0,60.163874355073155,
260,_2,N,135,R,N,260_2N135RN,HRN,0,178,178,243,,,0.915,613.5216062000254,613.869491200021,613.886195500032,614.1691840999993,614.1858142000274,None,up,614.1858142000274,None,614.1858142000274,615.0847419000347,0.061523100011982024,None,2.0486516000237316,,,,,,,,,13,001,2019_Dec_25_1004,untitled,3.1.0,60.163874355073155,
_,R,M,0,_,_,_RM000__,N,0,179,179,16,,,1.085,616.3045570999966,616.6511861000326,616.6673340999987,616.9505520000239,616.9670408000238,None,down,616.9670408000238,None,616.9670408000238,618.0322223000112,0.06319730001268908,None,1.9645788000198081,,,,,,,,,13,001,2019_Dec_25_1004,untitled,3.1.0,60.163874355073155,
_,_2,M,225,_,_,__2M225__,N,0,180,180,29,,,1.1280000000000001,618.9990502999863,619.3478912999853,619.3646578000044,619.648222799995,619.6642958000302,None,down,619.6642958000302,None,619.6642958000302,620.7801553999889,0.060538999969139695,None,2.516245600010734,,,,,,,,,13,001,2019_Dec_25_1004,untitled,3.1.0,60.163874355073155,
_,_2,M,315,_,_,__2M315__,N,0,181,181,31,,,1.339,622.248854400008,622.5951694000396,622.6121080000303,622.8950817000004,622.9130680999951,None,down,622.9130680999951,None,622.9130680999951,624.2270264999825,0.06159669999033213,None,2.2320557999773882,,,,,,,,,13,001,2019_Dec_25_1004,untitled,3.1.0,60.163874355073155,
464,_5,M,315,R,N,464_5M315RN,HRN,0,182,182,183,,,1.391,625.2178005999885,625.5593777000322,625.5758722000173,625.859282999998,625.8756854000385,None,down,625.8756854000385,None,625.8756854000385,627.257474699989,0.06576079997466877,None,2.816483500006143,,,,,,,,,13,001,2019_Dec_25_1004,untitled,3.1.0,60.163874355073155,
458,_5,M,45,R,N,458_5M045RN,HRN,0,183,183,177,,,0.894,628.761922100035,629.1067784000188,629.1231026999885,629.4060257000383,629.4228142999928,None,down,629.4228142999928,None,629.4228142999928,630.305434799986,0.06288209999911487,None,2.5144805999589153,,,,,,,,,13,001,2019_Dec_25_1004,untitled,3.1.0,60.163874355073155,
272,_2,M,315,R,N,272_2M315RN,HRN,0,184,184,151,,,1.068,632.0088824999984,632.3534729999956,632.3711265000165,632.6530586000299,632.6702137999819,None,down,632.6702137999819,None,632.6702137999819,633.7187908000196,0.06468609999865294,None,2.0482284000026993,,,,,,,,,13,001,2019_Dec_25_1004,untitled,3.1.0,60.163874355073155,
_,F,N,315,_,_,_FN315__,N,0,185,185,55,,,1.368,634.7857137999963,635.1343205000157,635.1512857000344,635.4338605999947,635.4504937999882,None,up,635.4504937999882,None,635.4504937999882,636.799949200009,0.06048479996388778,None,2.7475448999903165,,,,,,,,,13,001,2019_Dec_25_1004,untitled,3.1.0,60.163874355073155,
230,G,N,225,L,N,230GN225LN,HLN,0,186,186,237,,,1.068,638.2654493000009,638.6147559999954,638.6313786000246,638.9145522000035,638.9313362999819,None,up,638.9313362999819,None,638.9313362999819,639.9796248000348,0.060503399989102036,None,1.983532800048124,,,,,,,,,13,001,2019_Dec_25_1004,untitled,3.1.0,60.163874355073155,
452,_5,N,135,R,N,452_5N135RN,HRN,0,187,187,275,,,1.18,640.9819467000198,641.329014500021,641.3453083999921,641.6298180000158,641.6449377000099,None,up,641.6449377000099,None,641.6449377000099,642.8108479999937,0.060089999984484166,None,3.31402170000365,,,,,,,,,13,001,2019_Dec_25_1004,untitled,3.1.0,60.163874355073155,
_,_2,N,0,_,_,__2N000__,N,0,188,188,72,,,1.199,645.0282679999946,645.3749061999843,645.391631000035,645.6749209000263,645.6912619000068,None,up,645.6912619000068,None,645.6912619000068,646.8733533000341,0.06289380002999678,None,2.4486328999628313,,,,,,,,,13,001,2019_Dec_25_1004,untitled,3.1.0,60.163874355073155,
396,_4,M,135,R,N,396_4M135RN,HRN,0,189,189,163,,,0.77,648.2124312000233,648.555961999984,648.5724273000378,648.8555831999984,648.8720932999859,None,up,648.8720932999859,None,648.8720932999859,649.6219330999884,0.0661042999709025,None,2.1001556999981403,,,,,,,,,13,001,2019_Dec_25_1004,untitled,3.1.0,60.163874355073155,
240,G,M,315,L,N,240GM315LN,HLN,0,190,190,143,,,0.721,651.0391282000346,651.3877501999959,651.4037416999927,651.687321400037,651.7035379000008,None,down,651.7035379000008,None,651.7035379000008,652.4025224000216,0.060167299991007894,None,1.7839624999905936,,,,,,,,,13,001,2019_Dec_25_1004,untitled,3.1.0,60.163874355073155,
301,_2,M,180,L,N,301_2M180LN,HLN,0,191,191,156,,,1.074,653.555299700005,653.9014931999845,653.9184228000231,654.2013477000291,654.2181417000247,None,down,654.2181417000247,None,654.2181417000247,655.2832568000304,0.06107070000143722,None,2.8997178999707103,,,,,,,,,13,001,2019_Dec_25_1004,untitled,3.1.0,60.163874355073155,
426,_4,M,45,L,N,426_4M045LN,HLN,0,192,192,169,,,0.809,657.1876797000295,657.5317168000038,657.5483169000363,657.830961300002,657.8481137999916,None,down,657.8481137999916,None,657.8481137999916,658.6474333000369,0.06106569996336475,None,1.7835474999737926,,,,,,,,,13,001,2019_Dec_25_1004,untitled,3.1.0,60.163874355073155,
170,F,M,45,L,N,170FM045LN,HLN,0,193,193,121,,,1.2670000000000001,659.6995746000321,660.045872799994,660.062866799999,660.3459726999863,660.3622816000134,None,down,660.3622816000134,None,660.3622816000134,661.6111251999973,0.06092499999795109,None,3.2475884000305086,,,,,,,,,13,001,2019_Dec_25_1004,untitled,3.1.0,60.163874355073155,
294,_2,N,225,L,N,294_2N225LN,HLN,0,194,194,253,,,0.758,663.677213500021,664.0255172000034,664.042299600027,664.3254829000216,664.3419396000099,None,up,664.3419396000099,None,664.3419396000099,665.0745454999851,0.05975740001304075,None,1.9655979999806732,,,,,,,,,13,001,2019_Dec_25_1004,untitled,3.1.0,60.163874355073155,
_,_2,M,90,_,_,__2M090__,N,0,195,195,26,,,0.79,666.3842325999867,666.7240070999833,666.7400168000022,667.0236342999851,667.0397467000294,None,down,667.0397467000294,None,667.0397467000294,667.805695099989,0.0681606000289321,None,1.632750799995847,,,,,,,,,13,001,2019_Dec_25_1004,untitled,3.1.0,60.163874355073155,
161,F,N,0,L,N,161FN000LN,HLN,0,196,196,216,,,0.776,668.7436368000344,669.0879712000024,669.1050658000167,669.3877728999942,669.4044697000063,None,up,669.4044697000063,None,669.4044697000063,670.1536895000027,0.06107289995998144,None,1.7657930999994278,,,,,,,,,13,001,2019_Dec_25_1004,untitled,3.1.0,60.163874355073155,
429,_4,M,180,L,N,429_4M180LN,HLN,0,197,197,172,,,0.914,671.2375388999935,671.587468600017,671.6028118000249,671.8864673000062,671.901886800013,None,down,671.901886800013,None,671.901886800013,672.8015191000304,0.06009039998752996,None,3.017175099987071,,,,,,,,,13,001,2019_Dec_25_1004,untitled,3.1.0,60.163874355073155,
431,_4,M,270,L,N,431_4M270LN,HLN,0,198,198,174,,,1.346,674.9890475000138,675.3329528000322,675.3496633000323,675.6332628999953,675.6496136999922,None,down,675.6496136999922,None,675.6496136999922,676.9812185000046,0.06338099995627999,None,2.7156413999618962,,,,,,,,,13,001,2019_Dec_25_1004,untitled,3.1.0,60.163874355073155,
295,_2,N,270,L,N,295_2N270LN,HLN,0,199,199,254,,,1.22,678.4365531000076,678.7799938999815,678.7965050000348,679.0798485000269,679.0965698999935,None,up,679.0965698999935,None,679.0965698999935,680.2946919000242,0.06356869998853654,None,2.2999132000259124,,,,,,,,,13,001,2019_Dec_25_1004,untitled,3.1.0,60.163874355073155,
012,R,M,135,R,N,012RM135RN,HRN,0,200,200,99,,,1.201,681.4640347000095,681.8110844999901,681.8269896000274,682.1103433999815,682.1269002000336,None,up,682.1269002000336,None,682.1269002000336,683.3092728999909,0.061052000033669174,None,2.747821199998725,,,,,,,,,13,001,2019_Dec_25_1004,untitled,3.1.0,60.163874355073155,
_,R,N,90,_,_,_RN090__,N,0,201,201,66,,,1.133,684.9532471999992,685.2904951000237,685.3071768000373,685.590020100004,685.60676960001,None,up,685.60676960001,None,685.60676960001,686.72268050001,0.0705739000113681,None,1.9818453000043519,,,,,,,,,13,001,2019_Dec_25_1004,untitled,3.1.0,60.163874355073155,
482,_5,N,45,L,N,482_5N045LN,HLN,0,202,202,281,,,0.893,687.6559370000032,688.0051458000089,688.0217684000381,688.3047170999926,688.3219239999889,None,up,688.3219239999889,None,688.3219239999889,689.1869592000148,0.0608067000284791,None,2.1148568999487907,,,,,,,,,13,001,2019_Dec_25_1004,untitled,3.1.0,60.163874355073155,
013,R,M,180,R,N,013RM180RN,HRN,0,203,203,100,,,1.198,690.5059874000144,690.852890899987,690.869111499982,691.1520205999841,691.1686605000286,None,up,691.1686605000286,None,691.1686605000286,692.3513691999833,0.06196469999849796,None,3.2806752999895252,,,,,,,,,13,001,2019_Dec_25_1004,untitled,3.1.0,60.163874355073155,
011,R,M,90,R,N,011RM090RN,HRN,0,204,204,98,,,1.027,694.5164696000284,694.8657394000329,694.8823878000258,695.1653698000009,695.1814860000159,None,down,695.1814860000159,None,695.1814860000159,696.1983403000049,0.06050899997353554,None,1.9342736000544392,,,,,,,,,13,001,2019_Dec_25_1004,untitled,3.1.0,60.163874355073155,
_,F,M,0,_,_,_FM000__,N,0,205,205,0,,,1.2690000000000001,697.1818716999842,697.5302137000253,697.5468873000355,697.8292990000336,697.8462941999896,None,down,697.8462941999896,None,697.8462941999896,699.0951017999905,0.05811750004068017,None,2.364732999994885,,,,,,,,,13,001,2019_Dec_25_1004,untitled,3.1.0,60.163874355073155,
038,R,N,225,L,N,038RN225LN,HLN,0,206,206,205,,,0.795,700.280858699989,700.6273619999993,700.6439751000144,700.9276735000312,700.9442426000023,None,up,700.9442426000023,None,700.9442426000023,701.7260326999822,0.06316310004331172,None,1.9828366999863647,,,,,,,,,13,001,2019_Dec_25_1004,untitled,3.1.0,60.163874355073155,
201,G,M,0,R,N,201GM000RN,HRN,0,207,207,128,,,0.962,702.994413700013,703.3417022000067,703.3581509999931,703.641535600007,703.6579626000021,None,down,703.6579626000021,None,703.6579626000021,704.6068541000132,0.060159799992106855,None,2.0676860000239685,,,,,,,,,13,001,2019_Dec_25_1004,untitled,3.1.0,60.163874355073155,
_,_5,N,0,_,_,__5N000__,N,0,208,208,88,,,0.871,705.7952748000389,706.1390074000228,706.1556494000251,706.4391705000307,706.455430400034,None,up,706.455430400034,None,706.455430400034,707.3045450000209,0.06292460003169253,None,1.932772800035309,,,,,,,,,13,001,2019_Dec_25_1004,untitled,3.1.0,60.163874355073155,
175,F,M,270,L,N,175FM270LN,HLN,0,209,209,126,,,1.314,708.4575413999846,708.8031072000158,708.8211526999949,709.1029804000282,709.1201634000172,None,down,709.1201634000172,None,709.1201634000172,710.4188792000059,0.06202319997828454,None,2.632650499988813,,,,,,,,,13,001,2019_Dec_25_1004,untitled,3.1.0,60.163874355073155,
_,_2,N,90,_,_,__2N090__,N,0,210,210,74,,,1.281,711.8181597000221,712.1671964999987,712.1837806000258,712.4667370000388,712.4833433000022,None,up,712.4833433000022,None,712.4833433000022,713.7490496000391,0.05857059999834746,None,2.1492310000467114,,,,,,,,,13,001,2019_Dec_25_1004,untitled,3.1.0,60.163874355073155,
269,_2,M,180,R,N,269_2M180RN,HRN,0,211,211,148,,,0.9490000000000001,714.7013135000016,715.048182700004,715.0647682999843,715.3478568000137,715.3648553999956,None,down,715.3648553999956,None,715.3648553999956,716.2965175000136,0.061340700020082295,None,2.1481168000027537,,,,,,,,,13,001,2019_Dec_25_1004,untitled,3.1.0,60.163874355073155,
165,F,N,180,L,N,165FN180LN,HLN,0,212,212,220,,,0.861,717.5817830000306,717.9288556000101,717.9457473999937,718.2286347000045,718.2454504999914,None,up,718.2454504999914,None,718.2454504999914,719.0945903999964,0.06192649999866262,None,1.9825194999575615,,,,,,,,,13,001,2019_Dec_25_1004,untitled,3.1.0,60.163874355073155,
_,_5,M,315,_,_,__5M315__,N,0,213,213,47,,,0.839,720.3281260000076,720.6431427000207,720.6597653999925,720.9429915000219,720.9595033000223,None,down,720.9595033000223,None,720.9595033000223,721.775062700035,0.09043989999918267,None,2.282242799992673,,,,,,,,,13,001,2019_Dec_25_1004,untitled,3.1.0,60.163874355073155,
_,_2,M,45,_,_,__2M045__,N,0,214,214,25,,,0.794,723.3083141000243,723.6574410999892,723.6741166000138,723.9571692000027,723.9756829999969,None,down,723.9756829999969,None,723.9756829999969,724.7569713999983,0.06004630000097677,None,2.214111800014507,,,,,,,,,13,001,2019_Dec_25_1004,untitled,3.1.0,60.163874355073155,
299,_2,M,90,L,N,299_2M090LN,HLN,0,215,215,154,,,0.893,726.2738713999861,726.6045256000361,726.6217407000368,726.9047837000107,726.9210187999997,None,down,726.9210187999997,None,726.9210187999997,727.8046422000043,0.07277389999944717,None,1.8497987000155263,,,,,,,,,13,001,2019_Dec_25_1004,untitled,3.1.0,60.163874355073155,
174,F,M,225,L,N,174FM225LN,HLN,0,216,216,125,,,1.305,728.8444951000274,729.1859032000066,729.202479300031,729.4855897999951,729.5019484999939,None,down,729.5019484999939,None,729.5019484999939,730.7841170000029,0.0664898999966681,None,2.681165600020904,,,,,,,,,13,001,2019_Dec_25_1004,untitled,3.1.0,60.163874355073155,
259,_2,N,90,R,N,259_2N090RN,HRN,0,217,217,242,,,0.749,732.254078500031,732.5994631000212,732.61647920002,732.9010167000233,732.9162897000206,None,up,732.9162897000206,None,732.9162897000206,733.648150700028,0.06334540003445,None,1.6504932999960147,,,,,,,,,13,001,2019_Dec_25_1004,untitled,3.1.0,60.163874355073155,
486,_5,N,225,L,N,486_5N225LN,HLN,0,218,218,285,,,0.899,734.6386733999825,734.9810111999977,734.9968726999941,735.2803777999943,735.2970254000393,None,up,735.2970254000393,None,735.2970254000393,736.1791746999952,0.06512629997450858,None,2.4647521000006236,,,,,,,,,13,001,2019_Dec_25_1004,untitled,3.1.0,60.163874355073155,
425,_4,M,0,L,N,425_4M000LN,HLN,0,219,219,168,,,0.73,737.8295398000046,738.1790429999819,738.1949464000063,738.4789497000165,738.4940225000028,None,down,738.4940225000028,None,738.4940225000028,739.2103570000036,0.06061420001788065,None,1.9819263000390492,,,,,,,,,13,001,2019_Dec_25_1004,untitled,3.1.0,60.163874355073155,
_,_4,M,225,_,_,__4M225__,N,0,220,220,37,,,1.212,740.5441017000121,740.8924052999937,740.909066400025,741.1919252999942,741.2084818999865,None,down,741.2084818999865,None,741.2084818999865,742.4076783999917,0.06160459999227896,None,2.2667720000026748,,,,,,,,,13,001,2019_Dec_25_1004,untitled,3.1.0,60.163874355073155,
_,F,M,45,_,_,_FM045__,N,0,221,221,1,,,0.841,743.5461784999934,743.8898663999862,743.9061684000189,744.1896888000192,744.2058737000334,None,down,744.2058737000334,None,744.2058737000334,745.0217765999842,0.06421989999944344,None,1.966103499988094,,,,,,,,,13,001,2019_Dec_25_1004,untitled,3.1.0,60.163874355073155,
197,G,N,180,R,N,197GN180RN,HRN,0,222,222,228,,,0.719,746.2562536000041,746.5872777000186,746.6039028000087,746.8873787000193,746.9040358000202,None,up,746.9040358000202,None,746.9040358000202,747.6032615000149,0.07477059995289892,None,2.015192400023807,,,,,,,,,13,001,2019_Dec_25_1004,untitled,3.1.0,60.163874355073155,
134,F,N,225,R,N,134FN225RN,HRN,0,223,223,213,,,1.338,749.0027830000035,749.3351004000288,749.3515784000047,749.6345335000078,749.6509760000044,None,up,749.6509760000044,None,749.6509760000044,750.9669941000175,0.07372410001698881,None,2.2007717000087723,,,,,,,,,13,001,2019_Dec_25_1004,untitled,3.1.0,60.163874355073155,
_,_4,M,315,_,_,__4M315__,N,0,224,224,39,,,1.311,751.9219266999862,752.2655509000178,752.2821014000219,752.5652731999871,752.5818883000175,None,down,752.5818883000175,None,752.5818883000175,753.8805770000326,0.06346059998031706,None,2.4649556999793276,,,,,,,,,13,001,2019_Dec_25_1004,untitled,3.1.0,60.163874355073155,
229,G,N,180,L,N,229GN180LN,HLN,0,225,225,236,,,1.198,755.1123189000064,755.4634343000362,755.4795460000169,755.7633053000318,755.7794818999828,None,up,755.7794818999828,None,755.7794818999828,756.961851900036,0.05769029998918995,None,2.102044700004626,,,,,,,,,13,001,2019_Dec_25_1004,untitled,3.1.0,60.163874355073155,
_,_5,M,225,_,_,__5M225__,N,0,226,226,45,,,0.8210000000000001,757.9467762000277,758.2935931999818,758.3102777000167,758.593423000013,758.6098488999996,None,down,758.6098488999996,None,758.6098488999996,759.409536399995,0.05854509997880086,None,2.3840047999983653,,,,,,,,,13,001,2019_Dec_25_1004,untitled,3.1.0,60.163874355073155,
039,R,N,270,L,N,039RN270LN,HLN,0,227,227,206,,,1.104,761.0779368000221,761.407891000039,761.4247292000218,761.7096545000095,761.7246565000387,None,up,761.7246565000387,None,761.7246565000387,762.8064368999912,0.07725189998745918,None,1.7979556999634951,,,,,,,,,13,001,2019_Dec_25_1004,untitled,3.1.0,60.163874355073155,
427,_4,M,90,L,N,427_4M090LN,HLN,0,228,228,170,,,1.196,763.5903192000114,763.9390223000082,763.9555589000229,764.2386084999889,764.2553843000205,None,down,764.2553843000205,None,764.2553843000205,765.4375619000057,0.05928739998489618,None,1.967639499984216,,,,,,,,,13,001,2019_Dec_25_1004,untitled,3.1.0,60.163874355073155,
494,_5,M,225,L,N,494_5M225LN,HLN,0,229,229,189,,,0.769,766.2931220000028,766.6361751999939,766.653098699986,766.9364234000095,766.9528341999976,None,down,766.9528341999976,None,766.9528341999976,767.7022904999903,0.06280959997093305,None,2.414849100052379,,,,,,,,,13,001,2019_Dec_25_1004,untitled,3.1.0,60.163874355073155,
481,_5,N,0,L,N,481_5N000LN,HLN,0,230,230,280,,,0.9560000000000001,769.4336962000234,769.7837914000265,769.8003901999909,770.0834815999842,770.1000409999979,None,up,770.1000409999979,None,770.1000409999979,771.0328508000239,0.05853559996467084,None,1.7834678000072017,,,,,,,,,13,001,2019_Dec_25_1004,untitled,3.1.0,60.163874355073155,
_,_4,N,45,_,_,__4N045__,N,0,231,231,81,,,0.837,771.9485007000039,772.2983886000002,772.3151490000309,772.5976882000105,772.6151207000366,None,up,772.6151207000366,None,772.6151207000366,773.4308007000363,0.05798009998397902,None,1.8482492999755777,,,,,,,,,13,001,2019_Dec_25_1004,untitled,3.1.0,60.163874355073155,
007,R,N,270,R,N,007RN270RN,HRN,0,232,232,198,,,1.0170000000000001,774.545242400025,774.8790337999817,774.8957661000313,775.17871930002,775.1955118000042,None,up,775.1955118000042,None,775.1955118000042,776.1944299000315,0.07119339995551854,None,1.9179502000333741,,,,,,,,,13,001,2019_Dec_25_1004,untitled,3.1.0,60.163874355073155,
046,R,M,225,L,N,046RM225LN,HLN,0,233,233,109,,,1.0050000000000001,777.1811191000161,777.5268957000226,777.5439318999997,777.8266927000368,777.843420499994,None,down,777.843420499994,None,777.843420499994,778.825806799985,0.06091199995717034,None,1.93189170002006,,,,,,,,,13,001,2019_Dec_25_1004,untitled,3.1.0,60.163874355073155,
162,F,N,45,L,N,162FN045LN,HLN,0,234,234,217,,,1.114,779.8641566000297,780.191334400035,780.2082632000092,780.4913291999837,780.5079357000068,None,up,780.5079357000068,None,780.5079357000068,781.6068375000032,0.07926979998592287,None,2.0981123999808915,,,,,,,,,13,001,2019_Dec_25_1004,untitled,3.1.0,60.163874355073155,
_,_2,N,315,_,_,__2N315__,N,0,235,235,79,,,1.194,782.6742685000063,783.0221100000199,783.0394389000139,783.3222025000141,783.3384423000389,None,up,783.3384423000389,None,783.3384423000389,784.5208918999997,0.06101209996268153,None,2.8479547000024468,,,,,,,,,13,001,2019_Dec_25_1004,untitled,3.1.0,60.163874355073155,
_,_2,M,0,_,_,__2M000__,N,0,236,236,24,,,1.071,786.2680769999861,786.6026527000358,786.6190934000188,786.9021521999966,786.9190494000213,None,down,786.9190494000213,None,786.9190494000213,787.9681520999875,0.07217570004286245,None,1.96729930001311,,,,,,,,,13,001,2019_Dec_25_1004,untitled,3.1.0,60.163874355073155,
235,G,M,90,L,N,235GM090LN,HLN,0,237,237,138,,,1.221,788.9541233000346,789.2998077000375,789.3166192999925,789.5998167000362,789.6162871000124,None,down,789.6162871000124,None,789.6162871000124,790.8153234000201,0.061048900010064244,None,2.4312941000098363,,,,,,,,,13,001,2019_Dec_25_1004,untitled,3.1.0,60.163874355073155,
002,R,N,45,R,N,002RN045RN,HRN,0,238,238,193,,,0.877,792.1175352000282,792.4645108000259,792.4801192000159,792.7635882000322,792.7802707999945,None,up,792.7802707999945,None,792.7802707999945,793.6299767000019,0.06226879998575896,None,1.885165300045628,,,,,,,,,13,001,2019_Dec_25_1004,untitled,3.1.0,60.163874355073155,
_,R,M,180,_,_,_RM180__,N,0,239,239,20,,,0.709,794.7345811999985,795.078098500031,795.094720299996,795.3779605000163,795.3944542999961,None,up,795.3944542999961,None,795.3944542999961,796.0944462000043,0.06130830000620335,None,2.2503713000332937,,,,,,,,,13,001,2019_Dec_25_1004,untitled,3.1.0,60.163874355073155,
460,_5,M,135,R,N,460_5M135RN,HRN,0,240,240,179,,,0.858,797.7126839000266,798.0594465000322,798.0758908999851,798.3588801000151,798.375895300007,None,down,798.375895300007,None,798.375895300007,799.2257622000179,0.06056180002633482,None,2.6336905999924056,,,,,,,,,13,001,2019_Dec_25_1004,untitled,3.1.0,60.163874355073155,
_,G,M,225,_,_,_GM225__,N,0,241,241,13,,,0.707,801.0994594999938,801.4230470000184,801.4398197000264,801.7227462999872,801.7409822000191,None,down,801.7409822000191,None,801.7409822000191,802.4384505000198,0.08008230000268668,None,2.180535899999086,,,,,,,,,13,001,2019_Dec_25_1004,untitled,3.1.0,60.163874355073155,
006,R,N,225,R,N,006RN225RN,HRN,0,242,242,197,,,0.849,803.9880427999888,804.3370321000111,804.3544433999923,804.6369301000377,804.6535281999968,None,up,804.6535281999968,None,804.6535281999968,805.4857675000094,0.05873710004379973,None,1.6004150999942794,,,,,,,,,13,001,2019_Dec_25_1004,untitled,3.1.0,60.163874355073155,
268,_2,M,135,R,N,268_2M135RN,HRN,0,243,243,147,,,0.706,806.3230900000199,806.6685539000318,806.6848975000321,806.968135800038,806.9847934999852,None,down,806.9847934999852,None,806.9847934999852,807.6671669000061,0.0626308000064455,None,2.1981642000027932,,,,,,,,,13,001,2019_Dec_25_1004,untitled,3.1.0,60.163874355073155,
389,_4,N,180,R,N,389_4N180RN,HRN,0,244,244,260,,,0.811,809.2492029999848,809.5990680000396,809.6165322000161,809.898827099998,809.915238799993,None,up,809.915238799993,None,809.915238799993,810.7144833999919,0.059381900005973876,None,1.8821033000131138,,,,,,,,,13,001,2019_Dec_25_1004,untitled,3.1.0,60.163874355073155,
033,R,N,0,L,N,033RN000LN,HLN,0,245,245,200,,,1.338,811.8639466000022,812.213334900036,812.2299459000351,812.5131325999973,812.5297108000377,None,up,812.5297108000377,None,812.5297108000377,813.8452187000075,0.05964099999982864,None,2.183209499984514,,,,,,,,,13,001,2019_Dec_25_1004,untitled,3.1.0,60.163874355073155,
271,_2,M,270,R,N,271_2M270RN,HRN,0,246,246,150,,,0.8210000000000001,814.7822254000348,815.1278197999927,815.1444104000111,815.4277002000017,815.4438069000025,None,down,815.4438069000025,None,815.4438069000025,816.242885500018,0.06237010000040755,None,2.9673135000048205,,,,,,,,,13,001,2019_Dec_25_1004,untitled,3.1.0,60.163874355073155,
_,_4,M,270,_,_,__4M270__,N,0,247,247,38,,,0.864,818.4780314000091,818.8248315000092,818.8411091000307,819.1241733999923,819.1408843999961,None,down,819.1408843999961,None,819.1408843999961,819.9899377999827,0.05870520003372803,None,3.3486551999812946,,,,,,,,,13,001,2019_Dec_25_1004,untitled,3.1.0,60.163874355073155,
432,_4,M,315,L,N,432_4M315LN,HLN,0,248,248,175,,,1.1460000000000001,822.5564186000265,822.9040159999859,822.9208818000043,823.2038181999815,823.2203306999872,None,down,823.2203306999872,None,823.2203306999872,824.3526328000007,0.059215999965090305,None,3.164012500026729,,,,,,,,,13,001,2019_Dec_25_1004,untitled,3.1.0,60.163874355073155,
_,F,M,180,_,_,_FM180__,N,0,249,249,4,,,0.72,826.4574748000014,826.8008902000147,826.8183933999971,827.1004598999862,827.1178740999894,None,down,827.1178740999894,None,827.1178740999894,827.8167384000262,0.06558189995121211,None,2.530581999977585,,,,,,,,,13,001,2019_Dec_25_1004,untitled,3.1.0,60.163874355073155,
141,F,M,180,R,N,141FM180RN,HRN,0,250,250,116,,,0.848,829.71685289999,830.0640676000039,830.0808045000304,830.3641130999895,830.3805560999899,None,down,830.3805560999899,None,830.3805560999899,831.213039299997,0.06161099998280406,None,1.5516198999830522,,,,,,,,,13,001,2019_Dec_25_1004,untitled,3.1.0,60.163874355073155,
_,_2,N,225,_,_,__2N225__,N,0,251,251,77,,,0.776,831.9983786999946,832.346022600017,832.3633176999865,832.6455491000088,832.6620996000129,None,up,832.6620996000129,None,832.6620996000129,833.4284208000172,0.05919160001212731,None,2.015374700014945,,,,,,,,,13,001,2019_Dec_25_1004,untitled,3.1.0,60.163874355073155,
231,G,N,270,L,N,231GN270LN,HLN,0,252,252,238,,,1.079,834.7474140999839,835.093435399991,835.110122699989,835.3931340000127,835.4096010000212,None,up,835.4096010000212,None,835.4096010000212,836.4760255999863,0.062340700009372085,None,2.3015253000194207,,,,,,,,,13,001,2019_Dec_25_1004,untitled,3.1.0,60.163874355073155,
_,_4,N,315,_,_,__4N315__,N,0,253,253,87,,,1.04,837.7772809999879,838.1239197999821,838.1406154999859,838.4242269000388,838.4406132000149,None,up,838.4406132000149,None,838.4406132000149,839.4729555000085,0.059534800006076694,None,2.3156002999749035,,,,,,,,,13,001,2019_Dec_25_1004,untitled,3.1.0,60.163874355073155,
_,F,M,225,_,_,_FM225__,N,0,254,254,5,,,1.1440000000000001,840.8348228000104,841.1717387000099,841.1882459000335,841.4713606000296,841.4880688000121,None,down,841.4880688000121,None,841.4880688000121,842.6203536000103,0.06920279999030754,None,2.1818323000334203,,,,,,,,,13,001,2019_Dec_25_1004,untitled,3.1.0,60.163874355073155,
_,_4,N,180,_,_,__4N180__,N,0,255,255,84,,,1.096,843.7448627999984,844.0860522000003,844.1022252999828,844.3856165999896,844.4017269000178,None,up,844.4017269000178,None,844.4017269000178,845.4844341999851,0.06821080000372604,None,2.265128500002902,,,,,,,,,13,001,2019_Dec_25_1004,untitled,3.1.0,60.163874355073155,
_,R,N,45,_,_,_RN045__,N,0,256,256,65,,,1.165,846.7344748000032,847.0828915000311,847.0995644000359,847.382785200025,847.3989292000188,None,up,847.3989292000188,None,847.3989292000188,848.5486084999866,0.06050760002108291,None,2.2998393999878317,,,,,,,,,13,001,2019_Dec_25_1004,untitled,3.1.0,60.163874355073155,
385,_4,N,0,R,N,385_4N000RN,HRN,0,257,257,256,,,1.229,849.770109300036,850.1136228000396,850.1304432000034,850.414760500018,850.4299836999853,None,up,850.4299836999853,None,850.4299836999853,851.6460023000254,0.06340519996592775,None,2.4989611999480985,,,,,,,,,13,001,2019_Dec_25_1004,untitled,3.1.0,60.163874355073155,
258,_2,N,45,R,N,258_2N045RN,HRN,0,258,258,241,,,0.9470000000000001,852.9974401000072,853.3438523000223,853.3610109000001,853.6441786999931,853.6606834999984,None,up,853.6606834999984,None,853.6606834999984,854.5929518000339,0.06199310004012659,None,2.647965000011027,,,,,,,,,13,001,2019_Dec_25_1004,untitled,3.1.0,60.163874355073155,
456,_5,N,315,R,N,456_5N315RN,HRN,0,259,259,279,,,0.862,856.396133900038,856.724663400033,856.7413874000194,857.0243305999902,857.0409724999918,None,up,857.0409724999918,None,857.0409724999918,857.8899178000283,0.07801220001420006,None,2.0819273999659345,,,,,,,,,13,001,2019_Dec_25_1004,untitled,3.1.0,60.163874355073155,
227,G,N,90,L,N,227GN090LN,HLN,0,260,260,234,,,0.713,859.2081295000389,859.538885899994,859.5556314000278,859.8385988000082,859.8550767999841,None,up,859.8550767999841,None,859.8550767999841,860.5551554000122,0.07787869998719543,None,1.7655379999778233,,,,,,,,,13,001,2019_Dec_25_1004,untitled,3.1.0,60.163874355073155,
_,G,M,0,_,_,_GM000__,N,0,261,261,8,,,0.843,861.6862144999905,862.0367051000358,862.0536393999937,862.3371038000332,862.3526877000113,None,down,862.3526877000113,None,862.3526877000113,863.1854856000282,0.0582668999559246,None,1.9672388999606483,,,,,,,,,13,001,2019_Dec_25_1004,untitled,3.1.0,60.163874355073155,
144,F,M,315,R,N,144FM315RN,HRN,0,262,262,119,,,1.18,864.3865209000069,864.7340534999967,864.7508360000211,865.0346280999947,865.051099000033,None,down,865.051099000033,None,865.051099000033,866.2166728000157,0.059626300004310906,None,1.9996073999791406,,,,,,,,,13,001,2019_Dec_25_1004,untitled,3.1.0,60.163874355073155,
483,_5,N,90,L,N,483_5N090LN,HLN,0,263,263,282,,,0.9560000000000001,867.1177420000313,867.4654211000307,867.4817691000062,867.7650052999961,867.7815574000124,None,up,867.7815574000124,None,867.7815574000124,868.7143912999891,0.06008979998296127,None,1.8983224000548944,,,,,,,,,13,001,2019_Dec_25_1004,untitled,3.1.0,60.163874355073155,
395,_4,M,90,R,N,395_4M090RN,HRN,0,264,264,162,,,1.2570000000000001,869.747138500039,870.0973901000107,870.1127619000035,870.3961564000347,870.4130240000086,None,down,870.4130240000086,None,870.4130240000086,871.6448710000259,0.059761300042737275,None,2.499329400015995,,,,,,,,,13,001,2019_Dec_25_1004,untitled,3.1.0,60.163874355073155,
_,R,N,0,_,_,_RN000__,N,0,265,265,64,,,1.234,872.9778440000373,873.3270380999893,873.3434281999944,873.6265880999854,873.6430048000184,None,up,873.6430048000184,None,873.6430048000184,874.8585852999822,0.05816230003256351,None,2.534230599994771,,,,,,,,,13,001,2019_Dec_25_1004,untitled,3.1.0,60.163874355073155,
390,_4,N,225,R,N,390_4N225RN,HRN,0,266,266,261,,,0.999,876.2678811000078,876.5904694999917,876.6074164999882,876.8902461000253,876.907279200037,None,up,876.907279200037,None,876.907279200037,877.8893514000229,0.08074140001554042,None,1.8166907000122592,,,,,,,,,13,001,2019_Dec_25_1004,untitled,3.1.0,60.163874355073155,
047,R,M,270,L,N,047RM270LN,HLN,0,267,267,110,,,0.98,878.7912419000058,879.1387682000059,879.1549149000202,879.4385195000214,879.4547227000003,None,up,879.4547227000003,None,879.4547227000003,880.4206708000274,0.06038310000440106,None,2.6314131999970414,,,,,,,,,13,001,2019_Dec_25_1004,untitled,3.1.0,60.163874355073155,
_,_4,M,90,_,_,__4M090__,N,0,268,268,34,,,1.342,882.1560251000337,882.5022271000198,882.5190303000272,882.8019073000178,882.8186282000388,None,down,882.8186282000388,None,882.8186282000388,884.1517445000354,0.06251590000465512,None,3.0152462999685667,,,,,,,,,13,001,2019_Dec_25_1004,untitled,3.1.0,60.163874355073155,
233,G,M,0,L,N,233GM000LN,HLN,0,269,269,136,,,1.2770000000000001,885.9009753999999,886.2490515999962,886.2657333000097,886.5486653000116,886.5659315999947,None,down,886.5659315999947,None,886.5659315999947,887.8308694000007,0.05954459996428341,None,2.1981121000135317,,,,,,,,,13,001,2019_Dec_25_1004,untitled,3.1.0,60.163874355073155,
195,G,N,90,R,N,195GN090RN,HRN,0,270,270,226,,,0.85,888.8309148999979,889.1799822000321,889.1964720999822,889.4794043999864,889.4959289000253,None,up,889.4959289000253,None,889.4959289000253,890.3285720000276,0.06000359996687621,None,1.9166793000185862,,,,,,,,,13,001,2019_Dec_25_1004,untitled,3.1.0,60.163874355073155,
_,R,N,315,_,_,_RN315__,N,0,271,271,71,,,1.232,891.497944600007,891.8273725000327,891.8438737000106,892.1277737999917,892.1436318000196,None,up,892.1436318000196,None,892.1436318000196,893.3592649000348,0.0789076000219211,None,2.2497836999827996,,,,,,,,,13,001,2019_Dec_25_1004,untitled,3.1.0,60.163874355073155,
202,G,M,45,R,N,202GM045RN,HRN,0,272,272,129,,,0.9470000000000001,894.4613047000021,894.8078190000379,894.8245211000321,895.1082217000076,895.1248094000039,None,down,895.1248094000039,None,895.1248094000039,896.0573170999996,0.06127910001669079,None,1.7649384000105783,,,,,,,,,13,001,2019_Dec_25_1004,untitled,3.1.0,60.163874355073155,
_,G,M,270,_,_,_GM270__,N,0,273,273,14,,,1.117,896.956453700026,897.3060834000353,897.3230462000356,897.6057623000233,897.6222559000016,None,down,897.6222559000016,None,897.6222559000016,898.722119699989,0.0600107999634929,None,2.0488912999862805,,,,,,,,,13,001,2019_Dec_25_1004,untitled,3.1.0,60.163874355073155,
206,G,M,225,R,N,206GM225RN,HRN,0,274,274,133,,,1.199,899.7393552000285,900.0872313000145,900.1035093000391,900.3862149000051,900.403117400012,None,down,900.403117400012,None,900.403117400012,901.5855249000015,0.06129059998784214,None,1.9176919999881648,,,,,,,,,13,001,2019_Dec_25_1004,untitled,3.1.0,60.163874355073155,
_,_5,N,135,_,_,__5N135__,N,0,275,275,91,,,0.838,902.4028232999844,902.7348747000215,902.7513444999931,903.0341012999997,903.050911600003,None,up,903.050911600003,None,903.050911600003,903.8668602000107,0.07304029999068007,None,2.0991663000313565,,,,,,,,,13,001,2019_Dec_25_1004,untitled,3.1.0,60.163874355073155,
419,_4,N,90,L,N,419_4N090LN,HLN,0,276,276,266,,,1.24,905.2172493999824,905.5657457000343,905.5821364999865,905.8668730999925,905.8818010999821,None,up,905.8818010999821,None,905.8818010999821,907.0974690000294,0.060290099994745106,None,2.016482900013216,,,,,,,,,13,001,2019_Dec_25_1004,untitled,3.1.0,60.163874355073155,
166,F,N,225,L,N,166FN225LN,HLN,0,277,277,221,,,1.343,907.9691793000093,908.3126230000053,908.329626700026,908.6130403000279,908.6295996999834,None,up,908.6295996999834,None,908.6295996999834,909.9612282000016,0.06443829997442663,None,2.0656787999905646,,,,,,,,,13,001,2019_Dec_25_1004,untitled,3.1.0,60.163874355073155,
487,_5,N,270,L,N,487_5N270LN,HLN,0,278,278,286,,,1.274,910.7632717000088,911.1104056999902,911.1278161000228,911.4103270000196,911.4267689000117,None,up,911.4267689000117,None,911.4267689000117,912.6758036999963,0.06034159997943789,None,2.1325387000106275,,,,,,,,,13,001,2019_Dec_25_1004,untitled,3.1.0,60.163874355073155,
_,_5,M,45,_,_,__5M045__,N,0,279,279,41,,,1.035,913.6243088000338,913.9749300000258,913.9911179000046,914.2740446000244,914.291203300003,None,down,914.291203300003,None,914.291203300003,915.3064659000374,0.05800520000047982,None,2.1687549999915063,,,,,,,,,13,001,2019_Dec_25_1004,untitled,3.1.0,60.163874355073155,
014,R,M,225,R,N,014RM225RN,HRN,0,280,280,101,,,0.8240000000000001,916.5655780000379,916.8722624999937,916.8886806000373,917.1717262000311,917.1883615999832,None,down,917.1883615999832,None,917.1883615999832,918.0044661000138,0.09500590001698583,None,2.115529400005471,,,,,,,,,13,001,2019_Dec_25_1004,untitled,3.1.0,60.163874355073155,
_,_5,M,135,_,_,__5M135__,N,0,281,281,43,,,0.8260000000000001,919.3715617000125,919.7199519000133,919.7368912000093,920.0190414999961,920.035772000032,None,down,920.035772000032,None,920.035772000032,920.8352629999863,0.060487199982162565,None,2.08178179996321,,,,,,,,,13,001,2019_Dec_25_1004,untitled,3.1.0,60.163874355073155,
_,_4,N,0,_,_,__4N000__,N,0,282,282,80,,,1.235,922.1840226000058,922.5341321000014,922.5509248999879,922.8344351000269,922.8506089000148,None,up,922.8506089000148,None,922.8506089000148,924.0663296999992,0.05956629995489493,None,2.051608799956739,,,,,,,,,13,001,2019_Dec_25_1004,untitled,3.1.0,60.163874355073155,
139,F,M,90,R,N,139FM090RN,HRN,0,283,283,114,,,1.2550000000000001,924.9692521999823,925.3147673000349,925.3313605000149,925.6151572000235,925.6315714000375,None,down,925.6315714000375,None,925.6315714000375,926.8632300000172,0.06027650000760332,None,2.381420199992135,,,,,,,,,13,001,2019_Dec_25_1004,untitled,3.1.0,60.163874355073155,
_,R,M,315,_,_,_RM315__,N,0,284,284,23,,,0.923,928.1002838999848,928.4288900000392,928.4454590000096,928.7285300000221,928.745456899982,None,down,928.745456899982,None,928.745456899982,929.6446810000343,0.07853260001866147,None,1.7007427000207826,,,,,,,,,13,001,2019_Dec_25_1004,untitled,3.1.0,60.163874355073155,
_,_2,N,270,_,_,__2N270__,N,0,285,285,78,,,0.8170000000000001,930.5130252999952,930.8600653000176,930.8778669000021,931.1601048000157,931.1768765000161,None,up,931.1768765000161,None,931.1768765000161,931.9779355000355,0.06016900000395253,None,2.2835011999704875,,,,,,,,,13,001,2019_Dec_25_1004,untitled,3.1.0,60.163874355073155,
267,_2,M,90,R,N,267_2M090RN,HRN,0,286,286,146,,,1.158,933.5270162000088,933.8737993999966,933.890344400017,934.1738986999844,934.1905451000202,None,down,934.1905451000202,None,934.1905451000202,935.3393442000379,0.059796900022774935,None,2.5179889999562874,,,,,,,,,13,001,2019_Dec_25_1004,untitled,3.1.0,60.163874355073155,
_,F,N,270,_,_,_FN270__,N,0,287,287,54,,,1.312,936.7736490000389,937.121240700013,937.1385369999916,937.4211956000072,937.4378434999962,None,up,937.4378434999962,None,937.4378434999962,938.7364613999962,0.05847709998488426,None,2.5662346000317484,,,,,,,,,13,001,2019_Dec_25_1004,untitled,3.1.0,60.163874355073155,
,,,,,,,,,,,,,,,,,,,,,,,,,,,,,940.0189987000194,None,947.2132174000144,None,949.2276975000277,None,952.4913820000365,None,,,,,,,
