Number,Letter,type,Orientation,human,face_type,image,picture,trials.thisRepN,trials.thisTrialN,trials.thisN,trials.thisIndex,text.started,text.stopped,stimulus_duration,CROSS.started,CROSS.stopped,BLANK.started,BLANK.stopped,TEST.started,TEST.stopped,key_JUDGE.keys,key_JUDGE.started,key_JUDGE.stopped,image_2.started,image_2.stopped,ISI.started,ISI.stopped,key_JUDGE.rt,q1.started,q1.stopped,q2.started,q2.stopped,q3.started,q3.stopped,text_2.started,text_2.stopped,participant,session,date,expName,psychopyVersion,frameRate,
204,G,M,135,R,N,204GM135RN,HRN,0,0,0,131,45.00148960005026,None,1.365,82.93310200003907,83.2800146000227,83.2800146000227,83.57975780003471,83.57975780003471,None,None,83.57975780003471,None,83.57975780003471,84.94550080003683,0.0682401999947615,None,,,,,,,,,,14,001,2019_Dec_25_1022,untitled,3.1.0,60.348755464806274,
300,_2,M,135,L,N,300_2M135LN,HLN,0,1,1,155,,,0.9390000000000001,87.16340890002903,87.51107460004278,87.526834600023,87.80942170001799,87.82653160003247,87.16340890002903,up,87.82653160003247,None,87.82653160003247,None,0.06383269996149465,None,0.03398830001242459,,,,,,,,,14,001,2019_Dec_25_1022,untitled,3.1.0,60.348755464806274,
046,R,M,225,L,N,046RM225LN,HLN,0,2,2,109,,,1.041,87.95256160001736,88.27601130004041,88.29288790002465,88.57593869999982,88.59316030004993,None,up,88.59316030004993,None,88.59316030004993,89.62491620000219,0.08120060001965612,None,2.5472826000186615,,,,,,,,,14,001,2019_Dec_25_1022,untitled,3.1.0,60.348755464806274,
237,G,M,180,L,N,237GM180LN,HLN,0,3,3,140,,,0.713,91.21713790000649,91.55737130000489,91.57315780001227,91.85775170003762,91.87315680005122,None,down,91.87315680005122,None,91.87315680005122,92.57258920004824,0.06990729999961331,None,1.949746900005266,,,,,,,,,14,001,2019_Dec_25_1022,untitled,3.1.0,60.348755464806274,
264,_2,N,315,R,N,264_2N315RN,HRN,0,4,4,247,,,0.724,93.90019900002517,94.23679710004944,94.25502900005085,94.53725860000122,94.55393330001971,None,up,94.55393330001971,None,94.55393330001971,95.26970090001123,0.0687418999732472,None,1.7656961000175215,,,,,,,,,14,001,2019_Dec_25_1022,untitled,3.1.0,60.348755464806274,
_,G,M,0,_,_,_GM000__,N,0,5,5,8,,,1.163,96.41428030002862,96.73549170000479,96.752291300043,97.03483350004535,97.05123880004976,None,down,97.05123880004976,None,97.05123880004976,98.20117660000687,0.085769800003618,None,2.782955300004687,,,,,,,,,14,001,2019_Dec_25_1022,untitled,3.1.0,60.348755464806274,
_,F,N,90,_,_,_FN090__,N,0,6,6,50,,,1.155,99.90752510004677,100.24889420002,100.2653655000031,100.54836640000576,100.56540710001718,None,up,100.56540710001718,None,100.56540710001718,101.69692220003344,0.06606829998781905,None,2.0345147000043653,,,,,,,,,14,001,2019_Dec_25_1022,untitled,3.1.0,60.348755464806274,
451,_5,N,90,R,N,451_5N090RN,HRN,0,7,7,274,,,0.89,102.67137380002532,103.0134605000494,103.02940680005122,103.31287600001087,103.32932890002849,None,up,103.32932890002849,None,103.32932890002849,104.1961549000116,0.06496429996332154,None,1.8001294999849051,,,,,,,,,14,001,2019_Dec_25_1022,untitled,3.1.0,60.348755464806274,
_,_4,M,135,_,_,__4M135__,N,0,8,8,35,,,1.218,105.20179140003165,105.54467150004348,105.56090840004617,105.84404130000621,105.86071249999804,None,down,105.86071249999804,None,105.86071249999804,107.05958280002233,0.06477639998774976,None,2.5828311999794096,,,,,,,,,14,001,2019_Dec_25_1022,untitled,3.1.0,60.348755464806274,
036,R,N,135,L,N,036RN135LN,HLN,0,9,9,203,,,1.308,108.51615080004558,108.85787590005202,108.87459110002965,109.15770209999755,109.17431600001873,None,up,109.17431600001873,None,109.17431600001873,110.47311150003225,0.06559340003877878,None,1.9484927000012249,,,,,,,,,14,001,2019_Dec_25_1022,untitled,3.1.0,60.348755464806274,
_,_2,M,90,_,_,__2M090__,N,0,10,10,26,,,1.163,111.1910275000264,111.53940470004454,111.55564340000274,111.83911980001722,111.85585340001853,None,down,111.85585340001853,None,111.85585340001853,113.00411150004948,0.06156629999168217,None,2.7812964000040665,,,,,,,,,14,001,2019_Dec_25_1022,untitled,3.1.0,60.348755464806274,
262,_2,N,225,R,N,262_2N225RN,HRN,0,11,11,245,,,1.354,114.70567900000606,115.05317210004432,115.06932000000961,115.3540041000233,115.36982660001377,None,up,115.36982660001377,None,115.36982660001377,116.7010679000523,0.06197870004689321,None,2.1312625000136904,,,,,,,,,14,001,2019_Dec_25_1022,untitled,3.1.0,60.348755464806274,
_,_5,N,180,_,_,__5N180__,N,0,12,12,92,,,1.192,117.58865770004923,117.91713330004131,117.93281310005113,118.21629200002644,118.23293779999949,None,up,118.23293779999949,None,118.23293779999949,119.41534070001217,0.07817120000254363,None,2.2493616999709047,,,,,,,,,14,001,2019_Dec_25_1022,untitled,3.1.0,60.348755464806274,
_,_2,N,270,_,_,__2N270__,N,0,13,13,78,,,0.725,120.57003060000716,120.8971074000001,120.91418640001211,121.19728110003052,121.21394610003335,None,up,121.21394610003335,None,121.21394610003335,121.92988840001635,0.07777700002770871,None,2.298186000029091,,,,,,,,,14,001,2019_Dec_25_1022,untitled,3.1.0,60.348755464806274,
_,F,N,315,_,_,_FN315__,N,0,14,14,55,,,1.114,123.5807291000383,123.92886690003797,123.94539340003394,124.23061790002976,124.23061790002976,None,down,124.23061790002976,None,124.23061790002976,125.34367170004407,0.0618733000010252,None,2.6801668999833055,,,,,,,,,14,001,2019_Dec_25_1022,untitled,3.1.0,60.348755464806274,
140,F,M,135,R,N,140FM135RN,HRN,0,15,15,115,,,1.195,126.98001990001649,127.325101000024,127.34309989999747,127.6250365000451,127.64153920003446,None,down,127.64153920003446,None,127.64153920003446,128.82375740003772,0.06227039999794215,None,3.264379200001713,,,,,,,,,14,001,2019_Dec_25_1022,untitled,3.1.0,60.348755464806274,
005,R,N,180,R,N,005RN180RN,HRN,0,16,16,196,,,0.849,130.97737590002362,131.32324300002074,131.34832129999995,131.62178129999666,131.63780630001565,None,up,131.63780630001565,None,131.63780630001565,132.47072700003628,0.06433839997043833,None,2.0152711999835446,,,,,,,,,14,001,2019_Dec_25_1022,untitled,3.1.0,60.348755464806274,
_,R,N,0,_,_,_RN000__,N,0,17,17,64,,,0.803,133.7209611000144,134.06886680005118,134.0861297000083,134.3688234000001,134.386363800033,None,up,134.386363800033,None,134.386363800033,135.16870790004032,0.06088369997451082,None,1.8653108999715187,,,,,,,,,14,001,2019_Dec_25_1022,untitled,3.1.0,60.348755464806274,
457,_5,M,0,R,N,457_5M000RN,HRN,0,18,18,176,,,1.1260000000000001,136.32565640000394,136.6675794000039,136.68502340000123,136.96714680001605,136.9832780000288,None,down,136.9832780000288,None,136.9832780000288,138.09999570000218,0.06631840002955869,None,2.600767600000836,,,,,,,,,14,001,2019_Dec_25_1022,untitled,3.1.0,60.348755464806274,
449,_5,N,0,R,N,449_5N000RN,HRN,0,19,19,272,,,1.329,139.65242480003508,139.99757740000496,140.01393120002467,140.2970758000156,140.31373940000776,None,up,140.31373940000776,None,140.31373940000776,141.62938380002743,0.061787899991031736,None,3.1481060000369325,,,,,,,,,14,001,2019_Dec_25_1022,untitled,3.1.0,60.348755464806274,
233,G,M,0,L,N,233GM000LN,HLN,0,20,20,136,,,1.075,143.53220180002972,143.8774781000102,143.89444340002956,144.17713740002364,144.1942745000124,None,down,144.1942745000124,None,144.1942745000124,145.24234570004046,0.06389390002004802,None,2.4677033000043593,,,,,,,,,14,001,2019_Dec_25_1022,untitled,3.1.0,60.348755464806274,
_,_2,M,45,_,_,__2M045__,N,0,21,21,25,,,1.335,146.73494789999677,147.07449540001107,147.0914018000476,147.37426350003807,147.39091940002982,None,up,147.39091940002982,None,147.39091940002982,148.70689010003116,0.06602249998832121,None,3.448307599988766,,,,,,,,,14,001,2019_Dec_25_1022,untitled,3.1.0,60.348755464806274,
_,G,M,180,_,_,_GM180__,N,0,22,22,12,,,1.178,150.9258690000279,151.25473980000243,151.27136500005145,151.5542725000414,151.5706463000388,None,down,151.5706463000388,None,151.5706463000388,152.73632200004067,0.0776905000093393,None,2.8315740000107326,,,,,,,,,14,001,2019_Dec_25_1022,untitled,3.1.0,60.348755464806274,
_,_4,N,0,_,_,__4N000__,N,0,23,23,80,,,1.373,154.46947920002276,154.81803810002748,154.8357753000455,155.1176452000509,155.13520060002338,None,None,155.13520060002338,None,155.13520060002338,156.48295190004865,0.0599250000086613,None,,,,,,,,,,14,001,2019_Dec_25_1022,untitled,3.1.0,60.348755464806274,
_,_5,M,315,_,_,__5M315__,N,0,24,24,47,,,0.97,158.66807130002417,159.01426399999764,159.03171450004447,159.3133616000414,159.3301226000185,158.66807130002417,up,159.3301226000185,None,159.3301226000185,160.27962320001097,0.0635348999639973,None,2.04914399998961,,,,,,,,,14,001,2019_Dec_25_1022,untitled,3.1.0,60.348755464806274,
206,G,M,225,R,N,206GM225RN,HRN,0,25,25,133,,,1.268,161.4477469000267,161.79580170003464,161.8118428000016,162.09550850000232,162.11191400000826,None,down,162.11191400000826,None,162.11191400000826,163.36005690001184,0.060946299985516816,None,2.283092099998612,,,,,,,,,14,001,2019_Dec_25_1022,untitled,3.1.0,60.348755464806274,
_,F,N,135,_,_,_FN135__,N,0,26,26,51,,,0.717,164.46185890003107,164.80941250000615,164.8258482000092,165.109214600001,165.125833099999,None,up,165.125833099999,None,165.125833099999,165.8251965000527,0.05881240003509447,None,1.9317724999855272,,,,,,,,,14,001,2019_Dec_25_1022,untitled,3.1.0,60.348755464806274,
_,_5,N,90,_,_,__5N090__,N,0,27,27,90,,,1.262,167.1302123000496,167.47330200002762,167.49016440002015,167.77273600001354,167.79007610003464,None,up,167.79007610003464,None,167.79007610003464,169.03884839999955,0.06529440003214404,None,2.2162660000030883,,,,,,,,,14,001,2019_Dec_25_1022,untitled,3.1.0,60.348755464806274,
_,G,N,45,_,_,_GN045__,N,0,28,28,57,,,1.291,170.0797167000128,170.4213387000491,170.43726269999752,170.7211290000123,170.7375268000178,None,up,170.7375268000178,None,170.7375268000178,172.01969980000285,0.0660197000252083,None,1.9985835999832489,,,,,,,,,14,001,2019_Dec_25_1022,untitled,3.1.0,60.348755464806274,
298,_2,M,45,L,N,298_2M045LN,HLN,0,29,29,153,,,1.133,172.80525320000015,173.15179380000336,173.17024030000903,173.45264140004292,173.46870640001725,None,up,173.46870640001725,None,173.46870640001725,174.58413790003397,0.062200100044719875,None,2.7309107999899425,,,,,,,,,14,001,2019_Dec_25_1022,untitled,3.1.0,60.348755464806274,
167,F,N,270,L,N,167FN270LN,HLN,0,30,30,222,,,0.731,176.27117410005303,176.61580190004315,176.632456500025,176.91573270002846,176.93235120002646,None,down,176.93235120002646,None,176.93235120002646,177.64735470002051,0.06467709998833016,None,2.814528899965808,,,,,,,,,14,001,2019_Dec_25_1022,untitled,3.1.0,60.348755464806274,
481,_5,N,0,L,N,481_5N000LN,HLN,0,31,31,280,,,0.988,179.81661620002706,180.16266490001,180.1790976000484,180.46274149999954,180.47900380002102,None,up,180.47900380002102,None,180.47900380002102,181.4446877000155,0.06306890002451837,None,1.9517774999840185,,,,,,,,,14,001,2019_Dec_25_1022,untitled,3.1.0,60.348755464806274,
009,R,M,0,R,N,009RM000RN,HRN,0,32,32,96,,,0.965,182.49927590001607,182.84347980003804,182.86027600005036,183.14351900003385,183.1600569000002,None,down,183.1600569000002,None,183.1600569000002,184.1094172000303,0.0614140999969095,None,2.3660169999930076,,,,,,,,,14,001,2019_Dec_25_1022,untitled,3.1.0,60.348755464806274,
270,_2,M,225,R,N,270_2M225RN,HRN,0,33,33,149,,,1.212,185.59498660004465,185.94104860001244,185.95773690001806,186.24117160000606,186.25869460002286,None,down,186.25869460002286,None,186.25869460002286,187.4560463000089,0.06214479997288436,None,3.214976299961563,,,,,,,,,14,001,2019_Dec_25_1022,untitled,3.1.0,60.348755464806274,
460,_5,M,135,R,N,460_5M135RN,HRN,0,34,34,179,,,1.283,189.56088810000801,189.88737210002728,189.90413340000669,190.1872809000197,190.20386710000457,None,up,190.20386710000457,None,190.20386710000457,191.46977030002745,0.07845090003684163,None,2.5663883999804966,,,,,,,,,14,001,2019_Dec_25_1022,untitled,3.1.0,60.348755464806274,
_,F,N,45,_,_,_FN045__,N,0,35,35,49,,,1.074,192.85219470004085,193.1852664000471,193.20104680000804,193.48482589999912,193.50083319999976,None,up,193.50083319999976,None,193.50083319999976,194.54993630002718,0.07502109999768436,None,2.0166811000090092,,,,,,,,,14,001,2019_Dec_25_1022,untitled,3.1.0,60.348755464806274,
199,G,N,270,R,N,199GN270RN,HRN,0,36,36,230,,,1.3860000000000001,195.5893048000289,195.9332887000055,195.9489155000192,196.23193090001587,196.24837540002773,None,up,196.24837540002773,None,196.24837540002773,197.61377990001347,0.06362789997365326,None,2.4492250999901444,,,,,,,,,14,001,2019_Dec_25_1022,untitled,3.1.0,60.348755464806274,
138,F,M,45,R,N,138FM045RN,HRN,0,37,37,113,,,1.322,198.76499880000483,199.1133162000333,199.129728000029,199.4131158000091,199.42926850001095,None,down,199.42926850001095,None,199.42926850001095,200.72856640000828,0.06064679997507483,None,2.8144170999876224,,,,,,,,,14,001,2019_Dec_25_1022,untitled,3.1.0,60.348755464806274,
263,_2,N,270,R,N,263_2N270RN,HRN,0,38,38,246,,,1.334,202.3335681000026,202.6597211000044,202.67625250003766,202.96003420004854,202.97567720001098,None,up,202.97567720001098,None,202.97567720001098,204.29134000005433,0.08164569997461513,None,3.1652095000026748,,,,,,,,,14,001,2019_Dec_25_1022,untitled,3.1.0,60.348755464806274,
002,R,N,45,R,N,002RN045RN,HRN,0,39,39,193,,,0.706,206.21033100003842,206.55595290003112,206.57210580003448,206.85581660002936,206.87266390002333,None,up,206.87266390002333,None,206.87266390002333,207.556060300034,0.061968700028955936,None,1.8154986999579705,,,,,,,,,14,001,2019_Dec_25_1022,untitled,3.1.0,60.348755464806274,
494,_5,M,225,L,N,494_5M225LN,HLN,0,40,40,189,,,1.178,208.75739169999724,209.10449340002378,209.12092390004545,209.4056798000238,209.4208414000459,None,up,209.4208414000459,None,209.4208414000459,210.58629190002102,0.061425200023222715,None,2.3143297999631613,,,,,,,,,14,001,2019_Dec_25_1022,untitled,3.1.0,60.348755464806274,
236,G,M,135,L,N,236GM135LN,HLN,0,41,41,139,,,0.93,211.80387880001217,212.15144139999757,212.16873760003364,212.4511520000524,212.4683764000074,None,down,212.4683764000074,None,212.4683764000074,213.3836764000007,0.06142109999200329,None,2.2982241999707185,,,,,,,,,14,001,2019_Dec_25_1022,untitled,3.1.0,60.348755464806274,
495,_5,M,270,L,N,495_5M270LN,HLN,0,42,42,190,,,0.745,214.83707080001477,215.18242960004136,215.19932350004092,215.48224500002107,215.4981579000014,None,down,215.4981579000014,None,215.4981579000014,216.23107050004182,0.06113819999154657,None,2.6496828999952413,,,,,,,,,14,001,2019_Dec_25_1022,untitled,3.1.0,60.348755464806274,
039,R,N,270,L,N,039RN270LN,HLN,0,43,43,206,,,0.728,218.21970720001264,218.56234120001318,218.57903320004698,218.86211420001928,218.8786076999968,None,up,218.8786076999968,None,218.8786076999968,219.59483519999776,0.06532260001404211,None,2.2317779999575578,,,,,,,,,14,001,2019_Dec_25_1022,untitled,3.1.0,60.348755464806274,
491,_5,M,90,L,N,491_5M090LN,HLN,0,44,44,186,,,0.768,221.18083500000648,221.52623420004966,221.542975999997,221.82595840003341,221.84246250003343,None,down,221.84246250003343,None,221.84246250003343,222.59228240000084,0.0631573999999091,None,2.3673122000182047,,,,,,,,,14,001,2019_Dec_25_1022,untitled,3.1.0,60.348755464806274,
_,_4,N,315,_,_,__4N315__,N,0,45,45,87,,,0.8320000000000001,224.27941870002542,224.6238003000035,224.64080680004554,224.92314450000413,224.93986290000612,None,up,224.93986290000612,None,224.93986290000612,225.75632939999923,0.06297220004489645,None,2.1991911999648437,,,,,,,,,14,001,2019_Dec_25_1022,untitled,3.1.0,60.348755464806274,
424,_4,N,315,L,N,424_4N315LN,HLN,0,46,46,271,,,1.19,227.21411320002517,227.5546487000538,227.57134910003515,227.85484220000217,227.87038630002644,None,up,227.87038630002644,None,227.87038630002644,229.03652940003667,0.06830069998977706,None,2.4511357999872416,,,,,,,,,14,001,2019_Dec_25_1022,untitled,3.1.0,60.348755464806274,
_,_4,N,135,_,_,__4N135__,N,0,47,47,83,,,1.066,230.38989600003697,230.7351028000121,230.75220630003605,231.03489040001296,231.0517753000022,None,up,231.0517753000022,None,231.0517753000022,232.10058750002645,0.06182559998705983,None,2.500777899986133,,,,,,,,,14,001,2019_Dec_25_1022,untitled,3.1.0,60.348755464806274,
010,R,M,45,R,N,010RM045RN,HRN,0,48,48,97,,,0.799,233.64373960002558,233.9658893000451,233.98226440005237,234.26534060004633,234.28199860005407,None,down,234.28199860005407,None,234.28199860005407,235.06471540004713,0.08236889995168895,None,2.6474852999672294,,,,,,,,,14,001,2019_Dec_25_1022,untitled,3.1.0,60.348755464806274,
265,_2,M,0,R,N,265_2M000RN,HRN,0,49,49,144,,,0.9570000000000001,236.99798990000272,237.3460514000035,237.36315640003886,237.64590679999674,237.66283870005282,None,up,237.66283870005282,None,237.66283870005282,238.59470100002363,0.061185300000943244,None,3.0978718000114895,,,,,,,,,14,001,2019_Dec_25_1022,untitled,3.1.0,60.348755464806274,
175,F,M,270,L,N,175FM270LN,HLN,0,50,50,126,,,0.9460000000000001,240.8308331000153,241.1761564000044,241.19277040002635,241.4756334000267,241.4927722000284,None,None,241.4927722000284,None,241.4927722000284,242.42507220001426,0.06319339998299256,None,,,,,,,,,,14,001,2019_Dec_25_1022,untitled,3.1.0,60.348755464806274,
301,_2,M,180,L,N,301_2M180LN,HLN,0,51,51,156,,,1.2690000000000001,245.02606570004718,245.3721297000302,245.38912690000143,245.67216230003396,245.68871900002705,245.02606570004718,down,245.68871900002705,None,245.68871900002705,246.93729140004143,0.06202420004410669,None,2.382532999967225,,,,,,,,,14,001,2019_Dec_25_1022,untitled,3.1.0,60.348755464806274,
037,R,N,180,L,N,037RN180LN,HLN,0,52,52,204,,,1.2690000000000001,248.14082040003268,248.4865537000005,248.50319700001273,248.78655460005393,248.8029437000514,None,up,248.8029437000514,None,248.8029437000514,250.05196720000822,0.06303640000987798,None,2.6978705000365153,,,,,,,,,14,001,2019_Dec_25_1022,untitled,3.1.0,60.348755464806274,
240,G,M,315,L,N,240GM315LN,HLN,0,53,53,143,,,0.713,251.57013910001842,251.91748380003264,251.93351960001746,252.2168766000541,252.23352930002147,None,down,252.23352930002147,None,252.23352930002147,252.93228240002645,0.06172500003594905,None,2.1330013000406325,,,,,,,,,14,001,2019_Dec_25_1022,untitled,3.1.0,60.348755464806274,
168,F,N,315,L,N,168FN315LN,HLN,0,54,54,223,,,0.9460000000000001,254.43485930003226,254.7808089000173,254.79782600002363,255.08064250001917,255.0976314000436,None,up,255.0976314000436,None,255.0976314000436,256.0296140999999,0.06172329996479675,None,2.034386600018479,,,,,,,,,14,001,2019_Dec_25_1022,untitled,3.1.0,60.348755464806274,
_,F,M,0,_,_,_FM000__,N,0,55,55,0,,,0.9490000000000001,257.20128200005274,257.544910800003,257.56169650005177,257.84516430000076,257.861733000027,None,down,257.861733000027,None,257.861733000027,258.7941294000484,0.062454700004309416,None,1.983205700002145,,,,,,,,,14,001,2019_Dec_25_1022,untitled,3.1.0,60.348755464806274,
_,F,M,270,_,_,_FM270__,N,0,56,56,6,,,1.237,259.94000900001265,260.25969440001063,260.2761718000402,260.5590419000364,260.5755804000073,None,down,260.5755804000073,None,260.5755804000073,261.79161960002966,0.0839953999966383,None,2.916712299978826,,,,,,,,,14,001,2019_Dec_25_1022,untitled,3.1.0,60.348755464806274,
487,_5,N,270,L,N,487_5N270LN,HLN,0,57,57,286,,,1.368,263.56118870002683,263.90642040001694,263.9227885000291,264.20633620000444,264.2230405000155,None,up,264.2230405000155,None,264.2230405000155,265.57102650002344,0.0620972000178881,None,2.430663299979642,,,,,,,,,14,001,2019_Dec_25_1022,untitled,3.1.0,60.348755464806274,
_,_5,N,45,_,_,__5N045__,N,0,58,58,89,,,1.168,266.72214050003095,267.0705091000418,267.0866746000247,267.3701251000166,267.38608300004853,None,up,267.38608300004853,None,267.38608300004853,268.5354473000043,0.0616378000122495,None,2.048899999994319,,,,,,,,,14,001,2019_Dec_25_1022,untitled,3.1.0,60.348755464806274,
289,_2,N,0,L,N,289_2N000LN,HLN,0,59,59,248,,,1.237,269.50364840001566,269.8513910000329,269.87085510004545,270.15126030001557,270.1706290000002,None,down,270.1706290000002,None,270.1706290000002,271.3833807000192,0.06205659999977797,None,2.246840199979488,,,,,,,,,14,001,2019_Dec_25_1022,untitled,3.1.0,60.348755464806274,
_,_4,M,45,_,_,__4M045__,N,0,60,60,33,,,1.218,272.4859592000139,272.8322085000109,272.8488358000177,273.1312995000044,273.1481899000355,None,up,273.1481899000355,None,273.1481899000355,274.347226300044,0.06191610003588721,None,2.96695070003625,,,,,,,,,14,001,2019_Dec_25_1022,untitled,3.1.0,60.348755464806274,
303,_2,M,270,L,N,303_2M270LN,HLN,0,61,61,158,,,0.734,276.1843885999988,276.5286708000349,276.5450846000458,276.82833390001906,276.84511829999974,None,down,276.84511829999974,None,276.84511829999974,277.56068180000875,0.06247300002723932,None,2.9644073999952525,,,,,,,,,14,001,2019_Dec_25_1022,untitled,3.1.0,60.348755464806274,
_,R,N,45,_,_,_RN045__,N,0,62,62,65,,,1.104,279.89681210002163,280.2250105999992,280.24222539999755,280.52514189999783,280.5421497000498,None,up,280.5421497000498,None,280.5421497000498,281.6246029000031,0.07824679999612272,None,1.8155101999873295,,,,,,,,,14,001,2019_Dec_25_1022,untitled,3.1.0,60.348755464806274,
014,R,M,225,R,N,014RM225RN,HRN,0,63,63,101,,,0.969,282.4376979000517,282.7731985000428,282.7896904000081,283.07258810003987,283.08949560002657,None,down,283.08949560002657,None,283.08949560002657,284.0389976000297,0.0725523000000976,None,2.634036399947945,,,,,,,,,14,001,2019_Dec_25_1022,untitled,3.1.0,60.348755464806274,
_,R,M,90,_,_,_RM090__,N,0,64,64,18,,,1.158,285.7975453000399,286.13758100004634,286.1538413000526,286.4367239000276,286.45349250000436,None,down,286.45349250000436,None,286.45349250000436,287.6022388000274,0.06612009997479618,None,2.6640587000292726,,,,,,,,,14,001,2019_Dec_25_1022,untitled,3.1.0,60.348755464806274,
_,_5,N,135,_,_,__5N135__,N,0,65,65,91,,,1.104,289.1906427000067,289.5343883000314,289.55121790000703,289.8337836000137,289.85053600004176,None,up,289.85053600004176,None,289.85053600004176,290.93255250004586,0.06644219998270273,None,2.9662773000309244,,,,,,,,,14,001,2019_Dec_25_1022,untitled,3.1.0,60.348755464806274,
038,R,N,225,L,N,038RN225LN,HLN,0,66,66,205,,,1.332,292.88601950003067,293.2304405000177,293.2474979000399,293.5302066000295,293.54818560002604,None,up,293.54818560002604,None,293.54818560002604,294.8625322000007,0.06248059996869415,None,2.797681499971077,,,,,,,,,14,001,2019_Dec_25_1022,untitled,3.1.0,60.348755464806274,
227,G,N,90,L,N,227GN090LN,HLN,0,67,67,234,,,0.9500000000000001,296.43833450000966,296.7611729000346,296.77807870000834,297.0610600000364,297.077794300043,None,up,297.077794300043,None,297.077794300043,298.0103385000257,0.08171549998223782,None,2.3823478000122122,,,,,,,,,14,001,2019_Dec_25_1022,untitled,3.1.0,60.348755464806274,
269,_2,M,180,R,N,269_2M180RN,HRN,0,68,68,148,,,0.9440000000000001,299.5284748999984,299.8745824000216,299.89191960002063,300.17470280005364,300.19121670001186,None,down,300.19121670001186,None,300.19121670001186,301.123850300035,0.061653500015381724,None,2.665920900006313,,,,,,,,,14,001,2019_Dec_25_1022,untitled,3.1.0,60.348755464806274,
_,G,N,180,_,_,_GN180__,N,0,69,69,60,,,1.347,302.9248056000215,303.2726993000251,303.2888511000201,303.57202050002525,303.5878770000418,None,up,303.5878770000418,None,303.5878770000418,304.92045550001785,0.06087800004752353,None,2.5336646999930963,,,,,,,,,14,001,2019_Dec_25_1022,untitled,3.1.0,60.348755464806274,
294,_2,N,225,L,N,294_2N225LN,HLN,0,70,70,253,,,1.092,306.1913423000369,306.53613310004584,306.5520560000441,306.83553480001865,306.85198830004083,None,up,306.85198830004083,None,306.85198830004083,307.9345384000335,0.06289890001062304,None,2.0818197000189684,,,,,,,,,14,001,2019_Dec_25_1022,untitled,3.1.0,60.348755464806274,
203,G,M,90,R,N,203GM090RN,HRN,0,71,71,130,,,1.177,309.00246970000444,309.35045350005385,309.366766799998,309.65079900005367,309.66603880003095,None,down,309.66603880003095,None,309.66603880003095,310.83206610003253,0.06198840000433847,None,2.3820008999900892,,,,,,,,,14,001,2019_Dec_25_1022,untitled,3.1.0,60.348755464806274,
196,G,N,135,R,N,196GN135RN,HRN,0,72,72,227,,,1.0090000000000001,312.140341899998,312.46415970003,312.4809632000397,312.76406400004635,312.780600099999,None,up,312.780600099999,None,312.780600099999,313.77932860003784,0.08386020001489669,None,2.1332078999839723,,,,,,,,,14,001,2019_Dec_25_1022,untitled,3.1.0,60.348755464806274,
292,_2,N,135,L,N,292_2N135LN,HLN,0,73,73,251,,,0.886,314.9969672000152,315.32847360003507,315.34502720000455,315.6280367000145,315.64448480005376,None,up,315.64448480005376,None,315.64448480005376,316.51131060003536,0.07497909996891394,None,1.9650322999805212,,,,,,,,,14,001,2019_Dec_25_1022,untitled,3.1.0,60.348755464806274,
012,R,M,135,R,N,012RM135RN,HRN,0,74,74,99,,,1.278,317.6791020000237,318.0268416000181,318.042882400041,318.3255429000128,318.34235790005187,None,down,318.34235790005187,None,318.34235790005187,319.6073712000507,0.06281480001052842,None,2.3496930000255816,,,,,,,,,14,001,2019_Dec_25_1022,untitled,3.1.0,60.348755464806274,
259,_2,N,90,R,N,259_2N090RN,HRN,0,75,75,242,,,0.872,320.75859430001583,321.1065934000071,321.1230360000045,321.40611740003806,321.42256620002445,None,up,321.42256620002445,None,321.42256620002445,322.27224310004385,0.05946989997755736,None,2.148817500041332,,,,,,,,,14,001,2019_Dec_25_1022,untitled,3.1.0,60.348755464806274,
459,_5,M,90,R,N,459_5M090RN,HRN,0,76,76,178,,,0.836,323.64024300000165,323.9873099999968,324.00458240002627,324.28688030003104,324.303604500019,None,up,324.303604500019,None,324.303604500019,325.1196206000168,0.062233900011051446,None,3.064638499985449,,,,,,,,,14,001,2019_Dec_25_1022,untitled,3.1.0,60.348755464806274,
_,G,N,90,_,_,_GN090__,N,0,77,77,58,,,1.389,327.4379939000355,327.78407000005245,327.8007618000265,328.0845457999967,328.1001801000093,None,up,328.1001801000093,None,328.1001801000093,329.46598690003157,0.06250190001446754,None,2.181897200003732,,,,,,,,,14,001,2019_Dec_25_1022,untitled,3.1.0,60.348755464806274,
043,R,M,90,L,N,043RM090LN,HLN,0,78,78,106,,,1.107,330.34908900002483,330.6982428000192,330.71483090001857,330.99797480000416,331.01426920003723,None,down,331.01426920003723,None,331.01426920003723,332.0966200000257,0.06015859998296946,None,2.6498840000131167,,,,,,,,,14,001,2019_Dec_25_1022,untitled,3.1.0,60.348755464806274,
422,_4,N,225,L,N,422_4N225LN,HLN,0,79,79,269,,,0.981,333.7319955000421,334.07839400001103,334.09532760002185,334.3783859999967,334.39448350004386,None,down,334.39448350004386,None,334.39448350004386,335.36041680001654,0.06067000003531575,None,3.1145129000069574,,,,,,,,,14,001,2019_Dec_25_1022,untitled,3.1.0,60.348755464806274,
_,G,M,225,_,_,_GM225__,N,0,80,80,13,,,1.049,337.57738520001294,337.9250209000311,337.94204100000206,338.2249840000295,338.24151050002547,None,down,338.24151050002547,None,338.24151050002547,339.27357240003766,0.06203169998480007,None,2.848377999966033,,,,,,,,,14,001,2019_Dec_25_1022,untitled,3.1.0,60.348755464806274,
_,R,M,135,_,_,_RM135__,N,0,81,81,19,,,0.985,341.1586794000468,341.5054470000323,341.52246300003026,341.8048027000041,341.8214268000447,None,up,341.8214268000447,None,341.8214268000447,342.7884108000435,0.061611899989657104,None,3.2491307000163943,,,,,,,,,14,001,2019_Dec_25_1022,untitled,3.1.0,60.348755464806274,
290,_2,N,45,L,N,290_2N045LN,HLN,0,82,82,249,,,1.302,345.1482287000399,345.48494230001234,345.5020070000319,345.78483820002293,345.80257620004704,None,up,345.80257620004704,None,345.80257620004704,347.0835622000159,0.06911989999935031,None,3.06394119997276,,,,,,,,,14,001,2019_Dec_25_1022,untitled,3.1.0,60.348755464806274,
230,G,N,225,L,N,230GN225LN,HLN,0,83,83,237,,,1.053,348.93534940003883,349.28174460004084,349.29865360003896,349.5817058000248,349.59812940005213,None,up,349.59812940005213,None,349.59812940005213,350.630806900037,0.06209240003954619,None,2.782971600012388,,,,,,,,,14,001,2019_Dec_25_1022,untitled,3.1.0,60.348755464806274,
008,R,N,315,R,N,008RN315RN,HRN,0,84,84,199,,,0.894,352.44931150000775,352.7955074000056,352.8121039000107,353.0953448000364,353.1121956999996,None,up,353.1121956999996,None,353.1121956999996,353.99477780004963,0.06143599998904392,None,1.9483023000066169,,,,,,,,,14,001,2019_Dec_25_1022,untitled,3.1.0,60.348755464806274,
162,F,N,45,L,N,162FN045LN,HLN,0,85,85,217,,,1.2630000000000001,355.1299846000038,355.47720090002986,355.49353350000456,355.77613150002435,355.7931596999988,None,up,355.7931596999988,None,355.7931596999988,357.04176839999855,0.06267559999832883,None,1.848424400028307,,,,,,,,,14,001,2019_Dec_25_1022,untitled,3.1.0,60.348755464806274,
296,_2,N,315,L,N,296_2N315LN,HLN,0,86,86,255,,,1.043,357.71274460002314,358.0587800000212,358.0740628000349,358.3571557000396,358.37408300000243,None,down,358.37408300000243,None,358.37408300000243,359.40665479999734,0.06410860002506524,None,3.134080499992706,,,,,,,,,14,001,2019_Dec_25_1022,untitled,3.1.0,60.348755464806274,
461,_5,M,180,R,N,461_5M180RN,HRN,0,87,87,180,,,0.926,361.59764420002466,361.9212266000104,361.937539800012,362.22084870003164,362.23711560002994,None,up,362.23711560002994,None,362.23711560002994,363.15345850004815,0.08018340001581237,None,2.016891499981284,,,,,,,,,14,001,2019_Dec_25_1022,untitled,3.1.0,60.348755464806274,
400,_4,M,315,R,N,400_4M315RN,HRN,0,88,88,167,,,1.307,364.3229978000163,364.66933580004843,364.68570400000317,364.9688798999996,364.9846210000105,None,None,364.9846210000105,None,364.9846210000105,366.26690380001673,0.0616742999991402,None,,,,,,,,,,14,001,2019_Dec_25_1022,untitled,3.1.0,60.348755464806274,
202,G,M,45,R,N,202GM045RN,HRN,0,89,89,129,,,0.9410000000000001,368.52010680001695,368.864961400046,368.882179600012,369.16448800003855,369.18105240003206,368.52010680001695,down,369.18105240003206,None,369.18105240003206,370.09703000000445,0.06348130002152175,None,2.5189573999959975,,,,,,,,,14,001,2019_Dec_25_1022,untitled,3.1.0,60.348755464806274,
_,F,N,180,_,_,_FN180__,N,0,90,90,52,,,0.872,371.7985304000322,372.1117186000338,372.12861710001016,372.41160990000935,372.4281228000182,None,up,372.4281228000182,None,372.4281228000182,373.29404340003384,0.08744440000737086,None,2.1325293999980204,,,,,,,,,14,001,2019_Dec_25_1022,untitled,3.1.0,60.348755464806274,
_,_4,N,90,_,_,__4N090__,N,0,91,91,82,,,0.934,374.6286611999967,374.97616780002136,374.99370869999984,375.27585210005054,375.29293809999945,None,up,375.29293809999945,None,375.29293809999945,376.2089785000426,0.060358399990946054,None,1.8318870000075549,,,,,,,,,14,001,2019_Dec_25_1022,untitled,3.1.0,60.348755464806274,
034,R,N,45,L,N,034RN045LN,HLN,0,92,92,201,,,0.9390000000000001,377.21267450001324,377.5407530000084,377.5574127000291,377.8401535000303,377.85676250001416,None,up,377.85676250001416,None,377.85676250001416,378.7740429000114,0.07978640001965687,None,1.5327690999838524,,,,,,,,,14,001,2019_Dec_25_1022,untitled,3.1.0,60.348755464806274,
450,_5,N,45,R,N,450_5N045RN,HRN,0,93,93,273,,,1.004,379.45737470005406,379.8052182000247,379.8233280000277,380.10511940001743,380.1216134999995,None,up,380.1216134999995,None,380.1216134999995,381.1045964000514,0.06130859995028004,None,1.5822856000158936,,,,,,,,,14,001,2019_Dec_25_1022,untitled,3.1.0,60.348755464806274,
_,_4,M,270,_,_,__4M270__,N,0,94,94,38,,,1.353,381.7711677000043,382.1209129000199,382.13676800002577,382.41988140001195,382.435680100054,None,down,382.435680100054,None,382.435680100054,383.7683597000432,0.06007300002966076,None,2.4822212000144646,,,,,,,,,14,001,2019_Dec_25_1022,untitled,3.1.0,60.348755464806274,
431,_4,M,270,L,N,431_4M270LN,HLN,0,95,95,174,,,1.358,385.001812100003,385.3339437000104,385.35090270004,385.63375590002397,385.6502481000498,None,down,385.6502481000498,None,385.6502481000498,386.99889560003066,0.07590979995438829,None,2.598352800006978,,,,,,,,,14,001,2019_Dec_25_1022,untitled,3.1.0,60.348755464806274,
390,_4,N,225,R,N,390_4N225RN,HRN,0,96,96,261,,,1.2590000000000001,388.31663250003476,388.6644411000307,388.68167360004736,388.9641103000031,388.98048110003583,None,up,388.98048110003583,None,388.98048110003583,390.22978200000944,0.06109059997834265,None,2.3711555000045337,,,,,,,,,14,001,2019_Dec_25_1022,untitled,3.1.0,60.348755464806274,
_,F,N,270,_,_,_FN270__,N,0,97,97,54,,,1.002,391.41757740004687,391.7618102999986,391.77825510001276,392.0613189000287,392.0775587000535,None,up,392.0775587000535,None,392.0775587000535,393.06055530003505,0.0582429000060074,None,1.5852179999928921,,,,,,,,,14,001,2019_Dec_25_1022,untitled,3.1.0,60.348755464806274,
496,_5,M,315,L,N,496_5M315LN,HLN,0,98,98,191,,,0.754,393.7457807000028,394.0760627000127,394.09308260004036,394.37566530000186,394.39269960002275,None,down,394.39269960002275,None,394.39269960002275,395.125210600032,0.07520969997858629,None,2.0164953999919817,,,,,,,,,14,001,2019_Dec_25_1022,untitled,3.1.0,60.348755464806274,
176,F,M,315,L,N,176FM315LN,HLN,0,99,99,127,,,0.8300000000000001,396.4788062000298,396.82389450003393,396.84102990000974,397.1244204000104,397.1403446000186,None,down,397.1403446000186,None,397.1403446000186,397.9562065000064,0.06240409996826202,None,2.2483011000440456,,,,,,,,,14,001,2019_Dec_25_1022,untitled,3.1.0,60.348755464806274,
_,G,M,270,_,_,_GM270__,N,0,100,100,14,,,1.397,399.4560157000087,399.80432000005385,399.82164249999914,400.10405050002737,400.12054540001554,None,down,400.12054540001554,None,400.12054540001554,401.503022400022,0.0604520000051707,None,2.733101000019815,,,,,,,,,14,001,2019_Dec_25_1022,untitled,3.1.0,60.348755464806274,
_,R,M,270,_,_,_RM270__,N,0,101,101,22,,,0.707,402.92067390005104,403.26822150003863,403.2847798000439,403.56794870004524,403.58461740001803,None,down,403.58461740001803,None,403.58461740001803,404.2668909000349,0.059847299999091774,None,1.9997758999816142,,,,,,,,,14,001,2019_Dec_25_1022,untitled,3.1.0,60.348755464806274,
194,G,N,45,R,N,194GN045RN,HRN,0,102,102,225,,,1.325,405.6511590000009,405.998888000031,406.01576930005103,406.2987759000389,406.31538550002733,None,up,406.31538550002733,None,406.31538550002733,407.6308524000342,0.059185299964156,None,2.1986141999950632,,,,,,,,,14,001,2019_Dec_25_1022,untitled,3.1.0,60.348755464806274,
234,G,M,45,L,N,234GM045LN,HLN,0,103,103,137,,,1.183,408.5808708000113,408.9305449000094,408.9464367000037,409.2300970000215,409.24620700004743,None,down,409.24620700004743,None,409.24620700004743,410.4117896000389,0.05968240002403036,None,2.1681335999746807,,,,,,,,,14,001,2019_Dec_25_1022,untitled,3.1.0,60.348755464806274,
016,R,M,315,R,N,016RM315RN,HRN,0,104,104,103,,,1.184,411.4839140000404,411.8274311000132,411.844108600053,412.1272149000433,412.1442185000051,None,up,412.1442185000051,None,412.1442185000051,413.30931060004514,0.06287100003100932,None,2.3810306999948807,,,,,,,,,14,001,2019_Dec_25_1022,untitled,3.1.0,60.348755464806274,
297,_2,M,0,L,N,297_2M000LN,HLN,0,105,105,152,,,0.895,414.5976845000405,414.9415626000264,414.95784770004684,415.24150850001024,415.2586039000307,None,down,415.2586039000307,None,415.2586039000307,416.1400959000457,0.0654865000396967,None,2.733425199985504,,,,,,,,,14,001,2019_Dec_25_1022,untitled,3.1.0,60.348755464806274,
_,_4,N,270,_,_,__4N270__,N,0,106,106,86,,,1.354,418.0638366000494,418.40517980000004,418.42206579999765,418.70511340000667,418.72176770004444,None,up,418.72176770004444,None,418.72176770004444,420.0540000000037,0.06498090003151447,None,2.697624300024472,,,,,,,,,14,001,2019_Dec_25_1022,untitled,3.1.0,60.348755464806274,
_,G,M,45,_,_,_GM045__,N,0,107,107,9,,,0.858,421.49386960000265,421.8353675000253,421.8519095000229,422.1353431000025,422.1517769000493,None,down,422.1517769000493,None,422.1517769000493,422.98463000002084,0.06738670001504943,None,1.8842074999702163,,,,,,,,,14,001,2019_Dec_25_1022,untitled,3.1.0,60.348755464806274,
429,_4,M,180,L,N,429_4M180LN,HLN,0,108,108,172,,,1.147,424.10251090000384,424.44967220001854,424.4664160000393,424.74952100001974,424.7663756000111,None,down,424.7663756000111,None,424.7663756000111,425.8982222000486,0.059775999980047345,None,2.9146267999894917,,,,,,,,,14,001,2019_Dec_25_1022,untitled,3.1.0,60.348755464806274,
200,G,N,315,R,N,200GN315RN,HRN,0,109,109,231,,,1.167,427.7677427000017,428.0965070000384,428.11322030000156,428.39664180000545,428.41292530001374,None,up,428.41292530001374,None,428.41292530001374,429.56182200001786,0.07755650003673509,None,2.5174027000321075,,,,,,,,,14,001,2019_Dec_25_1022,untitled,3.1.0,60.348755464806274,
260,_2,N,135,R,N,260_2N135RN,HRN,0,110,110,243,,,1.362,431.00014630000805,431.35467280005105,431.3607406000374,431.6438981000101,431.6599563000491,None,up,431.6599563000491,None,431.6599563000491,433.0088445000001,0.06326629995601252,None,3.083135500026401,,,,,,,,,14,001,2019_Dec_25_1022,untitled,3.1.0,60.348755464806274,
201,G,M,0,R,N,201GM000RN,HRN,0,111,111,128,,,1.17,434.8221698999987,435.156700200052,435.1737727000145,435.4564846000285,435.47495520004304,None,down,435.47495520004304,None,435.47495520004304,436.6218006000272,0.07064890000037849,None,2.2486589000327513,,,,,,,,,14,001,2019_Dec_25_1022,untitled,3.1.0,60.348755464806274,
_,R,M,0,_,_,_RM000__,N,0,112,112,16,,,1.33,437.7939574000193,438.13816780003253,438.155038100027,438.43720360001316,438.4540971000097,None,down,438.4540971000097,None,438.4540971000097,439.7702686000266,0.06395370000973344,None,2.550493499962613,,,,,,,,,14,001,2019_Dec_25_1022,untitled,3.1.0,60.348755464806274,
420,_4,N,135,L,N,420_4N135LN,HLN,0,113,113,267,,,1.2650000000000001,441.0737800000352,441.4186432000133,441.43471390003106,441.71807770000305,441.7345382000203,None,up,441.7345382000203,None,441.7345382000203,442.98339639999904,0.06150400004116818,None,2.366917999985162,,,,,,,,,14,001,2019_Dec_25_1022,untitled,3.1.0,60.348755464806274,
_,_2,M,0,_,_,__2M000__,N,0,114,114,24,,,1.308,444.1694613000145,444.51564270001836,444.5324031000491,444.8155520000146,444.8318935999996,None,down,444.8318935999996,None,444.8318935999996,446.1310418000212,0.06104909995337948,None,3.247302000003401,,,,,,,,,14,001,2019_Dec_25_1022,untitled,3.1.0,60.348755464806274,
044,R,M,135,L,N,044RM135LN,HLN,0,115,115,107,,,0.806,448.15063960000407,448.4961069000419,448.512367700052,448.7957532000146,448.8123068000423,None,down,448.8123068000423,None,448.8123068000423,449.5941422000178,0.0640267999842763,None,1.8507603000034578,,,,,,,,,14,001,2019_Dec_25_1022,untitled,3.1.0,60.348755464806274,
488,_5,N,315,L,N,488_5N315LN,HLN,0,116,116,287,,,1.09,450.7470976000186,451.07636810000986,451.09347920003347,451.3599180000019,451.39288490003673,None,up,451.39288490003673,None,451.39288490003673,452.4764825000311,0.07573069998761639,None,2.3160940000088885,,,,,,,,,14,001,2019_Dec_25_1022,untitled,3.1.0,60.348755464806274,
163,F,N,90,L,N,163FN090LN,HLN,0,117,117,218,,,0.971,453.77839560003486,454.1239783000201,454.1408556000097,454.4234783000429,454.44012959999964,None,up,454.44012959999964,None,454.44012959999964,455.3895145000424,0.06308029999490827,None,1.7665146000217646,,,,,,,,,14,001,2019_Dec_25_1022,untitled,3.1.0,60.348755464806274,
_,F,N,225,_,_,_FN225__,N,0,118,118,53,,,0.9380000000000001,456.27941350004403,456.6218474000343,456.6383216000395,456.9217356000445,456.9385657000239,None,up,456.9385657000239,None,456.9385657000239,457.8545426000492,0.0638780000153929,None,2.366589599987492,,,,,,,,,14,001,2019_Dec_25_1022,untitled,3.1.0,60.348755464806274,
_,R,N,135,_,_,_RN135__,N,0,119,119,67,,,1.094,459.3725434000371,459.71904640004504,459.73565400001826,460.01923200004967,460.0361800000537,None,up,460.0361800000537,None,460.0361800000537,461.11793360003503,0.05973929999163374,None,2.633381800027564,,,,,,,,,14,001,2019_Dec_25_1022,untitled,3.1.0,60.348755464806274,
_,G,N,315,_,_,_GN315__,N,0,120,120,63,,,1.037,462.76878470001975,463.0828496000031,463.1003509000293,463.3833328000037,463.3989327000454,None,up,463.3989327000454,None,463.3989327000454,464.43259340000805,0.08741259999806061,None,2.59811559994705,,,,,,,,,14,001,2019_Dec_25_1022,untitled,3.1.0,60.348755464806274,
_,_2,N,225,_,_,__2N225__,N,0,121,121,77,,,1.321,466.0666029000422,466.4134219000116,466.42995880002854,466.7129474999965,466.7299122000113,None,up,466.7299122000113,None,466.7299122000113,468.02874440001324,0.06167920003645122,None,2.3997385000111535,,,,,,,,,14,001,2019_Dec_25_1022,untitled,3.1.0,60.348755464806274,
133,F,N,180,R,N,133FN180RN,HRN,0,122,122,212,,,1.2650000000000001,469.1983028000104,469.54408110002987,469.560467000003,469.84330750000663,469.85992340004304,None,up,469.85992340004304,None,469.85992340004304,471.10883720003767,0.061022199981380254,None,2.38344440003857,,,,,,,,,14,001,2019_Dec_25_1022,untitled,3.1.0,60.348755464806274,
482,_5,N,45,L,N,482_5N045LN,HLN,0,123,123,281,,,0.998,472.3428952000104,472.6575708000455,472.67444840003736,472.9575340000447,472.97427470004186,None,up,472.97427470004186,None,472.97427470004186,473.9564905000152,0.09127399994758889,None,1.7176407999941148,,,,,,,,,14,001,2019_Dec_25_1022,untitled,3.1.0,60.348755464806274,
427,_4,M,90,L,N,427_4M090LN,HLN,0,124,124,170,,,1.0010000000000001,474.76122780004516,475.10570610000286,475.12257510004565,475.40534100000514,475.4220820000046,None,down,475.4220820000046,None,475.4220820000046,476.4042705000029,0.06192860001465306,None,2.0510637999977916,,,,,,,,,14,001,2019_Dec_25_1022,untitled,3.1.0,60.348755464806274,
007,R,N,270,R,N,007RN270RN,HRN,0,125,125,198,,,0.984,477.54171530000167,477.88673670002026,477.9030949000153,478.1860260000103,478.20255950000137,None,up,478.20255950000137,None,478.20255950000137,479.16865060001146,0.061734699993394315,None,1.6512025000411086,,,,,,,,,14,001,2019_Dec_25_1022,untitled,3.1.0,60.348755464806274,
_,_2,N,135,_,_,__2N135__,N,0,126,126,75,,,1.205,479.93746070005,480.26787420001347,480.28461050003534,480.56732560001547,480.5838915000204,None,up,480.5838915000204,None,480.5838915000204,481.76643260003766,0.07526720000896603,None,2.2984341999981552,,,,,,,,,14,001,2019_Dec_25_1022,untitled,3.1.0,60.348755464806274,
015,R,M,270,R,N,015RM270RN,HRN,0,127,127,102,,,0.994,482.95466300001135,483.2987955000135,483.3156919000321,483.598821600026,483.6154333000304,None,down,483.6154333000304,None,483.6154333000304,484.5970951000345,0.06495949998497963,None,2.10003129998222,,,,,,,,,14,001,2019_Dec_25_1022,untitled,3.1.0,60.348755464806274,
456,_5,N,315,R,N,456_5N315RN,HRN,0,128,128,279,,,1.047,485.79959930002224,486.13014020002447,486.14605370000936,486.42931170004886,486.4458532000426,None,up,486.4458532000426,None,486.4458532000426,487.47780400002375,0.0759352000313811,None,1.832895700004883,,,,,,,,,14,001,2019_Dec_25_1022,untitled,3.1.0,60.348755464806274,
432,_4,M,315,L,N,432_4M315LN,HLN,0,129,129,175,,,1.2710000000000001,488.3489264000091,488.69405109999934,488.7110615000129,488.99341480003204,489.010310200043,None,down,489.010310200043,None,489.010310200043,490.25987240002723,0.06310939998365939,None,2.664519799989648,,,,,,,,,14,001,2019_Dec_25_1022,untitled,3.1.0,60.348755464806274,
173,F,M,180,L,N,173FM180LN,HLN,0,130,130,124,,,0.721,491.74595940002473,492.09043920005206,492.10709030000726,492.3902985000168,492.4070384000079,None,down,492.4070384000079,None,492.4070384000079,493.1061148000299,0.06379360001301393,None,2.4148184999939986,,,,,,,,,14,001,2019_Dec_25_1022,untitled,3.1.0,60.348755464806274,
387,_4,N,90,R,N,387_4N090RN,HRN,0,131,131,258,,,1.304,494.89202640001895,495.2380248000263,495.25500110001303,495.53813950001495,495.5548748000292,None,up,495.5548748000292,None,495.5548748000292,496.836389300006,0.06312960002105683,None,2.116231299994979,,,,,,,,,14,001,2019_Dec_25_1022,untitled,3.1.0,60.348755464806274,
398,_4,M,225,R,N,398_4M225RN,HRN,0,132,132,165,,,1.3980000000000001,497.77639520005323,498.08556870004395,498.1021444000071,498.3852264000452,498.4025368000148,None,down,498.4025368000148,None,498.4025368000148,499.7842870000168,0.09433130000252277,None,3.046965799992904,,,,,,,,,14,001,2019_Dec_25_1022,untitled,3.1.0,60.348755464806274,
386,_4,N,45,R,N,386_4N045RN,HRN,0,133,133,257,,,0.8170000000000001,501.5173256000271,501.8656770000234,501.8824581000372,502.16547400003765,502.1821169000468,None,up,502.1821169000468,None,502.1821169000468,502.9810770000331,0.060798499966040254,None,1.7498433999717236,,,,,,,,,14,001,2019_Dec_25_1022,untitled,3.1.0,60.348755464806274,
_,_2,M,225,_,_,__2M225__,N,0,134,134,29,,,1.025,503.99908300000243,504.3468669000431,504.3646390000358,504.6473662000499,504.66311180003686,None,down,504.66311180003686,None,504.66311180003686,505.6627916000434,0.060372999985702336,None,2.549299600010272,,,,,,,,,14,001,2019_Dec_25_1022,untitled,3.1.0,60.348755464806274,
261,_2,N,180,R,N,261_2N180RN,HRN,0,135,135,244,,,0.994,507.2833944000304,507.62742050003726,507.6445628000074,507.92767610005103,507.9441526000155,None,up,507.9441526000155,None,507.9441526000155,508.9264359000372,0.06414510001195595,None,2.0324495999957435,,,,,,,,,14,001,2019_Dec_25_1022,untitled,3.1.0,60.348755464806274,
193,G,N,0,R,N,193GN000RN,HRN,0,136,136,224,,,1.252,510.044521600008,510.3915561000467,510.4087500000023,510.69178410002496,510.7078717999975,None,up,510.7078717999975,None,510.7078717999975,511.9400894000428,0.06109139998443425,None,2.132575800002087,,,,,,,,,14,001,2019_Dec_25_1022,untitled,3.1.0,60.348755464806274,
197,G,N,180,R,N,197GN180RN,HRN,0,137,137,228,,,0.874,512.9119157000096,513.2571718000108,513.2724270000472,513.5553744000499,513.5719092000509,None,down,513.5719092000509,None,513.5719092000509,514.4211200000136,0.06451419997029006,None,1.8491467999992892,,,,,,,,,14,001,2019_Dec_25_1022,untitled,3.1.0,60.348755464806274,
_,_5,M,270,_,_,__5M270__,N,0,138,138,46,,,1.166,515.5046587000252,515.8368416000158,515.854447300022,516.1365665000048,516.1534193000407,None,down,516.1534193000407,None,516.1534193000407,517.3035572000081,0.07607519999146461,None,2.9306355000007898,,,,,,,,,14,001,2019_Dec_25_1022,untitled,3.1.0,60.348755464806274,
208,G,M,315,R,N,208GM315RN,HRN,0,139,139,135,,,1.0090000000000001,519.1621444000048,519.5002000000095,519.5167531000334,519.7997355000116,519.8164595999988,None,down,519.8164595999988,None,519.8164595999988,520.7998849000433,0.07027510000625625,None,2.6645779999671504,,,,,,,,,14,001,2019_Dec_25_1022,untitled,3.1.0,60.348755464806274,
_,R,M,180,_,_,_RM180__,N,0,140,140,20,,,0.873,522.5503480000189,522.8967498000129,522.9141039000242,523.1976201000507,523.2134967000457,None,up,523.2134967000457,None,523.2134967000457,524.062583699997,0.061905300011858344,None,2.566222599998582,,,,,,,,,14,001,2019_Dec_25_1022,untitled,3.1.0,60.348755464806274,
207,G,M,270,R,N,207GM270RN,HRN,0,141,141,134,,,1.346,525.8547146000201,526.1949840000016,526.2116971000214,526.4952347000362,526.5110385000007,None,down,526.5110385000007,None,526.5110385000007,527.8428145000362,0.06803999998373911,None,3.313822799944319,,,,,,,,,14,001,2019_Dec_25_1022,untitled,3.1.0,60.348755464806274,
493,_5,M,180,L,N,493_5M180LN,HLN,0,142,142,188,,,1.1440000000000001,529.8945149000501,530.2408903000178,530.258389900031,530.5408439000021,530.5575063000433,None,up,530.5575063000433,None,530.5575063000433,531.689458000008,0.06263380002928898,None,2.6493883000221103,,,,,,,,,14,001,2019_Dec_25_1022,untitled,3.1.0,60.348755464806274,
_,G,N,270,_,_,_GN270__,N,0,143,143,62,,,0.807,533.2939989000442,533.6220180000528,533.6378434000071,533.9212407000014,533.9376115000341,None,up,533.9376115000341,None,533.9376115000341,534.7202386000426,0.08047119999537244,None,1.6170430000056513,,,,,,,,,14,001,2019_Dec_25_1022,untitled,3.1.0,60.348755464806274,
_,_4,N,180,_,_,__4N180__,N,0,144,144,84,,,0.967,535.6229320000275,535.9693427000311,535.9860710000503,536.2688734999974,536.2855676000472,None,up,536.2855676000472,None,536.2855676000472,537.2349563000025,0.061573500046506524,None,2.050121499982197,,,,,,,,,14,001,2019_Dec_25_1022,untitled,3.1.0,60.348755464806274,
_,_2,N,90,_,_,__2N090__,N,0,145,145,74,,,1.052,538.4054823000333,538.7501059000497,538.7669619000517,539.0498498000088,539.0663923000102,None,up,539.0663923000102,None,539.0663923000102,540.0990049000247,0.06317899998975918,None,1.8337523000082,,,,,,,,,14,001,2019_Dec_25_1022,untitled,3.1.0,60.348755464806274,
_,G,N,0,_,_,_GN000__,N,0,146,146,56,,,0.7000000000000001,540.9686682000174,541.3150573000312,541.3423857000307,541.6143076000153,541.6305662000086,None,up,541.6305662000086,None,541.6305662000086,542.3140721000382,0.06172950001200661,None,1.383105200016871,,,,,,,,,14,001,2019_Dec_25_1022,untitled,3.1.0,60.348755464806274,
463,_5,M,270,R,N,463_5M270RN,HRN,0,147,147,182,,,0.806,543.0822459000046,543.4296390000382,543.4471186000155,543.7292096000165,543.7455838000169,None,up,543.7455838000169,None,543.7455838000169,544.5279368000338,0.06172830000286922,None,2.1150602000416256,,,,,,,,,14,001,2019_Dec_25_1022,untitled,3.1.0,60.348755464806274,
235,G,M,90,L,N,235GM090LN,HLN,0,148,148,138,,,1.359,545.9292883000453,546.2773729000473,546.2934625000344,546.5769402000005,546.5932463000063,None,down,546.5932463000063,None,546.5932463000063,547.94231090002,0.06058270001085475,None,2.5480712999706157,,,,,,,,,14,001,2019_Dec_25_1022,untitled,3.1.0,60.348755464806274,
238,G,M,225,L,N,238GM225LN,HLN,0,149,149,141,,,1.078,549.2103603000287,549.5582130000112,549.5742360000149,549.8573439000174,549.8737246000092,None,down,549.8737246000092,None,549.8737246000092,550.9394001000328,0.06227380002383143,None,2.714933999988716,,,,,,,,,14,001,2019_Dec_25_1022,untitled,3.1.0,60.348755464806274,
295,_2,N,270,L,N,295_2N270LN,HLN,0,150,150,254,,,1.2670000000000001,552.6569398000138,553.0045196000137,553.021249100042,553.3040979000507,553.3208638000069,None,up,553.3208638000069,None,553.3208638000069,554.5697375000454,0.06142450001789257,None,2.798746399988886,,,,,,,,,14,001,2019_Dec_25_1022,untitled,3.1.0,60.348755464806274,
164,F,N,135,L,N,164FN135LN,HLN,0,151,151,219,,,0.753,556.1869560000487,556.5349795000511,556.5515348000336,556.8343374000397,556.8510533000226,None,up,556.8510533000226,None,556.8510533000226,557.5838414000464,0.06060919997980818,None,1.6322787999524735,,,,,,,,,14,001,2019_Dec_25_1022,untitled,3.1.0,60.348755464806274,
452,_5,N,135,R,N,452_5N135RN,HRN,0,152,152,275,,,1.039,558.565857700014,558.9000977000105,558.9160237000324,559.1992300000275,559.2155703000026,None,up,559.2155703000026,None,559.2155703000026,560.2312638000003,0.07411950000096112,None,2.048922100046184,,,,,,,,,14,001,2019_Dec_25_1022,untitled,3.1.0,60.348755464806274,
_,_2,M,180,_,_,__2M180__,N,0,153,153,28,,,1.196,561.3516620000009,561.6800354000297,561.69827610004,561.9797783000395,561.996374600043,None,down,561.996374600043,None,561.996374600043,563.1794425999979,0.05979169998317957,None,3.149766099988483,,,,,,,,,14,001,2019_Dec_25_1022,untitled,3.1.0,60.348755464806274,
131,F,N,90,R,N,131FN090RN,HRN,0,154,154,210,,,1.229,565.2149989000172,565.5604508000542,565.5771075000521,565.8597603000235,565.876482599997,None,up,565.876482599997,None,565.876482599997,567.0923004000215,0.06114990002242848,None,2.084063399990555,,,,,,,,,14,001,2019_Dec_25_1022,untitled,3.1.0,60.348755464806274,
226,G,N,45,L,N,226GN045LN,HLN,0,155,155,233,,,1.121,568.0283587000449,568.3749668000382,568.3914570000488,568.6737217000336,568.690301500028,None,up,568.690301500028,None,568.690301500028,569.7893218000536,0.06111910002073273,None,2.3335597999976017,,,,,,,,,14,001,2019_Dec_25_1022,untitled,3.1.0,60.348755464806274,
271,_2,M,270,R,N,271_2M270RN,HRN,0,156,156,150,,,1.057,571.0918106000172,571.4385479000048,571.4552997000283,571.7388387000537,571.7552183000371,None,down,571.7552183000371,None,571.7552183000371,572.7891388999997,0.061130399990361184,None,2.846834299969487,,,,,,,,,14,001,2019_Dec_25_1022,untitled,3.1.0,60.348755464806274,
_,_2,M,315,_,_,__2M315__,N,0,157,157,31,,,0.887,574.67194010003,575.0188452000148,575.0350043000071,575.3185088000027,575.3350064000115,None,None,575.3350064000115,None,575.3350064000115,576.2010927000083,0.06296169996494427,None,,,,,,,,,,14,001,2019_Dec_25_1022,untitled,3.1.0,60.348755464806274,
144,F,M,315,R,N,144FM315RN,HRN,0,158,158,119,,,1.052,578.865942000004,579.2159234000137,579.2312754000304,579.5146832000464,579.5311963999993,578.865942000004,down,579.5311963999993,None,579.5311963999993,580.5635572000174,0.05955579999135807,None,2.3669294000137597,,,,,,,,,14,001,2019_Dec_25_1022,untitled,3.1.0,60.348755464806274,
454,_5,N,225,R,N,454_5N225RN,HRN,0,159,159,277,,,1.185,581.9817122000386,582.3122938000015,582.3288571000448,582.6124376000371,582.6284002000466,None,up,582.6284002000466,None,582.6284002000466,583.7946470000315,0.07518689997959882,None,1.9818715000292286,,,,,,,,,14,001,2019_Dec_25_1022,untitled,3.1.0,60.348755464806274,
302,_2,M,225,L,N,302_2M225LN,HLN,0,160,160,157,,,1.199,584.6851604999974,585.0266324999975,585.043517400045,585.3261006000102,585.3426431000116,None,down,585.3426431000116,None,585.3426431000116,586.5254518000293,0.06834419997176155,None,2.565364199981559,,,,,,,,,14,001,2019_Dec_25_1022,untitled,3.1.0,60.348755464806274,
418,_4,N,45,L,N,418_4N045LN,HLN,0,161,161,265,,,0.992,587.9773051000084,588.3241198000032,588.3406204000348,588.6233406000538,588.6395991000463,None,up,588.6395991000463,None,588.6395991000463,589.6056260000332,0.062273799965623766,None,1.6663428000174463,,,,,,,,,14,001,2019_Dec_25_1022,untitled,3.1.0,60.348755464806274,
395,_4,M,90,R,N,395_4M090RN,HRN,0,162,162,162,,,1.188,590.3757506000111,590.7216826000367,590.7382687000209,591.0223635000293,591.0378342000186,None,down,591.0378342000186,None,591.0378342000186,592.2033090000041,0.06266260001575574,None,2.3985635000281036,,,,,,,,,14,001,2019_Dec_25_1022,untitled,3.1.0,60.348755464806274,
003,R,N,90,R,N,003RN090RN,HRN,0,163,163,194,,,1.086,593.5055958000012,593.8535817000084,593.8687158999965,594.1525300000212,594.1682597000035,None,up,594.1682597000035,None,594.1682597000035,595.234031400003,0.06240860000252724,None,1.8512425000080839,,,,,,,,,14,001,2019_Dec_25_1022,untitled,3.1.0,60.348755464806274,
_,_5,M,0,_,_,__5M000__,N,0,164,164,40,,,1.363,596.087206199998,596.4332770000328,596.4499345000368,596.73273410002,596.7499008000013,None,down,596.7499008000013,None,596.7499008000013,598.0990163000533,0.060866599960718304,None,2.4312444999814034,,,,,,,,,14,001,2019_Dec_25_1022,untitled,3.1.0,60.348755464806274,
426,_4,M,45,L,N,426_4M045LN,HLN,0,165,165,169,,,0.999,599.2504318000283,599.597785000049,599.6144752000109,599.8972600999987,599.9141084000003,None,down,599.9141084000003,None,599.9141084000003,600.8972091000178,0.06207040004665032,None,2.3647534000338055,,,,,,,,,14,001,2019_Dec_25_1022,untitled,3.1.0,60.348755464806274,
489,_5,M,0,L,N,489_5M000LN,HLN,0,166,166,184,,,0.9420000000000001,602.3638232000521,602.6942572999978,602.7110218000016,602.9940534000052,603.0105561000528,None,down,603.0105561000528,None,603.0105561000528,603.9433665000251,0.07645699998829514,None,2.598593400034588,,,,,,,,,14,001,2019_Dec_25_1022,untitled,3.1.0,60.348755464806274,
266,_2,M,45,R,N,266_2M045RN,HRN,0,167,167,145,,,0.846,605.6805533000152,606.024808200018,606.0416595000424,606.3252416000469,606.3424424999976,None,up,606.3424424999976,None,606.3424424999976,607.1738878000178,0.06261989998165518,None,2.38439500000095,,,,,,,,,14,001,2019_Dec_25_1022,untitled,3.1.0,60.348755464806274,
394,_4,M,45,R,N,394_4M045RN,HRN,0,168,168,161,,,1.2550000000000001,608.8289465000271,609.13877400005,609.1557943000225,609.439047700027,609.4556895000278,None,down,609.4556895000278,None,609.4556895000278,610.7044176000054,0.09128290001535788,None,3.381757000053767,,,,,,,,,14,001,2019_Dec_25_1022,untitled,3.1.0,60.348755464806274,
_,_5,N,225,_,_,__5N225__,N,0,169,169,93,,,1.187,612.914933400054,613.2527669999981,613.2685288000503,613.5518360999995,613.5681145000271,None,up,613.5681145000271,None,613.5681145000271,614.733679099998,0.06960879999678582,None,2.1329966000048444,,,,,,,,,14,001,2019_Dec_25_1022,untitled,3.1.0,60.348755464806274,
_,F,M,45,_,_,_FM045__,N,0,170,170,1,,,0.812,615.7688528000144,616.1162402000045,616.133779500029,616.4165623000008,616.4323775000521,None,down,616.4323775000521,None,616.4323775000521,617.2319595000008,0.06119879998732358,None,2.448236700030975,,,,,,,,,14,001,2019_Dec_25_1022,untitled,3.1.0,60.348755464806274,
392,_4,N,315,R,N,392_4N315RN,HRN,0,171,171,263,,,1.298,618.9539728000527,619.2968594999984,619.3133562000003,619.5961630000384,619.6128419000306,None,up,619.6128419000306,None,619.6128419000306,620.8951598000131,0.06601710000541061,None,2.284222599992063,,,,,,,,,14,001,2019_Dec_25_1022,untitled,3.1.0,60.348755464806274,
171,F,M,90,L,N,171FM090LN,HLN,0,172,172,122,,,1.27,621.9669134000433,622.310717400047,622.327161000052,622.610387200024,622.6268095000414,None,down,622.6268095000414,None,622.6268095000414,623.87583980005,0.06309399998281151,None,2.5491075999452733,,,,,,,,,14,001,2019_Dec_25_1022,untitled,3.1.0,60.348755464806274,
195,G,N,90,R,N,195GN090RN,HRN,0,173,173,226,,,0.849,625.2499985000468,625.59133570001,625.6078627000097,625.8907333000097,625.9073026000406,None,up,625.9073026000406,None,625.9073026000406,626.7402580000344,0.0670370000298135,None,1.9171772000263445,,,,,,,,,14,001,2019_Dec_25_1022,untitled,3.1.0,60.348755464806274,
229,G,N,180,L,N,229GN180LN,HLN,0,174,174,236,,,0.811,627.9079195000231,628.2403594000498,628.2561979000457,628.5393158000079,628.5551012000069,None,up,628.5551012000069,None,628.5551012000069,629.3544883000432,0.07495050004217774,None,1.849503800040111,,,,,,,,,14,001,2019_Dec_25_1022,untitled,3.1.0,60.348755464806274,
_,R,M,315,_,_,_RM315__,N,0,175,175,23,,,1.27,630.4891713000252,630.8203343000496,630.8386734000524,631.119749800011,631.1362900000531,None,down,631.1362900000531,None,631.1362900000531,632.3847243000055,0.07541889999993145,None,3.1493457999895327,,,,,,,,,14,001,2019_Dec_25_1022,untitled,3.1.0,60.348755464806274,
425,_4,M,0,L,N,425_4M000LN,HLN,0,176,176,168,,,1.076,634.3542924000067,634.6997904000455,634.7161340000457,634.999629900034,635.0161889000447,None,up,635.0161889000447,None,635.0161889000447,636.0820957000251,0.06139190000249073,None,2.850559099984821,,,,,,,,,14,001,2019_Dec_25_1022,untitled,3.1.0,60.348755464806274,
423,_4,N,270,L,N,423_4N270LN,HLN,0,177,177,270,,,0.8150000000000001,637.935165300034,638.2802310000407,638.2967202000436,638.5804569000029,638.5970377000049,None,up,638.5970377000049,None,638.5970377000049,639.3953265000018,0.06187899998622015,None,1.6479749000282027,,,,,,,,,14,001,2019_Dec_25_1022,untitled,3.1.0,60.348755464806274,
143,F,M,270,R,N,143FM270RN,HRN,0,178,178,118,,,1.028,640.327391800005,640.6615733000217,640.6785802000086,640.9609888000414,640.9790325000067,None,up,640.9790325000067,None,640.9790325000067,641.992979200033,0.0749855000176467,None,2.415295500017237,,,,,,,,,14,001,2019_Dec_25_1022,untitled,3.1.0,60.348755464806274,
304,_2,M,315,L,N,304_2M315LN,HLN,0,179,179,159,,,0.973,643.4612755000126,643.8090536000091,643.8254770000349,644.1085456000292,644.1252630000236,None,up,644.1252630000236,None,644.1252630000236,645.0744359000237,0.06012589996680617,None,1.7981458000140265,,,,,,,,,14,001,2019_Dec_25_1022,untitled,3.1.0,60.348755464806274,
_,_2,N,315,_,_,__2N315__,N,0,180,180,79,,,1.2770000000000001,645.9905792000354,646.340007300023,646.3564899000339,646.6395015000016,646.6566234000493,None,up,646.6566234000493,None,646.6566234000493,647.9214691000525,0.05757169995922595,None,2.8654879000387155,,,,,,,,,14,001,2019_Dec_25_1022,untitled,3.1.0,60.348755464806274,
293,_2,N,180,L,N,293_2N180LN,HLN,0,181,181,252,,,0.96,649.5986975000123,649.9366125000524,649.953658900049,650.236393500003,650.2536307999981,None,up,650.2536307999981,None,650.2536307999981,651.2018372000312,0.06954579998273402,None,2.035772499977611,,,,,,,,,14,001,2019_Dec_25_1022,untitled,3.1.0,60.348755464806274,
417,_4,N,0,L,N,417_4N000LN,HLN,0,182,182,264,,,1.167,652.3905168000492,652.7008225000463,652.7173626000294,653.0007309000357,653.0178495,None,up,653.0178495,None,653.0178495,654.1668941000244,0.0903439000248909,None,2.0813570999889635,,,,,,,,,14,001,2019_Dec_25_1022,untitled,3.1.0,60.348755464806274,
388,_4,N,135,R,N,388_4N135RN,HRN,0,183,183,259,,,0.927,655.1684442000114,655.5150521000032,655.5313840000308,655.8146142000332,655.8312620000215,None,up,655.8312620000215,None,655.8312620000215,656.7471562999999,0.06258089997572824,None,2.7148615999612957,,,,,,,,,14,001,2019_Dec_25_1022,untitled,3.1.0,60.348755464806274,
045,R,M,180,L,N,045RM180LN,HLN,0,184,184,108,,,1.298,658.6237952000229,658.9622542000143,658.9786879000021,659.2618628000491,659.2783620000118,None,None,659.2783620000118,None,659.2783620000118,660.560963099997,0.06949749996419996,None,,,,,,,,,,14,001,2019_Dec_25_1022,untitled,3.1.0,60.348755464806274,
_,R,N,180,_,_,_RN180__,N,0,185,185,68,,,0.739,662.8110297000385,663.1587794000516,663.1751756000449,663.4577488000505,663.4746356000542,662.8110297000385,up,663.4746356000542,None,663.4746356000542,664.1910463000531,0.06063650001306087,None,1.865897200012114,,,,,,,,,14,001,2019_Dec_25_1022,untitled,3.1.0,60.348755464806274,
139,F,M,90,R,N,139FM090RN,HRN,0,186,186,114,,,1.207,665.4090119000175,665.7566039000521,665.7726916000247,666.0572379000369,666.0724862000206,None,down,666.0724862000206,None,666.0724862000206,667.2553231000202,0.06126310001127422,None,2.5503857999574393,,,,,,,,,14,001,2019_Dec_25_1022,untitled,3.1.0,60.348755464806274,
_,_2,N,45,_,_,__2N045__,N,0,187,187,73,,,0.75,668.6927566000377,669.0365202000248,669.0535722000059,669.3359954000334,669.3538317000493,None,up,669.3538317000493,None,669.3538317000493,670.0859916000045,0.06294970004819334,None,1.6313796000322327,,,,,,,,,14,001,2019_Dec_25_1022,untitled,3.1.0,60.348755464806274,
_,R,N,315,_,_,_RN315__,N,0,188,188,71,,,0.853,671.052798400051,671.401449099998,671.417830600054,671.7016553000431,671.7175529000233,None,up,671.7175529000233,None,671.7175529000233,672.5500502000214,0.06056760001229122,None,1.5675603999989107,,,,,,,,,14,001,2019_Dec_25_1022,untitled,3.1.0,60.348755464806274,
_,_4,M,315,_,_,__4M315__,N,0,189,189,39,,,0.755,673.3694506000029,673.6996893000323,673.7166894000256,673.9991605000105,674.0164314000285,None,down,674.0164314000285,None,674.0164314000285,674.7490495000384,0.07645970000885427,None,1.8487380999722518,,,,,,,,,14,001,2019_Dec_25_1022,untitled,3.1.0,60.348755464806274,
013,R,M,180,R,N,013RM180RN,HRN,0,190,190,100,,,1.105,675.9359812000184,676.2804106000112,676.2965525000473,676.5801001000218,676.5965364000294,None,up,676.5965364000294,None,676.5965364000294,677.6794041999965,0.06380619999254122,None,2.633772700035479,,,,,,,,,14,001,2019_Dec_25_1022,untitled,3.1.0,60.348755464806274,
453,_5,N,180,R,N,453_5N180RN,HRN,0,191,191,276,,,1.304,679.3324843000155,679.643620100047,679.6604941000114,679.9451721000369,679.9606551000034,None,up,679.9606551000034,None,679.9606551000034,681.259670200001,0.09189859998878092,None,2.631227999983821,,,,,,,,,14,001,2019_Dec_25_1022,untitled,3.1.0,60.348755464806274,
136,F,N,315,R,N,136FN315RN,HRN,0,192,192,215,,,1.1360000000000001,682.6589695000439,683.0094509000191,683.0246546000126,683.3078896000516,683.3247692000004,None,up,683.3247692000004,None,683.3247692000004,684.4397667000303,0.06009559996891767,None,2.065240999974776,,,,,,,,,14,001,2019_Dec_25_1022,untitled,3.1.0,60.348755464806274,
141,F,M,180,R,N,141FM180RN,HRN,0,193,193,116,,,0.799,685.4643425000249,685.8052831000532,685.8222667000373,686.1058848000248,686.1219188000541,None,down,686.1219188000541,None,686.1219188000541,686.9043586000334,0.06776140001602471,None,2.0481374000082724,,,,,,,,,14,001,2019_Dec_25_1022,untitled,3.1.0,60.348755464806274,
389,_4,N,180,R,N,389_4N180RN,HRN,0,194,194,260,,,1.173,688.2380425000447,688.5864968000096,688.6031617000117,688.8858021000051,688.9024925000267,None,up,688.9024925000267,None,688.9024925000267,690.0517359000514,0.06089429999701679,None,2.18278840003768,,,,,,,,,14,001,2019_Dec_25_1022,untitled,3.1.0,60.348755464806274,
_,_5,M,90,_,_,__5M090__,N,0,195,195,42,,,0.727,691.1525087000336,691.500329100003,691.5170101000112,691.8004326000228,691.8168137000175,None,down,691.8168137000175,None,691.8168137000175,692.5326878000051,0.06034760002512485,None,2.0838733999989927,,,,,,,,,14,001,2019_Dec_25_1022,untitled,3.1.0,60.348755464806274,
228,G,N,135,L,N,228GN135LN,HLN,0,196,196,235,,,1.207,693.9912781000021,694.3146311000455,694.3313215000089,694.6144695000257,694.6310187000199,None,up,694.6310187000199,None,694.6310187000199,695.8297433000407,0.08206610003253445,None,2.2501408000243828,,,,,,,,,14,001,2019_Dec_25_1022,untitled,3.1.0,60.348755464806274,
393,_4,M,0,R,N,393_4M000RN,HRN,0,197,197,160,,,0.921,696.962751300016,697.2953181000194,697.3118205000064,697.5954618999967,697.611870200024,None,down,697.611870200024,None,697.611870200024,698.5109767999966,0.07250110001768917,None,2.1829851000220515,,,,,,,,,14,001,2019_Dec_25_1022,untitled,3.1.0,60.348755464806274,
_,_5,N,0,_,_,__5N000__,N,0,198,198,88,,,0.751,699.8811685999972,700.2092265000101,700.2265672000358,700.5103881000541,700.5260416000383,None,up,700.5260416000383,None,700.5260416000383,701.2591528000194,0.07650019996799529,None,1.582116200006567,,,,,,,,,14,001,2019_Dec_25_1022,untitled,3.1.0,60.348755464806274,
_,F,N,0,_,_,_FN000__,N,0,199,199,48,,,1.1480000000000001,702.1790320000146,702.5241738000186,702.541197100014,702.8239513000008,702.8404839000432,None,up,702.8404839000432,None,702.8404839000432,703.9727699000505,0.06258749996777624,None,1.8836419000290334,,,,,,,,,14,001,2019_Dec_25_1022,untitled,3.1.0,60.348755464806274,
_,G,M,90,_,_,_GM090__,N,0,200,200,10,,,1.208,704.8117535000201,705.1385853000102,705.1551181000541,705.4383314000443,705.4551140000112,None,down,705.4551140000112,None,705.4551140000112,706.6558278000448,0.07970020000357181,None,1.9989217999973334,,,,,,,,,14,001,2019_Dec_25_1022,untitled,3.1.0,60.348755464806274,
_,_4,N,225,_,_,__4N225__,N,0,201,201,85,,,1.077,707.5221714000218,707.8703591000522,707.8862662000465,708.1692205000436,708.1859002000419,None,down,708.1859002000419,None,708.1859002000419,709.2516615000204,0.060930299980100244,None,2.2819676999934018,,,,,,,,,14,001,2019_Dec_25_1022,untitled,3.1.0,60.348755464806274,
198,G,N,225,R,N,198GN225RN,HRN,0,202,202,229,,,1.333,710.5351210000226,710.8833547999966,710.9001195000019,711.183164200047,711.1996472000028,None,up,711.1996472000028,None,711.1996472000028,712.5154612000333,0.06047269998816773,None,2.0655491999932565,,,,,,,,,14,001,2019_Dec_25_1022,untitled,3.1.0,60.348755464806274,
_,_2,M,270,_,_,__2M270__,N,0,203,203,30,,,0.769,713.3334599000518,713.6810181000037,713.6978650000528,713.9809036000515,713.9977152000065,None,down,713.9977152000065,None,713.9977152000065,714.7467618000228,0.06122569995932281,None,2.1167185999802314,,,,,,,,,14,001,2019_Dec_25_1022,untitled,3.1.0,60.348755464806274,
205,G,M,180,R,N,205GM180RN,HRN,0,204,204,132,,,1.3920000000000001,716.1944303000346,716.528822000022,716.5452174000093,716.8281312000472,716.844683400006,None,down,716.844683400006,None,716.844683400006,718.2268952000304,0.07050030003301799,None,2.369624700048007,,,,,,,,,14,001,2019_Dec_25_1022,untitled,3.1.0,60.348755464806274,
_,R,N,270,_,_,_RN270__,N,0,205,205,70,,,0.768,719.3446463000146,719.6425660000532,719.6425660000532,719.9259191000019,719.9423750000424,None,up,719.9423750000424,None,719.9423750000424,720.7083863000153,0.11896370002068579,None,1.6654997000005096,,,,,,,,,14,001,2019_Dec_25_1022,untitled,3.1.0,60.348755464806274,
_,G,M,135,_,_,_GM135__,N,0,206,206,11,,,0.871,721.6818721000454,722.0241810000152,722.0403506000293,722.3236397000146,722.3402010000427,None,down,722.3402010000427,None,722.3402010000427,723.1893044000026,0.06631289998767897,None,2.1668287999927998,,,,,,,,,14,001,2019_Dec_25_1022,untitled,3.1.0,60.348755464806274,
001,R,N,0,R,N,001RN000RN,HRN,0,207,207,192,,,0.896,724.5744435000233,724.921175400028,724.9384057000279,725.221280400001,725.2376213000389,None,up,725.2376213000389,None,725.2376213000389,726.1200670000399,0.06071200000587851,None,1.9485102000180632,,,,,,,,,14,001,2019_Dec_25_1022,untitled,3.1.0,60.348755464806274,
239,G,M,270,L,N,239GM270LN,HLN,0,208,208,142,,,0.988,727.2598929000087,727.6021941000363,727.6188945000176,727.9026561000501,727.919073600031,None,down,727.919073600031,None,727.919073600031,728.884258200007,0.06537859997479245,None,2.0817203000187874,,,,,,,,,14,001,2019_Dec_25_1022,untitled,3.1.0,60.348755464806274,
041,R,M,0,L,N,041RM000LN,HLN,0,209,209,104,,,1.2550000000000001,730.0708985000383,730.4167858000146,730.4341147000086,730.7164797000005,730.7329255000222,None,down,730.7329255000222,None,730.7329255000222,731.9647887000465,0.06325569999171421,None,2.2318938999669626,,,,,,,,,14,001,2019_Dec_25_1022,untitled,3.1.0,60.348755464806274,
455,_5,N,270,R,N,455_5N270RN,HRN,0,210,210,278,,,0.871,733.0345462000114,733.3810131000355,733.3974419000442,733.6803812000435,733.6970065000351,None,up,733.6970065000351,None,733.6970065000351,734.545832200034,0.06302589998813346,None,1.8494336000294425,,,,,,,,,14,001,2019_Dec_25_1022,untitled,3.1.0,60.348755464806274,
_,_5,M,45,_,_,__5M045__,N,0,211,211,41,,,1.066,735.6224863000098,735.9614414000534,735.9788477999973,736.2617729000049,736.2774922000244,None,up,736.2774922000244,None,736.2774922000244,737.3269195000175,0.06830410001566634,None,2.0655323999817483,,,,,,,,,14,001,2019_Dec_25_1022,untitled,3.1.0,60.348755464806274,
272,_2,M,315,R,N,272_2M315RN,HRN,0,212,212,151,,,0.725,738.4150247000507,738.7588052000501,738.776605800027,739.0585046000197,739.0755456000334,None,down,739.0755456000334,None,739.0755456000334,739.7750133000081,0.06542150001041591,None,2.2333680000156164,,,,,,,,,14,001,2019_Dec_25_1022,untitled,3.1.0,60.348755464806274,
_,_4,N,45,_,_,__4N045__,N,0,213,213,81,,,1.014,741.4103008000529,741.7230625000084,741.7392656000447,742.0225728000514,742.0391324000084,None,up,742.0391324000084,None,742.0391324000084,743.0383593000006,0.06818870001006871,None,2.049063100013882,,,,,,,,,14,001,2019_Dec_25_1022,untitled,3.1.0,60.348755464806274,
_,_4,M,180,_,_,__4M180__,N,0,214,214,36,,,1.096,744.1604662000318,744.5040543000214,744.5217995000421,744.8035217000288,744.821029600047,None,down,744.821029600047,None,744.821029600047,745.9024073000182,0.0649750999873504,None,2.864545500022359,,,,,,,,,14,001,2019_Dec_25_1022,untitled,3.1.0,60.348755464806274,
006,R,N,225,R,N,006RN225RN,HRN,0,215,215,197,,,0.979,747.7577875000425,748.1003288000356,748.1173537000432,748.4014891000115,748.4173391000368,None,up,748.4173391000368,None,748.4173391000368,749.3830554000451,0.06431799998972565,None,1.9338582000345923,,,,,,,,,14,001,2019_Dec_25_1022,untitled,3.1.0,60.348755464806274,
135,F,N,270,R,N,135FN270RN,HRN,0,216,216,214,,,0.716,750.4344464000314,750.7658602000447,750.7825670000166,751.0654069000157,751.0819190000184,None,up,751.0819190000184,None,751.0819190000184,751.7808326000231,0.07595650001894683,None,1.4325969999772497,,,,,,,,,14,001,2019_Dec_25_1022,untitled,3.1.0,60.348755464806274,
004,R,N,135,R,N,004RN135RN,HRN,0,217,217,195,,,0.737,752.5858810000354,752.9300339000183,752.9467035999987,753.2295286000008,753.2463792000199,None,up,753.2463792000199,None,753.2463792000199,753.9624506999971,0.06458310002926737,None,1.8159530999837443,,,,,,,,,14,001,2019_Dec_25_1022,untitled,3.1.0,60.348755464806274,
_,_4,M,225,_,_,__4M225__,N,0,218,218,37,,,0.795,755.1403915000265,755.4777900000336,755.4943978000083,755.7774882000522,755.794088900031,None,down,755.794088900031,None,755.794088900031,756.5769619000494,0.07024030003231019,None,2.898620399995707,,,,,,,,,14,001,2019_Dec_25_1022,untitled,3.1.0,60.348755464806274,
391,_4,N,270,R,N,391_4N270RN,HRN,0,219,219,262,,,0.808,758.7597756000469,759.1086040000082,759.1248407000094,759.4079027000116,759.4247938000481,None,up,759.4247938000481,None,759.4247938000481,760.2074843000155,0.05971020000288263,None,1.615542900050059,,,,,,,,,14,001,2019_Dec_25_1022,untitled,3.1.0,60.348755464806274,
132,F,N,135,R,N,132FN135RN,HRN,0,220,220,211,,,1.045,761.1082262000418,761.4561298000044,761.4733498000423,761.7562120000366,761.7724664999987,None,up,761.7724664999987,None,761.7724664999987,762.8051900000428,0.061072300013620406,None,1.8154056000057608,,,,,,,,,14,001,2019_Dec_25_1022,untitled,3.1.0,60.348755464806274,
033,R,N,0,L,N,033RN000LN,HLN,0,221,221,200,,,1.331,763.6574719000491,764.0036990000517,764.0207190000219,764.3038246000069,764.3202109000413,None,up,764.3202109000413,None,764.3202109000413,765.6363141000038,0.06283229996915907,None,1.9331696000299416,,,,,,,,,14,001,2019_Dec_25_1022,untitled,3.1.0,60.348755464806274,
_,G,M,315,_,_,_GM315__,N,0,222,222,15,,,1.243,766.3221441000351,766.6682390000205,766.6844780000392,766.9685636000358,766.984414400009,None,down,766.984414400009,None,766.984414400009,768.2164483000524,0.06101860001217574,None,2.2485087999957614,,,,,,,,,14,001,2019_Dec_25_1022,untitled,3.1.0,60.348755464806274,
174,F,M,225,L,N,174FM225LN,HLN,0,223,223,125,,,1.336,769.3052360000438,769.6491867000004,769.6655836999998,769.9486058000475,769.9651706000441,None,down,769.9651706000441,None,769.9651706000441,771.2807696000091,0.0637847000034526,None,2.266796800016891,,,,,,,,,14,001,2019_Dec_25_1022,untitled,3.1.0,60.348755464806274,
_,_5,M,135,_,_,__5M135__,N,0,224,224,43,,,1.252,772.340357500012,772.6463923000265,772.6639604000375,772.9463005000143,772.9636793000391,None,up,772.9636793000391,None,772.9636793000391,774.1948240000056,0.09457860002294183,None,2.347390600014478,,,,,,,,,14,001,2019_Dec_25_1022,untitled,3.1.0,60.348755464806274,
267,_2,M,90,R,N,267_2M090RN,HRN,0,225,225,146,,,0.996,775.3806985000265,775.727796000021,775.7436429000227,776.0273841000162,776.043727900018,None,down,776.043727900018,None,776.043727900018,777.0266534000402,0.062434300023596734,None,2.9499141999986023,,,,,,,,,14,001,2019_Dec_25_1022,untitled,3.1.0,60.348755464806274,
165,F,N,180,L,N,165FN180LN,HLN,0,226,226,220,,,1.3980000000000001,779.071316800022,779.4074104000465,779.4239442000398,779.7064665000071,779.7231107000262,None,up,779.7231107000262,None,779.7231107000262,781.1061822000192,0.06869880005251616,None,2.250628100009635,,,,,,,,,14,001,2019_Dec_25_1022,untitled,3.1.0,60.348755464806274,
_,R,N,225,_,_,_RN225__,N,0,227,227,69,,,1.105,782.0466904000496,782.3880197000108,782.4048099000356,782.6882354000118,782.705134900054,None,up,782.705134900054,None,782.705134900054,783.7864245000528,0.06606330000795424,None,1.8486131000099704,,,,,,,,,14,001,2019_Dec_25_1022,untitled,3.1.0,60.348755464806274,
257,_2,N,0,R,N,257_2N000RN,HRN,0,228,228,240,,,1.313,784.6219602000201,784.9691643000115,784.9855965000461,785.2683539999998,785.285149400006,None,up,785.285149400006,None,785.285149400006,786.5852853000397,0.0609485000022687,None,2.267318799975328,,,,,,,,,14,001,2019_Dec_25_1022,untitled,3.1.0,60.348755464806274,
291,_2,N,90,L,N,291_2N090LN,HLN,0,229,229,250,,,0.966,787.6211361000314,787.9663286000141,787.9830636000261,788.2659226999967,788.2826316000428,None,up,788.2826316000428,None,788.2826316000428,789.2328908000491,0.06188370002200827,None,1.60130839998601,,,,,,,,,14,001,2019_Dec_25_1022,untitled,3.1.0,60.348755464806274,
_,_5,M,180,_,_,__5M180__,N,0,230,230,44,,,1.393,789.9656171000097,790.2979150000028,790.3143378000241,790.5976703000488,790.6141121000401,None,down,790.6141121000401,None,790.6141121000401,791.9957816000096,0.07242949999636039,None,3.097621499968227,,,,,,,,,14,001,2019_Dec_25_1022,untitled,3.1.0,60.348755464806274,
492,_5,M,135,L,N,492_5M135LN,HLN,0,231,231,187,,,0.71,793.7803621000494,794.1280430000043,794.1443299000384,794.4280681000091,794.4441979000112,None,down,794.4441979000112,None,794.4441979000112,795.1434443000471,0.06200030003674328,None,3.01608380000107,,,,,,,,,14,001,2019_Dec_25_1022,untitled,3.1.0,60.348755464806274,
258,_2,N,45,R,N,258_2N045RN,HRN,0,232,232,241,,,1.141,797.5275115999975,797.8744241000386,797.8910923000076,798.1736569000059,798.1902518999996,None,up,798.1902518999996,None,798.1902518999996,799.3232921000454,0.0604394999681972,None,1.8338317000307143,,,,,,,,,14,001,2019_Dec_25_1022,untitled,3.1.0,60.348755464806274,
_,_5,M,225,_,_,__5M225__,N,0,233,233,45,,,1.211,800.1147860000492,800.4391124999966,800.4556670000311,800.7385506000137,800.7559834000422,None,down,800.7559834000422,None,800.7559834000422,801.9541949999984,0.08030400000279769,None,2.7308801999897696,,,,,,,,,14,001,2019_Dec_25_1022,untitled,3.1.0,60.348755464806274,
231,G,N,270,L,N,231GN270LN,HLN,0,234,234,238,,,1.344,803.5727574000484,803.9036922000232,803.9194124000496,804.201992700051,804.219027300016,None,up,804.219027300016,None,804.219027300016,805.551298800041,0.07779279997339472,None,2.249388900003396,,,,,,,,,14,001,2019_Dec_25_1022,untitled,3.1.0,60.348755464806274,
169,F,M,0,L,N,169FM000LN,HLN,0,235,235,120,,,1.061,806.5375885000103,806.8844702000497,806.8999876000453,807.1838921000017,807.1999601999996,None,down,807.1999601999996,None,807.1999601999996,808.2485609000432,0.06154000002425164,None,2.315213199995924,,,,,,,,,14,001,2019_Dec_25_1022,untitled,3.1.0,60.348755464806274,
_,R,M,45,_,_,_RM045__,N,0,236,236,17,,,0.968,809.5823464000132,809.9302561000222,809.9483477000031,810.2304369000485,810.2468433000031,None,down,810.2468433000031,None,810.2468433000031,811.196039500006,0.06032089999644086,None,1.9675095000420697,,,,,,,,,14,001,2019_Dec_25_1022,untitled,3.1.0,60.348755464806274,
_,R,M,225,_,_,_RM225__,N,0,237,237,21,,,0.987,812.2824017000385,812.6281484000501,812.6450859000324,812.9283547000377,812.9452340000425,None,down,812.9452340000425,None,812.9452340000425,813.9106285000453,0.06108539999695495,None,2.53249670000514,,,,,,,,,14,001,2019_Dec_25_1022,untitled,3.1.0,60.348755464806274,
396,_4,M,135,R,N,396_4M135RN,HRN,0,238,238,163,,,1.145,815.5547427000129,815.8919161000522,815.9086651999969,816.1916900000069,816.2090012000408,None,down,816.2090012000408,None,816.2090012000408,817.3405402000062,0.06963310000719503,None,3.3639428000315093,,,,,,,,,14,001,2019_Dec_25_1022,untitled,3.1.0,60.348755464806274,
161,F,N,0,L,N,161FN000LN,HLN,0,239,239,216,,,1.201,819.6408150000498,819.9885521000251,820.0051747999969,820.2882468000171,820.3050069000456,None,up,820.3050069000456,None,820.3050069000456,821.4866167000146,0.06030990002909675,None,1.7822412999812514,,,,,,,,,14,001,2019_Dec_25_1022,untitled,3.1.0,60.348755464806274,
_,F,M,90,_,_,_FM090__,N,0,240,240,2,,,1.256,822.1586809,822.5022161000525,822.5188813999994,822.8026718000183,822.8189863000298,None,down,822.8189863000298,None,822.8189863000298,824.051800700021,0.06388089997926727,None,2.2508142000297084,,,,,,,,,14,001,2019_Dec_25_1022,untitled,3.1.0,60.348755464806274,
_,_4,M,90,_,_,__4M090__,N,0,241,241,34,,,0.981,825.1481099000084,825.4833622000297,825.500283500005,825.7832054000464,825.8001086000004,None,down,825.8001086000004,None,825.8001086000004,826.765835200029,0.06971499999053776,None,2.8819825000246055,,,,,,,,,14,001,2019_Dec_25_1022,untitled,3.1.0,60.348755464806274,
_,_2,N,0,_,_,__2N000__,N,0,242,242,72,,,0.966,828.7485242999974,829.0970234000124,829.113955400011,829.3971222999971,829.4137812000117,None,up,829.4137812000117,None,829.4137812000117,830.3633342999965,0.059122500009834766,None,1.9606462999945506,,,,,,,,,14,001,2019_Dec_25_1022,untitled,3.1.0,60.348755464806274,
_,G,N,225,_,_,_GN225__,N,0,243,243,61,,,0.877,831.4417971000075,831.7950534000411,831.7950534000411,832.0951723000035,832.0951723000035,None,up,832.0951723000035,None,832.0951723000035,832.9615104999975,0.060488599992822856,None,1.7158615000080317,,,,,,,,,14,001,2019_Dec_25_1022,untitled,3.1.0,60.348755464806274,
011,R,M,90,R,N,011RM090RN,HRN,0,244,244,98,,,1.3980000000000001,833.8803210000042,834.2261567000533,834.2426772000035,834.5259734000429,834.5428238000022,None,up,834.5428238000022,None,834.5428238000022,835.924459700007,0.06198420003056526,None,2.314430899976287,,,,,,,,,14,001,2019_Dec_25_1022,untitled,3.1.0,60.348755464806274,
142,F,M,225,R,N,142FM225RN,HRN,0,245,245,117,,,0.847,836.9266899000504,837.2733372000512,837.289933400054,837.5727230000193,837.5895739000407,None,down,837.5895739000407,None,837.5895739000407,838.42276700004,0.06188100000144914,None,1.9186271000071429,,,,,,,,,14,001,2019_Dec_25_1022,untitled,3.1.0,60.348755464806274,
134,F,N,225,R,N,134FN225RN,HRN,0,246,246,213,,,0.86,839.5752352999989,839.9210123000084,839.9374384999974,840.2210886999965,840.2375683000428,None,up,840.2375683000428,None,840.2375683000428,841.0864263999974,0.060230800008866936,None,1.769397400028538,,,,,,,,,14,001,2019_Dec_25_1022,untitled,3.1.0,60.348755464806274,
170,F,M,45,L,N,170FM045LN,HLN,0,247,247,121,,,1.218,842.0984304000158,842.4185291000176,842.43666940002,842.7189277000143,842.7354906999972,None,down,842.7354906999972,None,842.7354906999972,843.9339543000096,0.08180250000441447,None,2.1670944000361487,,,,,,,,,14,001,2019_Dec_25_1022,untitled,3.1.0,60.348755464806274,
_,R,N,90,_,_,_RN090__,N,0,248,248,66,,,1.232,844.982000900025,845.3164294000017,845.3330505000195,845.6157187000499,845.6328964999993,None,up,845.6328964999993,None,845.6328964999993,846.8480727000278,0.0709394000004977,None,2.1158500000019558,,,,,,,,,14,001,2019_Dec_25_1022,untitled,3.1.0,60.348755464806274,
483,_5,N,90,L,N,483_5N090LN,HLN,0,249,249,282,,,0.802,847.8176393000176,848.16419640003,848.1806759000174,848.4640061000246,848.4806753000012,None,up,848.4806753000012,None,848.4806753000012,849.2631109000067,0.062088900012895465,None,1.798291299957782,,,,,,,,,14,001,2019_Dec_25_1022,untitled,3.1.0,60.348755464806274,
225,G,N,0,L,N,225GN000LN,HLN,0,250,250,232,,,1.157,850.3514028000063,850.6951682000072,850.711778900004,850.994772200007,851.0113324000267,None,up,851.0113324000267,None,851.0113324000267,852.1444057000335,0.06481019995408133,None,1.8680424999911338,,,,,,,,,14,001,2019_Dec_25_1022,untitled,3.1.0,60.348755464806274,
_,_4,M,0,_,_,__4M000__,N,0,251,251,32,,,0.996,852.9479362000129,853.2927299000439,853.309548600053,853.5929334000102,853.6092377000023,None,down,853.6092377000023,None,853.6092377000023,854.5919126000372,0.0622021000017412,None,2.0152523000142537,,,,,,,,,14,001,2019_Dec_25_1022,untitled,3.1.0,60.348755464806274,
484,_5,N,135,L,N,484_5N135LN,HLN,0,252,252,283,,,1.131,855.7114154000301,856.0412834000308,856.0565171000198,856.3403199000168,856.3568423000397,None,up,856.3568423000397,None,856.3568423000397,857.4723094000365,0.07838209997862577,None,2.031587000004947,,,,,,,,,14,001,2019_Dec_25_1022,untitled,3.1.0,60.348755464806274,
_,_5,N,270,_,_,__5N270__,N,0,253,253,94,,,1.347,858.4593142000376,858.8046443000203,858.8219600000302,859.1056080000126,859.1209131000214,None,up,859.1209131000214,None,859.1209131000214,860.4527521000127,0.06366410001646727,None,1.998461600043811,,,,,,,,,14,001,2019_Dec_25_1022,untitled,3.1.0,60.348755464806274,
462,_5,M,225,R,N,462_5M225RN,HRN,0,254,254,181,,,1.361,861.1982193000149,861.535703600035,861.5523349000141,861.8351729999995,861.8523391000344,None,up,861.8523391000344,None,861.8523391000344,863.2007819000282,0.07076450000749901,None,1.9524552999646403,,,,,,,,,14,001,2019_Dec_25_1022,untitled,3.1.0,60.348755464806274,
_,_5,N,315,_,_,__5N315__,N,0,255,255,95,,,0.7020000000000001,863.8882589000277,864.2162327000406,864.2329242000123,864.5159381999983,864.5328242999967,None,up,864.5328242999967,None,864.5328242999967,865.2158370000543,0.07458040001802146,None,1.9165302999899723,,,,,,,,,14,001,2019_Dec_25_1022,untitled,3.1.0,60.348755464806274,
399,_4,M,270,R,N,399_4M270RN,HRN,0,256,256,166,,,1.234,866.5250407000422,866.866585300013,866.8824983000522,867.164523000014,867.1816079000128,None,down,867.1816079000128,None,867.1816079000128,868.397838200035,0.06899750005686656,None,2.6640345999621786,,,,,,,,,14,001,2019_Dec_25_1022,untitled,3.1.0,60.348755464806274,
172,F,M,135,L,N,172FM135LN,HLN,0,257,257,123,,,1.1440000000000001,869.9148716000491,870.2613129000529,870.2780910000438,870.5609844000428,870.5776195000508,None,down,870.5776195000508,None,870.5776195000508,871.7099571000435,0.06129730003885925,None,3.08319209999172,,,,,,,,,14,001,2019_Dec_25_1022,untitled,3.1.0,60.348755464806274,
430,_4,M,225,L,N,430_4M225LN,HLN,0,258,258,173,,,1.324,873.7297313000308,874.0755024000537,874.0912875000504,874.3743726000539,874.3919743000297,None,down,874.3919743000297,None,874.3919743000297,875.706332700036,0.06216209998819977,None,2.6968582999543287,,,,,,,,,14,001,2019_Dec_25_1022,untitled,3.1.0,60.348755464806274,
458,_5,M,45,R,N,458_5M045RN,HRN,0,259,259,177,,,1.161,877.1558344000368,877.5050486000255,877.52205280005,877.8060317000491,877.8217005000333,None,down,877.8217005000333,None,877.8217005000333,878.970725000021,0.059918199956882745,None,3.182846400013659,,,,,,,,,14,001,2019_Dec_25_1022,untitled,3.1.0,60.348755464806274,
_,F,M,315,_,_,_FM315__,N,0,260,260,7,,,1.133,881.0710241000052,881.4182802000432,881.4350392000051,881.7178873000084,881.7345670000068,None,down,881.7345670000068,None,881.7345670000068,882.8502811000217,0.0597321999957785,None,2.7148020999738947,,,,,,,,,14,001,2019_Dec_25_1022,untitled,3.1.0,60.348755464806274,
035,R,N,90,L,N,035RN090LN,HLN,0,261,261,202,,,1.07,884.5185859000194,884.8653706000187,884.8822065000422,885.1644894000492,885.1820291000186,None,up,885.1820291000186,None,885.1820291000186,886.2305256000254,0.06250200001522899,None,1.8650947999558412,,,,,,,,,14,001,2019_Dec_25_1022,untitled,3.1.0,60.348755464806274,
129,F,N,0,R,N,129FN000RN,HRN,0,262,262,208,,,0.9530000000000001,887.1154490000335,887.4635023000301,887.4800680000335,887.7633707000059,887.7791807000176,None,down,887.7791807000176,None,887.7791807000176,888.7115740000154,0.06148039997788146,None,2.0493194999871776,,,,,,,,,14,001,2019_Dec_25_1022,untitled,3.1.0,60.348755464806274,
232,G,N,315,L,N,232GN315LN,HLN,0,263,263,239,,,1.278,889.9021742000477,890.2442086000228,890.260703500011,890.5438039000146,890.5603606000077,None,up,890.5603606000077,None,890.5603606000077,891.82581140002,0.06698979996144772,None,2.331540299986955,,,,,,,,,14,001,2019_Dec_25_1022,untitled,3.1.0,60.348755464806274,
299,_2,M,90,L,N,299_2M090LN,HLN,0,264,264,154,,,1.216,892.9622205000487,893.307697100041,893.3244880000129,893.6080332000274,893.6243086000322,None,down,893.6243086000322,None,893.6243086000322,894.823716200015,0.062288800021633506,None,3.432509400008712,,,,,,,,,14,001,2019_Dec_25_1022,untitled,3.1.0,60.348755464806274,
464,_5,M,315,R,N,464_5M315RN,HRN,0,265,265,183,,,1.222,897.1240270000417,897.4711505000014,897.4872622000403,897.7706242999993,897.7874564000522,None,down,897.7874564000522,None,897.7874564000522,898.9865914999973,0.06044219998875633,None,3.148170200001914,,,,,,,,,14,001,2019_Dec_25_1022,untitled,3.1.0,60.348755464806274,
486,_5,N,225,L,N,486_5N225LN,HLN,0,266,266,285,,,1.365,901.0056370000239,901.3838449000032,901.3838449000032,901.6504655000172,901.6670763000147,None,up,901.6670763000147,None,901.6670763000147,903.0159053000389,0.06343290000222623,None,2.481885399960447,,,,,,,,,14,001,2019_Dec_25_1022,untitled,3.1.0,60.348755464806274,
_,_2,M,135,_,_,__2M135__,N,0,267,267,27,,,0.876,904.2165668000234,904.5648259000154,904.5817420000094,904.8646211000159,904.8813442000537,None,down,904.8813442000537,None,904.8813442000537,905.7304405000177,0.06100190000142902,None,2.3316946999984793,,,,,,,,,14,001,2019_Dec_25_1022,untitled,3.1.0,60.348755464806274,
130,F,N,45,R,N,130FN045RN,HRN,0,268,268,209,,,0.864,907.2884448000113,907.6289134000544,907.6454961000127,907.928640099999,907.9451210999978,None,up,907.9451210999978,None,907.9451210999978,908.7943889000453,0.06794530001934618,None,1.7182693000067957,,,,,,,,,14,001,2019_Dec_25_1022,untitled,3.1.0,60.348755464806274,
268,_2,M,135,R,N,268_2M135RN,HRN,0,269,269,147,,,1.237,909.7320754000102,910.0767792999977,910.0934441999998,910.3766823000042,910.3934355000383,None,down,910.3934355000383,None,910.3934355000383,911.6084819000098,0.06160100002307445,None,2.633507599995937,,,,,,,,,14,001,2019_Dec_25_1022,untitled,3.1.0,60.348755464806274,
421,_4,N,180,L,N,421_4N180LN,HLN,0,270,270,268,,,0.988,913.1009695000248,913.4405695000314,913.4591345000081,913.7403784000198,913.7571182000102,None,up,913.7571182000102,None,913.7571182000102,914.7227156000445,0.0672286000335589,None,2.3984036999754608,,,,,,,,,14,001,2019_Dec_25_1022,untitled,3.1.0,60.348755464806274,
047,R,M,270,L,N,047RM270LN,HLN,0,271,271,110,,,0.964,916.2254605000489,916.5706031000009,916.5876489000511,916.8708114000037,916.8875988000073,None,down,916.8875988000073,None,916.8875988000073,917.8365410999977,0.06300830002874136,None,2.2169182999641635,,,,,,,,,14,001,2019_Dec_25_1022,untitled,3.1.0,60.348755464806274,
_,F,M,225,_,_,_FM225__,N,0,272,272,5,,,0.92,919.1724212000263,919.5187347000465,919.5349652000004,919.8182635999983,919.8351267000544,None,down,919.8351267000544,None,919.8351267000544,920.7339670000365,0.061325799964834005,None,2.9309350000112318,,,,,,,,,14,001,2019_Dec_25_1022,untitled,3.1.0,60.348755464806274,
485,_5,N,180,L,N,485_5N180LN,HLN,0,273,273,284,,,1.232,922.8339724999969,923.1817939000321,923.1995022000046,923.4822912000236,923.4984295000322,None,up,923.4984295000322,None,923.4984295000322,924.7139746000175,0.06089830002747476,None,2.781214100017678,,,,,,,,,14,001,2019_Dec_25_1022,untitled,3.1.0,60.348755464806274,
_,_2,N,180,_,_,__2N180__,N,0,274,274,76,,,0.751,926.3468172000139,926.6970622000517,926.7120125000365,926.9951233000029,927.0118390000425,None,up,927.0118390000425,None,927.0118390000425,927.7452740000444,0.06029570003738627,None,1.918206000002101,,,,,,,,,14,001,2019_Dec_25_1022,untitled,3.1.0,60.348755464806274,
042,R,M,45,L,N,042RM045LN,HLN,0,275,275,105,,,1.28,929.0000012000091,929.3432645000285,929.3599454000359,929.6432136000367,929.6598758000182,None,down,929.6598758000182,None,929.6598758000182,930.9256274000509,0.0635113000171259,None,2.714615600008983,,,,,,,,,14,001,2019_Dec_25_1022,untitled,3.1.0,60.348755464806274,
137,F,M,0,R,N,137FM000RN,HRN,0,276,276,112,,,1.135,932.4413711000234,932.79023100005,932.8069488000474,933.0894964000327,933.1061496000038,None,down,933.1061496000038,None,933.1061496000038,934.2222517000046,0.05995470000198111,None,2.7000727999839,,,,,,,,,14,001,2019_Dec_25_1022,untitled,3.1.0,60.348755464806274,
397,_4,M,180,R,N,397_4M180RN,HRN,0,277,277,164,,,0.888,935.8765797000378,936.2204578000237,936.2372818000149,936.5198563000304,936.5370554000256,None,up,936.5370554000256,None,936.5370554000256,937.4024540000246,0.06299020000733435,None,2.765933300019242,,,,,,,,,14,001,2019_Dec_25_1022,untitled,3.1.0,60.348755464806274,
166,F,N,225,L,N,166FN225LN,HLN,0,278,278,221,,,0.8,939.3718532000203,939.716967400047,939.7342894000467,940.0176108000451,940.0340886000195,None,up,940.0340886000195,None,940.0340886000195,940.8174150999985,0.0609171999967657,None,1.7865887000225484,,,,,,,,,14,001,2019_Dec_25_1022,untitled,3.1.0,60.348755464806274,
048,R,M,315,L,N,048RM315LN,HLN,0,279,279,111,,,1.024,941.9212172999978,942.2316485000192,942.2487810000312,942.5314978000242,942.5482116000494,None,down,942.5482116000494,None,942.5482116000494,943.5639211000525,0.08952490001684055,None,2.065950999967754,,,,,,,,,14,001,2019_Dec_25_1022,untitled,3.1.0,60.348755464806274,
_,F,M,135,_,_,_FM135__,N,0,280,280,3,,,0.724,944.6809048000141,945.0303297000355,945.0464549000026,945.3295519000385,945.3463805000065,None,up,945.3463805000065,None,945.3463805000065,946.04542150005,0.05950470000971109,None,1.9986749000381678,,,,,,,,,14,001,2019_Dec_25_1022,untitled,3.1.0,60.348755464806274,
_,G,N,135,_,_,_GN135__,N,0,281,281,59,,,0.806,947.4137628000462,947.7608976000338,947.777686800051,948.0600804000278,948.0767615000368,None,up,948.0767615000368,None,948.0767615000368,948.8592980999965,0.06230630003847182,None,2.249314900022,,,,,,,,,14,001,2019_Dec_25_1022,untitled,3.1.0,60.348755464806274,
_,F,M,180,_,_,_FM180__,N,0,282,282,4,,,1.377,950.400260400027,950.7414631000138,950.7582928000484,951.0406414000317,951.0571952000028,None,down,951.0571952000028,None,951.0571952000028,952.4231377000106,0.06699540000408888,None,2.798315600026399,,,,,,,,,14,001,2019_Dec_25_1022,untitled,3.1.0,60.348755464806274,
428,_4,M,135,L,N,428_4M135LN,HLN,0,283,283,171,,,0.966,953.9242089000181,954.2718938000035,954.2887257999973,954.5719706000527,954.5891675000312,None,down,954.5891675000312,None,954.5891675000312,955.5369374000002,0.06181719998130575,None,2.2643552999943495,,,,,,,,,14,001,2019_Dec_25_1022,untitled,3.1.0,60.348755464806274,
040,R,N,315,L,N,040RN315LN,HLN,0,284,284,207,,,0.811,956.92302690004,957.2690754000214,957.2858105000341,957.5685356000322,957.5859207000467,None,up,957.5859207000467,None,957.5859207000467,958.3847171000089,0.06233209994388744,None,1.800125100009609,,,,,,,,,14,001,2019_Dec_25_1022,untitled,3.1.0,60.348755464806274,
419,_4,N,90,L,N,419_4N090LN,HLN,0,285,285,266,,,1.299,959.4541555000469,959.7998557000537,959.8169438000186,960.1003134000348,960.116369299998,None,up,960.116369299998,None,960.116369299998,961.3991060000262,0.060879900003783405,None,2.3148659999715164,,,,,,,,,14,001,2019_Dec_25_1022,untitled,3.1.0,60.348755464806274,
490,_5,M,45,L,N,490_5M045LN,HLN,0,286,286,185,,,0.931,962.5007337999996,962.8472145000123,962.8640490000253,963.146594400052,963.1633222000091,None,down,963.1633222000091,None,963.1633222000091,964.079514800047,0.06231950002256781,None,2.166020500008017,,,,,,,,,14,001,2019_Dec_25_1022,untitled,3.1.0,60.348755464806274,
385,_4,N,0,R,N,385_4N000RN,HRN,0,287,287,256,,,0.704,965.4069743000437,965.7457263000542,965.761423900025,966.0446005000267,966.061456800031,None,up,966.061456800031,None,966.061456800031,966.7442676000064,0.06918649998260662,None,1.6839189000311308,,,,,,,,,14,001,2019_Dec_25_1022,untitled,3.1.0,60.348755464806274,
,,,,,,,,,,,,,,,,,,,,,,,,,,,,,967.7593558000517,None,974.537213500007,None,976.6687433000188,None,979.0497727000038,None,,,,,,,
