Number,Letter,type,Orientation,human,face_type,image,picture,trials.thisRepN,trials.thisTrialN,trials.thisN,trials.thisIndex,text.started,text.stopped,stimulus_duration,CROSS.started,CROSS.stopped,BLANK.started,BLANK.stopped,TEST.started,TEST.stopped,key_JUDGE.keys,key_JUDGE.started,key_JUDGE.stopped,image_2.started,image_2.stopped,ISI.started,ISI.stopped,key_JUDGE.rt,q1.started,q1.stopped,q2.started,q2.stopped,q3.started,q3.stopped,text_2.started,text_2.stopped,participant,session,date,expName,psychopyVersion,frameRate,
196,G,N,135,R,N,196GN135RN,HRN,0,0,0,227,130.0495169000351,None,1.3980000000000001,154.06689310004003,154.40409520000685,154.42096230003517,154.70381300000008,154.72032350004883,None,None,154.72032350004883,None,154.72032350004883,156.10264290001942,0.06755159999011084,None,,,,,,,,,,15,001,2019_Dec_25_1040,untitled,3.1.0,59.9586884701627,
_,F,M,45,_,_,_FM045__,N,0,1,1,1,,,1.393,158.28708209999604,158.63343660003738,158.64987560000736,158.9340266000363,158.94961040001363,158.28708209999604,down,158.94961040001363,None,158.94961040001363,160.3321190000279,0.06018869997933507,None,2.78238180000335,,,,,,,,,15,001,2019_Dec_25_1040,untitled,3.1.0,59.9586884701627,
301,_2,M,180,L,N,301_2M180LN,HLN,0,2,2,156,,,1.2570000000000001,161.80146760004573,162.14745190000394,162.16379670001334,162.44705980003346,162.46364100003848,None,None,162.46364100003848,None,162.46364100003848,163.69665030000033,0.06260160001693293,None,,,,,,,,,,15,001,2019_Dec_25_1040,untitled,3.1.0,59.9586884701627,
047,R,M,270,L,N,047RM270LN,HLN,0,3,3,110,,,1.041,165.99793569999747,166.34314840001753,166.36010600003647,166.64300080004614,166.65952839999227,165.99793569999747,down,166.65952839999227,None,166.65952839999227,167.67559590004385,0.06317529996158555,None,2.4989018000196666,,,,,,,,,15,001,2019_Dec_25_1040,untitled,3.1.0,59.9586884701627,
199,G,N,270,R,N,199GN270RN,HRN,0,4,4,230,,,1.289,169.22748210001737,169.57493460003752,169.59121149999555,169.87385890004225,169.89040370000293,None,None,169.89040370000293,None,169.89040370000293,171.15562630002387,0.06225660000927746,None,,,,,,,,,,15,001,2019_Dec_25_1040,untitled,3.1.0,59.9586884701627,
171,F,M,90,L,N,171FM090LN,HLN,0,5,5,122,,,1.057,173.42483670002548,173.77025639999192,173.786796600034,174.0704789000447,174.08696420001797,173.42483670002548,down,174.08696420001797,None,174.08696420001797,175.11903460003668,0.06321389996446669,None,2.466058099991642,,,,,,,,,15,001,2019_Dec_25_1040,untitled,3.1.0,59.9586884701627,
238,G,M,225,L,N,238GM225LN,HLN,0,6,6,141,,,1.193,176.62764130003052,176.96758019999834,176.9840270000277,177.26731820002897,177.28384160000132,None,down,177.28384160000132,None,177.28384160000132,178.46679180004867,0.06813089997740462,None,3.048268000013195,,,,,,,,,15,001,2019_Dec_25_1040,untitled,3.1.0,59.9586884701627,
390,_4,N,225,R,N,390_4N225RN,HRN,0,7,7,261,,,1.2610000000000001,180.40338820003672,180.74796840001363,180.7643029000028,181.0474807000137,181.06417560001137,None,down,181.06417560001137,None,181.06417560001137,182.31291900004726,0.06332940002903342,None,3.264380800013896,,,,,,,,,15,001,2019_Dec_25_1040,untitled,3.1.0,59.9586884701627,
386,_4,N,45,R,N,386_4N045RN,HRN,0,8,8,257,,,1.183,184.39798619999783,184.74414240004262,184.76229640003294,185.04411429999163,185.06091699999524,None,up,185.06091699999524,None,185.06091699999524,186.22610400000121,0.06257429998368025,None,2.5645321999909356,,,,,,,,,15,001,2019_Dec_25_1040,untitled,3.1.0,59.9586884701627,
392,_4,N,315,R,N,392_4N315RN,HRN,0,9,9,263,,,1.167,187.71463890001178,188.04295930004446,188.05850540002575,188.3409353000461,188.35795580002014,None,up,188.35795580002014,None,188.35795580002014,189.5069292000262,0.0803897999576293,None,2.150699300051201,,,,,,,,,15,001,2019_Dec_25_1040,untitled,3.1.0,59.9586884701627,
236,G,M,135,L,N,236GM135LN,HLN,0,10,10,139,,,1.049,190.57732750003925,190.92187280004146,190.93873550003627,191.22179219999816,191.23832440003753,None,None,191.23832440003753,None,191.23832440003753,192.27111680002417,0.06155179999768734,None,,,,,,,,,,15,001,2019_Dec_25_1040,untitled,3.1.0,59.9586884701627,
462,_5,M,225,R,N,462_5M225RN,HRN,0,11,11,181,,,0.767,194.7708024000167,195.11840209999355,195.13603530003456,195.41872080002213,195.4344214000157,194.7708024000167,None,195.4344214000157,None,195.4344214000157,196.18422819999978,0.06047140003647655,None,,,,,,,,,,15,001,2019_Dec_25_1040,untitled,3.1.0,59.9586884701627,
175,F,M,270,L,N,175FM270LN,HLN,0,12,12,126,,,1.21,198.97272459999658,199.3149887000327,199.33181480003987,199.61445480003022,199.63102540001273,198.97272459999658,down,199.63102540001273,None,199.63102540001273,200.8300572000444,0.06712449999758974,None,2.5983737999922596,,,,,,,,,15,001,2019_Dec_25_1040,untitled,3.1.0,59.9586884701627,
_,_2,M,315,_,_,__2M315__,N,0,13,13,31,,,0.906,202.29779850004707,202.64525200001663,202.66189760004636,202.94498020003084,202.96191489999183,None,down,202.96191489999183,None,202.96191489999183,203.84399000002304,0.06150549999438226,None,2.6481839999905787,,,,,,,,,15,001,2019_Dec_25_1040,untitled,3.1.0,59.9586884701627,
_,_2,N,45,_,_,__2N045__,N,0,14,14,73,,,0.908,205.6947125000297,206.02559410000686,206.04274800000712,206.32508560002316,206.34248520003166,None,up,206.34248520003166,None,206.34248520003166,207.24133170000277,0.07554250000976026,None,2.3148628000053577,,,,,,,,,15,001,2019_Dec_25_1040,untitled,3.1.0,59.9586884701627,
_,R,M,135,_,_,_RM135__,N,0,15,15,19,,,1.172,208.7252748000319,209.0730198000092,209.09058870002627,209.37243590003345,209.38898430002155,None,None,209.38898430002155,None,209.38898430002155,210.53841120004654,0.06127729994477704,None,,,,,,,,,,15,001,2019_Dec_25_1040,untitled,3.1.0,59.9586884701627,
235,G,M,90,L,N,235GM090LN,HLN,0,16,16,138,,,0.81,212.92370570002822,213.26999200001592,213.28571490000468,213.5694988000323,213.5858006000053,212.92370570002822,down,213.5858006000053,None,213.5858006000053,214.38476580003044,0.0630226000212133,None,2.3004190999781713,,,,,,,,,15,001,2019_Dec_25_1040,untitled,3.1.0,59.9586884701627,
170,F,M,45,L,N,170FM045LN,HLN,0,17,17,121,,,1.322,215.97570589999668,216.30007240001578,216.31738780002343,216.60009750002064,216.61629900004482,None,down,216.61629900004482,None,216.61629900004482,217.91531750001013,0.08099099999526516,None,3.080991199996788,,,,,,,,,15,001,2019_Dec_25_1040,untitled,3.1.0,59.9586884701627,
172,F,M,135,L,N,172FM135LN,HLN,0,18,18,123,,,0.909,219.77302110003075,220.11320150003303,220.1298646000214,220.41399170004297,220.43004150001798,None,down,220.43004150001798,None,220.43004150001798,221.31250300002284,0.0688044999842532,None,2.8973429999896325,,,,,,,,,15,001,2019_Dec_25_1040,untitled,3.1.0,59.9586884701627,
_,_4,N,135,_,_,__4N135__,N,0,19,19,83,,,1.319,223.40112819999922,223.74411880003754,223.76082650001626,224.0439255000092,224.0613792000222,None,up,224.0613792000222,None,224.0613792000222,225.35854119999567,0.06701539998175576,None,3.1477977000176907,,,,,,,,,15,001,2019_Dec_25_1040,untitled,3.1.0,59.9586884701627,
_,_5,N,270,_,_,__5N270__,N,0,20,20,94,,,1.1420000000000001,227.2945612000185,227.62423950002994,227.64009010000154,227.92356030002702,227.94050620001508,None,up,227.94050620001508,None,227.94050620001508,229.07215520000318,0.07751899998402223,None,2.4977382000070065,,,,,,,,,15,001,2019_Dec_25_1040,untitled,3.1.0,59.9586884701627,
141,F,M,180,R,N,141FM180RN,HRN,0,21,21,116,,,1.26,230.54042000003392,230.8539324000012,230.87075530004222,231.1539158000378,231.17013810004573,None,None,231.17013810004573,None,231.17013810004573,232.41970100003527,0.09516760002588853,None,,,,,,,,,,15,001,2019_Dec_25_1040,untitled,3.1.0,59.9586884701627,
_,F,N,90,_,_,_FN090__,N,0,22,22,50,,,0.8210000000000001,234.70961030002218,235.04992250003852,235.06689000001643,235.3502468999941,235.3667808000464,234.70961030002218,up,235.3667808000464,None,235.3667808000464,236.16586230002576,0.06757359998300672,None,1.6322446000413038,,,,,,,,,15,001,2019_Dec_25_1040,untitled,3.1.0,59.9586884701627,
257,_2,N,0,R,N,257_2N000RN,HRN,0,23,23,240,,,1.323,237.07796910003526,237.41472880000947,237.43129000003682,237.7144554000115,237.73093200003495,None,up,237.73093200003495,None,237.73093200003495,239.03080520004733,0.07093710004119202,None,2.7006973999668844,,,,,,,,,15,001,2019_Dec_25_1040,untitled,3.1.0,59.9586884701627,
451,_5,N,90,R,N,451_5N090RN,HRN,0,24,24,274,,,1.2530000000000001,240.5231035000179,240.84525290003512,240.86213389999466,241.14500840002438,241.16142459999537,None,up,241.16142459999537,None,241.16142459999537,242.39422200003173,0.08173340000212193,None,3.4144402999663725,,,,,,,,,15,001,2019_Dec_25_1040,untitled,3.1.0,59.9586884701627,
393,_4,M,0,R,N,393_4M000RN,HRN,0,25,25,160,,,0.724,244.64600170002086,244.99161060003098,245.00868660002016,245.29181450000033,245.30874730000505,None,down,245.30874730000505,None,245.30874730000505,246.0073207000387,0.06318169995211065,None,2.416183200024534,,,,,,,,,15,001,2019_Dec_25_1040,untitled,3.1.0,59.9586884701627,
_,R,N,0,_,_,_RN000__,N,0,26,26,64,,,1.226,247.79346830002032,248.13910920004128,248.15558780002175,248.43948560004355,248.45523970003705,None,up,248.45523970003705,None,248.45523970003705,249.67056160001084,0.06182770000305027,None,2.281877799949143,,,,,,,,,15,001,2019_Dec_25_1040,untitled,3.1.0,59.9586884701627,
202,G,M,45,R,N,202GM045RN,HRN,0,27,27,129,,,1.357,250.80454490002012,251.15288539999165,251.17070100002456,251.452706400014,251.47013249999145,None,down,251.47013249999145,None,251.47013249999145,252.80152159999125,0.06025239999871701,None,2.4648018999723718,,,,,,,,,15,001,2019_Dec_25_1040,untitled,3.1.0,59.9586884701627,
461,_5,M,180,R,N,461_5M180RN,HRN,0,28,28,180,,,1.085,254.01932540000416,254.3507524000015,254.36783240002114,254.65025820001028,254.6692294999957,None,up,254.6692294999957,None,254.6692294999957,255.73192500002915,0.0776280999998562,None,2.8117376000154763,,,,,,,,,15,001,2019_Dec_25_1040,untitled,3.1.0,59.9586884701627,
036,R,N,135,L,N,036RN135LN,HLN,0,29,29,203,,,1.345,257.56329540000297,257.89698880002834,257.91366320004454,258.1968190000043,258.2136885999935,None,up,258.2136885999935,None,258.2136885999935,259.54541510000126,0.0733959999633953,None,2.3648129000212066,,,,,,,,,15,001,2019_Dec_25_1040,untitled,3.1.0,59.9586884701627,
_,G,N,225,_,_,_GN225__,N,0,30,30,61,,,1.345,260.64806380000664,260.99544920003973,261.0109480000101,261.2948368000216,261.3108157000388,None,up,261.3108157000388,None,261.3108157000388,262.6424200000474,0.06272879999596626,None,2.616542100033257,,,,,,,,,15,001,2019_Dec_25_1040,untitled,3.1.0,59.9586884701627,
292,_2,N,135,L,N,292_2N135LN,HLN,0,31,31,251,,,0.7000000000000001,263.9963408000185,264.34175800002413,264.35813450004207,264.64310530002695,264.65875930001494,None,up,264.65875930001494,None,264.65875930001494,265.34022960002767,0.062278700002934784,None,2.39954840001883,,,,,,,,,15,001,2019_Dec_25_1040,untitled,3.1.0,59.9586884701627,
464,_5,M,315,R,N,464_5M315RN,HRN,0,32,32,183,,,1.385,267.1260617999942,267.4719887000392,267.4891365999938,267.7728866999969,267.7885018000379,None,down,267.7885018000379,None,267.7885018000379,269.1543013000046,0.06110140000237152,None,3.397642800002359,,,,,,,,,15,001,2019_Dec_25_1040,untitled,3.1.0,59.9586884701627,
232,G,N,315,L,N,232GN315LN,HLN,0,33,33,239,,,0.87,271.2530201000045,271.6027363000321,271.61846270004753,271.90220390004106,271.91803540004184,None,up,271.91803540004184,None,271.91803540004184,272.7675463000196,0.06016490003094077,None,2.8149074999964796,,,,,,,,,15,001,2019_Dec_25_1040,untitled,3.1.0,59.9586884701627,
_,R,M,90,_,_,_RM090__,N,0,34,34,18,,,1.094,274.81387600000016,275.14933800004655,275.16596330003813,275.44859949999955,275.46530440001516,None,down,275.46530440001516,None,275.46530440001516,276.5473984000273,0.0713370000012219,None,2.131501800031401,,,,,,,,,15,001,2019_Dec_25_1040,untitled,3.1.0,59.9586884701627,
421,_4,N,180,L,N,421_4N180LN,HLN,0,35,35,268,,,1.068,277.666818000027,278.0123343000305,278.0293210000382,278.31269260001136,278.32921260001604,None,up,278.32921260001604,None,278.32921260001604,279.378543000028,0.06320219999179244,None,3.38273080001818,,,,,,,,,15,001,2019_Dec_25_1040,untitled,3.1.0,59.9586884701627,
168,F,N,315,L,N,168FN315LN,HLN,0,36,36,223,,,1.094,281.80077259999234,282.12603690003743,282.142776600027,282.42679270001827,282.4434007999953,None,up,282.4434007999953,None,282.4434007999953,283.5250973000075,0.08068310003727674,None,2.3637723000138067,,,,,,,,,15,001,2019_Dec_25_1040,untitled,3.1.0,59.9586884701627,
193,G,N,0,R,N,193GN000RN,HRN,0,37,37,224,,,0.728,284.89182910003,285.22312830004375,285.2399721000111,285.52323430002434,285.5405218999949,None,up,285.5405218999949,None,285.5405218999949,286.2560250000097,0.07773570000426844,None,1.8490232999902219,,,,,,,,,15,001,2019_Dec_25_1040,untitled,3.1.0,59.9586884701627,
261,_2,N,180,R,N,261_2N180RN,HRN,0,38,38,244,,,1.173,287.4832451000111,287.8041360999923,287.8214599000057,288.1042034000275,288.12200380000286,None,up,288.12200380000286,None,288.12200380000286,289.2863627000479,0.0838833999587223,None,2.5640386000159197,,,,,,,,,15,001,2019_Dec_25_1040,untitled,3.1.0,59.9586884701627,
231,G,N,270,L,N,231GN270LN,HLN,0,39,39,238,,,0.782,290.7546734000207,291.1018613000051,291.1178964000428,291.40234180004336,291.4176723000128,None,up,291.4176723000128,None,291.4176723000128,292.1840660000453,0.061644200002774596,None,2.1505897999741137,,,,,,,,,15,001,2019_Dec_25_1040,untitled,3.1.0,59.9586884701627,
131,F,N,90,R,N,131FN090RN,HRN,0,40,40,210,,,1.276,293.65373399999226,293.9824327999959,293.99919340002816,294.28246560000116,294.2991511000437,None,up,294.2991511000437,None,294.2991511000437,295.5641380000161,0.07630250003421679,None,3.030330799985677,,,,,,,,,15,001,2019_Dec_25_1040,untitled,3.1.0,59.9586884701627,
015,R,M,270,R,N,015RM270RN,HRN,0,41,41,102,,,0.718,297.398199999996,297.74595290003344,297.7636118000373,298.0451969000278,298.0622822000296,None,down,298.0622822000296,None,298.0622822000296,298.7617051000125,0.06143520004115999,None,1.9829239000100642,,,,,,,,,15,001,2019_Dec_25_1040,untitled,3.1.0,59.9586884701627,
267,_2,M,90,R,N,267_2M090RN,HRN,0,42,42,146,,,0.775,300.1482499000267,300.4600055000046,300.4769365999964,300.7595011999947,300.77622770000016,None,down,300.77622770000016,None,300.77622770000016,301.54193350003334,0.09435690002283081,None,2.517075299983844,,,,,,,,,15,001,2019_Dec_25_1040,untitled,3.1.0,59.9586884701627,
012,R,M,135,R,N,012RM135RN,HRN,0,43,43,99,,,0.9460000000000001,303.3752284999937,303.70737570000347,303.72404890001053,304.0069509000168,304.023491800006,None,down,304.023491800006,None,304.023491800006,304.9563355999999,0.07359099999302998,None,3.2501521999947727,,,,,,,,,15,001,2019_Dec_25_1040,untitled,3.1.0,59.9586884701627,
016,R,M,315,R,N,016RM315RN,HRN,0,44,44,103,,,0.8300000000000001,307.3516623000032,307.68721270002425,307.7038843000191,307.98715330002597,308.00402520003263,None,down,308.00402520003263,None,308.00402520003263,308.8205446000211,0.06900969997514039,None,2.8320262000197545,,,,,,,,,15,001,2019_Dec_25_1040,untitled,3.1.0,59.9586884701627,
_,_5,N,315,_,_,__5N315__,N,0,45,45,95,,,0.988,310.9284408999956,311.2511760999914,311.2675773000228,311.5501996999956,311.56680380000034,None,up,311.56680380000034,None,311.56680380000034,312.5326476000482,0.0844035999616608,None,2.100319999968633,,,,,,,,,15,001,2019_Dec_25_1040,untitled,3.1.0,59.9586884701627,
296,_2,N,315,L,N,296_2N315LN,HLN,0,46,46,255,,,1.09,313.73639969999203,314.0822051000432,314.09871849999763,314.38113950000843,314.3977293000207,None,down,314.3977293000207,None,314.3977293000207,315.46584930003155,0.06251680001150817,None,3.0499201999627985,,,,,,,,,15,001,2019_Dec_25_1040,untitled,3.1.0,59.9586884701627,
494,_5,M,225,L,N,494_5M225LN,HLN,0,47,47,189,,,1.3900000000000001,317.53497219999554,317.8623032000032,317.8781612000312,318.16124640003545,318.1778059999924,None,None,318.1778059999924,None,318.1778059999924,319.56063890003134,0.07842609996441752,None,,,,,,,,,,15,001,2019_Dec_25_1040,untitled,3.1.0,59.9586884701627,
138,F,M,45,R,N,138FM045RN,HRN,0,48,48,113,,,0.885,321.7109691000078,322.0580893000006,322.0745714000077,322.3577742000343,322.3738505000365,321.7109691000078,down,322.3738505000365,None,322.3738505000365,323.24027930002194,0.06268980004824698,None,2.5322895999997854,,,,,,,,,15,001,2019_Dec_25_1040,untitled,3.1.0,59.9586884701627,
425,_4,M,0,L,N,425_4M000LN,HLN,0,49,49,168,,,1.124,324.98100550001254,325.3214475000277,325.338397500047,325.6213191000279,325.63934880000306,None,down,325.63934880000306,None,325.63934880000306,326.73679420002736,0.06739020004170015,None,2.481110599997919,,,,,,,,,15,001,2019_Dec_25_1040,untitled,3.1.0,59.9586884701627,
_,F,N,315,_,_,_FN315__,N,0,50,50,55,,,0.705,328.1881587000098,328.53554340003757,328.55217900004936,328.8358751000487,328.8521865000366,None,up,328.8521865000366,None,328.8521865000366,329.53460660000565,0.060534800053574145,None,2.1657370000029914,,,,,,,,,15,001,2019_Dec_25_1040,untitled,3.1.0,59.9586884701627,
_,_5,N,225,_,_,__5N225__,N,0,51,51,93,,,0.7020000000000001,331.0871261000284,331.4330080000218,331.4497240000055,331.7327882000245,331.7495700000436,None,up,331.7495700000436,None,331.7495700000436,332.43252410000423,0.06178170000202954,None,2.53168099996401,,,,,,,,,15,001,2019_Dec_25_1040,untitled,3.1.0,59.9586884701627,
142,F,M,225,R,N,142FM225RN,HRN,0,52,52,117,,,1.018,334.34976549999556,334.6972750000423,334.71531530003995,334.9970148000284,335.01623180002207,None,down,335.01623180002207,None,335.01623180002207,336.0132690000464,0.06159459997434169,None,1.9471701000002213,,,,,,,,,15,001,2019_Dec_25_1040,untitled,3.1.0,59.9586884701627,
_,_2,M,225,_,_,__2M225__,N,0,53,53,29,,,0.905,337.03031770000234,337.37772970000515,337.3942834000336,337.67749750002986,337.69429770001443,None,down,337.69429770001443,None,337.69429770001443,338.57730340003036,0.05998369998997077,None,2.317100499989465,,,,,,,,,15,001,2019_Dec_25_1040,untitled,3.1.0,59.9586884701627,
_,_2,M,270,_,_,__2M270__,N,0,54,54,30,,,1.161,340.08461860002717,340.4251318000024,340.4414728000411,340.7257952000364,340.74215480004204,None,down,340.74215480004204,None,340.74215480004204,341.88980030000675,0.06596679997164756,None,2.1476801999961026,,,,,,,,,15,001,2019_Dec_25_1040,untitled,3.1.0,59.9586884701627,
_,_5,M,315,_,_,__5M315__,N,0,55,55,47,,,0.8300000000000001,342.96018840000033,343.3063113000244,343.3230672000209,343.60610640002415,343.62219140003435,None,down,343.62219140003435,None,343.62219140003435,344.43880130001344,0.06313530000625178,None,2.716349499998614,,,,,,,,,15,001,2019_Dec_25_1040,untitled,3.1.0,59.9586884701627,
228,G,N,135,L,N,228GN135LN,HLN,0,56,56,235,,,1.163,346.4247836000286,346.7530642999918,346.7696505000349,347.0525245000026,347.0702287000022,None,up,347.0702287000022,None,347.0702287000022,348.2192766999942,0.07743980002123863,None,2.847687999950722,,,,,,,,,15,001,2019_Dec_25_1040,untitled,3.1.0,59.9586884701627,
489,_5,M,0,L,N,489_5M000LN,HLN,0,57,57,184,,,0.708,349.98631120001664,350.3330608000397,350.35003690002486,350.6330336999963,350.64953749999404,None,down,350.64953749999404,None,350.64953749999404,351.33226300001843,0.06169649999355897,None,1.98410880001029,,,,,,,,,15,001,2019_Dec_25_1040,untitled,3.1.0,59.9586884701627,
302,_2,M,225,L,N,302_2M225LN,HLN,0,58,58,157,,,1.365,352.70152980001876,353.04758020001464,353.0642387000262,353.34754290001,353.3643170000287,None,None,353.3643170000287,None,353.3643170000287,354.71284240001114,0.061293100006878376,None,,,,,,,,,,15,001,2019_Dec_25_1040,untitled,3.1.0,59.9586884701627,
_,R,M,315,_,_,_RM315__,N,0,59,59,23,,,0.86,356.90415469999425,357.2439316000091,357.26054089999525,357.54325059999246,357.5606485000462,356.90415469999425,down,357.5606485000462,None,357.5606485000462,358.4098619000288,0.06998470000689849,None,2.2643804000108503,,,,,,,,,15,001,2019_Dec_25_1040,untitled,3.1.0,59.9586884701627,
044,R,M,135,L,N,044RM135LN,HLN,0,60,60,107,,,1.123,359.89552800002275,360.2419860000373,360.2584841999924,360.5420485000359,360.55796570004895,None,None,360.55796570004895,None,360.55796570004895,361.65708010003436,0.06363599997712299,None,,,,,,,,,,15,001,2019_Dec_25_1040,untitled,3.1.0,59.9586884701627,
136,F,N,315,R,N,136FN315RN,HRN,0,61,61,215,,,1.375,364.08870520000346,364.4375337000238,364.4540072000236,364.7374239000492,364.7536191000254,364.08870520000346,up,364.7536191000254,None,364.7536191000254,366.11913220002316,0.05906580004375428,None,2.515200400026515,,,,,,,,,15,001,2019_Dec_25_1040,untitled,3.1.0,59.9586884701627,
459,_5,M,90,R,N,459_5M090RN,HRN,0,62,62,178,,,1.3940000000000001,367.34059570002137,367.6844390000333,367.7012332000304,367.98433840001235,368.0009462000453,None,down,368.0009462000453,None,368.0009462000453,369.3837245000177,0.0644179999944754,None,2.649714400002267,,,,,,,,,15,001,2019_Dec_25_1040,untitled,3.1.0,59.9586884701627,
_,_2,N,270,_,_,__2N270__,N,0,63,63,78,,,1.054,370.7249988000258,371.06478940002853,371.08148260001326,371.3653593999916,371.38170170004014,None,up,371.38170170004014,None,371.38170170004014,372.41435370000545,0.06785749999107793,None,2.2153735000174493,,,,,,,,,15,001,2019_Dec_25_1040,untitled,3.1.0,59.9586884701627,
034,R,N,45,L,N,034RN045LN,HLN,0,64,64,201,,,0.745,373.667003700044,374.0132169999997,374.0294288000441,374.3129313000245,374.3291700000409,None,up,374.3291700000409,None,374.3291700000409,375.06185540003935,0.061570500023663044,None,1.9028697999892756,,,,,,,,,15,001,2019_Dec_25_1040,untitled,3.1.0,59.9586884701627,
294,_2,N,225,L,N,294_2N225LN,HLN,0,65,65,253,,,0.906,376.3132583000115,376.64330350002274,376.66052480001235,376.9436023000162,376.96042120002676,None,up,376.96042120002676,None,376.96042120002676,377.85947010002565,0.07297380000818521,None,2.269665600033477,,,,,,,,,15,001,2019_Dec_25_1040,untitled,3.1.0,59.9586884701627,
_,G,M,270,_,_,_GM270__,N,0,66,66,14,,,1.131,379.3242695000372,379.6409610999981,379.657881000021,379.94073319999734,379.9576123000006,None,down,379.9576123000006,None,379.9576123000006,381.07310999999754,0.08331529999850318,None,3.049581600003876,,,,,,,,,15,001,2019_Dec_25_1040,untitled,3.1.0,59.9586884701627,
429,_4,M,180,L,N,429_4M180LN,HLN,0,67,67,172,,,1.1500000000000001,383.076427699998,383.421075500024,383.43789880000986,383.7206974000437,383.73736680002185,None,up,383.73736680002185,None,383.73736680002185,384.87043290003203,0.06270000000949949,None,2.9482313999906182,,,,,,,,,15,001,2019_Dec_25_1040,untitled,3.1.0,59.9586884701627,
427,_4,M,90,L,N,427_4M090LN,HLN,0,68,68,170,,,1.159,386.78311240003677,387.10114969999995,387.11737440002616,387.4012693000259,387.41796990000876,None,None,387.41796990000876,None,387.41796990000876,388.56663560000015,0.08964830002514645,None,,,,,,,,,,15,001,2019_Dec_25_1040,untitled,3.1.0,59.9586884701627,
483,_5,N,90,L,N,483_5N090LN,HLN,0,69,69,282,,,1.137,390.9529131000163,391.2983379000216,391.3153165000258,391.5976016999921,391.6139808000298,390.9529131000163,up,391.6139808000298,None,391.6139808000298,392.73036280000815,0.06425789999775589,None,2.2833477000240237,,,,,,,,,15,001,2019_Dec_25_1040,untitled,3.1.0,59.9586884701627,
258,_2,N,45,R,N,258_2N045RN,HRN,0,70,70,241,,,0.785,393.96533500001533,394.3118633000413,394.3284593000426,394.61176370002795,394.6285402000067,None,down,394.6285402000067,None,394.6285402000067,395.3939342999947,0.06054880004376173,None,2.231133499997668,,,,,,,,,15,001,2019_Dec_25_1040,untitled,3.1.0,59.9586884701627,
293,_2,N,180,L,N,293_2N180LN,HLN,0,71,71,252,,,1.177,396.92761910002446,397.2766871000058,397.2923752000206,397.5756829000311,397.5928908000351,None,up,397.5928908000351,None,397.5928908000351,398.75802480004495,0.06134870002279058,None,2.465722499997355,,,,,,,,,15,001,2019_Dec_25_1040,untitled,3.1.0,59.9586884701627,
040,R,N,315,L,N,040RN315LN,HLN,0,72,72,207,,,0.923,400.13188719999744,400.4729955000221,400.48967570002424,400.77277120004874,400.78915170003893,None,up,400.78915170003893,None,400.78915170003893,401.6881481000455,0.06645250000292435,None,1.9156385000096634,,,,,,,,,15,001,2019_Dec_25_1040,untitled,3.1.0,59.9586884701627,
162,F,N,45,L,N,162FN045LN,HLN,0,73,73,217,,,0.732,402.77449820004404,403.1216276999912,403.13736960000824,403.4203387000016,403.4370721000014,None,up,403.4370721000014,None,403.4370721000014,404.15242850000504,0.06299400003626943,None,1.5320533000049181,,,,,,,,,15,001,2019_Dec_25_1040,untitled,3.1.0,59.9586884701627,
_,_2,M,0,_,_,__2M000__,N,0,74,74,24,,,0.9490000000000001,405.0445180000388,405.385530700034,405.4018550000037,405.68592270003865,405.70126050000545,None,down,405.70126050000545,None,405.70126050000545,406.6355605000281,0.06768720003310591,None,2.4983538999804296,,,,,,,,,15,001,2019_Dec_25_1040,untitled,3.1.0,59.9586884701627,
269,_2,M,180,R,N,269_2M180RN,HRN,0,75,75,148,,,0.79,408.267670500034,408.6156691000215,408.6326584999915,408.91547350003384,408.9319700000342,None,down,408.9319700000342,None,408.9319700000342,409.698091200029,0.06123009999282658,None,3.233254900027532,,,,,,,,,15,001,2019_Dec_25_1040,untitled,3.1.0,59.9586884701627,
144,F,M,315,R,N,144FM315RN,HRN,0,76,76,119,,,1.1460000000000001,412.23274050001055,412.579074600013,412.59582770004636,412.8794623000431,412.89557330001844,None,down,412.89557330001844,None,412.89557330001844,414.02752530004364,0.06053359998622909,None,2.9977751999977045,,,,,,,,,15,001,2019_Dec_25_1040,untitled,3.1.0,59.9586884701627,
205,G,M,180,R,N,205GM180RN,HRN,0,77,77,132,,,1.211,415.9652339000022,416.31034000002546,416.32569700002205,416.6085590000148,416.625371000031,None,None,416.625371000031,None,416.625371000031,417.8241815000074,0.06399679998867214,None,,,,,,,,,,15,001,2019_Dec_25_1040,untitled,3.1.0,59.9586884701627,
130,F,N,45,R,N,130FN045RN,HRN,0,78,78,209,,,0.72,420.15874730004,420.50589080003556,420.5223679000046,420.8057340999949,420.8219958000118,420.15874730004,up,420.8219958000118,None,420.8219958000118,421.5213436000049,0.06296159996418282,None,1.7185756999533623,,,,,,,,,15,001,2019_Dec_25_1040,untitled,3.1.0,59.9586884701627,
419,_4,N,90,L,N,419_4N090LN,HLN,0,79,79,266,,,1.075,422.61055310000665,422.95295930001885,422.96957110002404,423.2529394000303,423.26976630004356,None,up,423.26976630004356,None,423.26976630004356,424.3351011000341,0.06277630000840873,None,3.263912900001742,,,,,,,,,15,001,2019_Dec_25_1040,untitled,3.1.0,59.9586884701627,
391,_4,N,270,R,N,391_4N270RN,HRN,0,80,80,262,,,1.297,426.60316980001517,426.9499145000009,426.96798590000253,427.2497938000015,427.26635710004484,None,up,427.26635710004484,None,427.26635710004484,428.5482864000369,0.06107719999272376,None,2.3990425000083633,,,,,,,,,15,001,2019_Dec_25_1040,untitled,3.1.0,59.9586884701627,
456,_5,N,315,R,N,456_5N315RN,HRN,0,81,81,279,,,0.788,429.73224939999636,430.0805668000248,430.0971741999965,430.38041919999523,430.3971679999959,None,up,430.3971679999959,None,430.3971679999959,431.1626471999916,0.05982110003242269,None,2.031925500021316,,,,,,,,,15,001,2019_Dec_25_1040,untitled,3.1.0,59.9586884701627,
206,G,M,225,R,N,206GM225RN,HRN,0,82,82,133,,,1.331,432.51164260000223,432.84461269999156,432.8613357000286,433.1447041000356,433.16114680003375,None,down,433.16114680003375,None,433.16114680003375,434.47669800004223,0.07517780002672225,None,3.315602599992417,,,,,,,,,15,001,2019_Dec_25_1040,untitled,3.1.0,59.9586884701627,
290,_2,N,45,L,N,290_2N045LN,HLN,0,83,83,249,,,1.073,436.54693650000263,436.8937383000157,436.9102942000027,437.1904891000013,437.2073129999917,None,up,437.2073129999917,None,437.2073129999917,438.2566518000094,0.06350869999732822,None,2.7153710999991745,,,,,,,,,15,001,2019_Dec_25_1040,untitled,3.1.0,59.9586884701627,
165,F,N,180,L,N,165FN180LN,HLN,0,84,84,220,,,1.359,439.99231669999426,440.3383268000325,440.35580520000076,440.63839830004144,440.65504600002896,None,None,440.65504600002896,None,440.65504600002896,442.003851400048,0.06297020002966747,None,,,,,,,,,,15,001,2019_Dec_25_1040,untitled,3.1.0,59.9586884701627,
_,_5,M,135,_,_,__5M135__,N,0,85,85,43,,,0.915,444.1857438000152,444.53462630003924,444.55126080004266,444.8345832999912,444.85146350000286,444.1857438000152,None,444.85146350000286,None,444.85146350000286,445.7498495000182,0.060081200033891946,None,,,,,,,,,,15,001,2019_Dec_25_1040,untitled,3.1.0,59.9586884701627,
_,R,M,180,_,_,_RM180__,N,0,86,86,20,,,1.166,448.3851265000412,448.7323981000227,448.74798390001524,449.0303491000086,449.0470059000072,448.3851265000412,None,449.0470059000072,None,449.0470059000072,450.1962920000078,0.06208699999842793,None,,,,,,,,,,15,001,2019_Dec_25_1040,untitled,3.1.0,59.9586884701627,
297,_2,M,0,L,N,297_2M000LN,HLN,0,87,87,152,,,1.062,452.60412219999125,452.9273352000164,452.9436117000296,453.22695169999497,453.24398730002576,452.60412219999125,down,453.24398730002576,None,453.24398730002576,454.29261649999535,0.08200789999682456,None,2.3486596000147983,,,,,,,,,15,001,2019_Dec_25_1040,untitled,3.1.0,59.9586884701627,
002,R,N,45,R,N,002RN045RN,HRN,0,88,88,193,,,0.989,455.6687108000042,456.0092283000122,456.02493340004,456.3083591000177,456.3242537000333,None,up,456.3242537000333,None,456.3242537000333,457.29009830002906,0.06884979997994378,None,1.9673841000185348,,,,,,,,,15,001,2019_Dec_25_1040,untitled,3.1.0,59.9586884701627,
490,_5,M,45,L,N,490_5M045LN,HLN,0,89,89,185,,,0.961,458.36120360001223,458.7054986000294,458.7221262000385,459.00580280000577,459.02200590004213,None,down,459.02200590004213,None,459.02200590004213,459.970987000037,0.0615756000042893,None,2.0335361999459565,,,,,,,,,15,001,2019_Dec_25_1040,untitled,3.1.0,59.9586884701627,
046,R,M,225,L,N,046RM225LN,HLN,0,90,90,109,,,0.77,461.1225237000035,461.4697247000295,461.4861791000003,461.77137510001194,461.7859924000222,None,down,461.7859924000222,None,461.7859924000222,462.5355702000088,0.05984380003064871,None,2.165691100002732,,,,,,,,,15,001,2019_Dec_25_1040,untitled,3.1.0,59.9586884701627,
_,_5,M,270,_,_,__5M270__,N,0,91,91,46,,,1.367,464.01888480002526,464.36754000000656,464.3836518000462,464.66788480000105,464.6840786000248,None,down,464.6840786000248,None,464.6840786000248,466.03230240003904,0.05927410000003874,None,2.433830299996771,,,,,,,,,15,001,2019_Dec_25_1040,untitled,3.1.0,59.9586884701627,
484,_5,N,135,L,N,484_5N135LN,HLN,0,92,92,283,,,0.914,467.2349019999965,467.5308839000063,467.5474585000193,467.831064100028,467.8476122000138,None,up,467.8476122000138,None,467.8476122000138,468.7469105999917,0.10424139996757731,None,2.697895899997093,,,,,,,,,15,001,2019_Dec_25_1040,untitled,3.1.0,59.9586884701627,
042,R,M,45,L,N,042RM045LN,HLN,0,93,93,105,,,1.024,470.61655400000745,470.9616928000469,470.9616928000469,471.2618895000196,471.2776379000279,None,down,471.2776379000279,None,471.2776379000279,472.2781518000411,0.06444990000454709,None,2.233858900028281,,,,,,,,,15,001,2019_Dec_25_1040,untitled,3.1.0,59.9586884701627,
041,R,M,0,L,N,041RM000LN,HLN,0,94,94,104,,,1.0090000000000001,473.5779489999986,473.92590840003686,473.9425941000227,474.2248622000334,474.2425540999975,None,down,474.2425540999975,None,474.2425540999975,475.2412817000295,0.059799699985887855,None,1.8171634000027552,,,,,,,,,15,001,2019_Dec_25_1040,untitled,3.1.0,59.9586884701627,
270,_2,M,225,R,N,270_2M225RN,HRN,0,95,95,149,,,1.172,476.12929910002276,476.47307040001033,476.4899431000231,476.77325470000505,476.7902324000024,None,None,476.7902324000024,None,476.7902324000024,477.94049440004164,0.062730300007388,None,,,,,,,,,,15,001,2019_Dec_25_1040,untitled,3.1.0,59.9586884701627,
432,_4,M,315,L,N,432_4M315LN,HLN,0,96,96,175,,,0.716,480.33969690004596,480.67018620000454,480.6869699000381,480.97064090002095,480.9860638999962,480.33969690004596,down,480.9860638999962,None,480.9860638999962,481.6859306000406,0.07735209999373183,None,2.01557629997842,,,,,,,,,15,001,2019_Dec_25_1040,untitled,3.1.0,59.9586884701627,
_,F,M,90,_,_,_FM090__,N,0,97,97,2,,,1.072,483.06950179999694,483.4176013999968,483.4334788999986,483.7173507999978,483.7341287000454,None,down,483.7341287000454,None,483.7341287000454,484.7827866000007,0.06119489995762706,None,3.399381400027778,,,,,,,,,15,001,2019_Dec_25_1040,untitled,3.1.0,59.9586884701627,
_,_4,N,45,_,_,__4N045__,N,0,98,98,81,,,0.779,487.20195210003294,487.547435400018,487.56420150003396,487.8464773000451,487.8629565000301,None,up,487.8629565000301,None,487.8629565000301,488.62956670002313,0.061664999986533076,None,2.1318797999992967,,,,,,,,,15,001,2019_Dec_25_1040,untitled,3.1.0,59.9586884701627,
173,F,M,180,L,N,173FM180LN,HLN,0,99,99,124,,,1.32,490.0656159000355,490.4111456000246,490.42796270002145,490.71142639999744,490.7279588000383,None,None,490.7279588000383,None,490.7279588000383,492.0264036000008,0.06404319999273866,None,,,,,,,,,,15,001,2019_Dec_25_1040,untitled,3.1.0,59.9586884701627,
_,R,N,225,_,_,_RN225__,N,0,100,100,69,,,0.866,494.25991449999856,494.607817000011,494.6243560000439,494.90758260001894,494.9241774000111,494.25991449999856,up,494.9241774000111,None,494.9241774000111,495.77358410001034,0.061205899983178824,None,1.882451499986928,,,,,,,,,15,001,2019_Dec_25_1040,untitled,3.1.0,59.9586884701627,
397,_4,M,180,R,N,397_4M180RN,HRN,0,101,101,164,,,1.207,496.8742132000043,497.22205949999625,497.2390240000095,497.5227486999938,497.53961860004347,None,down,497.53961860004347,None,497.53961860004347,498.7203189000138,0.06047930003842339,None,2.7131906999857165,,,,,,,,,15,001,2019_Dec_25_1040,untitled,3.1.0,59.9586884701627,
038,R,N,225,L,N,038RN225LN,HLN,0,102,102,205,,,1.0190000000000001,500.32411200000206,500.6687784999958,500.6866638000356,500.9688191000023,500.9850223000394,None,up,500.9850223000394,None,500.9850223000394,501.9846151000238,0.06441979994997382,None,2.4651129999547265,,,,,,,,,15,001,2019_Dec_25_1040,untitled,3.1.0,59.9586884701627,
272,_2,M,315,R,N,272_2M315RN,HRN,0,103,103,151,,,1.151,503.5189423999982,503.86649610003224,503.88286000001244,504.16648980003083,504.18256620003376,None,down,504.18256620003376,None,504.18256620003376,505.3148669000366,0.06173229997511953,None,3.014941900037229,,,,,,,,,15,001,2019_Dec_25_1040,untitled,3.1.0,59.9586884701627,
_,_5,N,90,_,_,__5N090__,N,0,104,104,90,,,0.873,507.26510459999554,507.61252180003794,507.629613600031,507.9126552999951,507.9305553000304,None,up,507.9305553000304,None,507.9305553000304,508.77819740003906,0.06068360002245754,None,2.015659900032915,,,,,,,,,15,001,2019_Dec_25_1040,untitled,3.1.0,59.9586884701627,
033,R,N,0,L,N,033RN000LN,HLN,0,105,105,200,,,0.931,510.0159489000216,510.36074900004314,510.3769738000119,510.6602582000196,510.67753300000913,None,up,510.67753300000913,None,510.67753300000913,511.59287310001673,0.0626977999927476,None,1.5982463999534957,,,,,,,,,15,001,2019_Dec_25_1040,untitled,3.1.0,59.9586884701627,
_,F,M,0,_,_,_FM000__,N,0,106,106,0,,,0.9450000000000001,512.3431374999927,512.6937158000073,512.7107664000359,512.9915379000013,513.0079905000166,None,down,513.0079905000166,None,513.0079905000166,513.9404460000223,0.060392300016246736,None,2.04875549999997,,,,,,,,,15,001,2019_Dec_25_1040,untitled,3.1.0,59.9586884701627,
045,R,M,180,L,N,045RM180LN,HLN,0,107,107,108,,,1.375,515.1238083000062,515.473115700006,515.489819200011,515.7727326000459,515.7891275000293,None,None,515.7891275000293,None,515.7891275000293,517.1380225000321,0.05969640001421794,None,,,,,,,,,,15,001,2019_Dec_25_1040,untitled,3.1.0,59.9586884701627,
266,_2,M,45,R,N,266_2M045RN,HRN,0,108,108,145,,,0.936,519.322487300029,519.6701250000042,519.6859390000463,519.9690275000175,519.9859313000343,519.322487300029,down,519.9859313000343,None,519.9859313000343,520.901586299995,0.06344270001864061,None,2.314599600038491,,,,,,,,,15,001,2019_Dec_25_1040,untitled,3.1.0,59.9586884701627,
_,G,N,135,_,_,_GN135__,N,0,109,109,59,,,1.353,522.378087100049,522.7166479000007,522.7323936000466,523.015695900016,523.032966000028,None,up,523.032966000028,None,523.032966000028,524.3648570000078,0.06913870002608746,None,2.7977730000275187,,,,,,,,,15,001,2019_Dec_25_1040,untitled,3.1.0,59.9586884701627,
449,_5,N,0,R,N,449_5N000RN,HRN,0,110,110,272,,,1.0,525.911479900009,526.2466787000303,526.2639328000369,526.5469639000366,526.5628641000367,None,up,526.5628641000367,None,526.5628641000367,527.5448784000473,0.07209700002567843,None,1.6686483999947086,,,,,,,,,15,001,2019_Dec_25_1040,untitled,3.1.0,59.9586884701627,
_,_2,N,90,_,_,__2N090__,N,0,111,111,74,,,1.063,528.2996904000174,528.6443684000405,528.6610878999927,528.945117300027,528.9612117999932,None,up,528.9612117999932,None,528.9612117999932,530.0095121000195,0.06154239998431876,None,3.0014671999961138,,,,,,,,,15,001,2019_Dec_25_1040,untitled,3.1.0,59.9586884701627,
_,_5,M,90,_,_,__5M090__,N,0,112,112,42,,,1.365,532.0630926000304,532.3750769000035,532.3916541000362,532.6744751000078,532.691199199995,None,down,532.691199199995,None,532.691199199995,534.040118600009,0.08997789997374639,None,3.2805666000349447,,,,,,,,,15,001,2019_Dec_25_1040,untitled,3.1.0,59.9586884701627,
140,F,M,135,R,N,140FM135RN,HRN,0,113,113,115,,,1.156,536.0416901000426,536.3884636000148,536.4044659000356,536.6873482000083,536.7038569000433,None,None,536.7038569000433,None,536.7038569000433,537.8364564999938,0.06255750003037974,None,,,,,,,,,,15,001,2019_Dec_25_1040,untitled,3.1.0,59.9586884701627,
_,R,N,315,_,_,_RN315__,N,0,114,114,71,,,1.345,540.242839100014,540.5843987000408,540.6013146000332,540.8851531000109,540.9005442000343,540.242839100014,up,540.9005442000343,None,540.9005442000343,542.2326428000233,0.06705690000671893,None,2.683807399997022,,,,,,,,,15,001,2019_Dec_25_1040,untitled,3.1.0,59.9586884701627,
_,R,M,225,_,_,_RM225__,N,0,115,115,21,,,0.768,543.6599716000492,543.9977301000035,544.0143246999942,544.2976409000112,544.3141581999953,None,down,544.3141581999953,None,544.3141581999953,545.064297200006,0.06834080000407994,None,2.084094299993012,,,,,,,,,15,001,2019_Dec_25_1040,untitled,3.1.0,59.9586884701627,
237,G,M,180,L,N,237GM180LN,HLN,0,116,116,140,,,1.037,546.4678305000416,546.8119647999993,546.8287530000089,547.1119690000196,547.1281970000127,None,None,547.1281970000127,None,547.1281970000127,548.144145200029,0.06213119998574257,None,,,,,,,,,,15,001,2019_Dec_25_1040,untitled,3.1.0,59.9586884701627,
_,_4,N,315,_,_,__4N315__,N,0,117,117,87,,,0.713,550.6702477000072,551.0083924999926,551.0248483000323,551.3080675000092,551.3254835000262,550.6702477000072,up,551.3254835000262,None,551.3254835000262,552.0240676000249,0.06954070000210777,None,1.9335021000006236,,,,,,,,,15,001,2019_Dec_25_1040,untitled,3.1.0,59.9586884701627,
268,_2,M,135,R,N,268_2M135RN,HRN,0,118,118,147,,,0.905,553.3332463999977,553.6724877000088,553.6890193000436,553.9723035999923,553.9889147999929,None,down,553.9889147999929,None,553.9889147999929,554.8715749999974,0.06648089998634532,None,3.0498240999877453,,,,,,,,,15,001,2019_Dec_25_1040,untitled,3.1.0,59.9586884701627,
_,_2,N,135,_,_,__2N135__,N,0,119,119,75,,,0.754,557.1065333000151,557.453041300003,557.4696690000128,557.7530233000289,557.7695237000007,None,up,557.7695237000007,None,557.7695237000007,558.5063225000049,0.0610990000423044,None,1.616495800029952,,,,,,,,,15,001,2019_Dec_25_1040,untitled,3.1.0,59.9586884701627,
303,_2,M,270,L,N,303_2M270LN,HLN,0,120,120,158,,,0.9490000000000001,559.4533598000417,559.8007169000339,559.8173118000268,560.1013242000481,560.1180033000419,None,None,560.1180033000419,None,560.1180033000419,561.0497011000407,0.06063920003362,None,,,,,,,,,,15,001,2019_Dec_25_1040,untitled,3.1.0,59.9586884701627,
174,F,M,225,L,N,174FM225LN,HLN,0,121,121,125,,,0.859,563.6514977000188,563.9971418000059,564.0138651000452,564.296910700039,564.3134285000269,563.6514977000188,down,564.3134285000269,None,564.3134285000269,565.1462418000447,0.06385450001107529,None,2.5490058999857865,,,,,,,,,15,001,2019_Dec_25_1040,untitled,3.1.0,59.9586884701627,
_,G,N,180,_,_,_GN180__,N,0,122,122,60,,,0.871,566.9368910000194,567.278844800021,567.2943356000469,567.5774944000295,567.5941966000246,None,up,567.5941966000246,None,567.5941966000246,568.4434435000294,0.06776740000350401,None,2.315042700036429,,,,,,,,,15,001,2019_Dec_25_1040,untitled,3.1.0,59.9586884701627,
295,_2,N,270,L,N,295_2N270LN,HLN,0,123,123,254,,,0.966,569.9773091000388,570.3254148000269,570.3423007000238,570.6248291000375,570.6411360000493,None,up,570.6411360000493,None,570.6411360000493,571.5905191000202,0.06117690005339682,None,1.8365840000333264,,,,,,,,,15,001,2019_Dec_25_1040,untitled,3.1.0,59.9586884701627,
385,_4,N,0,R,N,385_4N000RN,HRN,0,124,124,256,,,0.8130000000000001,572.5761880000355,572.8896389000001,572.9061478000367,573.1894956000033,573.2059017000138,None,up,573.2059017000138,None,573.2059017000138,574.0048957000254,0.08687679999275133,None,1.5161294999998063,,,,,,,,,15,001,2019_Dec_25_1040,untitled,3.1.0,59.9586884701627,
289,_2,N,0,L,N,289_2N000LN,HLN,0,125,125,248,,,0.997,574.7914983000373,575.1382047000225,575.1538958000019,575.4371296000318,575.4537904000026,None,up,575.4537904000026,None,575.4537904000026,576.4360248000012,0.06251639995025471,None,2.9346657000132836,,,,,,,,,15,001,2019_Dec_25_1040,untitled,3.1.0,59.9586884701627,
240,G,M,315,L,N,240GM315LN,HLN,0,126,126,143,,,0.8220000000000001,578.4936455000425,578.8010838000337,578.8178813999984,579.1010777000338,579.117618600023,None,None,579.117618600023,None,579.117618600023,579.9333609000314,0.09313410002505407,None,,,,,,,,,,15,001,2019_Dec_25_1040,untitled,3.1.0,59.9586884701627,
_,G,M,0,_,_,_GM000__,N,0,127,127,8,,,1.0070000000000001,582.6659270999953,583.0151302000158,583.0303719000076,583.3134066000348,583.3302784000407,582.6659270999953,down,583.3302784000407,None,583.3302784000407,584.3130721999914,0.060082599986344576,None,2.300499700009823,,,,,,,,,15,001,2019_Dec_25_1040,untitled,3.1.0,59.9586884701627,
_,R,N,180,_,_,_RN180__,N,0,128,128,68,,,1.03,585.6959101000102,586.0447137000156,586.0613579000346,586.3444755999953,586.3622708000476,None,up,586.3622708000476,None,586.3622708000476,587.3764044000418,0.057662000006530434,None,3.2301805000170134,,,,,,,,,15,001,2019_Dec_25_1040,untitled,3.1.0,59.9586884701627,
229,G,N,180,L,N,229GN180LN,HLN,0,129,129,236,,,0.92,589.6633095000288,590.0086886000354,590.0246954000322,590.3087831000448,590.3239854000276,None,up,590.3239854000276,None,590.3239854000276,591.2231104000239,0.06347970000933856,None,1.8488634999957867,,,,,,,,,15,001,2019_Dec_25_1040,untitled,3.1.0,59.9586884701627,
_,F,M,135,_,_,_FM135__,N,0,130,130,3,,,1.157,592.240983500029,592.5895544000086,592.6063256000052,592.8891555000446,592.9054664000287,None,up,592.9054664000287,None,592.9054664000287,594.0376572000096,0.06115899997530505,None,1.9166888000327162,,,,,,,,,15,001,2019_Dec_25_1040,untitled,3.1.0,59.9586884701627,
_,R,N,135,_,_,_RN135__,N,0,131,131,67,,,1.022,594.8887731000432,595.2366333000246,595.2531908000237,595.53624700004,595.5529891000479,None,up,595.5529891000479,None,595.5529891000479,596.5520433000056,0.05967180000152439,None,2.1178461000090465,,,,,,,,,15,001,2019_Dec_25_1040,untitled,3.1.0,59.9586884701627,
008,R,N,315,R,N,008RN315RN,HRN,0,132,132,199,,,0.917,597.7617974000168,598.0842994000413,598.1006534000044,598.3839867000352,598.4004878000123,None,up,598.4004878000123,None,598.4004878000123,599.299741099996,0.08156209997832775,None,1.5656557999900542,,,,,,,,,15,001,2019_Dec_25_1040,untitled,3.1.0,59.9586884701627,
_,F,N,225,_,_,_FN225__,N,0,133,133,53,,,0.839,600.0453064000467,600.3820493000094,600.3993060000357,600.6819331000443,600.6987669999944,None,up,600.6987669999944,None,600.6987669999944,601.5157430000254,0.07177270000101998,None,2.5976283000200056,,,,,,,,,15,001,2019_Dec_25_1040,untitled,3.1.0,59.9586884701627,
048,R,M,315,L,N,048RM315LN,HLN,0,134,134,111,,,1.199,603.3648501000134,603.7127299000276,603.7295342000434,604.011442499992,604.0282507000375,None,down,604.0282507000375,None,604.0282507000375,605.2110113000381,0.06162699998822063,None,2.7003599000163376,,,,,,,,,15,001,2019_Dec_25_1040,untitled,3.1.0,59.9586884701627,
133,F,N,180,R,N,133FN180RN,HRN,0,135,135,212,,,1.183,606.7962694000453,607.1425572000444,607.1592974000378,607.4430162000353,607.4588377000182,None,up,607.4588377000182,None,607.4588377000182,608.6249186000205,0.06114830001024529,None,2.649038699979428,,,,,,,,,15,001,2019_Dec_25_1040,untitled,3.1.0,59.9586884701627,
_,R,M,0,_,_,_RM000__,N,0,136,136,16,,,0.888,610.178619400016,610.5233737000381,610.5395531000104,610.8223857000121,610.8401230000309,None,down,610.8401230000309,None,610.8401230000309,611.7053938000463,0.0641332000377588,None,1.815255800029263,,,,,,,,,15,001,2019_Dec_25_1040,untitled,3.1.0,59.9586884701627,
422,_4,N,225,L,N,422_4N225LN,HLN,0,137,137,269,,,1.256,612.7271998000215,613.0708025000058,613.087325200031,613.3709785999963,613.3876507999958,None,up,613.3876507999958,None,613.3876507999958,614.6191671999986,0.06485530000645667,None,3.4166442999849096,,,,,,,,,15,001,2019_Dec_25_1040,untitled,3.1.0,59.9586884701627,
452,_5,N,135,R,N,452_5N135RN,HRN,0,138,138,275,,,0.7000000000000001,616.8772134000319,617.2173665000009,617.2336214000243,617.5169603000395,617.5336978000123,None,up,617.5336978000123,None,617.5336978000123,618.2162782000378,0.06612329999916255,None,2.032449899998028,,,,,,,,,15,001,2019_Dec_25_1040,untitled,3.1.0,59.9586884701627,
_,_4,M,315,_,_,__4M315__,N,0,139,139,39,,,1.19,619.6388019000296,619.9814582000254,619.9983751000254,620.2813964000088,620.2981567000388,None,down,620.2981567000388,None,620.2981567000388,621.4639838000294,0.06558039999799803,None,3.2974179000011645,,,,,,,,,15,001,2019_Dec_25_1040,untitled,3.1.0,59.9586884701627,
304,_2,M,315,L,N,304_2M315LN,HLN,0,140,140,159,,,0.909,623.6659872000455,624.013532300014,624.0282582000364,624.3113089000108,624.3278285000124,None,down,624.3278285000124,None,624.3278285000124,625.227106300008,0.06210440001450479,None,2.117336699971929,,,,,,,,,15,001,2019_Dec_25_1040,untitled,3.1.0,59.9586884701627,
_,G,M,180,_,_,_GM180__,N,0,141,141,12,,,0.864,626.5134177000145,626.8589534999919,626.8757522000233,627.1587880000006,627.1753022000194,None,up,627.1753022000194,None,627.1753022000194,628.0246314000105,0.06081350002204999,None,2.7312969000195153,,,,,,,,,15,001,2019_Dec_25_1040,untitled,3.1.0,59.9586884701627,
495,_5,M,270,L,N,495_5M270LN,HLN,0,142,142,190,,,1.177,629.9887824000325,630.3224240000127,630.339200699993,630.6223287000321,630.6388511999976,None,down,630.6388511999976,None,630.6388511999976,631.8045563000487,0.07436510000843555,None,2.633657599973958,,,,,,,,,15,001,2019_Dec_25_1040,untitled,3.1.0,59.9586884701627,
011,R,M,90,R,N,011RM090RN,HRN,0,143,143,98,,,0.916,633.3503272000235,633.6860302000423,633.7037104000337,633.9864161000005,634.0028690000181,None,down,634.0028690000181,None,634.0028690000181,634.9020145999966,0.06938489997992292,None,1.8501854999922216,,,,,,,,,15,001,2019_Dec_25_1040,untitled,3.1.0,59.9586884701627,
_,_5,M,0,_,_,__5M000__,N,0,144,144,40,,,1.17,635.9203876000247,636.2672768000048,636.2841934000026,636.5671161999926,636.5836562000331,None,down,636.5836562000331,None,636.5836562000331,637.7331836000085,0.060288600041531026,None,2.0169550999999046,,,,,,,,,15,001,2019_Dec_25_1040,untitled,3.1.0,59.9586884701627,
_,_5,M,45,_,_,__5M045__,N,0,145,145,41,,,0.961,638.6735347000067,639.0156371000339,639.0314934999915,639.3153058000025,639.331303700048,None,down,639.331303700048,None,639.331303700048,640.2805454000481,0.06603849999373779,None,1.5838803999940865,,,,,,,,,15,001,2019_Dec_25_1040,untitled,3.1.0,59.9586884701627,
_,G,N,270,_,_,_GN270__,N,0,146,146,62,,,0.834,640.987343100016,641.3297117000329,641.3463944999967,641.6292895000079,641.6462614000193,None,up,641.6462614000193,None,641.6462614000193,642.4627270000055,0.06559359998209402,None,1.800974200014025,,,,,,,,,15,001,2019_Dec_25_1040,untitled,3.1.0,59.9586884701627,
_,R,M,45,_,_,_RM045__,N,0,147,147,17,,,1.0210000000000001,643.5138021000312,643.8609467000351,643.877695400035,644.1603291000356,644.1767847000156,None,down,644.1767847000156,None,644.1767847000156,645.1758263999945,0.05986139999004081,None,1.8488320000469685,,,,,,,,,15,001,2019_Dec_25_1040,untitled,3.1.0,59.9586884701627,
035,R,N,90,L,N,035RN090LN,HLN,0,148,148,202,,,1.239,646.0938000000315,646.4421598000336,646.4587701000273,646.7419395000325,646.7592555000447,None,up,646.7592555000447,None,646.7592555000447,647.9740310000489,0.060734900005627424,None,2.114266899996437,,,,,,,,,15,001,2019_Dec_25_1040,untitled,3.1.0,59.9586884701627,
006,R,N,225,R,N,006RN225RN,HRN,0,149,149,197,,,1.042,648.9413763000048,649.2907004000153,649.3067937000305,649.5888485000469,649.606236600026,None,up,649.606236600026,None,649.606236600026,650.6215378000052,0.060457699990365654,None,1.8651603000471368,,,,,,,,,15,001,2019_Dec_25_1040,untitled,3.1.0,59.9586884701627,
003,R,N,90,R,N,003RN090RN,HRN,0,150,150,194,,,0.909,651.5409315000288,651.8876891999971,651.9044072999968,652.1868213000125,652.2040233000298,None,up,652.2040233000298,None,652.2040233000298,653.0859368999954,0.06268800003454089,None,2.349504500045441,,,,,,,,,15,001,2019_Dec_25_1040,untitled,3.1.0,59.9586884701627,
_,_4,M,225,_,_,__4M225__,N,0,151,151,37,,,0.88,654.6388459000154,654.9678335000062,654.9843950000359,655.2680277000181,655.2844747999916,None,up,655.2844747999916,None,655.2844747999916,656.1500782000367,0.07782020000740886,None,2.348371199972462,,,,,,,,,15,001,2019_Dec_25_1040,untitled,3.1.0,59.9586884701627,
013,R,M,180,R,N,013RM180RN,HRN,0,152,152,100,,,0.789,657.7005506000132,658.0485543000395,658.0654379000189,658.34854060004,658.3651457999949,None,up,658.3651457999949,None,658.3651457999949,659.1308675000328,0.060777499980758876,None,2.6813005000003614,,,,,,,,,15,001,2019_Dec_25_1040,untitled,3.1.0,59.9586884701627,
395,_4,M,90,R,N,395_4M090RN,HRN,0,153,153,162,,,0.756,661.1152230000007,661.4623819999979,661.4782507000491,661.7622742000385,661.779564800032,None,down,661.779564800032,None,661.779564800032,662.5121080999961,0.0615381000097841,None,3.31350069999462,,,,,,,,,15,001,2019_Dec_25_1040,untitled,3.1.0,59.9586884701627,
_,F,N,135,_,_,_FN135__,N,0,154,154,51,,,0.767,665.1617549000075,665.508610000019,665.5256694999989,665.8090822999948,665.8090822999948,None,up,665.8090822999948,None,665.8090822999948,666.5742742000148,0.06208980001974851,None,2.530721999995876,,,,,,,,,15,001,2019_Dec_25_1040,untitled,3.1.0,59.9586884701627,
239,G,M,270,L,N,239GM270LN,HLN,0,155,155,142,,,0.868,668.4163400999969,668.7558158000465,668.7726087000337,669.0556971000042,669.0721440000343,None,down,669.0721440000343,None,669.0721440000343,669.92080240004,0.06899559998419136,None,2.2654045000090264,,,,,,,,,15,001,2019_Dec_25_1040,untitled,3.1.0,59.9586884701627,
481,_5,N,0,L,N,481_5N000LN,HLN,0,156,156,280,,,0.864,671.4106596999918,671.7541599000106,671.7700756000122,672.0535847000428,672.0696041000192,None,up,672.0696041000192,None,672.0696041000192,672.9187855000491,0.06640780001180246,None,1.84858319995692,,,,,,,,,15,001,2019_Dec_25_1040,untitled,3.1.0,59.9586884701627,
_,F,N,45,_,_,_FN045__,N,0,157,157,49,,,1.247,673.9888584000291,674.3353863999946,674.3509470000281,674.6340921000228,674.6508306000032,None,up,674.6508306000032,None,674.6508306000032,675.8826963000465,0.06302579998737201,None,1.9834401000407524,,,,,,,,,15,001,2019_Dec_25_1040,untitled,3.1.0,59.9586884701627,
201,G,M,0,R,N,201GM000RN,HRN,0,158,158,128,,,1.0050000000000001,676.7116876000073,677.0490047000349,677.0656634000479,677.3491729000234,677.3657362000085,None,down,677.3657362000085,None,677.3657362000085,678.3480976000428,0.06917360000079498,None,2.4818576999823563,,,,,,,,,15,001,2019_Dec_25_1040,untitled,3.1.0,59.9586884701627,
195,G,N,90,R,N,195GN090RN,HRN,0,159,159,226,,,1.25,679.9450055000489,680.2625584000489,680.2792296000407,680.562642200035,680.5797973000444,None,up,680.5797973000444,None,680.5797973000444,681.8110443000332,0.0890137999667786,None,3.3131481999880634,,,,,,,,,15,001,2019_Dec_25_1040,untitled,3.1.0,59.9586884701627,
_,R,N,45,_,_,_RN045__,N,0,160,160,65,,,1.34,683.9635252000298,684.3087907000445,684.3255938999937,684.6088341000141,684.6249573000241,None,up,684.6249573000241,None,684.6249573000241,685.9405078000273,0.06414199998835102,None,2.1821638999972492,,,,,,,,,15,001,2019_Dec_25_1040,untitled,3.1.0,59.9586884701627,
263,_2,N,270,R,N,263_2N270RN,HRN,0,161,161,246,,,1.242,686.8783707999974,687.2230359000387,687.2397933000466,687.5229321999941,687.5393292999943,None,up,687.5393292999943,None,687.5393292999943,688.7548353000311,0.06485309998970479,None,3.214339999947697,,,,,,,,,15,001,2019_Dec_25_1040,untitled,3.1.0,59.9586884701627,
399,_4,M,270,R,N,399_4M270RN,HRN,0,162,162,166,,,0.913,690.8356237999978,691.1691069999943,691.1856326000416,691.4694885000354,691.4860735000111,None,down,691.4860735000111,None,691.4860735000111,692.385107900016,0.07390289998147637,None,2.3830864000483416,,,,,,,,,15,001,2019_Dec_25_1040,untitled,3.1.0,59.9586884701627,
396,_4,M,135,R,N,396_4M135RN,HRN,0,163,163,163,,,1.07,693.9417843000265,694.2835503999959,694.3003051000414,694.583369,694.6002535000443,None,down,694.6002535000443,None,694.6002535000443,695.649612600042,0.06562530004885048,None,3.032528900017496,,,,,,,,,15,001,2019_Dec_25_1040,untitled,3.1.0,59.9586884701627,
233,G,M,0,L,N,233GM000LN,HLN,0,164,164,136,,,1.282,697.7125636000419,698.0471070000203,698.0637117000297,698.3468431000365,698.3634627000429,None,down,698.3634627000429,None,698.3634627000429,699.6288854000159,0.0703015000326559,None,2.7983394999755546,,,,,,,,,15,001,2019_Dec_25_1040,untitled,3.1.0,59.9586884701627,
226,G,N,45,L,N,226GN045LN,HLN,0,165,165,233,,,1.01,701.2420990000246,701.5771245000069,701.5938412999967,701.8769949999987,701.893451800046,None,up,701.893451800046,None,701.893451800046,702.8920794000151,0.07286090002162382,None,3.1004546000040136,,,,,,,,,15,001,2019_Dec_25_1040,untitled,3.1.0,59.9586884701627,
001,R,N,0,R,N,001RN000RN,HRN,0,166,166,192,,,0.805,705.0680729000014,705.4072088000248,705.423555699992,705.7065877999994,705.7232078000088,None,up,705.7232078000088,None,705.7232078000088,706.506258700043,0.06687129999045283,None,1.8991636999999173,,,,,,,,,15,001,2019_Dec_25_1040,untitled,3.1.0,59.9586884701627,
208,G,M,315,R,N,208GM315RN,HRN,0,167,167,135,,,1.368,707.6900441000471,708.0385420999955,708.0555738999974,708.3386634000344,708.3542801000294,None,down,708.3542801000294,None,708.3542801000294,709.7033604000462,0.06062120001297444,None,2.349712499999441,,,,,,,,,15,001,2019_Dec_25_1040,untitled,3.1.0,59.9586884701627,
_,R,M,270,_,_,_RM270__,N,0,168,168,22,,,0.758,710.7902111000149,711.1189655000344,711.1355698000407,711.4187492000055,711.4354362000013,None,down,711.4354362000013,None,711.4354362000013,712.1689073000452,0.07804230001056567,None,1.716609700000845,,,,,,,,,15,001,2019_Dec_25_1040,untitled,3.1.0,59.9586884701627,
_,G,M,90,_,_,_GM090__,N,0,169,169,10,,,0.9430000000000001,713.2341535000014,713.5667142000166,713.5836407000315,713.867020500009,713.8834243000019,None,down,713.8834243000019,None,713.8834243000019,714.8155185999931,0.07304239994846284,None,3.265875000040978,,,,,,,,,15,001,2019_Dec_25_1040,untitled,3.1.0,59.9586884701627,
424,_4,N,315,L,N,424_4N315LN,HLN,0,170,170,271,,,0.873,717.2171369999996,717.5635391999967,717.5801565000438,717.8629037000355,717.8803269000491,None,up,717.8803269000491,None,717.8803269000491,718.7292710000183,0.06097829999634996,None,2.447777799970936,,,,,,,,,15,001,2019_Dec_25_1040,untitled,3.1.0,59.9586884701627,
_,_4,N,0,_,_,__4N000__,N,0,171,171,80,,,1.235,720.399979400041,720.7439737000386,720.7607809000183,721.0434695000295,721.060177300009,None,up,721.060177300009,None,721.060177300009,722.2759272000403,0.06529719999525696,None,1.9003642000025138,,,,,,,,,15,001,2019_Dec_25_1040,untitled,3.1.0,59.9586884701627,
129,F,N,0,R,N,129FN000RN,HRN,0,172,172,208,,,1.086,723.0296641000314,723.375220899994,723.3917082000407,723.6750385000487,723.6912927000085,None,up,723.6912927000085,None,723.6912927000085,724.7567782000406,0.06256400002166629,None,2.550754399970174,,,,,,,,,15,001,2019_Dec_25_1040,untitled,3.1.0,59.9586884701627,
491,_5,M,90,L,N,491_5M090LN,HLN,0,173,173,186,,,0.8220000000000001,726.3147010999965,726.6555032000178,726.6722068000236,726.9554150000331,726.9724187999964,None,down,726.9724187999964,None,726.9724187999964,727.7710831000004,0.06555810000281781,None,2.0148424999788404,,,,,,,,,15,001,2019_Dec_25_1040,untitled,3.1.0,59.9586884701627,
493,_5,M,180,L,N,493_5M180LN,HLN,0,174,174,188,,,0.875,729.0577043000376,729.4030003999942,729.4196247000364,729.7030313000432,729.7195011000149,None,up,729.7195011000149,None,729.7195011000149,730.5682237000437,0.06399009999586269,None,2.818405999976676,,,,,,,,,15,001,2019_Dec_25_1040,untitled,3.1.0,59.9586884701627,
418,_4,N,45,L,N,418_4N045LN,HLN,0,175,175,265,,,1.1,732.6412782000261,732.95143190003,732.9665037000086,733.2494394000387,733.2661372000002,None,up,733.2661372000002,None,733.2661372000002,734.3490277000237,0.09168429998680949,None,2.3997691000113264,,,,,,,,,15,001,2019_Dec_25_1040,untitled,3.1.0,59.9586884701627,
_,_5,N,45,_,_,__5N045__,N,0,176,176,89,,,1.027,735.7393836000119,736.0801993000205,736.0970164000173,736.3801894999924,736.3967602000339,None,up,736.3967602000339,None,736.3967602000339,737.4125658000121,0.06586540001444519,None,2.082358599989675,,,,,,,,,15,001,2019_Dec_25_1040,untitled,3.1.0,59.9586884701627,
450,_5,N,45,R,N,450_5N045RN,HRN,0,177,177,273,,,0.858,738.5513548000017,738.8948823999963,738.9117909000488,739.1947224000469,739.2113004000275,None,up,739.2113004000275,None,739.2113004000275,740.0436866999953,0.06534760002978146,None,1.5663372999988496,,,,,,,,,15,001,2019_Dec_25_1040,untitled,3.1.0,59.9586884701627,
_,_2,N,180,_,_,__2N180__,N,0,178,178,76,,,1.106,740.8662842000485,741.1927046999917,741.2098444000003,741.493065000046,741.5099622000125,None,up,741.5099622000125,None,741.5099622000125,742.5919961000327,0.08051200001500547,None,2.1140575999743305,,,,,,,,,15,001,2019_Dec_25_1040,untitled,3.1.0,59.9586884701627,
428,_4,M,135,L,N,428_4M135LN,HLN,0,179,179,171,,,0.709,743.7034498000285,744.0405280000414,744.0572337000049,744.3400863000425,744.3566053000395,None,down,744.3566053000395,None,744.3566053000395,745.0393236000091,0.0719208000227809,None,3.233818300010171,,,,,,,,,15,001,2019_Dec_25_1040,untitled,3.1.0,59.9586884701627,
225,G,N,0,L,N,225GN000LN,HLN,0,180,180,232,,,1.147,747.6854553000303,748.0041372000123,748.0201368000126,748.3039151999983,748.3211259000236,None,up,748.3211259000236,None,748.3211259000236,749.452244700049,0.08457919995998964,None,2.3641864000237547,,,,,,,,,15,001,2019_Dec_25_1040,untitled,3.1.0,59.9586884701627,
420,_4,N,135,L,N,420_4N135LN,HLN,0,181,181,267,,,0.8300000000000001,750.7648784000194,751.1010980000137,751.1175083999988,751.4006725000218,751.417244900018,None,up,751.417244900018,None,751.417244900018,752.2329451999976,0.07299260003492236,None,1.866550599981565,,,,,,,,,15,001,2019_Dec_25_1040,untitled,3.1.0,59.9586884701627,
161,F,N,0,L,N,161FN000LN,HLN,0,182,182,216,,,0.864,753.3552539999946,753.6986905999947,753.7169637000188,753.9982623000396,754.0147800000268,None,up,754.0147800000268,None,754.0147800000268,754.8641723000328,0.06478720001177862,None,1.9504475999856368,,,,,,,,,15,001,2019_Dec_25_1040,untitled,3.1.0,59.9586884701627,
264,_2,N,315,R,N,264_2N315RN,HRN,0,183,183,247,,,1.368,756.0570844000322,756.3794139000238,756.3962446000078,756.6796415999997,756.6961674000486,None,up,756.6961674000486,None,756.6961674000486,758.0450463000452,0.08260399999562651,None,2.8315033999970183,,,,,,,,,15,001,2019_Dec_25_1040,untitled,3.1.0,59.9586884701627,
387,_4,N,90,R,N,387_4N090RN,HRN,0,184,184,258,,,1.044,759.6050647000084,759.9431442000205,759.9601735000033,760.2435751000303,760.2599106000271,None,up,760.2599106000271,None,760.2599106000271,761.2914684000425,0.07028849999187514,None,3.0146249000099488,,,,,,,,,15,001,2019_Dec_25_1040,untitled,3.1.0,59.9586884701627,
_,R,N,270,_,_,_RN270__,N,0,185,185,70,,,1.2550000000000001,763.3400568999932,763.6895947000012,763.7067050000187,763.989848600002,764.0064205999952,None,up,764.0064205999952,None,764.0064205999952,765.2383164000348,0.058605599973816425,None,2.7145122999791056,,,,,,,,,15,001,2019_Dec_25_1040,untitled,3.1.0,59.9586884701627,
482,_5,N,45,L,N,482_5N045LN,HLN,0,186,186,281,,,0.921,766.8016866000253,767.1368750000256,767.1528309000423,767.4367962999968,767.4535270000342,None,up,767.4535270000342,None,767.4535270000342,768.3526278000209,0.07338810001965612,None,1.8835185000207275,,,,,,,,,15,001,2019_Dec_25_1040,untitled,3.1.0,59.9586884701627,
_,_4,M,0,_,_,__4M000__,N,0,187,187,32,,,0.793,769.4047690000152,769.7524942000164,769.7680816000211,770.0519111000467,770.0680205000099,None,down,770.0680205000099,None,770.0680205000099,770.8506840000045,0.05996369995409623,None,3.215417700004764,,,,,,,,,15,001,2019_Dec_25_1040,untitled,3.1.0,59.9586884701627,
_,G,N,0,_,_,_GN000__,N,0,188,188,56,,,1.345,773.3544855000218,773.6979772000341,773.7145913999993,773.9976679999963,774.0144093999988,None,up,774.0144093999988,None,774.0144093999988,775.3462607000256,0.06402029999298975,None,3.047477499989327,,,,,,,,,15,001,2019_Dec_25_1040,untitled,3.1.0,59.9586884701627,
164,F,N,135,L,N,164FN135LN,HLN,0,189,189,219,,,1.375,777.1364097000333,777.4775829000282,777.4944873999921,777.7773917000159,777.7941719000228,None,up,777.7941719000228,None,777.7941719000228,779.1432066000416,0.06722639995859936,None,2.6675327999982983,,,,,,,,,15,001,2019_Dec_25_1040,untitled,3.1.0,59.9586884701627,
488,_5,N,315,L,N,488_5N315LN,HLN,0,190,190,287,,,0.93,780.5324751000153,780.8753028000356,780.892718200048,781.1746198000037,781.190709699993,None,up,781.190709699993,None,781.190709699993,782.1068418000359,0.06416129996068776,None,1.9994791999924928,,,,,,,,,15,001,2019_Dec_25_1040,untitled,3.1.0,59.9586884701627,
_,_2,M,45,_,_,__2M045__,N,0,191,191,25,,,0.98,783.2600863000262,783.6061210000189,783.6220021000481,783.9060805000481,783.9222797999973,None,down,783.9222797999973,None,783.9222797999973,784.8877606000169,0.0630078999674879,None,2.4163182000047527,,,,,,,,,15,001,2019_Dec_25_1040,untitled,3.1.0,59.9586884701627,
037,R,N,180,L,N,037RN180LN,HLN,0,192,192,204,,,1.349,786.4312693999964,786.7532541000401,786.7698785000248,787.0529657000443,787.0696655000211,None,up,787.0696655000211,None,787.0696655000211,788.4030561000109,0.08470710000256076,None,2.681295600021258,,,,,,,,,15,001,2019_Dec_25_1040,untitled,3.1.0,59.9586884701627,
_,G,M,315,_,_,_GM315__,N,0,193,193,15,,,0.992,789.8230401000474,790.1672057000105,790.1832540000323,790.4670641000266,790.483845800045,None,down,790.483845800045,None,790.483845800045,791.4500647000386,0.06502380000893027,None,2.165573799982667,,,,,,,,,15,001,2019_Dec_25_1040,untitled,3.1.0,59.9586884701627,
204,G,M,135,R,N,204GM135RN,HRN,0,194,194,131,,,0.869,792.7410696000443,793.0641209000023,793.0809728000313,793.3643392000231,793.3810301000485,None,down,793.3810301000485,None,793.3810301000485,794.2294977999991,0.08253400004468858,None,2.5820332000148483,,,,,,,,,15,001,2019_Dec_25_1040,untitled,3.1.0,59.9586884701627,
176,F,M,315,L,N,176FM315LN,HLN,0,195,195,127,,,1.338,796.0457344000461,796.3777613000129,796.394851100049,796.67835870001,796.695137200004,None,down,796.695137200004,None,796.695137200004,798.0093590000179,0.07562409999081865,None,2.9988844000035897,,,,,,,,,15,001,2019_Dec_25_1040,untitled,3.1.0,59.9586884701627,
394,_4,M,45,R,N,394_4M045RN,HRN,0,196,196,161,,,0.809,799.7659543000045,800.1083900000085,800.1247511000256,800.4075715999934,800.4241959000356,None,down,800.4241959000356,None,800.4241959000356,801.2243088000105,0.06518640002468601,None,2.06745289999526,,,,,,,,,15,001,2019_Dec_25_1040,untitled,3.1.0,59.9586884701627,
486,_5,N,225,L,N,486_5N225LN,HLN,0,197,197,285,,,0.889,802.567117700004,802.9067453000462,802.9222423000028,803.2057565000141,803.2227872000076,None,up,803.2227872000076,None,803.2227872000076,804.0878455000347,0.06858860002830625,None,2.0334194999886677,,,,,,,,,15,001,2019_Dec_25_1040,untitled,3.1.0,59.9586884701627,
_,G,N,90,_,_,_GN090__,N,0,198,198,58,,,0.853,805.3252226000186,805.6702421000227,805.6865134999971,805.9695130000473,805.986105500022,None,up,805.986105500022,None,805.986105500022,806.8192893000087,0.0626916999462992,None,2.4814807000220753,,,,,,,,,15,001,2019_Dec_25_1040,untitled,3.1.0,59.9586884701627,
_,F,N,0,_,_,_FN000__,N,0,199,199,48,,,1.369,808.543484600028,808.8836061000475,808.9003443000256,809.1849057000363,809.1997999000014,None,up,809.1997999000014,None,809.1997999000014,810.5483159000287,0.0681779999868013,None,2.248705699981656,,,,,,,,,15,001,2019_Dec_25_1040,untitled,3.1.0,59.9586884701627,
_,_5,M,180,_,_,__5M180__,N,0,200,200,44,,,1.11,811.5247852000175,811.8651755000465,811.8810539999977,812.1640105000115,812.1805988000124,None,up,812.1805988000124,None,812.1805988000124,813.2793342000223,0.06918340001720935,None,3.281562699994538,,,,,,,,,15,001,2019_Dec_25_1040,untitled,3.1.0,59.9586884701627,
166,F,N,225,L,N,166FN225LN,HLN,0,201,201,221,,,0.857,815.5346992000123,815.8777426000452,815.8944854000001,816.1775423000217,816.1940967999981,None,up,816.1940967999981,None,816.1940967999981,817.0269839999964,0.06488229997921735,None,1.9152999999932945,,,,,,,,,15,001,2019_Dec_25_1040,untitled,3.1.0,59.9586884701627,
457,_5,M,0,R,N,457_5M000RN,HRN,0,202,202,176,,,0.9540000000000001,818.1856716000475,818.5254605000373,818.5422110999934,818.8254002000322,818.8418929000036,None,down,818.8418929000036,None,818.8418929000036,819.7740701000439,0.06910220003919676,None,2.3676291999872774,,,,,,,,,15,001,2019_Dec_25_1040,untitled,3.1.0,59.9586884701627,
043,R,M,90,L,N,043RM090LN,HLN,0,203,203,106,,,1.094,821.2782500000321,821.6225848000031,821.639252700028,821.923025200027,821.938823000004,None,down,821.938823000004,None,821.938823000004,823.0215412999969,0.06062330002896488,None,2.7979459000052884,,,,,,,,,15,001,2019_Dec_25_1040,untitled,3.1.0,59.9586884701627,
_,F,N,180,_,_,_FN180__,N,0,204,204,52,,,0.99,824.8048412000062,825.1527474000468,825.1700002000434,825.4538554000319,825.4696943000308,None,up,825.4696943000308,None,825.4696943000308,826.4358247000491,0.06145570002263412,None,2.4478745000087656,,,,,,,,,15,001,2019_Dec_25_1040,untitled,3.1.0,59.9586884701627,
169,F,M,0,L,N,169FM000LN,HLN,0,205,205,120,,,1.201,828.0019565999974,828.3341871000011,828.3504525000462,828.6333072000416,828.6506278000306,None,down,828.6506278000306,None,828.6506278000306,829.8321490000235,0.07649960002163425,None,2.6318463000352494,,,,,,,,,15,001,2019_Dec_25_1040,untitled,3.1.0,59.9586884701627,
_,_2,N,0,_,_,__2N000__,N,0,206,206,72,,,0.928,831.3517028000206,831.6983524000389,831.7143585000304,831.9978202999919,832.0164883999969,None,up,832.0164883999969,None,832.0164883999969,832.9294388000271,0.06211289996281266,None,2.4974289999809116,,,,,,,,,15,001,2019_Dec_25_1040,untitled,3.1.0,59.9586884701627,
300,_2,M,135,L,N,300_2M135LN,HLN,0,207,207,155,,,1.326,834.5853553000488,834.9279696000158,834.9453690000228,835.2278704000055,835.2440472000162,None,down,835.2440472000162,None,835.2440472000162,836.5600025000167,0.06494800001382828,None,2.9826648999587633,,,,,,,,,15,001,2019_Dec_25_1040,untitled,3.1.0,59.9586884701627,
207,G,M,270,R,N,207GM270RN,HRN,0,208,208,134,,,0.8260000000000001,838.2957105000387,838.6416379000293,838.6581531999982,838.9412980000488,838.9581268000184,None,down,838.9581268000184,None,838.9581268000184,839.7735950000351,0.061534799984656274,None,2.747453799995128,,,,,,,,,15,001,2019_Dec_25_1040,untitled,3.1.0,59.9586884701627,
_,G,N,45,_,_,_GN045__,N,0,209,209,57,,,0.74,841.7781933000078,842.1219446000177,842.1382205000264,842.4214536999934,842.4380344999954,None,up,842.4380344999954,None,842.4380344999954,843.153532300028,0.06405329995322973,None,1.9001023000455461,,,,,,,,,15,001,2019_Dec_25_1040,untitled,3.1.0,59.9586884701627,
_,F,M,315,_,_,_FM315__,N,0,210,210,7,,,0.97,844.4059764000122,844.753018300049,844.7696317000082,845.0525661000283,845.0693728000042,None,down,845.0693728000042,None,845.0693728000042,846.0182028000127,0.06116079998901114,None,2.2317152000032365,,,,,,,,,15,001,2019_Dec_25_1040,untitled,3.1.0,59.9586884701627,
134,F,N,225,R,N,134FN225RN,HRN,0,211,211,213,,,0.88,847.39415930002,847.716667300032,847.7333332000417,848.0163662999985,848.0334437999991,None,up,848.0334437999991,None,848.0334437999991,848.8990283000167,0.0853612000355497,None,2.0320899999933317,,,,,,,,,15,001,2019_Dec_25_1040,untitled,3.1.0,59.9586884701627,
_,_5,N,0,_,_,__5N000__,N,0,212,212,88,,,0.874,850.1357713000034,850.4810643999954,850.4978244000231,850.780308699992,850.7972176000476,None,up,850.7972176000476,None,850.7972176000476,851.6466468000435,0.06356899999082088,None,1.9001460999716073,,,,,,,,,15,001,2019_Dec_25_1040,untitled,3.1.0,59.9586884701627,
299,_2,M,90,L,N,299_2M090LN,HLN,0,213,213,154,,,0.862,852.7700756000122,853.111639300012,853.1284608000424,853.4118051000405,853.4283707000432,None,down,853.4283707000432,None,853.4283707000432,854.2772195000434,0.0659633000032045,None,2.816124100005254,,,,,,,,,15,001,2019_Dec_25_1040,untitled,3.1.0,59.9586884701627,
423,_4,N,270,L,N,423_4N270LN,HLN,0,214,214,270,,,1.2730000000000001,856.3137854000088,856.6586883999989,856.6754401000217,856.9594705000054,856.9754682999919,None,up,856.9754682999919,None,856.9754682999919,858.2241530000465,0.06245229998603463,None,2.648647300025914,,,,,,,,,15,001,2019_Dec_25_1040,untitled,3.1.0,59.9586884701627,
431,_4,M,270,L,N,431_4M270LN,HLN,0,215,215,174,,,1.162,859.6928854000289,860.0394510000478,860.0561485000071,860.3385528000072,860.3550940999994,None,down,860.3550940999994,None,860.3550940999994,861.5044130000169,0.062124599993694574,None,2.2827212999691255,,,,,,,,,15,001,2019_Dec_25_1040,untitled,3.1.0,59.9586884701627,
400,_4,M,315,R,N,400_4M315RN,HRN,0,216,216,167,,,0.9480000000000001,862.7262181999977,863.0532191999955,863.0698160000029,863.3537475000485,863.3697045000154,None,down,863.3697045000154,None,863.3697045000154,864.3024583000224,0.08141899999463931,None,1.9834820000105537,,,,,,,,,15,001,2019_Dec_25_1040,untitled,3.1.0,59.9586884701627,
203,G,M,90,R,N,203GM090RN,HRN,0,217,217,130,,,1.174,865.4218078000122,865.7676346999942,865.7841104000108,866.0671365000308,866.083832400036,None,down,866.083832400036,None,866.083832400036,867.2330025000265,0.06175340001937002,None,2.816194600018207,,,,,,,,,15,001,2019_Dec_25_1040,untitled,3.1.0,59.9586884701627,
_,_4,M,135,_,_,__4M135__,N,0,218,218,35,,,0.866,868.9648921000189,869.3144502000068,869.3308681999915,869.6141173000215,869.6310607000487,None,down,869.6310607000487,None,869.6310607000487,870.4797276000027,0.05782579997321591,None,2.065929199976381,,,,,,,,,15,001,2019_Dec_25_1040,untitled,3.1.0,59.9586884701627,
398,_4,M,225,R,N,398_4M225RN,HRN,0,219,219,165,,,1.389,871.7661794000305,872.1142596999998,872.1290260000387,872.4113941999967,872.4279222000041,None,None,872.4279222000041,None,872.4279222000041,873.7935333999922,0.061558599991258234,None,,,,,,,,,,15,001,2019_Dec_25_1040,untitled,3.1.0,59.9586884701627,
_,_2,M,90,_,_,__2M090__,N,0,220,220,26,,,0.841,875.9598179000313,876.308462200046,876.3248529999983,876.6081613000133,876.6244097000454,875.9598179000313,down,876.6244097000454,None,876.6244097000454,877.4409009999945,0.06105099996784702,None,2.565137199999299,,,,,,,,,15,001,2019_Dec_25_1040,untitled,3.1.0,59.9586884701627,
487,_5,N,270,L,N,487_5N270LN,HLN,0,221,221,286,,,1.072,879.2618549000472,879.6060877999989,879.6222062000306,879.9052871000022,879.9217725000344,None,up,879.9217725000344,None,879.9217725000344,880.9707543000113,0.06570959999226034,None,2.582097100035753,,,,,,,,,15,001,2019_Dec_25_1040,untitled,3.1.0,59.9586884701627,
_,R,N,90,_,_,_RN090__,N,0,222,222,66,,,0.759,882.5743573000073,882.9198499000049,882.9359101000009,883.2189681000309,883.2355603000033,None,up,883.2355603000033,None,883.2355603000033,883.9849062000285,0.06082730001071468,None,2.2985500000067987,,,,,,,,,15,001,2019_Dec_25_1040,untitled,3.1.0,59.9586884701627,
_,_4,M,180,_,_,__4M180__,N,0,223,223,36,,,0.977,885.6126774000004,885.9510294999927,885.9665897000232,886.2503452000092,886.2661540000117,None,None,886.2661540000117,None,886.2661540000117,887.2320492000435,0.07171670004026964,None,,,,,,,,,,15,001,2019_Dec_25_1040,untitled,3.1.0,59.9586884701627,
_,F,M,225,_,_,_FM225__,N,0,224,224,5,,,0.787,889.8003148999996,890.1466091000475,890.1633868000354,890.4477242000285,890.4626584000071,889.8003148999996,down,890.4626584000071,None,890.4626584000071,891.2286597000202,0.06265219999477267,None,2.3508265999844298,,,,,,,,,15,001,2019_Dec_25_1040,untitled,3.1.0,59.9586884701627,
014,R,M,225,R,N,014RM225RN,HRN,0,225,225,101,,,1.088,892.9196085000294,893.2273475000402,893.2436693000491,893.5267721000127,893.5435489999945,None,down,893.5435489999945,None,893.5435489999945,894.6089029000141,0.09658420004416257,None,2.4512788000283763,,,,,,,,,15,001,2019_Dec_25_1040,untitled,3.1.0,59.9586884701627,
485,_5,N,180,L,N,485_5N180LN,HLN,0,226,226,284,,,0.969,896.072214200045,896.407699500036,896.4243793000351,896.707530500018,896.7245473000221,None,up,896.7245473000221,None,896.7245473000221,897.6729577000369,0.07004399999277666,None,2.549812400015071,,,,,,,,,15,001,2019_Dec_25_1040,untitled,3.1.0,59.9586884701627,
262,_2,N,225,R,N,262_2N225RN,HRN,0,227,227,245,,,1.071,899.3563807000173,899.6882483999943,899.7045880000223,899.9877904000459,900.0043149000267,None,up,900.0043149000267,None,900.0043149000267,901.0540732000372,0.07399200001964346,None,2.8338157999678515,,,,,,,,,15,001,2019_Dec_25_1040,untitled,3.1.0,59.9586884701627,
_,_2,N,225,_,_,__2N225__,N,0,228,228,77,,,0.979,902.915206500038,903.2515111000394,903.2683500000276,903.5512780999998,903.5677539000171,None,up,903.5677539000171,None,903.5677539000171,904.5336626000353,0.07007789995986968,None,3.0501931000035256,,,,,,,,,15,001,2019_Dec_25_1040,untitled,3.1.0,59.9586884701627,
388,_4,N,135,R,N,388_4N135RN,HRN,0,229,229,259,,,1.256,906.6904350999976,907.0315078000422,907.0482991000172,907.3312489000382,907.347888600023,None,None,907.347888600023,None,907.347888600023,908.5805755000329,0.06606590002775192,None,,,,,,,,,,15,001,2019_Dec_25_1040,untitled,3.1.0,59.9586884701627,
163,F,N,90,L,N,163FN090LN,HLN,0,230,230,218,,,1.161,910.8868840000359,911.2279848000035,911.2441381000099,911.5283219999983,911.5445000000182,910.8868840000359,up,911.5445000000182,None,911.5445000000182,912.6933930999949,0.06767949997447431,None,2.298364699992817,,,,,,,,,15,001,2019_Dec_25_1040,untitled,3.1.0,59.9586884701627,
_,_4,M,270,_,_,__4M270__,N,0,231,231,38,,,1.072,913.9157884000451,914.2584692999953,914.2750495999935,914.5585516000283,914.5758981000399,None,down,914.5758981000399,None,914.5758981000399,915.6243089000345,0.06546429998707026,None,3.1806840000208467,,,,,,,,,15,001,2019_Dec_25_1040,untitled,3.1.0,59.9586884701627,
_,_4,N,180,_,_,__4N180__,N,0,232,232,84,,,0.886,917.8420860000188,918.1714616999961,918.1882209000178,918.4722924000234,918.4897848000401,None,up,918.4897848000401,None,918.4897848000401,919.3538049000199,0.07748649996938184,None,2.314173999999184,,,,,,,,,15,001,2019_Dec_25_1040,untitled,3.1.0,59.9586884701627,
460,_5,M,135,R,N,460_5M135RN,HRN,0,233,233,179,,,1.1380000000000001,920.8767264999915,921.2189924000413,921.2357628000318,921.5187443000032,921.5357531000045,None,None,921.5357531000045,None,921.5357531000045,922.6516492000083,0.06563440000172704,None,,,,,,,,,,15,001,2019_Dec_25_1040,untitled,3.1.0,59.9586884701627,
_,_2,M,180,_,_,__2M180__,N,0,234,234,28,,,0.9530000000000001,925.0690135000041,925.4156774000148,925.432180200005,925.7155861000065,925.7321082000271,925.0690135000041,down,925.7321082000271,None,925.7321082000271,926.6657862000284,0.062167099968064576,None,2.116718299977947,,,,,,,,,15,001,2019_Dec_25_1040,untitled,3.1.0,59.9586884701627,
_,F,M,270,_,_,_FM270__,N,0,235,235,6,,,0.996,927.9233346999972,928.2635341000278,928.279353000049,928.5636243000044,928.5798937000218,None,down,928.5798937000218,None,928.5798937000218,929.5618448000168,0.06603639997774735,None,2.7807902000495233,,,,,,,,,15,001,2019_Dec_25_1040,untitled,3.1.0,59.9586884701627,
167,F,N,270,L,N,167FN270LN,HLN,0,236,236,222,,,1.174,931.4333824000205,931.7765983000281,931.7928578000283,932.0769710000022,932.0929114000173,None,None,932.0929114000173,None,932.0929114000173,933.2422215000261,0.06538320000981912,None,,,,,,,,,,15,001,2019_Dec_25_1040,untitled,3.1.0,59.9586884701627,
200,G,N,315,R,N,200GN315RN,HRN,0,237,237,231,,,1.346,935.6278655999922,935.9736039999989,935.9898168999935,936.2733792000217,936.2899214000208,935.6278655999922,up,936.2899214000208,None,936.2899214000208,937.621236200037,0.06380459998035803,None,2.4817199999815784,,,,,,,,,15,001,2019_Dec_25_1040,untitled,3.1.0,59.9586884701627,
135,F,N,270,R,N,135FN270RN,HRN,0,238,238,214,,,0.902,938.8608864000416,939.1873601000407,939.2034715000191,939.4864221000462,939.5034915000433,None,up,939.5034915000433,None,939.5034915000433,940.3859899000381,0.08135639998363331,None,1.817004599957727,,,,,,,,,15,001,2019_Dec_25_1040,untitled,3.1.0,59.9586884701627,
004,R,N,135,R,N,004RN135RN,HRN,0,239,239,195,,,1.182,941.4112315000384,941.7346268999972,941.7512908999925,942.0343989999965,942.0514114000252,None,up,942.0514114000252,None,942.0514114000252,943.2165251999977,0.08279139996739104,None,2.447856899991166,,,,,,,,,15,001,2019_Dec_25_1040,untitled,3.1.0,59.9586884701627,
143,F,M,270,R,N,143FM270RN,HRN,0,240,240,118,,,0.894,944.5674787000171,944.9158558000345,944.9323882000172,945.2153946000035,945.2314121000236,None,down,945.2314121000236,None,945.2314121000236,946.1142093000235,0.06165529997088015,None,1.9835187999997288,,,,,,,,,15,001,2019_Dec_25_1040,untitled,3.1.0,59.9586884701627,
_,_4,M,90,_,_,__4M090__,N,0,241,241,34,,,1.1400000000000001,947.2969328000327,947.630043000041,947.6464216000168,947.9295991000254,947.9457699000486,None,up,947.9457699000486,None,947.9457699000486,949.0778405000456,0.07357960002264008,None,2.5652871999773197,,,,,,,,,15,001,2019_Dec_25_1040,untitled,3.1.0,59.9586884701627,
_,F,M,180,_,_,_FM180__,N,0,242,242,4,,,1.2770000000000001,950.5878947000019,950.9268335000379,950.9436665000394,951.2269053999917,951.2429258000338,None,down,951.2429258000338,None,951.2429258000338,952.5086655000341,0.07006980001460761,None,2.882558200042695,,,,,,,,,15,001,2019_Dec_25_1040,untitled,3.1.0,59.9586884701627,
139,F,M,90,R,N,139FM090RN,HRN,0,243,243,114,,,0.743,954.2321735000005,954.5416647000238,954.5568003000226,954.8398878000444,954.8561668000184,None,down,954.8561668000184,None,954.8561668000184,955.589151400025,0.09960459999274462,None,2.082349599979352,,,,,,,,,15,001,2019_Dec_25_1040,untitled,3.1.0,59.9586884701627,
_,G,M,225,_,_,_GM225__,N,0,244,244,13,,,0.727,957.0054080000264,957.3561149000307,957.3712713000132,957.6556857000105,957.6714140000404,None,down,957.6714140000404,None,957.6714140000404,958.3867330999929,0.059750800020992756,None,2.166258300014306,,,,,,,,,15,001,2019_Dec_25_1040,untitled,3.1.0,59.9586884701627,
_,_4,M,45,_,_,__4M045__,N,0,245,245,33,,,1.28,959.9037825000123,960.2523340000189,960.2684070999967,960.5523678000318,960.5690906000091,None,down,960.5690906000091,None,960.5690906000091,961.8339327000431,0.05928230000426993,None,2.5830882000154816,,,,,,,,,15,001,2019_Dec_25_1040,untitled,3.1.0,59.9586884701627,
496,_5,M,315,L,N,496_5M315LN,HLN,0,246,246,191,,,0.901,963.2210719000432,963.5656965000089,963.5826229000231,963.8650306000491,963.8822399000055,None,down,963.8822399000055,None,963.8822399000055,964.7643378000357,0.06226599996443838,None,2.8818304000305943,,,,,,,,,15,001,2019_Dec_25_1040,untitled,3.1.0,59.9586884701627,
417,_4,N,0,L,N,417_4N000LN,HLN,0,247,247,264,,,0.96,966.8359805000364,967.1786508000223,967.1957920000423,967.4785822000122,967.495601600036,None,up,967.495601600036,None,967.495601600036,968.4442933000391,0.06477299996186048,None,1.8486273000016809,,,,,,,,,15,001,2019_Dec_25_1040,untitled,3.1.0,59.9586884701627,
454,_5,N,225,R,N,454_5N225RN,HRN,0,248,248,277,,,1.167,969.4166575000272,969.76053520001,969.7769209000398,970.0597746000276,970.0761157000088,None,up,970.0761157000088,None,970.0761157000088,971.2254534999956,0.06531460001133382,None,2.217519400001038,,,,,,,,,15,001,2019_Dec_25_1040,untitled,3.1.0,59.9586884701627,
230,G,N,225,L,N,230GN225LN,HLN,0,249,249,237,,,1.02,972.3625751000363,972.7077573999995,972.7238995000371,973.0080896000145,973.023562300019,None,up,973.023562300019,None,973.023562300019,974.0230427000206,0.06265869998605922,None,2.3990074999746867,,,,,,,,,15,001,2019_Dec_25_1040,untitled,3.1.0,59.9586884701627,
132,F,N,135,R,N,132FN135RN,HRN,0,250,250,211,,,1.071,975.4936341000139,975.8387489000452,975.8546963999979,976.1379876999999,976.1543788000126,None,up,976.1543788000126,None,976.1543788000126,977.2037585999933,0.06433209998067468,None,2.548971700016409,,,,,,,,,15,001,2019_Dec_25_1040,untitled,3.1.0,59.9586884701627,
_,_5,M,225,_,_,__5M225__,N,0,251,251,45,,,1.016,978.7726375000202,979.1186280000256,979.134990999999,979.418278600031,979.4355896000052,None,down,979.4355896000052,None,979.4355896000052,980.43401180004,0.06263970001600683,None,2.9488300000084564,,,,,,,,,15,001,2019_Dec_25_1040,untitled,3.1.0,59.9586884701627,
265,_2,M,0,R,N,265_2M000RN,HRN,0,252,252,144,,,1.36,982.4714557999978,982.7989264000207,982.8160359000321,983.0986029000487,983.1156832000124,None,down,983.1156832000124,None,983.1156832000124,984.4480384000344,0.08040400000754744,None,2.6147834999719635,,,,,,,,,15,001,2019_Dec_25_1040,untitled,3.1.0,59.9586884701627,
197,G,N,180,R,N,197GN180RN,HRN,0,253,253,228,,,0.9450000000000001,985.8020183000481,986.1458389000036,986.1622955000494,986.4464217000059,986.4622388000134,None,up,986.4622388000134,None,986.4622388000134,987.3951628000359,0.06469959998503327,None,2.3324672999442555,,,,,,,,,15,001,2019_Dec_25_1040,untitled,3.1.0,59.9586884701627,
234,G,M,45,L,N,234GM045LN,HLN,0,254,254,137,,,1.295,988.8648640000029,989.2103521000245,989.2266416000202,989.510076400009,989.5267068000394,None,down,989.5267068000394,None,989.5267068000394,990.8085191000137,0.06273090001195669,None,3.2660103000234812,,,,,,,,,15,001,2019_Dec_25_1040,untitled,3.1.0,59.9586884701627,
458,_5,M,45,R,N,458_5M045RN,HRN,0,255,255,177,,,1.317,992.8602634000126,993.2062739999965,993.2228047000244,993.5064196000458,993.5235265000374,None,down,993.5235265000374,None,993.5235265000374,994.8224397000158,0.06108799995854497,None,3.1971603999845684,,,,,,,,,15,001,2019_Dec_25_1040,untitled,3.1.0,59.9586884701627,
_,F,N,270,_,_,_FN270__,N,0,256,256,54,,,1.05,996.7894156000111,997.1367479000473,997.15283430001,997.4362293000449,997.4529130000155,None,up,997.4529130000155,None,997.4529130000155,998.4851770999958,0.061837100016418844,None,3.115753600024618,,,,,,,,,15,001,2019_Dec_25_1040,untitled,3.1.0,59.9586884701627,
_,G,M,45,_,_,_GM045__,N,0,257,257,9,,,1.366,1000.6427358000074,1000.9831619000179,1001.0027850000188,1001.2829312999966,1001.2997191000031,None,down,1001.2997191000031,None,1001.2997191000031,1002.6481792000122,0.06710290000773966,None,2.647627400001511,,,,,,,,,15,001,2019_Dec_25_1040,untitled,3.1.0,59.9586884701627,
_,G,N,315,_,_,_GN315__,N,0,258,258,63,,,1.3780000000000001,1004.021737800038,1004.3637413000106,1004.3802274000482,1004.6633854000247,1004.6801984000485,None,None,1004.6801984000485,None,1004.6801984000485,1006.0463802000158,0.06654869997873902,None,,,,,,,,,,15,001,2019_Dec_25_1040,untitled,3.1.0,59.9586884701627,
198,G,N,225,R,N,198GN225RN,HRN,0,259,259,229,,,0.835,1008.2244125000434,1008.560104800039,1008.5765762000228,1008.8595007000258,1008.8760809000232,1008.2244125000434,up,1008.8760809000232,None,1008.8760809000232,1009.6920815000194,0.07245180004974827,None,3.4476778999669477,,,,,,,,,15,001,2019_Dec_25_1040,untitled,3.1.0,59.9586884701627,
005,R,N,180,R,N,005RN180RN,HRN,0,260,260,196,,,0.8180000000000001,1012.4009339000331,1012.7395965000032,1012.7568024999928,1013.0402250000043,1013.0585931999958,None,up,1013.0585931999958,None,1013.0585931999958,1013.8559689000249,0.06843550002668053,None,2.212850600015372,,,,,,,,,15,001,2019_Dec_25_1040,untitled,3.1.0,59.9586884701627,
009,R,M,0,R,N,009RM000RN,HRN,0,261,261,96,,,1.081,1015.352685299993,1015.6872554000001,1015.7037389000179,1015.9866332000238,1016.003399200039,None,down,1016.003399200039,None,1016.003399200039,1017.0693051000126,0.07331580005120486,None,2.4162983000278473,,,,,,,,,15,001,2019_Dec_25_1040,untitled,3.1.0,59.9586884701627,
259,_2,N,90,R,N,259_2N090RN,HRN,0,262,262,242,,,1.3940000000000001,1018.4868596000015,1018.8347548000165,1018.8509224000154,1019.1342916000285,1019.1509334000293,None,up,1019.1509334000293,None,1019.1509334000293,1020.5323279000004,0.060332999972160906,None,3.282594600052107,,,,,,,,,15,001,2019_Dec_25_1040,untitled,3.1.0,59.9586884701627,
194,G,N,45,R,N,194GN045RN,HRN,0,263,263,225,,,0.999,1022.5168957000133,1022.8472548000282,1022.8639602000476,1023.147022899997,1023.1636797999963,None,up,1023.1636797999963,None,1023.1636797999963,1024.1461653000442,0.07374269998399541,None,2.4661694999667816,,,,,,,,,15,001,2019_Dec_25_1040,untitled,3.1.0,59.9586884701627,
453,_5,N,180,R,N,453_5N180RN,HRN,0,264,264,276,,,0.704,1025.7219744000467,1026.0444937000284,1026.0610094000003,1026.3438816000125,1026.360557100037,None,up,1026.360557100037,None,1026.360557100037,1027.0437153000385,0.08389660000102594,None,2.6651405000011437,,,,,,,,,15,001,2019_Dec_25_1040,untitled,3.1.0,59.9586884701627,
298,_2,M,45,L,N,298_2M045LN,HLN,0,265,265,153,,,0.9500000000000001,1029.1066103000194,1029.4416392000276,1029.4584235000075,1029.7417335000355,1029.758399500046,None,down,1029.758399500046,None,1029.758399500046,1030.6908542000456,0.07254389999434352,None,2.4310127000208013,,,,,,,,,15,001,2019_Dec_25_1040,untitled,3.1.0,59.9586884701627,
039,R,N,270,L,N,039RN270LN,HLN,0,266,266,206,,,0.755,1032.2650959000457,1032.6063238999923,1032.6225810000324,1032.9058619000134,1032.9229223000002,None,up,1032.9229223000002,None,1032.9229223000002,1033.6546542000142,0.06843949999893084,None,2.3165805999888107,,,,,,,,,15,001,2019_Dec_25_1040,untitled,3.1.0,59.9586884701627,
_,_4,N,270,_,_,__4N270__,N,0,267,267,86,,,0.884,1035.3302366000134,1035.6537863000412,1035.6706110000378,1035.9529474000446,1035.9700539000332,None,down,1035.9700539000332,None,1035.9700539000332,1036.8355914000422,0.07941770000616089,None,2.5649271000293083,,,,,,,,,15,001,2019_Dec_25_1040,untitled,3.1.0,59.9586884701627,
137,F,M,0,R,N,137FM000RN,HRN,0,268,268,112,,,1.276,1038.631494100031,1038.9504660000093,1038.9664268000051,1039.2501600999967,1039.2667315000435,None,down,1039.2667315000435,None,1039.2667315000435,1040.5315152000403,0.08587980002630502,None,2.3321751999901608,,,,,,,,,15,001,2019_Dec_25_1040,untitled,3.1.0,59.9586884701627,
260,_2,N,135,R,N,260_2N135RN,HRN,0,269,269,243,,,0.9550000000000001,1041.6781660999986,1042.014776099997,1042.0313136000186,1042.3139032000327,1042.330182100006,None,up,1042.330182100006,None,1042.330182100006,1043.2628874999937,0.07179139996878803,None,2.4659474000218324,,,,,,,,,15,001,2019_Dec_25_1040,untitled,3.1.0,59.9586884701627,
_,_2,N,315,_,_,__2N315__,N,0,270,270,79,,,0.741,1044.8689612000016,1045.2118758000433,1045.2278144000447,1045.5309591999976,1045.563088099996,None,up,1045.563088099996,None,1045.563088099996,1046.243747600005,0.06614319997606799,None,2.5625257000210695,,,,,,,,,15,001,2019_Dec_25_1040,untitled,3.1.0,59.9586884701627,
_,G,M,135,_,_,_GM135__,N,0,271,271,11,,,1.153,1048.1957030000049,1048.542078700033,1048.5585787000018,1048.8422000000137,1048.8586196000106,None,None,1048.8586196000106,None,1048.8586196000106,1049.9906274999958,0.06313659995794296,None,,,,,,,,,,15,001,2019_Dec_25_1040,untitled,3.1.0,59.9586884701627,
227,G,N,90,L,N,227GN090LN,HLN,0,272,272,234,,,0.914,1052.389810200024,1052.7382195999962,1052.7547462999937,1053.038162700017,1053.0546607000288,1052.389810200024,up,1053.0546607000288,None,1053.0546607000288,1053.9535307000042,0.061276899999938905,None,1.8484721999848261,,,,,,,,,15,001,2019_Dec_25_1040,untitled,3.1.0,59.9586884701627,
271,_2,M,270,R,N,271_2M270RN,HRN,0,273,273,150,,,1.309,1054.9720979999984,1055.318805100047,1055.3355642000097,1055.6183712000493,1055.6350162000163,None,down,1055.6350162000163,None,1055.6350162000163,1056.9339027000242,0.062107999983709306,None,2.5982630000216886,,,,,,,,,15,001,2019_Dec_25_1040,untitled,3.1.0,59.9586884701627,
291,_2,N,90,L,N,291_2N090LN,HLN,0,274,274,250,,,1.239,1058.3009211000171,1058.6494678000454,1058.666338900046,1058.9492077000323,1058.9660934000276,None,up,1058.9660934000276,None,1058.9660934000276,1060.1816419000388,0.060583499958738685,None,2.7829029000131413,,,,,,,,,15,001,2019_Dec_25_1040,untitled,3.1.0,59.9586884701627,
463,_5,M,270,R,N,463_5M270RN,HRN,0,275,275,182,,,1.399,1061.8485361000057,1062.1626431000186,1062.1802627000143,1062.4630086999969,1062.4794016000233,None,down,1062.4794016000233,None,1062.4794016000233,1063.8612457000418,0.08877299999585375,None,2.3484456000151113,,,,,,,,,15,001,2019_Dec_25_1040,untitled,3.1.0,59.9586884701627,
455,_5,N,270,R,N,455_5N270RN,HRN,0,276,276,278,,,0.972,1064.9086400000378,1065.2444911000202,1065.2606554999948,1065.5444119000458,1065.5602983999997,None,up,1065.5602983999997,None,1065.5602983999997,1066.509388400009,0.07396280003013089,None,2.0649201999767683,,,,,,,,,15,001,2019_Dec_25_1040,untitled,3.1.0,59.9586884701627,
430,_4,M,225,L,N,430_4M225LN,HLN,0,277,277,173,,,0.711,1067.6934645000147,1068.0415925999987,1068.0584117000108,1068.341481200012,1068.3597056000144,None,down,1068.3597056000144,None,1068.3597056000144,1069.0571742000175,0.06156780000310391,None,2.3457195999799296,,,,,,,,,15,001,2019_Dec_25_1040,untitled,3.1.0,59.9586884701627,
007,R,N,270,R,N,007RN270RN,HRN,0,278,278,198,,,1.022,1070.7808660000446,1071.121985600039,1071.138936800009,1071.4216080000042,1071.4385430000257,None,up,1071.4385430000257,None,1071.4385430000257,1072.437425000011,0.06835999997565523,None,2.7309609000221826,,,,,,,,,15,001,2019_Dec_25_1040,untitled,3.1.0,59.9586884701627,
_,_2,M,135,_,_,__2M135__,N,0,279,279,27,,,0.809,1074.2362565000076,1074.5858698000084,1074.6031655000406,1074.8853776000324,1074.9019601000473,None,down,1074.9019601000473,None,1074.9019601000473,1075.6847136000288,0.0596949000027962,None,2.5651200999855064,,,,,,,,,15,001,2019_Dec_25_1040,untitled,3.1.0,59.9586884701627,
010,R,M,45,R,N,010RM045RN,HRN,0,280,280,97,,,0.764,1077.539679700043,1077.8833118000184,1077.899945800018,1078.1828666999936,1078.199802200019,None,down,1078.199802200019,None,1078.199802200019,1078.948788000038,0.06572010001400486,None,2.233156299975235,,,,,,,,,15,001,2019_Dec_25_1040,untitled,3.1.0,59.9586884701627,
_,_4,N,225,_,_,__4N225__,N,0,281,281,85,,,0.856,1080.5011877000215,1080.8472573000472,1080.8634958000039,1081.1467592000263,1081.1636661000084,None,up,1081.1636661000084,None,1081.1636661000084,1081.9956974000088,0.06155779998516664,None,2.214621899998747,,,,,,,,,15,001,2019_Dec_25_1040,untitled,3.1.0,59.9586884701627,
_,_5,N,135,_,_,__5N135__,N,0,282,282,91,,,0.739,1083.4467465000344,1083.7946676000138,1083.8114694000105,1084.0946665999945,1084.1105661000474,None,up,1084.1105661000474,None,1084.1105661000474,1084.8272475000122,0.06187750003300607,None,3.0811686999513768,,,,,,,,,15,001,2019_Dec_25_1040,untitled,3.1.0,59.9586884701627,
389,_4,N,180,R,N,389_4N180RN,HRN,0,283,283,260,,,1.243,1087.2757449999917,1087.607385600044,1087.6242156000226,1087.9081866000197,1087.924211900041,None,up,1087.924211900041,None,1087.924211900041,1089.1561615000246,0.07583879999583587,None,2.5834337000269443,,,,,,,,,15,001,2019_Dec_25_1040,untitled,3.1.0,59.9586884701627,
426,_4,M,45,L,N,426_4M045LN,HLN,0,284,284,169,,,1.337,1090.5776245000307,1090.9214134000358,1090.937902500038,1091.2436120000202,1091.259098600014,None,down,1091.259098600014,None,1091.259098600014,1092.5541390000144,0.06344689999241382,None,2.5768410999444313,,,,,,,,,15,001,2019_Dec_25_1040,untitled,3.1.0,59.9586884701627,
_,_4,N,90,_,_,__4N090__,N,0,285,285,82,,,1.242,1093.9065096999984,1094.2523267000215,1094.268726600043,1094.5517020000261,1094.567816100025,None,up,1094.567816100025,None,1094.567816100025,1095.7837433000095,0.06374620000133291,None,3.000983800040558,,,,,,,,,15,001,2019_Dec_25_1040,untitled,3.1.0,59.9586884701627,
492,_5,M,135,L,N,492_5M135LN,HLN,0,286,286,187,,,1.383,1097.6648575,1097.9824985000305,1097.998614500044,1098.2811362000066,1098.2984018000425,None,None,1098.2984018000425,None,1098.2984018000425,1099.6637511000154,0.0847897999919951,None,,,,,,,,,,15,001,2019_Dec_25_1040,untitled,3.1.0,59.9586884701627,
_,_5,N,180,_,_,__5N180__,N,0,287,287,92,,,1.302,1101.8445622000145,1102.1779916000087,1102.1947116000229,1102.4779753000475,1102.4945601000218,1101.8445622000145,up,1102.4945601000218,None,1102.4945601000218,1103.7773400000297,0.07560590002685785,None,2.7005966000142507,,,,,,,,,15,001,2019_Dec_25_1040,untitled,3.1.0,59.9586884701627,
,,,,,,,,,,,,,,,,,,,,,,,,,,,,,1105.2085729000391,None,1139.845873000042,None,1142.6428185999976,None,1147.7714825000148,None,,,,,,,
