Number,Letter,type,Orientation,human,face_type,image,picture,trials.thisRepN,trials.thisTrialN,trials.thisN,trials.thisIndex,text.started,text.stopped,stimulus_duration,CROSS.started,CROSS.stopped,BLANK.started,BLANK.stopped,TEST.started,TEST.stopped,key_JUDGE.keys,key_JUDGE.started,key_JUDGE.stopped,image_2.started,image_2.stopped,ISI.started,ISI.stopped,key_JUDGE.rt,q1.started,q1.stopped,q2.started,q2.stopped,q3.started,q3.stopped,text_2.started,text_2.stopped,participant,session,date,expName,psychopyVersion,frameRate,
393,_4,M,0,R,N,393_4M000RN,HRN,0,0,0,160,23.710548800008837,None,1.205,48.670151700032875,48.97880260000238,48.99576760001946,49.27915390004637,49.29545530001633,None,None,49.29545530001633,None,49.29545530001633,50.49476950004464,0.08983070001704618,None,,,,,,,,,,16,001,2019_Dec_25_1104,untitled,3.1.0,60.58307575794109,
453,_5,N,180,R,N,453_5N180RN,HRN,0,1,1,276,,,0.781,52.87779690005118,53.22605290001957,53.242151400016155,53.52605610003229,53.54361630004132,52.87779690005118,down,53.54361630004132,None,53.54361630004132,None,0.061844499956350774,None,0.4184788999846205,,,,,,,,,16,001,2019_Dec_25_1104,untitled,3.1.0,60.58307575794109,
173,F,M,180,L,N,173FM180LN,HLN,0,2,2,124,,,0.852,54.06245520000812,54.37527380004758,54.39144950004993,54.67432640003972,54.690903900016565,None,down,54.690903900016565,None,54.690903900016565,55.540861700021196,0.08631500002229586,None,2.5484894000110216,,,,,,,,,16,001,2019_Dec_25_1104,untitled,3.1.0,60.58307575794109,
171,F,M,90,L,N,171FM090LN,HLN,0,3,3,122,,,1.324,57.31049030000577,57.655251800024416,57.672134899999946,57.95452570001362,57.97177340002963,None,up,57.97177340002963,None,57.97177340002963,59.2704319000477,0.06414630002109334,None,2.6334055000334047,,,,,,,,,16,001,2019_Dec_25_1104,untitled,3.1.0,60.58307575794109,
043,R,M,90,L,N,043RM090LN,HLN,0,4,4,106,,,0.731,60.67435100005241,61.018930300022475,61.03549350000685,61.31840760004707,61.33511040004669,None,down,61.33511040004669,None,61.33511040004669,62.0508933000383,0.06172759999753907,None,2.648664199979976,,,,,,,,,16,001,2019_Dec_25_1104,untitled,3.1.0,60.58307575794109,
289,_2,N,0,L,N,289_2N000LN,HLN,0,5,5,248,,,1.195,64.05885329999728,64.39971010002773,64.41612360003637,64.69911460002186,64.71568020002451,None,None,64.71568020002451,None,64.71568020002451,65.89807980001206,0.06798809999600053,None,,,,,,,,,,16,001,2019_Dec_25_1104,untitled,3.1.0,60.58307575794109,
272,_2,M,315,R,N,272_2M315RN,HRN,0,6,6,151,,,1.349,68.25110860000132,68.59630560001824,68.61242440005299,68.89576470002066,68.91224820003845,68.25110860000132,down,68.91224820003845,None,68.91224820003845,70.24414240004262,0.06250269996235147,None,2.8821659000241198,,,,,,,,,16,001,2019_Dec_25_1104,untitled,3.1.0,60.58307575794109,
385,_4,N,0,R,N,385_4N000RN,HRN,0,7,7,256,,,1.356,71.87304850004148,72.2091787000536,72.22556650004117,72.50910130003467,72.52529240003787,None,None,72.52529240003787,None,72.52529240003787,73.85765860002721,0.07011710002552718,None,,,,,,,,,,16,001,2019_Dec_25_1104,untitled,3.1.0,60.58307575794109,
015,R,M,270,R,N,015RM270RN,HRN,0,8,8,102,,,1.296,76.05890950001776,76.4060138000059,76.4223120000097,76.70578090002527,76.72256429999834,76.05890950001776,down,76.72256429999834,None,76.72256429999834,78.00422100001015,0.06163080001715571,None,2.882784899964463,,,,,,,,,16,001,2019_Dec_25_1104,untitled,3.1.0,60.58307575794109,
005,R,N,180,R,N,005RN180RN,HRN,0,9,9,196,,,1.096,79.67496630002279,80.01885510003194,80.03592500003288,80.31875890004449,80.33538570004748,None,up,80.33538570004748,None,80.33538570004748,81.41838889999781,0.06279629998607561,None,2.784428899991326,,,,,,,,,16,001,2019_Dec_25_1104,untitled,3.1.0,60.58307575794109,
_,F,N,315,_,_,_FN315__,N,0,10,10,55,,,1.1380000000000001,83.1868012000341,83.53286080004182,83.54934490000596,83.83254530001432,83.84902780002449,None,up,83.84902780002449,None,83.84902780002449,84.96483990002889,0.060093099949881434,None,2.5677123000496067,,,,,,,,,16,001,2019_Dec_25_1104,untitled,3.1.0,60.58307575794109,
_,R,M,315,_,_,_RM315__,N,0,11,11,23,,,0.729,86.48480340000242,86.82991930004209,86.84731390001252,87.12930359999882,87.14607010001782,None,down,87.14607010001782,None,87.14607010001782,87.86194590001833,0.06124470004579052,None,2.148648200032767,,,,,,,,,16,001,2019_Dec_25_1104,untitled,3.1.0,60.58307575794109,
_,_5,N,225,_,_,__5N225__,N,0,12,12,93,,,1.071,89.37773100001505,89.71056610002415,89.72722030000295,90.01071080000838,90.02753870002925,None,up,90.02753870002925,None,90.02753870002925,91.07760950003285,0.0750158000155352,None,2.3314367000130005,,,,,,,,,16,001,2019_Dec_25_1104,untitled,3.1.0,60.58307575794109,
398,_4,M,225,R,N,398_4M225RN,HRN,0,13,13,165,,,1.338,92.43676250003045,92.77553000004264,92.79152100003557,93.07458660000702,93.0913793000509,None,down,93.0913793000509,None,93.0913793000509,94.40579470002558,0.06865450000623241,None,2.4824317000457086,,,,,,,,,16,001,2019_Dec_25_1104,untitled,3.1.0,60.58307575794109,
_,_2,M,270,_,_,__2M270__,N,0,14,14,30,,,0.995,95.64585820003413,95.98783630004618,96.00464370002737,96.2877919000457,96.30425200000172,None,down,96.30425200000172,None,96.30425200000172,97.28686920000473,0.06654229998821393,None,2.817596399981994,,,,,,,,,16,001,2019_Dec_25_1104,untitled,3.1.0,60.58307575794109,
229,G,N,180,L,N,229GN180LN,HLN,0,15,15,236,,,1.174,99.19356630003313,99.53565340000205,99.55226780002704,99.83547530003125,99.85209510003915,None,up,99.85209510003915,None,99.85209510003915,101.01744620001409,0.06323150004027411,None,3.2840322999982163,,,,,,,,,16,001,2019_Dec_25_1104,untitled,3.1.0,60.58307575794109,
033,R,N,0,L,N,033RN000LN,HLN,0,16,16,200,,,1.076,103.22354170004837,103.54973270004848,103.56542500003707,103.84800590004306,103.86492730001919,None,up,103.86492730001919,None,103.86492730001919,104.93080010003177,0.079001700039953,None,1.9821852999739349,,,,,,,,,16,001,2019_Dec_25_1104,untitled,3.1.0,60.58307575794109,
425,_4,M,0,L,N,425_4M000LN,HLN,0,17,17,168,,,1.243,105.91684940003324,106.26328260003356,106.28231800004141,106.56488120002905,106.58001130004413,None,up,106.58001130004413,None,106.58001130004413,107.8119329000474,0.06314209999982268,None,2.015642700018361,,,,,,,,,16,001,2019_Dec_25_1104,untitled,3.1.0,60.58307575794109,
430,_4,M,225,L,N,430_4M225LN,HLN,0,18,18,173,,,0.81,108.66525080002612,109.01208220003173,109.02893110003788,109.3102646000334,109.32716510002501,None,down,109.32716510002501,None,109.32716510002501,110.12617900001351,0.06279629998607561,None,1.966634099953808,,,,,,,,,16,001,2019_Dec_25_1104,untitled,3.1.0,60.58307575794109,
_,_4,N,90,_,_,__4N090__,N,0,19,19,82,,,1.28,111.36256590002449,111.70811990002403,111.7250857000472,112.0079781000386,112.02472909999778,None,up,112.02472909999778,None,112.02472909999778,113.29181550000794,0.06075770000461489,None,2.1657999000162818,,,,,,,,,16,001,2019_Dec_25_1104,untitled,3.1.0,60.58307575794109,
_,F,N,90,_,_,_FN090__,N,0,20,20,50,,,1.22,114.26309480000054,114.6059844000265,114.62245970004005,114.9055688000517,114.92220810003346,None,up,114.92220810003346,None,114.92220810003346,116.12136190000456,0.06587190000573173,None,2.514698600047268,,,,,,,,,16,001,2019_Dec_25_1104,untitled,3.1.0,60.58307575794109,
_,_5,M,90,_,_,__5M090__,N,0,21,21,42,,,0.904,117.50587280001491,117.85304120002547,117.8696278000134,118.15296010003658,118.16950350004481,None,up,118.16950350004481,None,118.16950350004481,119.05175100004999,0.062105300021357834,None,2.84859960002359,,,,,,,,,16,001,2019_Dec_25_1104,untitled,3.1.0,60.58307575794109,
004,R,N,135,R,N,004RN135RN,HRN,0,22,22,195,,,1.366,121.1099781000521,121.43327680003131,121.4497683000518,121.73312290001195,121.75011790002463,None,None,121.75011790002463,None,121.75011790002463,123.09850420005387,0.08324880001600832,None,,,,,,,,,,16,001,2019_Dec_25_1104,untitled,3.1.0,60.58307575794109,
_,_2,N,270,_,_,__2N270__,N,0,23,23,78,,,1.151,125.28373260004446,125.62953440001002,125.64609730005031,125.92915050004376,125.9459112000186,125.28373260004446,up,125.9459112000186,None,125.9459112000186,127.07940750004491,0.060272400034591556,None,2.615650700055994,,,,,,,,,16,001,2019_Dec_25_1104,untitled,3.1.0,60.58307575794109,
_,_2,N,180,_,_,__2N180__,N,0,24,24,76,,,0.966,128.62971130001824,128.97679130005417,128.9934744000202,129.27684639999643,129.29282990004867,None,up,129.29282990004867,None,129.29282990004867,130.24227180000162,0.061636699945665896,None,2.364598800020758,,,,,,,,,16,001,2019_Dec_25_1104,untitled,3.1.0,60.58307575794109,
303,_2,M,270,L,N,303_2M270LN,HLN,0,25,25,158,,,1.313,131.72899810003582,132.07373140001437,132.0904223000398,132.37351710000075,132.39167340000859,None,None,132.39167340000859,None,132.39167340000859,133.6897662000265,0.06375470000784844,None,,,,,,,,,,16,001,2019_Dec_25_1104,untitled,3.1.0,60.58307575794109,
_,F,N,270,_,_,_FN270__,N,0,26,26,54,,,0.705,135.9332631000434,136.270217900048,136.28705590002937,136.57009819999803,136.5870262000244,135.9332631000434,up,136.5870262000244,None,136.5870262000244,137.26926980004646,0.07078740000724792,None,1.9664583000121638,,,,,,,,,16,001,2019_Dec_25_1104,untitled,3.1.0,60.58307575794109,
167,F,N,270,L,N,167FN270LN,HLN,0,27,27,222,,,0.861,138.6365119999973,138.96876479999628,138.984648200043,139.26875550003024,139.28565030003665,None,down,139.28565030003665,None,139.28565030003665,140.13314620003803,0.07457270001759753,None,1.7969845000188798,,,,,,,,,16,001,2019_Dec_25_1104,untitled,3.1.0,60.58307575794109,
270,_2,M,225,R,N,270_2M225RN,HRN,0,28,28,149,,,1.327,141.15344990004087,141.49898390000453,141.51555710000684,141.79864940000698,141.8155558000435,None,down,141.8155558000435,None,141.8155558000435,143.1305034000543,0.06289729999843985,None,2.9313495000242256,,,,,,,,,16,001,2019_Dec_25_1104,untitled,3.1.0,60.58307575794109,
037,R,N,180,L,N,037RN180LN,HLN,0,29,29,204,,,1.2750000000000001,144.81577410001773,145.16247100004693,145.17915989999892,145.4620855000103,145.47894120001,None,up,145.47894120001,None,145.47894120001,146.72853770002257,0.06199060002109036,None,3.2998851999873295,,,,,,,,,16,001,2019_Dec_25_1104,untitled,3.1.0,60.58307575794109,
194,G,N,45,R,N,194GN045RN,HRN,0,30,30,225,,,1.283,148.8476956000086,149.19395620003343,149.2088972000056,149.4918310000212,149.50838110002223,None,up,149.50838110002223,None,149.50838110002223,150.77394610003103,0.061995500000193715,None,3.3658841000287794,,,,,,,,,16,001,2019_Dec_25_1104,untitled,3.1.0,60.58307575794109,
001,R,N,0,R,N,001RN000RN,HRN,0,31,31,192,,,0.926,152.94372720003594,153.28888520004693,153.30562220001593,153.58861780003645,153.6052046000259,None,up,153.6052046000259,None,153.6052046000259,154.5213330000406,0.062491999997291714,None,1.767839299980551,,,,,,,,,16,001,2019_Dec_25_1104,untitled,3.1.0,60.58307575794109,
046,R,M,225,L,N,046RM225LN,HLN,0,32,32,109,,,1.004,155.45998310000869,155.78637450002134,155.80296610004734,156.0861383000156,156.10276290000184,None,down,156.10276290000184,None,156.10276290000184,157.08533820003504,0.07926180004142225,None,3.017168899998069,,,,,,,,,16,001,2019_Dec_25_1104,untitled,3.1.0,60.58307575794109,
_,_4,N,225,_,_,__4N225__,N,0,33,33,85,,,0.925,159.19144710002,159.53371390001848,159.54991880001035,159.83336700004293,159.8492399000097,None,up,159.8492399000097,None,159.8492399000097,160.76561719999881,0.0627717999741435,None,1.8835252999560907,,,,,,,,,16,001,2019_Dec_25_1104,untitled,3.1.0,60.58307575794109,
141,F,M,180,R,N,141FM180RN,HRN,0,34,34,116,,,0.9530000000000001,161.80209650000324,162.14708970003994,162.1639650000143,162.4477797000436,162.4648298000102,None,down,162.4648298000102,None,162.4648298000102,163.39641640003538,0.06276030000299215,None,3.063871099962853,,,,,,,,,16,001,2019_Dec_25_1104,untitled,3.1.0,60.58307575794109,
_,_5,M,315,_,_,__5M315__,N,0,35,35,47,,,0.921,165.61241070000688,165.9442781000398,165.96086590003688,166.24418650002917,166.26082520000637,None,down,166.26082520000637,None,166.26082520000637,167.1595912000048,0.07589380000717938,None,3.332332400023006,,,,,,,,,16,001,2019_Dec_25_1104,untitled,3.1.0,60.58307575794109,
_,_4,N,0,_,_,__4N000__,N,0,36,36,80,,,1.23,169.6790456000017,170.007141900016,170.02383499999996,170.30750770005397,170.3237546000164,None,up,170.3237546000164,None,170.3237546000164,171.5393347000354,0.07773149997228757,None,2.1982444999739528,,,,,,,,,16,001,2019_Dec_25_1104,untitled,3.1.0,60.58307575794109,
428,_4,M,135,L,N,428_4M135LN,HLN,0,37,37,171,,,1.065,172.5959166000248,172.9380441000103,172.95464640000137,173.23909360001562,173.25442690000637,None,down,173.25442690000637,None,173.25442690000637,174.3036601000349,0.06733549997443333,None,2.5661804000264965,,,,,,,,,16,001,2019_Dec_25_1104,untitled,3.1.0,60.58307575794109,
490,_5,M,45,L,N,490_5M045LN,HLN,0,38,38,185,,,1.316,175.88895900000352,176.23545120004565,176.2521014000522,176.53532610001275,176.55178310000338,None,down,176.55178310000338,None,176.55178310000338,177.85046770004556,0.061580700043123215,None,2.883301499998197,,,,,,,,,16,001,2019_Dec_25_1104,untitled,3.1.0,60.58307575794109,
481,_5,N,0,L,N,481_5N000LN,HLN,0,39,39,280,,,0.917,179.5093281000154,179.84870600001886,179.8654864000273,180.14890100003686,180.165778900031,None,up,180.165778900031,None,180.165778900031,181.0643605000223,0.0675399000174366,None,2.4324158999952488,,,,,,,,,16,001,2019_Dec_25_1104,untitled,3.1.0,60.58307575794109,
258,_2,N,45,R,N,258_2N045RN,HRN,0,40,40,241,,,0.892,182.68841170001542,183.0124471000163,183.02883419999853,183.31265040003927,183.32906610000646,None,up,183.32906610000646,None,183.32906610000646,184.21136730001308,0.07924569997703657,None,2.7017372000264004,,,,,,,,,16,001,2019_Dec_25_1104,untitled,3.1.0,60.58307575794109,
_,R,N,180,_,_,_RN180__,N,0,41,41,68,,,1.042,186.11807360005332,186.44313810003223,186.4592749000294,186.7424954000162,186.75985990004847,None,up,186.75985990004847,None,186.75985990004847,187.7924505000119,0.0786583999870345,None,3.363625600002706,,,,,,,,,16,001,2019_Dec_25_1104,untitled,3.1.0,60.58307575794109,
271,_2,M,270,R,N,271_2M270RN,HRN,0,42,42,150,,,0.918,190.1930052000098,190.53949260001536,190.55609220004408,190.83944960002555,190.85611370002152,None,down,190.85611370002152,None,190.85611370002152,191.75495610001963,0.06260020000627264,None,2.4517999999807216,,,,,,,,,16,001,2019_Dec_25_1104,untitled,3.1.0,60.58307575794109,
267,_2,M,90,R,N,267_2M090RN,HRN,0,43,43,146,,,0.806,193.40347460005432,193.72005000000354,193.73689390002983,194.02064719999908,194.03665910003474,None,down,194.03665910003474,None,194.03665910003474,194.83581300004153,0.08525649999501184,None,2.0990226000430994,,,,,,,,,16,001,2019_Dec_25_1104,untitled,3.1.0,60.58307575794109,
295,_2,N,270,L,N,295_2N270LN,HLN,0,44,44,254,,,1.161,196.20717470004456,196.55111040000338,196.56795640004566,196.85099390003597,196.8676483000163,None,up,196.8676483000163,None,196.8676483000163,198.01691780000692,0.06403589999536052,None,2.33109669998521,,,,,,,,,16,001,2019_Dec_25_1104,untitled,3.1.0,60.58307575794109,
451,_5,N,90,R,N,451_5N090RN,HRN,0,45,45,274,,,0.92,199.2746010000119,199.61603080003988,199.63168900000164,199.91447250003694,199.93167190003442,None,up,199.93167190003442,None,199.93167190003442,200.83053910004674,0.0682962000137195,None,2.131286000018008,,,,,,,,,16,001,2019_Dec_25_1104,untitled,3.1.0,60.58307575794109,
_,_5,N,315,_,_,__5N315__,N,0,46,46,95,,,1.367,202.13095600000815,202.47941800003173,202.49770800000988,202.7791649000137,202.79587830003584,None,up,202.79587830003584,None,202.79587830003584,204.14399770001182,0.06118969997623935,None,3.31550279998919,,,,,,,,,16,001,2019_Dec_25_1104,untitled,3.1.0,60.58307575794109,
491,_5,M,90,L,N,491_5M090LN,HLN,0,47,47,186,,,1.035,206.18047410005238,206.52610310004093,206.54338980000466,206.8250586000504,206.84346200001892,None,down,206.84346200001892,None,206.84346200001892,207.85759010002948,0.06164259999059141,None,2.6988153000129387,,,,,,,,,16,001,2019_Dec_25_1104,untitled,3.1.0,60.58307575794109,
301,_2,M,180,L,N,301_2M180LN,HLN,0,48,48,156,,,1.024,209.61188860004768,209.95755430002464,209.97334000002593,210.2554687000229,210.27195390005363,None,None,210.27195390005363,None,210.27195390005363,211.28793460002635,0.06250469997758046,None,,,,,,,,,,16,001,2019_Dec_25_1104,untitled,3.1.0,60.58307575794109,
042,R,M,45,L,N,042RM045LN,HLN,0,49,49,105,,,0.801,213.80516170000192,214.15244070003973,214.16936490003718,214.45241060003173,214.46884720004164,213.80516170000192,down,214.46884720004164,None,214.46884720004164,215.25163740001153,0.06262889999197796,None,1.9675916000269353,,,,,,,,,16,001,2019_Dec_25_1104,untitled,3.1.0,60.58307575794109,
268,_2,M,135,R,N,268_2M135RN,HRN,0,50,50,147,,,1.04,216.50688250001986,216.85012390004704,216.86668470001314,217.1498486000346,217.16649730002973,None,down,217.16649730002973,None,217.16649730002973,218.1819757000194,0.06337480002548546,None,1.9674624999752268,,,,,,,,,16,001,2019_Dec_25_1104,untitled,3.1.0,60.58307575794109,
_,R,N,45,_,_,_RN045__,N,0,51,51,65,,,0.849,219.2034518000437,219.54754060000414,219.56535109999822,219.84732490003807,219.86379270005273,None,up,219.86379270005273,None,219.86379270005273,220.69703170005232,0.061972199997399,None,1.6667426999774761,,,,,,,,,16,001,2019_Dec_25_1104,untitled,3.1.0,60.58307575794109,
204,G,M,135,R,N,204GM135RN,HRN,0,52,52,131,,,0.734,221.60541950003244,221.94569560000673,221.96218160004355,222.24565250001615,222.2621666000341,None,down,222.2621666000341,None,222.2621666000341,222.9782618000172,0.06761039997218177,None,2.0815685999696143,,,,,,,,,16,001,2019_Dec_25_1104,untitled,3.1.0,60.58307575794109,
_,F,M,180,_,_,_FM180__,N,0,53,53,4,,,0.96,224.41350940003758,224.75996160000795,224.77631290000863,225.05946580000455,225.07664060004754,None,down,225.07664060004754,None,225.07664060004754,226.0253596000257,0.06302050000522286,None,3.081248799979221,,,,,,,,,16,001,2019_Dec_25_1104,untitled,3.1.0,60.58307575794109,
041,R,M,0,L,N,041RM000LN,HLN,0,54,54,104,,,1.397,228.24542410002323,228.57309430005262,228.58949900005246,228.8732482000487,228.88991210004315,None,down,228.88991210004315,None,228.88991210004315,230.27186380000785,0.07750549999764189,None,2.3501001999829896,,,,,,,,,16,001,2019_Dec_25_1104,untitled,3.1.0,60.58307575794109,
206,G,M,225,R,N,206GM225RN,HRN,0,55,55,133,,,1.278,231.30872400000226,231.65425800002413,231.6708440000075,231.95459080004366,231.97007840004517,None,down,231.97007840004517,None,231.97007840004517,233.23567650001496,0.062098000023979694,None,3.4003870000015013,,,,,,,,,16,001,2019_Dec_25_1104,untitled,3.1.0,60.58307575794109,
201,G,M,0,R,N,201GM000RN,HRN,0,56,56,128,,,0.897,235.4397512000287,235.78426939999918,235.80062180000823,236.08326860005036,236.09987050003838,None,down,236.09987050003838,None,236.09987050003838,236.98192660004133,0.06268500001169741,None,2.1505502999643795,,,,,,,,,16,001,2019_Dec_25_1104,untitled,3.1.0,60.58307575794109,
199,G,N,270,R,N,199GN270RN,HRN,0,57,57,230,,,0.839,238.35712350002723,238.66439150000224,238.680851800018,238.96428870002273,238.9809412000468,None,up,238.9809412000468,None,238.9809412000468,239.81388430000516,0.09612649999326095,None,1.767768600024283,,,,,,,,,16,001,2019_Dec_25_1104,untitled,3.1.0,60.58307575794109,
234,G,M,45,L,N,234GM045LN,HLN,0,58,58,137,,,0.912,240.8240146000171,241.16199870000128,241.17859380005393,241.46235060004983,241.47910070000216,None,down,241.47910070000216,None,241.47910070000216,242.37744280003244,0.06845389999216422,None,1.9325261000194587,,,,,,,,,16,001,2019_Dec_25_1104,untitled,3.1.0,60.58307575794109,
040,R,N,315,L,N,040RN315LN,HLN,0,59,59,207,,,0.767,243.50653280003462,243.8264710000367,243.8431857000105,244.1264077000087,244.14365230000112,None,up,244.14365230000112,None,244.14365230000112,244.89204950002022,0.08363539999118075,None,1.8650046000257134,,,,,,,,,16,001,2019_Dec_25_1104,untitled,3.1.0,60.58307575794109,
_,_2,N,135,_,_,__2N135__,N,0,60,60,75,,,0.915,246.0811609000084,246.424676500028,246.44122520001838,246.72450870001921,246.74058510002214,None,up,246.74058510002214,None,246.74058510002214,247.64002490002895,0.06556019996060058,None,3.28132100001676,,,,,,,,,16,001,2019_Dec_25_1104,untitled,3.1.0,60.58307575794109,
228,G,N,135,L,N,228GN135LN,HLN,0,61,61,235,,,0.915,250.0923454000149,250.4374198000296,250.45402010000544,250.73741420003353,250.75337420002325,None,up,250.75337420002325,None,250.75337420002325,251.65260080003645,0.06231170002138242,None,2.7334216000162996,,,,,,,,,16,001,2019_Dec_25_1104,untitled,3.1.0,60.58307575794109,
397,_4,M,180,R,N,397_4M180RN,HRN,0,62,62,164,,,1.223,253.55729360005353,253.90243730001384,253.91781280003488,254.20180000003893,254.21745809999993,None,up,254.21745809999993,None,254.21745809999993,255.41777460003505,0.06323510000947863,None,2.5479659999837168,,,,,,,,,16,001,2019_Dec_25_1104,untitled,3.1.0,60.58307575794109,
162,F,N,45,L,N,162FN045LN,HLN,0,63,63,217,,,0.73,256.84799890004797,257.1817821000004,257.19876150001073,257.4822679000208,257.4981775000342,None,up,257.4981775000342,None,257.4981775000342,258.21387240005424,0.07461260003037751,None,2.0158261000178754,,,,,,,,,16,001,2019_Dec_25_1104,untitled,3.1.0,60.58307575794109,
392,_4,N,315,R,N,392_4N315RN,HRN,0,64,64,263,,,1.004,259.58434620004846,259.92898880003486,259.94576130004134,260.22951830003876,260.2454994000145,None,up,260.2454994000145,None,260.2454994000145,261.23813960002735,0.06274150003446266,None,1.7349487000028603,,,,,,,,,16,001,2019_Dec_25_1104,untitled,3.1.0,60.58307575794109,
297,_2,M,0,L,N,297_2M000LN,HLN,0,65,65,152,,,1.331,262.0633057000232,262.393237100041,262.4097066000104,262.69313650002005,262.70980960002635,None,down,262.70980960002635,None,262.70980960002635,264.0256590000354,0.07492650003405288,None,2.6981551999924704,,,,,,,,,16,001,2019_Dec_25_1104,untitled,3.1.0,60.58307575794109,
136,F,N,315,R,N,136FN315RN,HRN,0,66,66,215,,,1.367,265.4773806000012,265.8240496000508,265.8409964000457,266.123209100042,266.1416695000371,None,up,266.1416695000371,None,266.1416695000371,267.4891058000503,0.06247950001852587,None,2.247023799980525,,,,,,,,,16,001,2019_Dec_25_1104,untitled,3.1.0,60.58307575794109,
013,R,M,180,R,N,013RM180RN,HRN,0,67,67,100,,,1.17,268.45962560002226,268.8050200000289,268.8218027999974,269.1047950000502,269.12123900000006,None,down,269.12123900000006,None,269.12123900000006,270.2700241000275,0.06305510003585368,None,2.9993540999712422,,,,,,,,,16,001,2019_Dec_25_1104,untitled,3.1.0,60.58307575794109,
197,G,N,180,R,N,197GN180RN,HRN,0,68,68,228,,,0.919,272.18972850003047,272.53490100003546,272.5514540000004,272.834669200005,272.85142240003916,None,up,272.85142240003916,None,272.85142240003916,273.75065140001243,0.061571799975354224,None,2.7477380000054836,,,,,,,,,16,001,2019_Dec_25_1104,untitled,3.1.0,60.58307575794109,
389,_4,N,180,R,N,389_4N180RN,HRN,0,69,69,260,,,1.351,275.66859500005376,276.0151692000218,276.03295690001687,276.31490550003946,276.3316853000433,None,up,276.3316853000433,None,276.3316853000433,277.66354850004427,0.0626479999627918,None,2.697726499987766,,,,,,,,,16,001,2019_Dec_25_1104,untitled,3.1.0,60.58307575794109,
_,_5,M,0,_,_,__5M000__,N,0,70,70,40,,,0.89,279.09723800001666,279.4454409000464,279.4620772000053,279.7452087000129,279.7631198000163,None,down,279.7631198000163,None,279.7631198000163,280.6278608000139,0.06081819999963045,None,2.348584200022742,,,,,,,,,16,001,2019_Dec_25_1104,untitled,3.1.0,60.58307575794109,
_,_5,N,45,_,_,__5N045__,N,0,71,71,89,,,0.865,282.179654400039,282.5263947000494,282.5431035000365,282.82622430002084,282.84295140003087,None,up,282.84295140003087,None,282.84295140003087,283.69152069999836,0.06130719999782741,None,1.9842595999944024,,,,,,,,,16,001,2019_Dec_25_1104,untitled,3.1.0,60.58307575794109,
134,F,N,225,R,N,134FN225RN,HRN,0,72,72,213,,,0.721,284.89603430003626,285.24072530004196,285.257262900006,285.54051250003977,285.55720530002145,None,up,285.55720530002145,None,285.55720530002145,286.2563864000258,0.06236080004600808,None,1.6985357000376098,,,,,,,,,16,001,2019_Dec_25_1104,untitled,3.1.0,60.58307575794109,
_,_2,N,315,_,_,__2N315__,N,0,73,73,79,,,0.896,287.33712910005124,287.67317500000354,287.68785360001493,287.97108149999985,287.989763300051,None,up,287.989763300051,None,287.989763300051,288.8703991000075,0.07384580001235008,None,1.9803019000100903,,,,,,,,,16,001,2019_Dec_25_1104,untitled,3.1.0,60.58307575794109,
_,_5,M,45,_,_,__5M045__,N,0,74,74,41,,,0.92,290.0368606999982,290.38605060003465,290.40358040004503,290.68627870001364,290.70240850001574,None,down,290.70240850001574,None,290.70240850001574,291.6010976000107,0.06017350003821775,None,2.7172572999843396,,,,,,,,,16,001,2019_Dec_25_1104,untitled,3.1.0,60.58307575794109,
263,_2,N,270,R,N,263_2N270RN,HRN,0,75,75,246,,,0.871,293.50067930005025,293.8326786000398,293.8497403000365,294.13316110003507,294.1493330000085,None,up,294.1493330000085,None,294.1493330000085,294.9985517000314,0.0726509999949485,None,1.7847995999618433,,,,,,,,,16,001,2019_Dec_25_1104,untitled,3.1.0,60.58307575794109,
264,_2,N,315,R,N,264_2N315RN,HRN,0,76,76,247,,,1.0030000000000001,296.01555240002926,296.34724740003,296.36404050001875,296.64714220003225,296.66361400001915,None,up,296.66361400001915,None,296.66361400001915,297.6460404000245,0.07315400004154071,None,1.8191031999886036,,,,,,,,,16,001,2019_Dec_25_1104,untitled,3.1.0,60.58307575794109,
_,_2,M,225,_,_,__2M225__,N,0,77,77,29,,,1.3940000000000001,298.5543429000536,298.89526750001824,298.9119559000246,299.1951984000043,299.21146600000793,None,down,299.21146600000793,None,299.21146600000793,300.5936059000087,0.06477349996566772,None,3.147680499998387,,,,,,,,,16,001,2019_Dec_25_1104,untitled,3.1.0,60.58307575794109,
421,_4,N,180,L,N,421_4N180LN,HLN,0,78,78,268,,,1.249,302.43861450004624,302.7751516000135,302.79170920001343,303.07459200004814,303.09335300000384,None,up,303.09335300000384,None,303.09335300000384,304.3238467000192,0.07184820005204529,None,2.5967219000449404,,,,,,,,,16,001,2019_Dec_25_1104,untitled,3.1.0,60.58307575794109,
269,_2,M,180,R,N,269_2M180RN,HRN,0,79,79,148,,,1.228,305.7621117000235,306.1056713000289,306.1218798000482,306.405516800005,306.42313930002274,None,down,306.42313930002274,None,306.42313930002274,307.636924200051,0.06423920002998784,None,2.6318822000175714,,,,,,,,,16,001,2019_Dec_25_1104,untitled,3.1.0,60.58307575794109,
388,_4,N,135,R,N,388_4N135RN,HRN,0,80,80,259,,,0.8320000000000001,309.13805730000604,309.46929010003805,309.4862722000107,309.76856660004705,309.78540560003603,None,up,309.78540560003603,None,309.78540560003603,310.60179760004394,0.07634160004090518,None,2.2487055999808945,,,,,,,,,16,001,2019_Dec_25_1104,untitled,3.1.0,60.58307575794109,
_,G,N,225,_,_,_GN225__,N,0,81,81,61,,,1.118,312.1191204000497,312.4499377000029,312.4675479000434,312.7495534000336,312.76634830003604,None,up,312.76634830003604,None,312.76634830003604,313.86511760001304,0.07670550001785159,None,2.4978659999906085,,,,,,,,,16,001,2019_Dec_25_1104,untitled,3.1.0,60.58307575794109,
010,R,M,45,R,N,010RM045RN,HRN,0,82,82,97,,,1.032,315.36045380000724,315.68047550000483,315.6971007999964,315.9811904000235,315.99712910002563,None,down,315.99712910002563,None,315.99712910002563,317.0123930000118,0.08717750001233071,None,2.2996927000349388,,,,,,,,,16,001,2019_Dec_25_1104,untitled,3.1.0,60.58307575794109,
290,_2,N,45,L,N,290_2N045LN,HLN,0,83,83,249,,,1.266,318.3924239000189,318.7107764999964,318.7288817000226,319.0108850999968,319.027861700044,None,up,319.027861700044,None,319.027861700044,320.2764315000386,0.08549169998150319,None,2.7332860000315122,,,,,,,,,16,001,2019_Dec_25_1104,untitled,3.1.0,60.58307575794109,
_,R,M,180,_,_,_RM180__,N,0,84,84,20,,,1.27,321.8345917999977,322.17575350002153,322.1915237000212,322.4745659000473,322.4912450000411,None,down,322.4912450000411,None,322.4912450000411,323.74015970004257,0.06674259999999776,None,2.897930799983442,,,,,,,,,16,001,2019_Dec_25_1104,untitled,3.1.0,60.58307575794109,
174,F,M,225,L,N,174FM225LN,HLN,0,85,85,125,,,1.122,325.46348970005056,325.80545710003935,325.8217376000248,326.1059223000193,326.1213214000454,None,down,326.1213214000454,None,326.1213214000454,327.2208170000231,0.06660239998018369,None,2.534286600013729,,,,,,,,,16,001,2019_Dec_25_1104,untitled,3.1.0,60.58307575794109,
166,F,N,225,L,N,166FN225LN,HLN,0,86,86,221,,,0.979,328.72577580000507,329.06987460004166,329.08568050002214,329.36889310000697,329.38525740004843,None,up,329.38525740004843,None,329.38525740004843,330.3510887000011,0.06306329998187721,None,2.432041799998842,,,,,,,,,16,001,2019_Dec_25_1104,untitled,3.1.0,60.58307575794109,
137,F,M,0,R,N,137FM000RN,HRN,0,87,87,112,,,1.121,331.8935113000334,332.23254620004445,332.24907000001986,332.53204700001515,332.54859700001543,None,down,332.54859700001543,None,332.54859700001543,333.6486887000501,0.06934200000250712,None,2.049652999965474,,,,,,,,,16,001,2019_Dec_25_1104,untitled,3.1.0,60.58307575794109,
_,G,M,315,_,_,_GM315__,N,0,88,88,15,,,1.308,334.66619010001887,335.01551050000126,335.0303209000267,335.31410920002963,335.3300275000511,None,down,335.3300275000511,None,335.3300275000511,336.61214939999627,0.06071779999183491,None,2.4186234999797307,,,,,,,,,16,001,2019_Dec_25_1104,untitled,3.1.0,60.58307575794109,
_,_5,M,135,_,_,__5M135__,N,0,89,89,43,,,1.234,337.83732620003866,338.1611894000089,338.17713890003506,338.46044610004174,338.47761440003524,None,down,338.47761440003524,None,338.47761440003524,339.69270110002253,0.07889859995339066,None,2.714165100012906,,,,,,,,,16,001,2019_Dec_25_1104,untitled,3.1.0,60.58307575794109,
_,_5,M,180,_,_,__5M180__,N,0,90,90,44,,,1.068,341.26037560001714,341.60781810001936,341.6248686000472,341.90775850001955,341.9244033000432,None,up,341.9244033000432,None,341.9244033000432,342.97322189999977,0.06140240002423525,None,3.3830147000262514,,,,,,,,,16,001,2019_Dec_25_1104,untitled,3.1.0,60.58307575794109,
195,G,N,90,R,N,195GN090RN,HRN,0,91,91,226,,,1.087,345.3778977000038,345.7220998000121,345.7374088000506,346.0206712000072,346.0371052999981,None,up,346.0371052999981,None,346.0371052999981,347.1039462000481,0.0635286999749951,None,2.631061599997338,,,,,,,,,16,001,2019_Dec_25_1104,untitled,3.1.0,60.58307575794109,
423,_4,N,270,L,N,423_4N270LN,HLN,0,92,92,270,,,0.8130000000000001,348.7381501000491,349.0851469000336,349.10124910000013,349.3844132000231,349.4027799000032,None,up,349.4027799000032,None,349.4027799000032,350.2009607000509,0.06320139998570085,None,1.5478552000131458,,,,,,,,,16,001,2019_Dec_25_1104,untitled,3.1.0,60.58307575794109,
418,_4,N,45,L,N,418_4N045LN,HLN,0,93,93,265,,,0.712,351.0235045000445,351.3662180000101,351.3830182000529,351.66634620004334,351.68287360004615,None,up,351.68287360004615,None,351.68287360004615,352.3811605000519,0.06625289999647066,None,2.3643436999991536,,,,,,,,,16,001,2019_Dec_25_1104,untitled,3.1.0,60.58307575794109,
482,_5,N,45,L,N,482_5N045LN,HLN,0,94,94,281,,,1.122,354.11619770003017,354.46280770003796,354.47964250005316,354.76293540000916,354.78109260002384,None,up,354.78109260002384,None,354.78109260002384,355.8787358000409,0.06274839997058734,None,1.7195614000083879,,,,,,,,,16,001,2019_Dec_25_1104,untitled,3.1.0,60.58307575794109,
226,G,N,45,L,N,226GN045LN,HLN,0,95,95,233,,,1.31,356.59534180001356,356.9113603000296,356.92848270002287,357.2115975000197,357.2284520000103,None,up,357.2284520000103,None,357.2284520000103,358.52652400004445,0.08425860002171248,None,2.317917199980002,,,,,,,,,16,001,2019_Dec_25_1104,untitled,3.1.0,60.58307575794109,
_,F,M,90,_,_,_FM090__,N,0,96,96,2,,,0.9540000000000001,359.6410195000353,359.95869710005354,359.9752826000331,360.2584926999989,360.2751787000452,None,down,360.2751787000452,None,360.2751787000452,361.2240037000156,0.08234620001167059,None,1.9176092999987304,,,,,,,,,16,001,2019_Dec_25_1104,untitled,3.1.0,60.58307575794109,
143,F,M,270,R,N,143FM270RN,HRN,0,97,97,118,,,1.033,362.2670767000527,362.6062712999992,362.6228089000215,362.9053103000042,362.9222755000228,None,down,362.9222755000228,None,362.9222755000228,363.93835990002844,0.0670559000573121,None,2.18314909999026,,,,,,,,,16,001,2019_Dec_25_1104,untitled,3.1.0,60.58307575794109,
225,G,N,0,L,N,225GN000LN,HLN,0,98,98,232,,,1.293,365.1775287000346,365.5209043000359,365.5368982000509,365.82058950001374,365.83700410003075,None,up,365.83700410003075,None,365.83700410003075,367.11969210003735,0.06426760001340881,None,2.766164700035006,,,,,,,,,16,001,2019_Dec_25_1104,untitled,3.1.0,60.58307575794109,
_,F,N,45,_,_,_FN045__,N,0,99,99,49,,,1.109,368.6770964000025,369.0173848000122,369.03400090005016,369.3175692000077,369.3349368000054,None,up,369.3349368000054,None,369.3349368000054,370.4331630000379,0.06723619997501373,None,2.1306480999919586,,,,,,,,,16,001,2019_Dec_25_1104,untitled,3.1.0,60.58307575794109,
163,F,N,90,L,N,163FN090LN,HLN,0,100,100,218,,,0.9590000000000001,371.53508340002736,371.88194700004533,371.89868110005045,372.1808766000322,372.1975860000239,None,up,372.1975860000239,None,372.1975860000239,373.13037600001553,0.06259389995830134,None,1.6494395999470726,,,,,,,,,16,001,2019_Dec_25_1104,untitled,3.1.0,60.58307575794109,
_,_2,M,90,_,_,__2M090__,N,0,101,101,26,,,0.93,373.9153807000257,374.2635855000117,374.2795349000371,374.56222870002966,374.5807966000284,None,down,374.5807966000284,None,374.5807966000284,375.4951561000198,0.061587399977725,None,1.7653611000278033,,,,,,,,,16,001,2019_Dec_25_1104,untitled,3.1.0,60.58307575794109,
291,_2,N,90,L,N,291_2N090LN,HLN,0,102,102,250,,,0.968,376.41502770001534,376.76025740004843,376.77722869999707,377.0616124000517,377.0767877000035,None,up,377.0767877000035,None,377.0767877000035,378.0270969000412,0.06236500001978129,None,1.800409099960234,,,,,,,,,16,001,2019_Dec_25_1104,untitled,3.1.0,60.58307575794109,
132,F,N,135,R,N,132FN135RN,HRN,0,103,103,211,,,1.287,378.9469218000304,379.2918117000372,379.3086620999966,379.5915506000165,379.6081286999979,None,down,379.6081286999979,None,379.6081286999979,380.87369880004553,0.061869500030297786,None,2.4828318000072613,,,,,,,,,16,001,2019_Dec_25_1104,untitled,3.1.0,60.58307575794109,
_,R,N,90,_,_,_RN090__,N,0,104,104,66,,,1.262,382.1602196000167,382.5056897000177,382.52240140002687,382.8053724000347,382.8217974000145,None,up,382.8217974000145,None,382.8217974000145,384.0706339000026,0.062010099994949996,None,2.2339358999743126,,,,,,,,,16,001,2019_Dec_25_1104,untitled,3.1.0,60.58307575794109,
302,_2,M,225,L,N,302_2M225LN,HLN,0,105,105,157,,,1.008,385.12574010004755,385.47003389999736,385.4887006000499,385.76989850000245,385.7867273000302,None,down,385.7867273000302,None,385.7867273000302,386.7851896000211,0.062268100038636476,None,1.8510966000030749,,,,,,,,,16,001,2019_Dec_25_1104,untitled,3.1.0,60.58307575794109,
457,_5,M,0,R,N,457_5M000RN,HRN,0,106,106,176,,,1.121,387.7069374000421,388.051105200022,388.0675473000156,388.35070240002824,388.36695320002036,None,down,388.36695320002036,None,388.36695320002036,389.4664929000428,0.06243190000532195,None,2.465389300021343,,,,,,,,,16,001,2019_Dec_25_1104,untitled,3.1.0,60.58307575794109,
300,_2,M,135,L,N,300_2M135LN,HLN,0,107,107,155,,,1.0190000000000001,390.90168470004573,391.2491985000088,391.26505540002836,391.54782030003844,391.5645027999999,None,up,391.5645027999999,None,391.5645027999999,392.5634806000162,0.062210200005210936,None,2.4656636000145227,,,,,,,,,16,001,2019_Dec_25_1104,untitled,3.1.0,60.58307575794109,
_,F,M,270,_,_,_FM270__,N,0,108,108,6,,,0.883,394.11347229999956,394.4454190999968,394.46383180003613,394.7455685000168,394.762509400025,None,down,394.762509400025,None,394.762509400025,395.6275443000486,0.07486180000705644,None,2.065092900011223,,,,,,,,,16,001,2019_Dec_25_1104,untitled,3.1.0,60.58307575794109,
_,_4,M,315,_,_,__4M315__,N,0,109,109,39,,,0.785,396.89494980004383,397.24278170004254,397.25991330004763,397.54319320002105,397.5607412000536,None,down,397.5607412000536,None,397.5607412000536,398.3260117000318,0.059288799995556474,None,2.6822150999796577,,,,,,,,,16,001,2019_Dec_25_1104,untitled,3.1.0,60.58307575794109,
170,F,M,45,L,N,170FM045LN,HLN,0,110,110,121,,,1.256,400.3111225000466,400.6574937000405,400.6732658999972,400.9564675000147,400.9735879000509,None,down,400.9735879000509,None,400.9735879000509,402.2054750000243,0.0611413000151515,None,2.1324374999967404,,,,,,,,,16,001,2019_Dec_25_1104,untitled,3.1.0,60.58307575794109,
048,R,M,315,L,N,048RM315LN,HLN,0,111,111,111,,,0.8310000000000001,403.1750943000079,403.52084780001314,403.5373634000425,403.8205952999997,403.83710060000885,None,down,403.83710060000885,None,403.83710060000885,404.6529684000416,0.06232659996021539,None,1.6666238000034355,,,,,,,,,16,001,2019_Dec_25_1104,untitled,3.1.0,60.58307575794109,
_,_4,M,45,_,_,__4M045__,N,0,112,112,33,,,0.913,405.59121560002677,405.91915230004815,405.93520550004905,406.2192434000317,406.2346066000173,None,down,406.2346066000173,None,406.2346066000173,407.1341085000313,0.07725279999431223,None,2.651848199951928,,,,,,,,,16,001,2019_Dec_25_1104,untitled,3.1.0,60.58307575794109,
396,_4,M,135,R,N,396_4M135RN,HRN,0,113,113,163,,,1.31,408.956257700047,409.29945410002256,409.3162498000311,409.5986350000021,409.6152326000156,None,down,409.6152326000156,None,409.6152326000156,410.91435110004386,0.06314159999601543,None,3.1508138999924995,,,,,,,,,16,001,2019_Dec_25_1104,untitled,3.1.0,60.58307575794109,
014,R,M,225,R,N,014RM225RN,HRN,0,114,114,101,,,0.968,412.85104830004275,413.17905299999984,413.1958101000055,413.47859030001564,413.4952470000135,None,down,413.4952470000135,None,413.4952470000135,414.4453560000402,0.07756359997438267,None,2.734172700031195,,,,,,,,,16,001,2019_Dec_25_1104,untitled,3.1.0,60.58307575794109,
_,G,M,135,_,_,_GM135__,N,0,115,115,11,,,0.758,416.3021251000464,416.64251670002704,416.65890080004465,416.9423763000523,416.95922380004777,None,down,416.95922380004777,None,416.95922380004777,417.7081345000188,0.06449590000556782,None,2.4339299999992363,,,,,,,,,16,001,2019_Dec_25_1104,untitled,3.1.0,60.58307575794109,
_,R,M,45,_,_,_RM045__,N,0,116,116,17,,,1.227,419.4619502000278,419.8060319000506,419.8232793000061,420.10718970000744,420.1227623000159,None,down,420.1227623000159,None,420.1227623000159,421.33883930003503,0.06229529995471239,None,2.881135899981018,,,,,,,,,16,001,2019_Dec_25_1104,untitled,3.1.0,60.58307575794109,
_,F,M,225,_,_,_FM225__,N,0,117,117,5,,,1.345,423.0780251999968,423.4198618000373,423.43652400001884,423.7196912000072,423.7363648000173,None,down,423.7363648000173,None,423.7363648000173,425.06865680002375,0.06746659998316318,None,3.1496295999968424,,,,,,,,,16,001,2019_Dec_25_1104,untitled,3.1.0,60.58307575794109,
420,_4,N,135,L,N,420_4N135LN,HLN,0,118,118,267,,,0.856,426.9540756000206,427.29979670001194,427.3167951000505,427.6003302000463,427.616635900049,None,up,427.616635900049,None,427.616635900049,428.4489636000362,0.061405599990393966,None,1.767398800002411,,,,,,,,,16,001,2019_Dec_25_1104,untitled,3.1.0,60.58307575794109,
035,R,N,90,L,N,035RN090LN,HLN,0,119,119,202,,,1.331,429.4554985000286,429.7975805000169,429.8141980000073,430.0974384000292,430.11353290005354,None,up,430.11353290005354,None,430.11353290005354,431.42884080001386,0.06487369997194037,None,2.1512531000189483,,,,,,,,,16,001,2019_Dec_25_1104,untitled,3.1.0,60.58307575794109,
240,G,M,315,L,N,240GM315LN,HLN,0,120,120,143,,,1.073,432.3328625000431,432.6790943000233,432.69538690004265,432.9785490000504,432.994830700045,None,down,432.994830700045,None,432.994830700045,434.044080200023,0.060725799994543195,None,2.648123699997086,,,,,,,,,16,001,2019_Dec_25_1104,untitled,3.1.0,60.58307575794109,
391,_4,N,270,R,N,391_4N270RN,HRN,0,121,121,262,,,0.871,435.71301180002047,436.059421700018,436.0759354000329,436.35851750004804,436.3751262000296,None,up,436.3751262000296,None,436.3751262000296,437.22474100004183,0.06256390002090484,None,2.3653077999479137,,,,,,,,,16,001,2019_Dec_25_1104,untitled,3.1.0,60.58307575794109,
492,_5,M,135,L,N,492_5M135LN,HLN,0,122,122,187,,,1.312,438.82649720000336,439.1567245000042,439.172610300011,439.4559136000462,439.4726749000256,None,down,439.4726749000256,None,439.4726749000256,440.7712409000378,0.07859240000834689,None,3.167539799993392,,,,,,,,,16,001,2019_Dec_25_1104,untitled,3.1.0,60.58307575794109,
038,R,N,225,L,N,038RN225LN,HLN,0,123,123,205,,,0.71,442.7080907000345,443.05320850003045,443.070448100043,443.3526225000387,443.3692923000199,None,up,443.3692923000199,None,443.3692923000199,444.0689068000065,0.061094900011084974,None,1.8017397000221536,,,,,,,,,16,001,2019_Dec_25_1104,untitled,3.1.0,60.58307575794109,
_,F,M,315,_,_,_FM315__,N,0,124,124,7,,,1.357,445.2388955000206,445.58403650001856,445.60063040000387,445.8836888000369,445.90024300001096,None,down,445.90024300001096,None,445.90024300001096,447.25012590002734,0.06105570000363514,None,2.7487658000318334,,,,,,,,,16,001,2019_Dec_25_1104,untitled,3.1.0,60.58307575794109,
483,_5,N,90,L,N,483_5N090LN,HLN,0,125,125,282,,,1.084,448.7236340000527,449.0649384999997,449.0810246000183,449.363722100039,449.38031490001595,None,up,449.38031490001595,None,449.38031490001595,450.4463270000415,0.06755759997759014,None,2.032107700011693,,,,,,,,,16,001,2019_Dec_25_1104,untitled,3.1.0,60.58307575794109,
129,F,N,0,R,N,129FN000RN,HRN,0,126,126,208,,,0.87,451.48155630001565,451.8284878000268,451.8453479000018,452.12814760004403,452.1447524999967,None,up,452.1447524999967,None,452.1447524999967,452.9941645000363,0.061992700037080795,None,1.832932699995581,,,,,,,,,16,001,2019_Dec_25_1104,untitled,3.1.0,60.58307575794109,
_,R,M,225,_,_,_RM225__,N,0,127,127,21,,,0.889,454.05538490001345,454.3930560000008,454.4098823000095,454.6929565000464,454.7092072000378,None,down,454.7092072000378,None,454.7092072000378,455.57517770002596,0.07052270002895966,None,2.634130299964454,,,,,,,,,16,001,2019_Dec_25_1104,untitled,3.1.0,60.58307575794109,
_,_5,N,0,_,_,__5N000__,N,0,128,128,88,,,0.9400000000000001,457.4116928000003,457.75688430003356,457.7734991000034,458.0562875000178,458.07400459999917,None,up,458.07400459999917,None,458.07400459999917,458.98878410004545,0.061379300022963434,None,1.8501319999922998,,,,,,,,,16,001,2019_Dec_25_1104,untitled,3.1.0,60.58307575794109,
_,_2,M,180,_,_,__2M180__,N,0,129,129,28,,,1.3800000000000001,459.99432779999916,460.3382466000039,460.3547876000521,460.63747280003736,460.65497490001144,None,down,460.65497490001144,None,460.65497490001144,462.02029570000013,0.06358229997567832,None,3.1821494000032544,,,,,,,,,16,001,2019_Dec_25_1104,untitled,3.1.0,60.58307575794109,
_,G,N,180,_,_,_GN180__,N,0,130,130,60,,,1.129,463.91145420004614,464.25099050003337,464.2676831000135,464.55097750003915,464.5679133000085,None,up,464.5679133000085,None,464.5679133000085,465.68405209999764,0.0668015000410378,None,2.649217400001362,,,,,,,,,16,001,2019_Dec_25_1104,untitled,3.1.0,60.58307575794109,
_,_4,N,270,_,_,__4N270__,N,0,131,131,86,,,0.8170000000000001,467.28477220004424,467.631589800003,467.64835640002275,467.9316862000269,467.94804220000515,None,up,467.94804220000515,None,467.94804220000515,468.746940800047,0.060612999950535595,None,1.432709100015927,,,,,,,,,16,001,2019_Dec_25_1104,untitled,3.1.0,60.58307575794109,
_,_5,N,135,_,_,__5N135__,N,0,132,132,91,,,1.221,469.4634415000328,469.7960362000158,469.812751999998,470.09603030001745,470.1125442000339,None,up,470.1125442000339,None,470.1125442000339,471.3117305000196,0.07486290001543239,None,2.248191099963151,,,,,,,,,16,001,2019_Dec_25_1104,untitled,3.1.0,60.58307575794109,
493,_5,M,180,L,N,493_5M180LN,HLN,0,133,133,188,,,1.361,472.43202860001475,472.77711210004054,472.7935647999984,473.077240100014,473.0932735000388,None,up,473.0932735000388,None,473.0932735000388,474.4418347000028,0.06438870000420138,None,3.2979785000206903,,,,,,,,,16,001,2019_Dec_25_1104,untitled,3.1.0,60.58307575794109,
036,R,N,135,L,N,036RN135LN,HLN,0,134,134,203,,,1.031,476.46543070004554,476.80665390001377,476.823682700051,477.1066147000529,477.1239448999986,None,up,477.1239448999986,None,477.1239448999986,478.1388810000499,0.06692940002540126,None,1.6993905000272207,,,,,,,,,16,001,2019_Dec_25_1104,untitled,3.1.0,60.58307575794109,
_,F,M,135,_,_,_FM135__,N,0,135,135,3,,,0.981,478.8923383000074,479.2381816999987,479.25500990002183,479.5376737000188,479.5544083000277,None,up,479.5544083000277,None,479.5544083000277,480.5201264000498,0.06221099995309487,None,1.7683726000250317,,,,,,,,,16,001,2019_Dec_25_1104,untitled,3.1.0,60.58307575794109,
_,_5,N,270,_,_,__5N270__,N,0,136,136,94,,,1.2750000000000001,481.40823970001657,481.73563570005354,481.7528508999967,482.0357971000485,482.05242410005303,None,up,482.05242410005303,None,482.05242410005303,483.31766560004326,0.07593060005456209,None,2.182113600021694,,,,,,,,,16,001,2019_Dec_25_1104,untitled,3.1.0,60.58307575794109,
236,G,M,135,L,N,236GM135LN,HLN,0,137,137,139,,,1.2690000000000001,484.3183723000111,484.64962930005277,484.6661321000429,484.9496110000182,484.96621590002906,None,down,484.96621590002906,None,484.96621590002906,486.2151897000149,0.07593059999635443,None,2.1316809999989346,,,,,,,,,16,001,2019_Dec_25_1104,untitled,3.1.0,60.58307575794109,
394,_4,M,45,R,N,394_4M045RN,HRN,0,138,138,161,,,0.708,487.16731900000013,487.5144641000079,487.53064890002133,487.81380900001386,487.830651700031,None,down,487.830651700031,None,487.830651700031,488.5136517000501,0.06227320001926273,None,2.0842960000154562,,,,,,,,,16,001,2019_Dec_25_1104,untitled,3.1.0,60.58307575794109,
_,_2,M,45,_,_,__2M045__,N,0,139,139,25,,,0.743,489.9840829000459,490.3289814000018,490.3450982000213,490.62803160003386,490.64479500002926,None,down,490.64479500002926,None,490.64479500002926,491.3773247000063,0.06151460000546649,None,2.048838999995496,,,,,,,,,16,001,2019_Dec_25_1104,untitled,3.1.0,60.58307575794109,
459,_5,M,90,R,N,459_5M090RN,HRN,0,140,140,178,,,1.114,492.76980560005177,493.1092800000333,493.12657350004883,493.4093087000074,493.42556100001093,None,down,493.42556100001093,None,493.42556100001093,494.5247257000301,0.06911979999858886,None,2.548726499953773,,,,,,,,,16,001,2019_Dec_25_1104,untitled,3.1.0,60.58307575794109,
231,G,N,270,L,N,231GN270LN,HLN,0,141,141,238,,,0.7030000000000001,496.0444725000416,496.3908829000429,496.4063132000156,496.6900027000229,496.7060696000117,None,up,496.7060696000117,None,496.7060696000117,497.38849040004425,0.06160389998694882,None,1.418506299960427,,,,,,,,,16,001,2019_Dec_25_1104,untitled,3.1.0,60.58307575794109,
455,_5,N,270,R,N,455_5N270RN,HRN,0,142,142,278,,,0.917,498.1938791000284,498.5381481000222,498.5539832000504,498.8376575000002,498.85403430002043,None,up,498.85403430002043,None,498.85403430002043,499.7533981000306,0.06241109996335581,None,1.64907750004204,,,,,,,,,16,001,2019_Dec_25_1104,untitled,3.1.0,60.58307575794109,
_,_2,N,90,_,_,__2N090__,N,0,143,143,74,,,1.189,500.56941490003373,500.918825700006,500.9354615000193,501.2187705000397,501.23510580003494,None,up,501.23510580003494,None,501.23510580003494,502.4019098000135,0.05929369997465983,None,2.7000167000223882,,,,,,,,,16,001,2019_Dec_25_1104,untitled,3.1.0,60.58307575794109,
008,R,N,315,R,N,008RN315RN,HRN,0,144,144,199,,,0.931,504.0276222000248,504.3490405000048,504.3660615000408,504.65004980005324,504.6666027000174,None,up,504.6666027000174,None,504.6666027000174,505.5816465000389,0.08383789996150881,None,1.549747400043998,,,,,,,,,16,001,2019_Dec_25_1104,untitled,3.1.0,60.58307575794109,
_,F,N,180,_,_,_FN180__,N,0,145,145,52,,,0.843,506.2857353000436,506.63106230000267,506.6471884000348,506.9306083000265,506.9471404000069,None,up,506.9471404000069,None,506.9471404000069,507.7800405000453,0.061850099998991936,None,2.099733200040646,,,,,,,,,16,001,2019_Dec_25_1104,untitled,3.1.0,60.58307575794109,
387,_4,N,90,R,N,387_4N090RN,HRN,0,146,146,258,,,1.332,509.13086180004757,509.4615760000306,509.47877730004257,509.76169090002077,509.7782602000516,None,down,509.7782602000516,None,509.7782602000516,511.0934077000129,0.07566680002491921,None,2.2345375000149943,,,,,,,,,16,001,2019_Dec_25_1104,untitled,3.1.0,60.58307575794109,
_,G,N,0,_,_,_GN000__,N,0,147,147,56,,,1.36,512.0807098000078,512.4255919000134,512.4422852999996,512.7257926000166,512.742196200008,None,up,512.742196200008,None,512.742196200008,514.0906807000283,0.060991000034846365,None,2.231804999988526,,,,,,,,,16,001,2019_Dec_25_1104,untitled,3.1.0,60.58307575794109,
464,_5,M,315,R,N,464_5M315RN,HRN,0,148,148,183,,,0.798,515.0554785000277,515.3897043000325,515.4064980000257,515.6892539000255,515.706022600003,None,down,515.706022600003,None,515.706022600003,516.488397100009,0.07388769998215139,None,1.7984882000018843,,,,,,,,,16,001,2019_Dec_25_1104,untitled,3.1.0,60.58307575794109,
266,_2,M,45,R,N,266_2M045RN,HRN,0,149,149,145,,,0.921,517.5754960000049,517.9208201000001,517.9379131000023,518.2210767000215,518.2373567000031,None,down,518.2373567000031,None,518.2373567000031,519.1376276000519,0.06389550003223121,None,2.4647336000343785,,,,,,,,,16,001,2019_Dec_25_1104,untitled,3.1.0,60.58307575794109,
_,_4,M,90,_,_,__4M090__,N,0,150,150,34,,,0.96,520.7744176000124,521.1186916000443,521.134858000034,521.4181160000153,521.4344817000092,None,down,521.4344817000092,None,521.4344817000092,522.3835932000075,0.06497780000790954,None,2.467875999980606,,,,,,,,,16,001,2019_Dec_25_1104,untitled,3.1.0,60.58307575794109,
_,G,M,270,_,_,_GM270__,N,0,151,151,14,,,0.916,523.9882860000362,524.3154052000027,524.3321919000009,524.6153474000166,524.6322362000355,None,down,524.6322362000355,None,524.6322362000355,525.5326014000457,0.07653969997772947,None,2.198008299979847,,,,,,,,,16,001,2019_Dec_25_1104,untitled,3.1.0,60.58307575794109,
144,F,M,315,R,N,144FM315RN,HRN,0,152,152,119,,,1.084,526.9019876000239,527.2461872000131,527.2624176000245,527.5455954000354,527.5631090000388,None,down,527.5631090000388,None,527.5631090000388,528.6279386000242,0.06443139998009428,None,2.3479262000182644,,,,,,,,,16,001,2019_Dec_25_1104,untitled,3.1.0,60.58307575794109,
164,F,N,135,L,N,164FN135LN,HLN,0,153,153,219,,,0.96,529.9940207000473,530.3280163000454,530.3435107000405,530.6274830000475,530.6431007000501,None,up,530.6431007000501,None,530.6431007000501,531.5931929000071,0.07543110003462061,None,1.8321825999883004,,,,,,,,,16,001,2019_Dec_25_1104,untitled,3.1.0,60.58307575794109,
488,_5,N,315,L,N,488_5N315LN,HLN,0,154,154,287,,,1.037,532.5447450000211,532.8928466000361,532.9076117000077,533.1914478000253,533.2081644000136,None,down,533.2081644000136,None,533.2081644000136,534.2233232000144,0.06066449999343604,None,2.26465470000403,,,,,,,,,16,001,2019_Dec_25_1104,untitled,3.1.0,60.58307575794109,
140,F,M,135,R,N,140FM135RN,HRN,0,155,155,115,,,1.193,535.5422690000269,535.8892968000146,535.9078082000487,536.1879952000454,536.2063839000184,None,down,536.2063839000184,None,536.2063839000184,537.3874013000168,0.06216840003617108,None,2.366097899968736,,,,,,,,,16,001,2019_Dec_25_1104,untitled,3.1.0,60.58307575794109,
_,_4,M,0,_,_,__4M000__,N,0,156,156,32,,,1.19,538.6415734000038,538.98618300003,539.0027962000459,539.286103600054,539.3029039000394,None,up,539.3029039000394,None,539.3029039000394,540.4678172999993,0.06248960003722459,None,2.697320099978242,,,,,,,,,16,001,2019_Dec_25_1104,untitled,3.1.0,60.58307575794109,
_,G,N,270,_,_,_GN270__,N,0,157,157,62,,,1.223,542.0684444000362,542.4175523000304,542.433215600031,542.7159707000246,542.7336419000058,None,up,542.7336419000058,None,542.7336419000058,543.9317423000466,0.061057700018864125,None,2.16664569999557,,,,,,,,,16,001,2019_Dec_25_1104,untitled,3.1.0,60.58307575794109,
_,R,M,90,_,_,_RM090__,N,0,158,158,18,,,1.035,544.9750707000494,545.3140295000048,545.3302384000272,545.6136779000517,545.6300931000151,None,down,545.6300931000151,None,545.6300931000151,546.6460080000106,0.06736829999135807,None,3.149963299976662,,,,,,,,,16,001,2019_Dec_25_1104,untitled,3.1.0,60.58307575794109,
454,_5,N,225,R,N,454_5N225RN,HRN,0,159,159,277,,,0.877,548.8544775000191,549.1937433000421,549.210421100026,549.4937933000037,549.5125136999995,None,up,549.5125136999995,None,549.5125136999995,550.375874600024,0.067091699980665,None,1.562961700023152,,,,,,,,,16,001,2019_Dec_25_1104,untitled,3.1.0,60.58307575794109,
_,G,N,45,_,_,_GN045__,N,0,160,160,57,,,0.791,551.1464785000426,551.4921102000517,551.5088646000368,551.791932400025,551.8092612000182,None,up,551.8092612000182,None,551.8092612000182,552.57446600002,0.06360619998304173,None,2.215888399980031,,,,,,,,,16,001,2019_Dec_25_1104,untitled,3.1.0,60.58307575794109,
196,G,N,135,R,N,196GN135RN,HRN,0,161,161,227,,,0.864,554.0965810000198,554.4389712000266,554.4557536000502,554.7384544000379,554.7551862000255,None,up,554.7551862000255,None,554.7551862000255,555.6059165000333,0.0639958999818191,None,2.998124999983702,,,,,,,,,16,001,2019_Dec_25_1104,untitled,3.1.0,60.58307575794109,
045,R,M,180,L,N,045RM180LN,HLN,0,162,162,108,,,1.324,557.8212479000213,558.1692925000098,558.1863052000408,558.4698462000233,558.4856056999997,None,down,558.4856056999997,None,558.4856056999997,559.7842234999989,0.061436999996658415,None,3.114852599974256,,,,,,,,,16,001,2019_Dec_25_1104,untitled,3.1.0,60.58307575794109,
235,G,M,90,L,N,235GM090LN,HLN,0,163,163,138,,,1.084,561.6752115000272,562.0157859000028,562.032189700054,562.3156186999986,562.3320916000521,None,down,562.3320916000521,None,562.3320916000521,563.3978661000147,0.06684389995643869,None,2.1504344000131823,,,,,,,,,16,001,2019_Dec_25_1104,untitled,3.1.0,60.58307575794109,
_,G,M,90,_,_,_GM090__,N,0,164,164,10,,,0.781,564.5615937000257,564.8969379000482,564.9137727000052,565.1964323000284,565.2132791000186,None,down,565.2132791000186,None,565.2132791000186,565.9792338000261,0.07172479998553172,None,1.9649055999470875,,,,,,,,,16,001,2019_Dec_25_1104,untitled,3.1.0,60.58307575794109,
496,_5,M,315,L,N,496_5M315LN,HLN,0,165,165,191,,,1.193,567.2493577999994,567.594383800053,567.6111260000034,567.8943549999967,567.9109085000237,None,down,567.9109085000237,None,567.9109085000237,569.0926886000088,0.06325930001912639,None,2.7312791000003926,,,,,,,,,16,001,2019_Dec_25_1104,untitled,3.1.0,60.58307575794109,
460,_5,M,135,R,N,460_5M135RN,HRN,0,166,166,179,,,0.895,570.7233884000452,571.0582489000517,571.0751056000008,571.3577883000253,571.3745112000033,None,down,571.3745112000033,None,571.3745112000033,572.2569801000063,0.07058749999850988,None,2.7644864000030793,,,,,,,,,16,001,2019_Dec_25_1104,untitled,3.1.0,60.58307575794109,
390,_4,N,225,R,N,390_4N225RN,HRN,0,167,167,261,,,0.712,574.2246863000328,574.5546207000152,574.5714053999982,574.8549801000045,574.8714657000382,None,up,574.8714657000382,None,574.8714657000382,575.5708163000527,0.07926580001367256,None,1.6849656000267714,,,,,,,,,16,001,2019_Dec_25_1104,untitled,3.1.0,60.58307575794109,
417,_4,N,0,L,N,417_4N000LN,HLN,0,168,168,264,,,1.331,576.6287168000126,576.9695197000401,576.9872617000365,577.2693854000536,577.2859847000218,None,up,577.2859847000218,None,577.2859847000218,578.6011316000368,0.06516299996292219,None,1.9345895000151359,,,,,,,,,16,001,2019_Dec_25_1104,untitled,3.1.0,60.58307575794109,
452,_5,N,135,R,N,452_5N135RN,HRN,0,169,169,275,,,1.071,579.3018892999971,579.6344199000159,579.6509113000357,579.9733198000467,579.9733198000467,None,up,579.9733198000467,None,579.9733198000467,581.0009316000505,0.0729917999706231,None,2.37538779998431,,,,,,,,,16,001,2019_Dec_25_1104,untitled,3.1.0,60.58307575794109,
135,F,N,270,R,N,135FN270RN,HRN,0,170,170,214,,,1.292,582.4192953000311,582.7646076000528,582.7828403000021,583.0639436000492,583.0817733000149,None,up,583.0817733000149,None,583.0817733000149,584.3463867999963,0.06371680001029745,None,2.030952100001741,,,,,,,,,16,001,2019_Dec_25_1104,untitled,3.1.0,60.58307575794109,
262,_2,N,225,R,N,262_2N225RN,HRN,0,171,171,245,,,0.77,585.1829083000193,585.5288512000116,585.5460880000028,585.8298007000121,585.8451261000009,None,up,585.8451261000009,None,585.8451261000009,586.5945022000233,0.06310149998171255,None,1.7345491999876685,,,,,,,,,16,001,2019_Dec_25_1104,untitled,3.1.0,60.58307575794109,
233,G,M,0,L,N,233GM000LN,HLN,0,172,172,136,,,0.762,587.6492787000025,587.993504300015,588.0118192000082,588.2931434000493,588.309582100017,None,down,588.309582100017,None,588.309582100017,589.058993100014,0.06290449999505654,None,1.8488307000370696,,,,,,,,,16,001,2019_Dec_25_1104,untitled,3.1.0,60.58307575794109,
487,_5,N,270,L,N,487_5N270LN,HLN,0,173,173,286,,,0.916,590.233166799997,590.573990600009,590.5907319000107,590.8739538000082,590.8908818000345,None,up,590.8908818000345,None,590.8908818000345,591.7899395000422,0.067216900002677,None,2.3320707000093535,,,,,,,,,16,001,2019_Dec_25_1104,untitled,3.1.0,60.58307575794109,
139,F,M,90,R,N,139FM090RN,HRN,0,174,174,114,,,1.153,593.2948208000162,593.6380149000324,593.6572675000061,593.9384709000005,593.9554243000457,None,down,593.9554243000457,None,593.9554243000457,595.0869353000307,0.06451660004677251,None,2.9329209999996237,,,,,,,,,16,001,2019_Dec_25_1104,untitled,3.1.0,60.58307575794109,
462,_5,M,225,R,N,462_5M225RN,HRN,0,175,175,181,,,0.984,596.956539100036,597.3016761000035,597.3185921999975,597.6020326000289,597.6185044000158,None,None,597.6185044000158,None,597.6185044000158,598.5838945000432,0.061596899991855025,None,,,,,,,,,,16,001,2019_Dec_25_1104,untitled,3.1.0,60.58307575794109,
_,R,N,0,_,_,_RN000__,N,0,176,176,64,,,1.065,601.1791818000493,601.4978679000051,601.5146101000137,601.7984585000086,601.8141537000192,601.1791818000493,up,601.8141537000192,None,601.8141537000192,602.8633875000523,0.0877745000179857,None,2.1684133999515325,,,,,,,,,16,001,2019_Dec_25_1104,untitled,3.1.0,60.58307575794109,
002,R,N,45,R,N,002RN045RN,HRN,0,177,177,193,,,1.391,604.0501694999984,604.3955494000111,604.4123248000396,604.6952246000292,604.7122431000462,None,up,604.7122431000462,None,604.7122431000462,606.0941226000432,0.060854599985759705,None,2.1319235000410117,,,,,,,,,16,001,2019_Dec_25_1104,untitled,3.1.0,60.58307575794109,
034,R,N,45,L,N,034RN045LN,HLN,0,178,178,201,,,0.922,606.9222039000015,607.2594326000544,607.2761607000139,607.5595764000318,607.5761060000514,None,up,607.5761060000514,None,607.5761060000514,608.475113100023,0.07081609999295324,None,1.38265980000142,,,,,,,,,16,001,2019_Dec_25_1104,untitled,3.1.0,60.58307575794109,
_,_2,N,45,_,_,__2N045__,N,0,179,179,73,,,1.354,609.0313042000053,609.3743179000448,609.3911527000018,609.6745439000078,609.6914472000208,None,up,609.6914472000208,None,609.6914472000208,611.0228934000479,0.06502510001882911,None,2.181720900000073,,,,,,,,,16,001,2019_Dec_25_1104,untitled,3.1.0,60.58307575794109,
012,R,M,135,R,N,012RM135RN,HRN,0,180,180,99,,,0.991,611.9619389,612.2889533000416,612.3058852000395,612.5888490000507,612.6062952000066,None,down,612.6062952000066,None,612.6062952000066,613.571153500001,0.08052390004741028,None,2.251264499966055,,,,,,,,,16,001,2019_Dec_25_1104,untitled,3.1.0,60.58307575794109,
463,_5,M,270,R,N,463_5M270RN,HRN,0,181,181,182,,,0.862,614.9454139000154,615.2696613000007,615.286244500021,615.5688908000011,615.5862383000203,None,down,615.5862383000203,None,615.5862383000203,616.4347354000201,0.0781618999899365,None,2.465081700007431,,,,,,,,,16,001,2019_Dec_25_1104,untitled,3.1.0,60.58307575794109,
_,_4,M,180,_,_,__4M180__,N,0,182,182,36,,,1.192,618.120453200012,618.4665262000053,618.4828874000232,618.7663496000459,618.7838531000307,None,up,618.7838531000307,None,618.7838531000307,619.9652206000173,0.06207309995079413,None,3.013769900018815,,,,,,,,,16,001,2019_Dec_25_1104,untitled,3.1.0,60.58307575794109,
260,_2,N,135,R,N,260_2N135RN,HRN,0,183,183,243,,,0.9580000000000001,621.8726546000107,622.2132463000016,622.2299882000079,622.5133385000518,622.5296770000132,None,down,622.5296770000132,None,622.5296770000132,623.4622566000326,0.06811680004466325,None,1.7684411999653094,,,,,,,,,16,001,2019_Dec_25_1104,untitled,3.1.0,60.58307575794109,
_,G,N,135,_,_,_GN135__,N,0,184,184,59,,,0.897,624.3651403000113,624.7113598000142,624.7287666000193,625.0116664000088,625.0276523000211,None,up,625.0276523000211,None,625.0276523000211,625.9143476000172,0.060488499992061406,None,2.032686199992895,,,,,,,,,16,001,2019_Dec_25_1104,untitled,3.1.0,60.58307575794109,
044,R,M,135,L,N,044RM135LN,HLN,0,185,185,107,,,0.851,627.1285844000522,627.4752465000493,627.4921463000355,627.7751191999996,627.7918142999988,None,down,627.7918142999988,None,627.7918142999988,628.6245210000197,0.0610673000337556,None,2.2838646000018343,,,,,,,,,16,001,2019_Dec_25_1104,untitled,3.1.0,60.58307575794109,
399,_4,M,270,R,N,399_4M270RN,HRN,0,186,186,166,,,1.066,630.1430042000138,630.4893921000184,630.5062560000224,630.7898447000189,630.8064063000493,None,down,630.8064063000493,None,630.8064063000493,631.8555412000278,0.060465300048235804,None,1.7837227000272833,,,,,,,,,16,001,2019_Dec_25_1104,untitled,3.1.0,60.58307575794109,
208,G,M,315,R,N,208GM315RN,HRN,0,187,187,135,,,1.228,632.6574550000369,633.0043516000151,633.0207695999998,633.3044071000186,633.3210429000319,None,None,633.3210429000319,None,633.3210429000319,634.5359439000022,0.0604833000106737,None,,,,,,,,,,16,001,2019_Dec_25_1104,untitled,3.1.0,60.58307575794109,
489,_5,M,0,L,N,489_5M000LN,HLN,0,188,188,184,,,1.061,636.863058100047,637.2007768000476,637.2173491000431,637.5008424000116,637.5172087000101,636.863058100047,down,637.5172087000101,None,637.5172087000101,638.5666388000245,0.07170369999948889,None,2.0312065999605693,,,,,,,,,16,001,2019_Dec_25_1104,untitled,3.1.0,60.58307575794109,
039,R,N,270,L,N,039RN270LN,HLN,0,189,189,206,,,1.336,639.6175028000143,639.9648814000539,639.9823477000464,640.2644581000204,640.282805600029,None,up,640.282805600029,None,640.282805600029,641.5966335000121,0.062117199995554984,None,3.0820559000130743,,,,,,,,,16,001,2019_Dec_25_1104,untitled,3.1.0,60.58307575794109,
304,_2,M,315,L,N,304_2M315LN,HLN,0,190,190,159,,,0.929,643.4590849000379,643.7778552000527,643.7944654000457,644.0778945000493,644.0948035000474,None,down,644.0948035000474,None,644.0948035000474,645.0104141000193,0.08427849999861792,None,1.7816651000175625,,,,,,,,,16,001,2019_Dec_25_1104,untitled,3.1.0,60.58307575794109,
161,F,N,0,L,N,161FN000LN,HLN,0,191,191,216,,,1.268,645.9528546000365,646.2924639999983,646.3096616000403,646.5923731000512,646.6090529000503,None,up,646.6090529000503,None,646.6090529000503,647.8576447000378,0.06940519995987415,None,1.982984799949918,,,,,,,,,16,001,2019_Dec_25_1104,untitled,3.1.0,60.58307575794109,
449,_5,N,0,R,N,449_5N000RN,HRN,0,192,192,272,,,0.754,648.682194699999,649.0071019000025,649.0237263000454,649.3071692000376,649.3232404000009,None,up,649.3232404000009,None,649.3232404000009,650.055866300012,0.08209700003499165,None,1.782852099975571,,,,,,,,,16,001,2019_Dec_25_1104,untitled,3.1.0,60.58307575794109,
_,R,N,270,_,_,_RN270__,N,0,193,193,70,,,1.17,651.1782695000293,651.521054700017,651.537781800027,651.8210377000505,651.8377108999994,None,up,651.8377108999994,None,651.8377108999994,652.9868639000342,0.06547820003470406,None,1.9334495999501087,,,,,,,,,16,001,2019_Dec_25_1104,untitled,3.1.0,60.58307575794109,
138,F,M,45,R,N,138FM045RN,HRN,0,194,194,113,,,1.202,653.8638226000476,654.1857761000283,654.2019076000433,654.485297700041,654.5024991000537,None,down,654.5024991000537,None,654.5024991000537,655.6842677000095,0.08002819999819621,None,2.0816908999695443,,,,,,,,,16,001,2019_Dec_25_1104,untitled,3.1.0,60.58307575794109,
_,_4,N,180,_,_,__4N180__,N,0,195,195,84,,,0.784,656.6520729000331,657.0000514000421,657.0164344000514,657.2996996000293,657.3162199000362,None,down,657.3162199000362,None,657.3162199000362,658.0821777000092,0.060700599977280945,None,1.7494313000352122,,,,,,,,,16,001,2019_Dec_25_1104,untitled,3.1.0,60.58307575794109,
169,F,M,0,L,N,169FM000LN,HLN,0,196,196,120,,,1.113,659.1374550000182,659.481223800045,659.4977644000319,659.7808649000362,659.7976231000503,None,down,659.7976231000503,None,659.7976231000503,660.8965475000441,0.0641569999861531,None,1.8835776000050828,,,,,,,,,16,001,2019_Dec_25_1104,untitled,3.1.0,60.58307575794109,
293,_2,N,180,L,N,293_2N180LN,HLN,0,197,197,252,,,1.0030000000000001,661.7507599000237,662.0967054000357,662.1119062000071,662.3946788000176,662.4115849000518,None,up,662.4115849000518,None,662.4115849000518,663.3942414000048,0.06275659997481853,None,1.982793800008949,,,,,,,,,16,001,2019_Dec_25_1104,untitled,3.1.0,60.58307575794109,
_,F,N,0,_,_,_FN000__,N,0,198,198,48,,,1.212,664.4618338000146,664.8105090000317,664.826479600044,665.1093193000415,665.1263134000474,None,up,665.1263134000474,None,665.1263134000474,666.324813800049,0.06067320000147447,None,1.8659037000034004,,,,,,,,,16,001,2019_Dec_25_1104,untitled,3.1.0,60.58307575794109,
419,_4,N,90,L,N,419_4N090LN,HLN,0,199,199,266,,,1.169,667.0794425000204,667.40736500005,667.4237922000466,667.7072753999964,667.7237821000163,None,up,667.7237821000163,None,667.7237821000163,668.8725864000153,0.0793656000168994,None,1.7155713999527507,,,,,,,,,16,001,2019_Dec_25_1104,untitled,3.1.0,60.58307575794109,
172,F,M,135,L,N,172FM135LN,HLN,0,200,200,123,,,0.965,669.5077160000219,669.8554810000351,669.8721108000027,670.1565329000005,670.1717410000274,None,down,670.1717410000274,None,670.1717410000274,671.121011100011,0.061503800039645284,None,1.968274399987422,,,,,,,,,16,001,2019_Dec_25_1104,untitled,3.1.0,60.58307575794109,
003,R,N,90,R,N,003RN090RN,HRN,0,201,201,194,,,0.8170000000000001,672.2084503000369,672.5530382000143,672.5702359999996,672.8528772999998,672.8696165000438,None,up,672.8696165000438,None,672.8696165000438,673.6688014000538,0.06172789999982342,None,1.6655363000463694,,,,,,,,,16,001,2019_Dec_25_1104,untitled,3.1.0,60.58307575794109,
494,_5,M,225,L,N,494_5M225LN,HLN,0,202,202,189,,,0.716,674.6055413000286,674.9512120000436,674.9679267000174,675.251561800018,675.2678904000204,None,up,675.2678904000204,None,675.2678904000204,675.9674439000082,0.06253060000017285,None,2.747268399980385,,,,,,,,,16,001,2019_Dec_25_1104,untitled,3.1.0,60.58307575794109,
_,F,N,225,_,_,_FN225__,N,0,203,203,53,,,1.194,678.0828933000448,678.4311901000328,678.4479486000491,678.7322577000014,678.747917700035,None,up,678.747917700035,None,678.747917700035,679.9297130000195,0.060777599981520325,None,1.8990075000328943,,,,,,,,,16,001,2019_Dec_25_1104,untitled,3.1.0,60.58307575794109,
427,_4,M,90,L,N,427_4M090LN,HLN,0,204,204,170,,,1.333,680.7351465999964,681.062745400006,681.0789186000475,681.3616065000533,681.3782884000102,None,down,681.3782884000102,None,681.3782884000102,682.6937948000268,0.07765409996500239,None,2.1673191000008956,,,,,,,,,16,001,2019_Dec_25_1104,untitled,3.1.0,60.58307575794109,
_,_2,M,315,_,_,__2M315__,N,0,205,205,31,,,0.9460000000000001,683.618678400002,683.9599686000147,683.976487900014,684.2599441000493,684.276439200039,None,down,684.276439200039,None,684.276439200039,685.2086151000112,0.06541219999780878,None,2.348915000038687,,,,,,,,,16,001,2019_Dec_25_1104,untitled,3.1.0,60.58307575794109,
_,_4,N,135,_,_,__4N135__,N,0,206,206,83,,,1.199,686.7204789000098,687.0404998000013,687.0570371000213,687.3403854000499,687.3579797000275,None,up,687.3579797000275,None,687.3579797000275,688.5392906000488,0.08688020001864061,None,1.8640700000105426,,,,,,,,,16,001,2019_Dec_25_1104,untitled,3.1.0,60.58307575794109,
_,R,M,270,_,_,_RM270__,N,0,207,207,22,,,0.87,689.2915802000207,689.6378908000188,689.6547213000013,689.9376661000424,689.9547119000345,None,down,689.9547119000345,None,689.9547119000345,690.8036576000159,0.06223139999201521,None,1.565737100027036,,,,,,,,,16,001,2019_Dec_25_1104,untitled,3.1.0,60.58307575794109,
_,G,N,90,_,_,_GN090__,N,0,208,208,58,,,1.357,691.5915773000452,691.9360226000426,691.9530360000208,692.2371391000343,692.2524545000051,None,up,692.2524545000051,None,692.2524545000051,693.5847249000217,0.06375410000327975,None,2.4648553999722935,,,,,,,,,16,001,2019_Dec_25_1104,untitled,3.1.0,60.58307575794109,
_,R,N,135,_,_,_RN135__,N,0,209,209,67,,,1.375,694.7859291000059,695.1329457000247,695.1500035000499,695.4330956000485,695.4494906000327,None,up,695.4494906000327,None,695.4494906000327,696.7979237000109,0.06156930001452565,None,2.715440200001467,,,,,,,,,16,001,2019_Dec_25_1104,untitled,3.1.0,60.58307575794109,
257,_2,N,0,R,N,257_2N000RN,HRN,0,210,210,240,,,0.922,698.2329035000294,698.5809525000514,698.5967856000061,698.8801959000411,698.8967076000408,None,up,698.8967076000408,None,698.8967076000408,699.7957189000444,0.06066869996720925,None,1.816690200008452,,,,,,,,,16,001,2019_Dec_25_1104,untitled,3.1.0,60.58307575794109,
232,G,N,315,L,N,232GN315LN,HLN,0,211,211,239,,,1.274,700.7864582000184,701.1284258000087,701.1451451000175,701.4281950000441,701.4449950000271,None,down,701.4449950000271,None,701.4449950000271,702.7099904000061,0.06578250002348796,None,1.8484338999842294,,,,,,,,,16,001,2019_Dec_25_1104,untitled,3.1.0,60.58307575794109,
_,_2,N,0,_,_,__2N000__,N,0,212,212,72,,,1.3760000000000001,703.3641277000424,703.7093784000026,703.7261571999989,704.0117548000417,704.0263883000007,None,up,704.0263883000007,None,704.0263883000007,705.3920650000218,0.06320620002225041,None,2.0501787000102922,,,,,,,,,16,001,2019_Dec_25_1104,untitled,3.1.0,60.58307575794109,
_,G,M,225,_,_,_GM225__,N,0,213,213,13,,,1.159,706.1460187000339,706.4901330000139,706.5068870999967,706.7894994000089,706.8067639000365,None,down,706.8067639000365,None,706.8067639000365,707.9554068000289,0.06287699996028095,None,2.9145879999850877,,,,,,,,,16,001,2019_Dec_25_1104,untitled,3.1.0,60.58307575794109,
_,R,N,225,_,_,_RN225__,N,0,214,214,69,,,0.8190000000000001,709.7910035000532,710.1371649000212,710.1533073000028,710.4369177000481,710.4535664000432,None,up,710.4535664000432,None,710.4535664000432,711.2532791999984,0.06280539999715984,None,1.7994319999706931,,,,,,,,,16,001,2019_Dec_25_1104,untitled,3.1.0,60.58307575794109,
_,_5,N,90,_,_,__5N090__,N,0,215,215,90,,,1.235,712.3238986000069,712.6680132000474,712.6845136000193,712.9674513000064,712.9842553000199,None,down,712.9842553000199,None,712.9842553000199,714.2000539000146,0.06374310003593564,None,1.8996104000252672,,,,,,,,,16,001,2019_Dec_25_1104,untitled,3.1.0,60.58307575794109,
265,_2,M,0,R,N,265_2M000RN,HRN,0,216,216,144,,,0.721,714.9533300000476,715.2988624999998,715.3157268000068,715.5989859999972,715.6158814000082,None,down,715.6158814000082,None,715.6158814000082,716.314395399997,0.062161399982869625,None,1.56581910001114,,,,,,,,,16,001,2019_Dec_25_1104,untitled,3.1.0,60.58307575794109,
175,F,M,270,L,N,175FM270LN,HLN,0,217,217,126,,,1.2650000000000001,717.2697537000058,717.5968696000054,717.6136298000347,717.8970303000533,717.9132034000359,None,down,717.9132034000359,None,717.9132034000359,719.1620165000204,0.0789820000063628,None,2.0507224000175484,,,,,,,,,16,001,2019_Dec_25_1104,untitled,3.1.0,60.58307575794109,
298,_2,M,45,L,N,298_2M045LN,HLN,0,218,218,153,,,1.224,720.0334299000097,720.3792775000329,720.3948770000134,720.6778314000112,720.69448190002,None,down,720.69448190002,None,720.69448190002,721.9094603999984,0.061922800028696656,None,2.715282599965576,,,,,,,,,16,001,2019_Dec_25_1104,untitled,3.1.0,60.58307575794109,
_,G,M,180,_,_,_GM180__,N,0,219,219,12,,,0.874,723.5025923000067,723.8253369000158,723.841896500031,724.1250899000443,724.1434275000356,None,down,724.1434275000356,None,724.1434275000356,725.0072158999974,0.08102660003351048,None,2.962822299974505,,,,,,,,,16,001,2019_Dec_25_1104,untitled,3.1.0,60.58307575794109,
200,G,N,315,R,N,200GN315RN,HRN,0,220,220,231,,,0.8130000000000001,727.182414000039,727.521825600008,727.5383363000001,727.8211298000533,727.8378361000214,None,down,727.8378361000214,None,727.8378361000214,728.6374066999997,0.06785150000359863,None,1.4685595000046305,,,,,,,,,16,001,2019_Dec_25_1104,untitled,3.1.0,60.58307575794109,
_,F,M,0,_,_,_FM000__,N,0,221,221,0,,,1.05,729.3744798999978,729.7198117000517,729.7360916000325,730.0190944000497,730.0360193000524,None,down,730.0360193000524,None,730.0360193000524,731.0686068000505,0.06111359997885302,None,1.9506792000029236,,,,,,,,,16,001,2019_Dec_25_1104,untitled,3.1.0,60.58307575794109,
_,F,N,135,_,_,_FN135__,N,0,222,222,51,,,1.306,732.0653894999996,732.4034812000464,732.4179851000081,732.7008289000369,732.7179158000508,None,up,732.7179158000508,None,732.7179158000508,734.0059591000318,0.07160669995937496,None,1.9340809999848716,,,,,,,,,16,001,2019_Dec_25_1104,untitled,3.1.0,60.58307575794109,
193,G,N,0,R,N,193GN000RN,HRN,0,223,223,224,,,1.006,734.7263926000451,735.0651378000039,735.081976000045,735.3649942000047,735.3816315000295,None,up,735.3816315000295,None,735.3816315000295,736.3638793000137,0.06714839994674549,None,1.6491368999704719,,,,,,,,,16,001,2019_Dec_25_1104,untitled,3.1.0,60.58307575794109,
205,G,M,180,R,N,205GM180RN,HRN,0,224,224,132,,,1.354,737.1021930000279,737.4466460000258,737.4637106000446,737.746248600015,737.7627978000091,None,up,737.7627978000091,None,737.7627978000091,739.0960566000431,0.06511070003034547,None,2.8977810999494977,,,,,,,,,16,001,2019_Dec_25_1104,untitled,3.1.0,60.58307575794109,
176,F,M,315,L,N,176FM315LN,HLN,0,225,225,127,,,0.899,740.7313435000251,741.0771974000381,741.0932706000167,741.3766548000276,741.3942639000015,None,down,741.3942639000015,None,741.3942639000015,742.2754928000504,0.06279120000544935,None,2.2139285000157543,,,,,,,,,16,001,2019_Dec_25_1104,untitled,3.1.0,60.58307575794109,
_,G,N,315,_,_,_GN315__,N,0,226,226,63,,,1.204,743.6862311000004,744.0244590000366,744.0412868999992,744.3240322000347,744.3407468000078,None,up,744.3407468000078,None,744.3407468000078,745.5227450000239,0.07048649998614565,None,2.200797399971634,,,,,,,,,16,001,2019_Dec_25_1104,untitled,3.1.0,60.58307575794109,
_,_5,M,225,_,_,__5M225__,N,0,227,227,45,,,1.107,746.6116769000073,746.9548162000137,746.9714447000297,747.2543489000527,747.2708691000007,None,down,747.2708691000007,None,747.2708691000007,748.3699215000379,0.06300419999752194,None,3.247739600017667,,,,,,,,,16,001,2019_Dec_25_1104,untitled,3.1.0,60.58307575794109,
432,_4,M,315,L,N,432_4M315LN,HLN,0,228,228,175,,,1.088,750.5885732000461,750.9349453000468,750.9516203000094,751.2345772000263,751.2508797000046,None,down,751.2508797000046,None,751.2508797000046,752.3168590000132,0.06357999995816499,None,2.6336923000053503,,,,,,,,,16,001,2019_Dec_25_1104,untitled,3.1.0,60.58307575794109,
484,_5,N,135,L,N,484_5N135LN,HLN,0,229,229,283,,,1.092,753.9527912000194,754.3003677000524,754.3152179000317,754.5985262000468,754.6151922999998,None,None,754.6151922999998,None,754.6151922999998,755.697536599997,0.06110620003892109,None,,,,,,,,,,16,001,2019_Dec_25_1104,untitled,3.1.0,60.58307575794109,
261,_2,N,180,R,N,261_2N180RN,HRN,0,230,230,244,,,1.118,758.1726450000424,758.494611800008,758.511309500027,758.7943185000331,758.8103808000451,758.1726450000424,up,758.8103808000451,None,758.8103808000451,759.9115396999987,0.0860110999783501,None,1.9854770000092685,,,,,,,,,16,001,2019_Dec_25_1104,untitled,3.1.0,60.58307575794109,
_,_2,N,225,_,_,__2N225__,N,0,231,231,77,,,0.8310000000000001,760.8622923000366,761.2090574000031,761.2259381000185,761.5089516000007,761.5253990000347,None,up,761.5253990000347,None,761.5253990000347,762.3410111000412,0.0591559000313282,None,1.3730390999699011,,,,,,,,,16,001,2019_Dec_25_1104,untitled,3.1.0,60.58307575794109,
168,F,N,315,L,N,168FN315LN,HLN,0,232,232,223,,,1.025,762.9913728000247,763.3087119000265,763.3239333000383,763.6069542000187,763.6248203000287,None,up,763.6248203000287,None,763.6248203000287,764.6393058000249,0.08472400001483038,None,1.6307342000072822,,,,,,,,,16,001,2019_Dec_25_1104,untitled,3.1.0,60.58307575794109,
_,_4,M,225,_,_,__4M225__,N,0,233,233,37,,,1.349,765.3248800000292,765.6717907999991,765.688456200005,765.9716180000105,765.9881722000428,None,down,765.9881722000428,None,765.9881722000428,767.3202309000189,0.06205130001762882,None,2.232155399979092,,,,,,,,,16,001,2019_Dec_25_1104,untitled,3.1.0,60.58307575794109,
495,_5,M,270,L,N,495_5M270LN,HLN,0,234,234,190,,,0.898,768.2888342000078,768.6363222000073,768.6528768000426,768.9357060000184,768.9530425000121,None,down,768.9530425000121,None,768.9530425000121,769.8350957000512,0.06177530001150444,None,2.3317745000240393,,,,,,,,,16,001,2019_Dec_25_1104,untitled,3.1.0,60.58307575794109,
_,G,M,0,_,_,_GM000__,N,0,235,235,8,,,0.879,771.3539858000004,771.7000590000534,771.7167085999972,771.9998199000256,772.0165262000519,None,down,772.0165262000519,None,772.0165262000519,772.8821298000403,0.06239719997392967,None,1.8319972000317648,,,,,,,,,16,001,2019_Dec_25_1104,untitled,3.1.0,60.58307575794109,
400,_4,M,315,R,N,400_4M315RN,HRN,0,236,236,167,,,1.288,773.9285963000148,774.264150700008,774.2805780000053,774.5639284000499,774.5808124000323,None,down,774.5808124000323,None,774.5808124000323,775.8462033999967,0.07238710002275184,None,2.264620400033891,,,,,,,,,16,001,2019_Dec_25_1104,untitled,3.1.0,60.58307575794109,
133,F,N,180,R,N,133FN180RN,HRN,0,237,237,212,,,1.117,776.9153619999997,777.2619278000202,777.2784994000103,777.5624383999966,777.578175600036,None,up,777.578175600036,None,777.578175600036,778.6767552000238,0.06322209996869788,None,2.417718199954834,,,,,,,,,16,001,2019_Dec_25_1104,untitled,3.1.0,60.58307575794109,
202,G,M,45,R,N,202GM045RN,HRN,0,238,238,129,,,1.325,780.0819376000436,780.4086918000248,780.4255744999973,780.7088311000261,780.7255770000047,None,down,780.7255770000047,None,780.7255770000047,782.040941800049,0.07774739997694269,None,2.951013599988073,,,,,,,,,16,001,2019_Dec_25_1104,untitled,3.1.0,60.58307575794109,
238,G,M,225,L,N,238GM225LN,HLN,0,239,239,141,,,1.236,783.7644920000457,784.0895145999966,784.1058424000512,784.3885284000426,784.4061885999981,None,down,784.4061885999981,None,784.4061885999981,785.6210817000247,0.07822199998190627,None,2.847274900006596,,,,,,,,,16,001,2019_Dec_25_1104,untitled,3.1.0,60.58307575794109,
227,G,N,90,L,N,227GN090LN,HLN,0,240,240,234,,,0.772,787.3319972000318,787.6693495000363,787.6858279000153,787.9694027000223,787.9856394000235,None,up,787.9856394000235,None,787.9856394000235,788.7350778999971,0.07213729998329654,None,1.632192599994596,,,,,,,,,16,001,2019_Dec_25_1104,untitled,3.1.0,60.58307575794109,
292,_2,N,135,L,N,292_2N135LN,HLN,0,241,241,251,,,0.903,789.6918732000049,790.0337069000234,790.0507460000226,790.3343891000259,790.350386200007,None,down,790.350386200007,None,790.350386200007,791.232800400001,0.06746679998468608,None,1.7655692999833263,,,,,,,,,16,001,2019_Dec_25_1104,untitled,3.1.0,60.58307575794109,
239,G,M,270,L,N,239GM270LN,HLN,0,242,242,142,,,0.758,792.2067858000519,792.5318458999973,792.5494248000323,792.8323397000204,792.8484046000522,None,down,792.8484046000522,None,792.8484046000522,793.5920421000337,0.08083230000920594,None,1.6988783000269905,,,,,,,,,16,001,2019_Dec_25_1104,untitled,3.1.0,60.58307575794109,
011,R,M,90,R,N,011RM090RN,HRN,0,243,243,98,,,1.0090000000000001,794.6395679000416,794.9631105000153,794.9797876000521,795.2628689000267,795.2796182000311,None,down,795.2796182000311,None,795.2796182000311,796.2783729000366,0.08248939999612048,None,1.8654963999870233,,,,,,,,,16,001,2019_Dec_25_1104,untitled,3.1.0,60.58307575794109,
296,_2,N,315,L,N,296_2N315LN,HLN,0,244,244,255,,,1.299,797.21734870004,797.5623848999967,797.5775133999996,797.860637500009,797.8791816000012,None,up,797.8791816000012,None,797.8791816000012,799.1613720000023,0.06439010001486167,None,2.4306985999573953,,,,,,,,,16,001,2019_Dec_25_1104,untitled,3.1.0,60.58307575794109,
142,F,M,225,R,N,142FM225RN,HRN,0,245,245,117,,,0.709,800.3927917000256,800.724723900028,800.7416980999988,801.0246217000531,801.0409863000386,None,down,801.0409863000386,None,801.0409863000386,801.7400375000434,0.07467549998546019,None,1.6159078000346199,,,,,,,,,16,001,2019_Dec_25_1104,untitled,3.1.0,60.58307575794109,
_,_4,M,135,_,_,__4M135__,N,0,246,246,35,,,1.039,802.7236713000457,803.0728731999989,803.0913984000217,803.3720641999971,803.3896669000387,None,down,803.3896669000387,None,803.3896669000387,804.4044460000005,0.059718500007875264,None,2.131250499980524,,,,,,,,,16,001,2019_Dec_25_1104,untitled,3.1.0,60.58307575794109,
294,_2,N,225,L,N,294_2N225LN,HLN,0,247,247,253,,,1.234,805.5903938999982,805.9379362000036,805.9536766000092,806.2369716000394,806.2534719000105,None,up,806.2534719000105,None,806.2534719000105,807.4686622000299,0.061779199982993305,None,2.265507499978412,,,,,,,,,16,001,2019_Dec_25_1104,untitled,3.1.0,60.58307575794109,
007,R,N,270,R,N,007RN270RN,HRN,0,248,248,198,,,1.224,808.6149363000295,808.9342321000295,808.9509371000458,809.2340198000311,809.2508674000273,None,up,809.2508674000273,None,809.2508674000273,810.4491692000302,0.08808689995203167,None,2.1337445999961346,,,,,,,,,16,001,2019_Dec_25_1104,untitled,3.1.0,60.58307575794109,
_,_2,M,135,_,_,__2M135__,N,0,249,249,27,,,1.363,811.454572800023,811.7987194000161,811.8148442000384,812.0986601000186,812.1147630000487,None,None,812.1147630000487,None,812.1147630000487,813.463550000044,0.0629027999821119,None,,,,,,,,,,16,001,2019_Dec_25_1104,untitled,3.1.0,60.58307575794109,
009,R,M,0,R,N,009RM000RN,HRN,0,250,250,96,,,0.902,815.6709496999974,815.9949796000146,816.013419600029,816.2945489000413,816.3126619000104,815.6709496999974,down,816.3126619000104,None,816.3126619000104,817.1938128000475,0.08436650002840906,None,2.3800422999775037,,,,,,,,,16,001,2019_Dec_25_1104,untitled,3.1.0,60.58307575794109,
485,_5,N,180,L,N,485_5N180LN,HLN,0,251,251,284,,,0.964,818.771939600003,819.1084288000129,819.1251927000121,819.4082407000242,819.424816200044,None,up,819.424816200044,None,819.424816200044,820.3743508000043,0.07231039996258914,None,3.065176700009033,,,,,,,,,16,001,2019_Dec_25_1104,untitled,3.1.0,60.58307575794109,
461,_5,M,180,R,N,461_5M180RN,HRN,0,252,252,180,,,1.166,822.5725765000097,822.9054657000233,822.9220489000436,823.2049999000155,823.2219894000445,None,down,823.2219894000445,None,823.2219894000445,824.370768200024,0.0734597000409849,None,2.1675895999651402,,,,,,,,,16,001,2019_Dec_25_1104,untitled,3.1.0,60.58307575794109,
130,F,N,45,R,N,130FN045RN,HRN,0,253,253,209,,,1.074,825.4601904000156,825.8027645000257,825.8193946000538,826.1026706999983,826.1191077000112,None,up,826.1191077000112,None,826.1191077000112,827.1848804000183,0.06418629997642711,None,2.7312423000112176,,,,,,,,,16,001,2019_Dec_25_1104,untitled,3.1.0,60.58307575794109,
422,_4,N,225,L,N,422_4N225LN,HLN,0,254,254,269,,,1.114,828.9188470000518,829.2664373000152,829.2837744000135,829.5660628000041,829.58298810001,None,up,829.58298810001,None,829.58298810001,830.6818196000531,0.0601858000154607,None,2.165105899970513,,,,,,,,,16,001,2019_Dec_25_1104,untitled,3.1.0,60.58307575794109,
131,F,N,90,R,N,131FN090RN,HRN,0,255,255,210,,,1.164,831.8152636000304,832.1637299000286,832.1811043000198,832.4645050000399,832.480125800008,None,up,832.480125800008,None,832.480125800008,833.6288748000516,0.060198399994987994,None,2.1990414999891073,,,,,,,,,16,001,2019_Dec_25_1104,untitled,3.1.0,60.58307575794109,
395,_4,M,90,R,N,395_4M090RN,HRN,0,256,256,162,,,0.929,834.7628461000277,835.0943650000263,835.1111192000099,835.3948272000416,835.4110501000541,None,down,835.4110501000541,None,835.4110501000541,836.326715400035,0.07606230000965297,None,1.6337501999805681,,,,,,,,,16,001,2019_Dec_25_1104,untitled,3.1.0,60.58307575794109,
429,_4,M,180,L,N,429_4M180LN,HLN,0,257,257,172,,,1.08,837.1142865000293,837.4591810000129,837.4760905000148,837.7594347000122,837.7759897000506,None,up,837.7759897000506,None,837.7759897000506,838.841487800004,0.06256449996726587,None,1.9166360999806784,,,,,,,,,16,001,2019_Dec_25_1104,untitled,3.1.0,60.58307575794109,
165,F,N,180,L,N,165FN180LN,HLN,0,258,258,220,,,0.732,839.7714589000097,840.1067937000189,840.1244205000112,840.4080914000515,840.4231380000128,None,up,840.4231380000128,None,840.4231380000128,841.1391086000367,0.07191180001245812,None,1.466091200010851,,,,,,,,,16,001,2019_Dec_25_1104,untitled,3.1.0,60.58307575794109,
047,R,M,270,L,N,047RM270LN,HLN,0,259,259,110,,,1.294,841.9610593000543,842.3052976000472,842.3220759000396,842.6054537000018,842.6214006000082,None,down,842.6214006000082,None,842.6214006000082,843.9031805000268,0.06476639996981248,None,2.165527400036808,,,,,,,,,16,001,2019_Dec_25_1104,untitled,3.1.0,60.58307575794109,
237,G,M,180,L,N,237GM180LN,HLN,0,260,260,140,,,1.371,844.8553336000186,845.2028079000302,845.2194131000433,845.5026951000327,845.5190284000128,None,down,845.5190284000128,None,845.5190284000128,846.8679405000294,0.06087889999616891,None,2.3825097999651916,,,,,,,,,16,001,2019_Dec_25_1104,untitled,3.1.0,60.58307575794109,
424,_4,N,315,L,N,424_4N315LN,HLN,0,261,261,271,,,1.306,847.972017800028,848.3161300000502,848.3335244000191,848.6166900000535,848.6325329000247,None,up,848.6325329000247,None,848.6325329000247,849.9149692000356,0.06379879999440163,None,2.833811999997124,,,,,,,,,16,001,2019_Dec_25_1104,untitled,3.1.0,60.58307575794109,
006,R,N,225,R,N,006RN225RN,HRN,0,262,262,197,,,0.9540000000000001,851.5350145000266,851.8806749000214,851.8972455000039,852.180333700031,852.1972115000244,None,up,852.1972115000244,None,852.1972115000244,853.1296754000359,0.06113529996946454,None,2.464532500016503,,,,,,,,,16,001,2019_Dec_25_1104,untitled,3.1.0,60.58307575794109,
016,R,M,315,R,N,016RM315RN,HRN,0,263,263,103,,,1.389,854.7341454999987,855.0773154000053,855.0947724000434,855.37722210004,855.3937596000032,None,down,855.3937596000032,None,855.3937596000032,856.7593986000284,0.06451850000303239,None,1.9818200999870896,,,,,,,,,16,001,2019_Dec_25_1104,untitled,3.1.0,60.58307575794109,
_,_2,M,0,_,_,__2M000__,N,0,264,264,24,,,1.245,857.4505802000058,857.7915417000186,857.8083610000322,858.091496500012,858.1079347000341,None,down,858.1079347000341,None,858.1079347000341,859.3421956000384,0.06884439999703318,None,1.984679099987261,,,,,,,,,16,001,2019_Dec_25_1104,untitled,3.1.0,60.58307575794109,
_,F,M,45,_,_,_FM045__,N,0,265,265,1,,,1.312,860.1683467000257,860.5058489000075,860.5224660000531,860.8052953000297,860.8219692000421,None,down,860.8219692000421,None,860.8219692000421,862.1212652000249,0.06911739998031408,None,2.16591119999066,,,,,,,,,16,001,2019_Dec_25_1104,untitled,3.1.0,60.58307575794109,
486,_5,N,225,L,N,486_5N225LN,HLN,0,266,266,285,,,0.804,863.0638566000271,863.4033198000398,863.4202468000003,863.7028429000056,863.7196551000234,None,up,863.7196551000234,None,863.7196551000234,864.5018683000235,0.06709810002939776,None,1.5493512999964878,,,,,,,,,16,001,2019_Dec_25_1104,untitled,3.1.0,60.58307575794109,
198,G,N,225,R,N,198GN225RN,HRN,0,267,267,229,,,1.162,865.3527420000173,865.6845513000153,865.7012550000218,865.9843654000433,866.0022571000154,None,up,866.0022571000154,None,866.0022571000154,867.1500218000147,0.07537839998258278,None,1.798586399992928,,,,,,,,,16,001,2019_Dec_25_1104,untitled,3.1.0,60.58307575794109,
_,_5,M,270,_,_,__5M270__,N,0,268,268,46,,,1.162,867.8746093000518,868.2156417000224,868.2335929000401,868.515502299997,868.5320888000424,None,down,868.5320888000424,None,868.5320888000424,869.6811434000265,0.06635979999555275,None,2.4679264000151306,,,,,,,,,16,001,2019_Dec_25_1104,untitled,3.1.0,60.58307575794109,
_,_4,N,315,_,_,__4N315__,N,0,269,269,87,,,0.774,871.069489800022,871.4131285000476,871.4300012000022,871.7133783000172,871.7302377000451,None,up,871.7302377000451,None,871.7302377000451,872.4952863000217,0.06259710004087538,None,1.399401200003922,,,,,,,,,16,001,2019_Dec_25_1104,untitled,3.1.0,60.58307575794109,
_,G,M,45,_,_,_GM045__,N,0,270,270,9,,,0.868,873.2101509000058,873.5447444000165,873.5608826000243,873.8451628000475,873.8610150000313,None,down,873.8610150000313,None,873.8610150000313,874.7110246000229,0.07414359995163977,None,1.5986716999905184,,,,,,,,,16,001,2019_Dec_25_1104,untitled,3.1.0,60.58307575794109,
456,_5,N,315,R,N,456_5N315RN,HRN,0,271,271,279,,,0.777,875.5360439000069,875.8764612000086,875.8930446000304,876.1754728000378,876.192371800018,None,up,876.192371800018,None,876.192371800018,876.9575974000036,0.0662360999849625,None,1.8501093999948353,,,,,,,,,16,001,2019_Dec_25_1104,untitled,3.1.0,60.58307575794109,
_,_5,N,180,_,_,__5N180__,N,0,272,272,92,,,0.991,878.1166952000349,878.4569067000411,878.4737043000059,878.7567953000544,878.773318600026,None,down,878.773318600026,None,878.773318600026,879.7386064000311,0.06679890002124012,None,2.0990835999837145,,,,,,,,,16,001,2019_Dec_25_1104,untitled,3.1.0,60.58307575794109,
431,_4,M,270,L,N,431_4M270LN,HLN,0,273,273,174,,,0.91,880.9569567000144,881.2872967000003,881.3038711000117,881.587616200035,881.6050055000233,None,down,881.6050055000233,None,881.6050055000233,882.5033223000355,0.07651540002552792,None,1.6983678999822587,,,,,,,,,16,001,2019_Dec_25_1104,untitled,3.1.0,60.58307575794109,
458,_5,M,45,R,N,458_5M045RN,HRN,0,274,274,177,,,1.316,883.3740383000113,883.7191592000308,883.7355136999977,884.0187786000315,884.0352507000207,None,down,884.0352507000207,None,884.0352507000207,885.3350933000329,0.06420199997955933,None,2.2486621999996714,,,,,,,,,16,001,2019_Dec_25_1104,untitled,3.1.0,60.58307575794109,
203,G,M,90,R,N,203GM090RN,HRN,0,275,275,130,,,1.108,886.3560067000217,886.701083699998,886.7163865000475,886.9995078000356,887.0160379000008,None,down,887.0160379000008,None,887.0160379000008,888.0984455000143,0.0640327000292018,None,2.747850500047207,,,,,,,,,16,001,2019_Dec_25_1104,untitled,3.1.0,60.58307575794109,
_,R,N,315,_,_,_RN315__,N,0,276,276,71,,,1.133,889.832673500001,890.1802763000014,890.1969635999994,890.4802806000225,890.4802806000225,None,up,890.4802806000225,None,890.4802806000225,891.6121527000214,0.062020700017455965,None,1.7988901999779046,,,,,,,,,16,001,2019_Dec_25_1104,untitled,3.1.0,60.58307575794109,
_,R,M,135,_,_,_RM135__,N,0,277,277,19,,,1.095,892.3471444000024,892.6947387999971,892.7116912000347,892.9944310000283,893.0107443000306,None,down,893.0107443000306,None,893.0107443000306,894.0929762000451,0.059918400016613305,None,2.035036500019487,,,,,,,,,16,001,2019_Dec_25_1104,untitled,3.1.0,60.58307575794109,
_,_4,M,270,_,_,__4M270__,N,0,278,278,38,,,0.863,895.1211515000323,895.4584273000364,895.4751837000367,895.7582777000498,895.7751219000202,None,down,895.7751219000202,None,895.7751219000202,896.6247217000346,0.06824920000508428,None,1.7181326000136323,,,,,,,,,16,001,2019_Dec_25_1104,untitled,3.1.0,60.58307575794109,
450,_5,N,45,R,N,450_5N045RN,HRN,0,279,279,273,,,0.937,897.5619434000109,897.9070221000002,897.9231324000284,898.2061465000152,898.2229896000354,None,up,898.2229896000354,None,898.2229896000354,899.1382699000533,0.06152909999946132,None,2.138603100029286,,,,,,,,,16,001,2019_Dec_25_1104,untitled,3.1.0,60.58307575794109,
230,G,N,225,L,N,230GN225LN,HLN,0,280,280,237,,,1.166,900.463309600018,900.7707740000333,900.7874459000304,901.0701751000015,901.0874469000264,None,up,901.0874469000264,None,901.0874469000264,902.2366275000386,0.09438739996403456,None,2.66446930001257,,,,,,,,,16,001,2019_Dec_25_1104,untitled,3.1.0,60.58307575794109,
299,_2,M,90,L,N,299_2M090LN,HLN,0,281,281,154,,,1.2730000000000001,903.829758100037,904.1683141000103,904.1852065999992,904.4675300000235,904.4861069000326,None,down,904.4861069000326,None,904.4861069000326,905.7337444000295,0.07020840002223849,None,2.6637482999940403,,,,,,,,,16,001,2019_Dec_25_1104,untitled,3.1.0,60.58307575794109,
_,R,M,0,_,_,_RM000__,N,0,282,282,16,,,0.8,907.2201305000344,907.5648470000015,907.5814055000083,907.8642499000416,907.88108620001,None,down,907.88108620001,None,907.88108620001,908.663698600023,0.06339979998301715,None,2.1989326999755576,,,,,,,,,16,001,2019_Dec_25_1104,untitled,3.1.0,60.58307575794109,
426,_4,M,45,L,N,426_4M045LN,HLN,0,283,283,169,,,1.335,910.1582001000061,910.4955330000375,910.5121128000319,910.7962834000355,910.8129458000185,None,down,910.8129458000185,None,910.8129458000185,912.1275104000233,0.07142100000055507,None,3.0303528999793343,,,,,,,,,16,001,2019_Dec_25_1104,untitled,3.1.0,60.58307575794109,
386,_4,N,45,R,N,386_4N045RN,HRN,0,284,284,257,,,1.332,913.9245690000243,914.2596741000307,914.2761518000043,914.55930360005,914.5759126000339,None,up,914.5759126000339,None,914.5759126000339,915.8908660000307,0.07218199997441843,None,2.0514415000216104,,,,,,,,,16,001,2019_Dec_25_1104,untitled,3.1.0,60.58307575794109,
207,G,M,270,R,N,207GM270RN,HRN,0,285,285,134,,,0.869,916.7137196999975,917.039891900029,917.0567876000423,917.3398250000319,917.3564102000091,None,down,917.3564102000091,None,917.3564102000091,918.205199100019,0.07770820002770051,None,1.6154589999932796,,,,,,,,,16,001,2019_Dec_25_1104,untitled,3.1.0,60.58307575794109,
_,_4,N,45,_,_,__4N045__,N,0,286,286,81,,,0.709,919.0508569000522,919.3886040000361,919.4046682000044,919.6877581000444,919.7043463000446,None,up,919.7043463000446,None,919.7043463000446,920.4034027000307,0.07046959997387603,None,1.4352005999535322,,,,,,,,,16,001,2019_Dec_25_1104,untitled,3.1.0,60.58307575794109,
259,_2,N,90,R,N,259_2N090RN,HRN,0,287,287,242,,,0.857,921.2104786999989,921.5527346000308,921.5696815000265,921.8525380000356,921.8689265000285,None,up,921.8689265000285,None,921.8689265000285,922.718016800005,0.06393569998908788,None,1.9491123000043444,,,,,,,,,16,001,2019_Dec_25_1104,untitled,3.1.0,60.58307575794109,
,,,,,,,,,,,,,,,,,,,,,,,,,,,,,923.8338339000475,None,929.8286077000084,None,931.4443607000285,None,933.4759414000437,None,,,,,,,
