Number,Letter,type,Orientation,human,face_type,image,picture,trials.thisRepN,trials.thisTrialN,trials.thisN,trials.thisIndex,text.started,text.stopped,stimulus_duration,CROSS.started,CROSS.stopped,BLANK.started,BLANK.stopped,TEST.started,TEST.stopped,key_JUDGE.keys,key_JUDGE.started,key_JUDGE.stopped,image_2.started,image_2.stopped,ISI.started,ISI.stopped,key_JUDGE.rt,q1.started,q1.stopped,q2.started,q2.stopped,q3.started,q3.stopped,text_2.started,text_2.stopped,participant,session,date,expName,psychopyVersion,frameRate,
012,R,M,135,R,N,012RM135RN,HRN,0,0,0,99,21.096919217954564,None,0.93,57.28104255875951,57.61440405179019,57.61440405179019,57.94777422646439,57.94777422646439,None,None,57.94777422646439,None,57.94777422646439,58.83106286045586,0.07237186559359543,None,,,,,,,,,,18,001,2019_Dec_25_1512,untitled,3.1.0,60.01903887757021,
_,R,N,270,_,_,_RN270__,N,0,1,1,70,,,0.996,61.48110473269844,61.81445153371169,61.83104783453018,62.11445447211372,62.14780167382196,61.48110473269844,up,62.14780167382196,None,62.14780167382196,63.114477511866426,0.06979341690748697,None,2.450231132115732,,,,,,,,,18,001,2019_Dec_25_1512,untitled,3.1.0,60.01903887757021,
_,G,N,135,_,_,_GN135__,N,0,2,2,59,,,1.31,64.68121465568402,65.01444291884764,65.03120116574428,65.3145236581513,65.34787853977468,None,up,65.34787853977468,None,65.34787853977468,66.6145489684859,0.06926951300192741,None,2.7836550662068476,,,,,,,,,18,001,2019_Dec_25_1512,untitled,3.1.0,60.01903887757021,
132,F,N,135,R,N,132FN135RN,HRN,0,3,3,211,,,0.797,68.21457254249253,68.547946390172,68.56459611649916,68.847941314747,68.88134361150878,None,down,68.88134361150878,None,68.88134361150878,69.64787546780644,0.07008458593918476,None,2.2169269379446632,,,,,,,,,18,001,2019_Dec_25_1512,untitled,3.1.0,60.01903887757021,
_,G,N,180,_,_,_GN180__,N,0,4,4,60,,,1.0,71.18132684925513,71.51466797380999,71.5313337277912,71.81467759040243,71.84801477482324,None,down,71.84801477482324,None,71.84801477482324,72.81470764225014,0.06867882720325724,None,2.8336710270777985,,,,,,,,,18,001,2019_Dec_25_1512,untitled,3.1.0,60.01903887757021,
194,G,N,45,R,N,194GN045RN,HRN,0,5,5,225,,,1.054,74.76469067965081,75.0980782176157,75.1146711793408,75.39804475989149,75.43150482298734,None,up,75.43150482298734,None,75.43150482298734,76.44810913763285,0.06886948949249927,None,2.266909173958993,,,,,,,,,18,001,2019_Dec_25_1512,untitled,3.1.0,60.01903887757021,
043,R,M,90,L,N,043RM090LN,HLN,0,6,6,106,,,0.787,77.78147530539354,78.11479539365246,78.13150288631368,78.41481135452341,78.44817191260518,None,down,78.44817191260518,None,78.44817191260518,79.19816189532139,0.06777660390071105,None,1.9169724164094077,,,,,,,,,18,001,2019_Dec_25_1512,untitled,3.1.0,60.01903887757021,
449,_5,N,0,R,N,449_5N000RN,HRN,0,7,7,272,,,1.214,80.44833452650346,80.78153674472924,80.79820116307383,81.08154569350154,81.11491927405223,None,up,81.11491927405223,None,81.11491927405223,82.29824023047695,0.06873459007692873,None,2.28362601608751,,,,,,,,,18,001,2019_Dec_25_1512,untitled,3.1.0,60.01903887757021,
_,_4,N,270,_,_,__4N270__,N,0,8,8,86,,,1.114,83.48160459512656,83.81493904149102,83.83160713283723,84.1149506615402,84.14835095484523,None,up,84.14835095484523,None,84.14835095484523,85.23166703619063,0.06727440410395502,None,1.9669172545727633,,,,,,,,,18,001,2019_Dec_25_1512,untitled,3.1.0,60.01903887757021,
_,_4,M,0,_,_,__4M000__,N,0,9,9,32,,,0.845,86.19825071523155,86.53166763722766,86.54825291903398,86.83166757044819,86.86495867536723,None,up,86.86495867536723,None,86.86495867536723,87.68168480017266,0.06785607434721896,None,1.9836371018791397,,,,,,,,,18,001,2019_Dec_25_1512,untitled,3.1.0,60.01903887757021,
037,R,N,180,L,N,037RN180LN,HLN,0,10,10,204,,,0.721,88.98167505001766,89.2816863361586,89.2816863361586,89.56510265711768,89.59841279487591,None,up,89.59841279487591,None,89.59841279487591,90.28174543812929,0.11265536805876764,None,3.2170017336575256,,,,,,,,,18,001,2019_Dec_25_1512,untitled,3.1.0,60.01903887757021,
129,F,N,0,R,N,129FN000RN,HRN,0,11,11,208,,,1.197,92.89851457047189,93.2318109511616,93.24848839197148,93.53182390684742,93.56514539752607,None,up,93.56514539752607,None,93.56514539752607,94.73178857922903,0.0699483508906269,None,2.1503460637432,,,,,,,,,18,001,2019_Dec_25_1512,untitled,3.1.0,60.01903887757021,
268,_2,M,135,R,N,268_2M135RN,HRN,0,12,12,147,,,1.101,95.7985741399134,96.13185616249757,96.14854562404798,96.43188381020082,96.46523935964069,None,down,96.46523935964069,None,96.46523935964069,97.53190738420744,0.07032667028397555,None,3.2670003312414337,,,,,,,,,18,001,2019_Dec_25_1512,untitled,3.1.0,60.01903887757021,
142,F,M,225,R,N,142FM225RN,HRN,0,13,13,117,,,1.075,99.81521852369042,100.1486431256053,100.16530220139612,100.4486423910057,100.48205003031762,None,down,100.48205003031762,None,100.48205003031762,101.51536751408275,0.07336591399143799,None,2.316778214681108,,,,,,,,,18,001,2019_Dec_25_1512,untitled,3.1.0,60.01903887757021,
226,G,N,45,L,N,226GN045LN,HLN,0,14,14,233,,,1.069,102.88203914487167,103.215370586051,103.23196755468598,103.51532110067274,103.54872473307114,None,up,103.54872473307114,None,103.54872473307114,104.58199413387774,0.0710222036432242,None,2.08350540799438,,,,,,,,,18,001,2019_Dec_25_1512,untitled,3.1.0,60.01903887757021,
_,_4,M,225,_,_,__4M225__,N,0,15,15,37,,,1.284,105.71543736793683,106.04876914302804,106.06542955445548,106.34877875962047,106.38216335917969,None,up,106.38216335917969,None,106.38216335917969,107.63216903564171,0.07235149711777922,None,3.4001807785680285,,,,,,,,,18,001,2019_Dec_25_1512,untitled,3.1.0,60.01903887757021,
_,_5,M,225,_,_,__5M225__,N,0,16,16,45,,,1.06,109.86554735770551,110.19886143559415,110.21552652175887,110.49881028067102,110.53219053940848,None,None,110.53219053940848,None,110.53219053940848,111.54883559100563,0.07006488528350019,None,,,,,,,,,,18,001,2019_Dec_25_1512,untitled,3.1.0,60.01903887757021,
460,_5,M,135,R,N,460_5M135RN,HRN,0,17,17,179,,,0.708,114.06565561114621,114.39895265965606,114.41556598985335,114.69888080234159,114.74900127686851,114.06565561114621,down,114.74900127686851,None,114.74900127686851,115.39901276335513,0.06973631839719019,None,1.8503230907735997,,,,,,,,,18,001,2019_Dec_25_1512,untitled,3.1.0,60.01903887757021,
038,R,N,225,L,N,038RN225LN,HLN,0,18,18,205,,,0.742,116.68237365534515,117.01559857941538,117.03229004442255,117.31565260596108,117.3490906310326,None,up,117.3490906310326,None,117.3490906310326,118.04905764078285,0.07006254791485844,None,2.2668230253257207,,,,,,,,,18,001,2019_Dec_25_1512,untitled,3.1.0,60.01903887757021,
_,R,M,135,_,_,_RM135__,N,0,19,19,19,,,0.9380000000000001,119.69910385384719,120.0323978971719,120.04910138291962,120.33240350685082,120.3658271738168,None,down,120.3658271738168,None,120.3658271738168,121.26572646672867,0.07019744733042899,None,3.2001603433091077,,,,,,,,,18,001,2019_Dec_25_1512,untitled,3.1.0,60.01903887757021,
297,_2,M,0,L,N,297_2M000LN,HLN,0,20,20,152,,,1.127,123.64919207272033,123.98248043958301,123.99911180089111,124.28245098877233,124.31579819047693,None,down,124.31579819047693,None,124.31579819047693,125.39915701223072,0.0709053353384661,None,2.933781083629583,,,,,,,,,18,001,2019_Dec_25_1512,untitled,3.1.0,60.01903887757021,
261,_2,N,180,R,N,261_2N180RN,HRN,0,21,21,244,,,1.078,127.33249833713126,127.6658598301583,127.68252792150452,127.96586377029234,128.01599593164792,None,up,128.01599593164792,None,128.01599593164792,129.04920823393695,0.07246101941200322,None,2.71690456601209,,,,,,,,,18,001,2019_Dec_25_1512,untitled,3.1.0,60.01903887757021,
427,_4,M,90,L,N,427_4M090LN,HLN,0,22,22,170,,,0.928,130.81602324543928,131.14929625246805,131.1659419718817,131.4492931804998,131.48265874722347,None,down,131.48265874722347,None,131.48265874722347,132.3827093011132,0.07087461567061837,None,2.4335814057849348,,,,,,,,,18,001,2019_Dec_25_1512,untitled,3.1.0,60.01903887757021,
495,_5,M,270,L,N,495_5M270LN,HLN,0,23,23,190,,,0.778,133.99942166885012,134.3326776465001,134.34941485710078,134.63267390671172,134.66614064799796,None,down,134.66614064799796,None,134.66614064799796,135.4160354665255,0.07232578608818585,None,2.81683030455315,,,,,,,,,18,001,2019_Dec_25_1512,untitled,3.1.0,60.01903887757021,
207,G,M,270,R,N,207GM270RN,HRN,0,24,24,134,,,1.109,137.56605563465564,137.89941512422592,137.9160868885774,138.19942908164012,138.2328797952723,None,down,138.2328797952723,None,138.2328797952723,139.29944931655336,0.07094941138711874,None,2.8001755695804604,,,,,,,,,18,001,2019_Dec_25_1512,untitled,3.1.0,60.01903887757021,
238,G,M,225,L,N,238GM225LN,HLN,0,25,25,141,,,0.786,141.11625157271192,141.44950120607973,141.46625744951962,141.749502141025,141.79963196501558,None,down,141.79963196501558,None,141.79963196501558,142.53285802437676,0.07027591604855843,None,2.883574794377637,,,,,,,,,18,001,2019_Dec_25_1512,untitled,3.1.0,60.01903887757021,
_,_2,N,315,_,_,__2N315__,N,0,26,26,79,,,0.833,144.76632984108437,145.09958047618056,145.11630132521896,145.39959142840962,145.4330054120037,None,up,145.4330054120037,None,145.4330054120037,146.232974959461,0.07008491984743159,None,2.2335188979377563,,,,,,,,,18,001,2019_Dec_25_1512,untitled,3.1.0,60.01903887757021,
_,G,N,270,_,_,_GN270__,N,0,27,27,62,,,1.193,147.74969814586802,148.08299352482572,148.09965059716342,148.38300748223992,148.43313062804373,None,up,148.43313062804373,None,148.43313062804373,149.56635047668897,0.07181690810830332,None,2.6001340980328678,,,,,,,,,18,001,2019_Dec_25_1512,untitled,3.1.0,60.01903887757021,
163,F,N,90,L,N,163FN090LN,HLN,0,28,28,218,,,1.337,151.11646627648224,151.44977734918575,151.46638600465303,151.74981735153779,151.7831431830382,None,up,151.7831431830382,None,151.7831431830382,153.08308969074642,0.07095308438874781,None,2.8503194177683326,,,,,,,,,18,001,2019_Dec_25_1512,untitled,3.1.0,60.01903887757021,
302,_2,M,225,L,N,302_2M225LN,HLN,0,29,29,157,,,0.801,154.71649485913076,155.04982997331172,155.06646834671847,155.34983291171739,155.43321343758362,None,up,155.43321343758362,None,155.43321343758362,156.14983050756928,0.07212610824717558,None,2.9835619722543925,,,,,,,,,18,001,2019_Dec_25_1512,untitled,3.1.0,60.01903887757021,
420,_4,N,135,L,N,420_4N135LN,HLN,0,30,30,267,,,0.845,158.4999672768754,158.83322392233822,158.84989134586795,159.13322719465214,159.1667353407065,None,up,159.1667353407065,None,159.1667353407065,159.983365967415,0.06987555863088346,None,2.633652261367388,,,,,,,,,18,001,2019_Dec_25_1512,untitled,3.1.0,60.01903887757021,
_,_4,N,225,_,_,__4N225__,N,0,31,31,85,,,1.286,161.88341351611962,162.2167593154045,162.2333382529323,162.5167575790765,162.55004367535366,None,up,162.55004367535366,None,162.55004367535366,163.7999999332169,0.06924246633570874,None,2.8502312656783033,,,,,,,,,18,001,2019_Dec_25_1512,untitled,3.1.0,60.01903887757021,
002,R,N,45,R,N,002RN045RN,HRN,0,32,32,193,,,1.341,165.48340804000327,165.81668906085906,165.833466006683,166.11671637465042,166.15017844120302,None,up,166.15017844120302,None,166.15017844120302,167.45011726899247,0.07081785106493044,None,2.4168121398761286,,,,,,,,,18,001,2019_Dec_25_1512,untitled,3.1.0,60.01903887757021,
258,_2,N,45,R,N,258_2N045RN,HRN,0,33,33,241,,,0.734,168.6501540658137,168.98350120073883,169.0001105240226,169.28345605618233,169.3335234391052,None,up,169.3335234391052,None,169.3335234391052,170.0168928123967,0.07054571487242356,None,1.9168772522207291,,,,,,,,,18,001,2019_Dec_25_1512,untitled,3.1.0,60.01903887757021,
_,_2,N,180,_,_,__2N180__,N,0,34,34,76,,,1.201,171.33359422790818,171.6668512072829,171.6835086135252,171.96685047267965,172.0001923318341,None,up,172.0001923318341,None,172.0001923318341,173.16687792003722,0.06961444145053974,None,3.38361987215103,,,,,,,,,18,001,2019_Dec_25_1512,untitled,3.1.0,60.01903887757021,
459,_5,M,90,R,N,459_5M090RN,HRN,0,35,35,178,,,1.189,175.4670190969482,175.8002810849648,175.81693815729886,176.10035280871307,176.13373740827228,None,down,176.13373740827228,None,176.13373740827228,177.28363469773103,0.07086025756507297,None,3.3501721637039736,,,,,,,,,18,001,2019_Dec_25_1512,untitled,3.1.0,60.01903887757021,
_,G,N,0,_,_,_GN000__,N,0,36,36,56,,,1.282,179.56699993054644,179.900360755757,179.91702584191808,180.20036502979565,180.2504941859661,None,up,180.2504941859661,None,180.2504941859661,181.4837382764381,0.06812954617998912,None,2.6001501256832853,,,,,,,,,18,001,2019_Dec_25_1512,untitled,3.1.0,60.01903887757021,
_,G,M,315,_,_,_GM315__,N,0,37,37,15,,,1.206,182.93382549358284,183.26719132743528,183.28376826150634,183.5671945997492,183.60054213536205,None,down,183.60054213536205,None,183.60054213536205,184.76722505228827,0.06872824579841108,None,2.966857484778302,,,,,,,,,18,001,2019_Dec_25_1512,untitled,3.1.0,60.01903887757021,
452,_5,N,135,R,N,452_5N135RN,HRN,0,38,38,275,,,1.097,186.6506051774668,186.983860487293,187.0005188952673,187.28386008660163,187.3172059526696,None,up,187.3172059526696,None,187.3172059526696,188.38388232497164,0.07009426931472262,None,3.066911778456415,,,,,,,,,18,001,2019_Dec_25_1512,untitled,3.1.0,60.01903887757021,
042,R,M,45,L,N,042RM045LN,HLN,0,39,39,105,,,1.353,190.4673289649072,190.80060364148085,190.81727139891882,191.100609585068,191.13408033326778,None,down,191.13408033326778,None,191.13408033326778,192.45061846706085,0.071708053626935,None,2.833479363060178,,,,,,,,,18,001,2019_Dec_25_1512,untitled,3.1.0,60.01903887757021,
_,R,M,270,_,_,_RM270__,N,0,40,40,22,,,1.36,194.05076491973887,194.38401722438357,194.40066294379722,194.68403619043966,194.7174822293382,None,down,194.7174822293382,None,194.7174822293382,196.03414190616604,0.06982547221559798,None,3.1670148229095503,,,,,,,,,18,001,2019_Dec_25_1512,untitled,3.1.0,60.01903887757021,
232,G,N,315,L,N,232GN315LN,HLN,0,41,41,239,,,1.203,197.96744616712022,198.30086041783943,198.31752283272726,198.60086035105633,198.6341210702194,None,up,198.6341210702194,None,198.6341210702194,199.80089147141916,0.07064355033799075,None,2.4169610634889978,,,,,,,,,18,001,2019_Dec_25_1512,untitled,3.1.0,60.01903887757021,
162,F,N,45,L,N,162FN045LN,HLN,0,42,42,217,,,0.9400000000000001,201.134229256877,201.4674889075286,201.4841793708074,201.76749718848077,201.8009796235092,None,up,201.8009796235092,None,201.8009796235092,202.70096205987284,0.07117146116070217,None,2.400151060632197,,,,,,,,,18,001,2019_Dec_25_1512,untitled,3.1.0,60.01903887757021,
294,_2,N,225,L,N,294_2N225LN,HLN,0,43,43,253,,,0.834,204.28432989718203,204.6175765253647,204.63424962535282,204.91758981495877,204.951048542418,None,up,204.951048542418,None,204.951048542418,205.75094362807067,0.07238789324401296,None,2.1669710807727824,,,,,,,,,18,001,2019_Dec_25_1512,untitled,3.1.0,60.01903887757021,
174,F,M,225,L,N,174FM225LN,HLN,0,44,44,125,,,0.8290000000000001,207.20103585385732,207.53431587298473,207.55098162696595,207.8343218165719,207.88433176707622,None,down,207.88433176707622,None,207.88433176707622,208.66767429404717,0.07019243868853664,None,2.883604846228991,,,,,,,,,18,001,2019_Dec_25_1512,untitled,3.1.0,60.01903887757021,
487,_5,N,270,L,N,487_5N270LN,HLN,0,45,45,286,,,1.371,210.85103732306015,211.18448563254424,211.20108560636436,211.48440008494435,211.51785413766993,None,up,211.51785413766993,None,211.51785413766993,212.8511010997645,0.07116344733367441,None,2.416820487615041,,,,,,,,,18,001,2019_Dec_25_1512,untitled,3.1.0,60.01903887757021,
_,_5,M,315,_,_,__5M315__,N,0,46,46,47,,,1.101,214.0178855251579,214.35114217062437,214.3678052533287,214.65116581141046,214.684607175579,None,down,214.684607175579,None,214.684607175579,215.75115866574924,0.06933095233762288,None,2.416805795601249,,,,,,,,,18,001,2019_Dec_25_1512,untitled,3.1.0,60.01903887757021,
_,F,N,180,_,_,_FN180__,N,0,47,47,52,,,0.733,217.18458213237318,217.5178715009606,217.53461906275697,217.81787944800817,217.85134852665578,None,up,217.85134852665578,None,217.85134852665578,218.5513205450443,0.06979341690748697,None,3.36700153331185,,,,,,,,,18,001,2019_Dec_25_1512,untitled,3.1.0,60.01903887757021,
005,R,N,180,R,N,005RN180RN,HRN,0,48,48,196,,,1.2730000000000001,221.30138231829187,221.634653989684,221.65129837346103,221.93465559244942,221.96809695661432,None,up,221.96809695661432,None,221.96809695661432,223.20133503671605,0.07138215801751358,None,3.000337916353601,,,,,,,,,18,001,2019_Dec_25_1512,untitled,3.1.0,60.01903887757021,
_,_4,M,45,_,_,__4M045__,N,0,49,49,33,,,1.103,225.05146880083703,225.38471275774282,225.40138518991444,225.68472370997188,225.73477339569945,None,down,225.73477339569945,None,225.73477339569945,226.78477566628135,0.0698762264510151,None,3.0003656308326754,,,,,,,,,18,001,2019_Dec_25_1512,untitled,3.1.0,60.01903887757021,
387,_4,N,90,R,N,387_4N090RN,HRN,0,50,50,258,,,1.286,228.81816727794285,229.15144562752175,229.16822324116583,229.4514739430415,229.48486822597988,None,up,229.48486822597988,None,229.48486822597988,230.73482748902825,0.07052133948309347,None,2.6335584328153345,,,,,,,,,18,001,2019_Dec_25_1512,untitled,3.1.0,60.01903887757021,
298,_2,M,45,L,N,298_2M045LN,HLN,0,51,51,153,,,1.027,232.201631214386,232.53497233894086,232.5515402574565,232.83488078097434,232.8683365032448,None,up,232.8683365032448,None,232.8683365032448,233.86823599650597,0.07146296410064679,None,3.0836633471626556,,,,,,,,,18,001,2019_Dec_25_1512,untitled,3.1.0,60.01903887757021,
003,R,N,90,R,N,003RN090RN,HRN,0,52,52,194,,,0.889,236.03493393935423,236.36829676802154,236.38496252200275,236.66830605070572,236.70176711552995,None,up,236.70176711552995,None,236.70176711552995,237.55168784542911,0.06970426308907918,None,2.30015019246639,,,,,,,,,18,001,2019_Dec_25_1512,untitled,3.1.0,60.01903887757021,
011,R,M,90,R,N,011RM090RN,HRN,0,53,53,98,,,1.205,239.08511351585184,239.41838685678886,239.43503558138764,239.7184572449005,239.7518344984528,None,down,239.7518344984528,None,239.7518344984528,240.9184005470779,0.07191474357023253,None,2.55023300200628,,,,,,,,,18,001,2019_Dec_25_1512,untitled,3.1.0,60.01903887757021,
_,_5,N,135,_,_,__5N135__,N,0,54,54,91,,,0.865,242.38518190050308,242.71846225353875,242.73511665459955,243.01843547400495,243.051848455867,None,up,243.051848455867,None,243.051848455867,243.88514951129036,0.07002214487511083,None,3.0669975931814406,,,,,,,,,18,001,2019_Dec_25_1512,untitled,3.1.0,60.01903887757021,
131,F,N,90,R,N,131FN090RN,HRN,0,55,55,210,,,1.056,246.20193540588662,246.5351910496247,246.55194094878243,246.83517729255618,246.90199223727177,None,up,246.90199223727177,None,246.90199223727177,247.88523098519363,0.07031698690843768,None,2.333484705610317,,,,,,,,,18,001,2019_Dec_25_1512,untitled,3.1.0,60.01903887757021,
400,_4,M,315,R,N,400_4M315RN,HRN,0,56,56,167,,,0.8280000000000001,249.31868550539002,249.65195150032014,249.66862293076338,249.95193507197473,249.98540047762435,None,down,249.98540047762435,None,249.98540047762435,250.78528888509027,0.07057242762675742,None,2.550148189005995,,,,,,,,,18,001,2019_Dec_25_1512,untitled,3.1.0,60.01903887757021,
133,F,N,180,R,N,133FN180RN,HRN,0,57,57,212,,,1.228,252.6186807638769,252.95203991953895,252.96867662340082,253.25201213827313,253.285360675618,None,up,253.285360675618,None,253.285360675618,254.48537409877827,0.0740547691602842,None,3.0669732177921105,,,,,,,,,18,001,2019_Dec_25_1512,untitled,3.1.0,60.01903887757021,
046,R,M,225,L,N,046RM225LN,HLN,0,58,58,109,,,1.111,256.43550939888155,256.76876671216814,256.7854211132253,257.068760968923,257.1022076756417,None,up,257.1022076756417,None,257.1022076756417,258.18545797682964,0.07119550264178542,None,2.833477359603421,,,,,,,,,18,001,2019_Dec_25_1512,untitled,3.1.0,60.01903887757021,
_,G,M,90,_,_,_GM090__,N,0,59,59,10,,,1.0210000000000001,260.01889192820454,260.35222937975414,260.36883770131317,260.652178224831,260.6856312758282,None,None,260.6856312758282,None,260.6856312758282,261.6689578419282,0.07158751232418581,None,,,,,,,,,,18,001,2019_Dec_25_1512,untitled,3.1.0,60.01903887757021,
_,F,M,315,_,_,_FM315__,N,0,60,60,7,,,1.181,264.2190198823009,264.55226717830374,264.56902075046673,264.85230417547064,264.9024019441531,264.2190198823009,down,264.9024019441531,None,264.9024019441531,266.0356318100821,0.06934364089465817,None,2.800133163083956,,,,,,,,,18,001,2019_Dec_25_1512,untitled,3.1.0,60.01903887757021,
231,G,N,270,L,N,231GN270LN,HLN,0,61,61,238,,,0.777,267.7856745504905,268.1190106664035,268.1356800933863,268.41903130200444,268.4524289240362,None,up,268.4524289240362,None,268.4524289240362,269.1857034002642,0.07154844491742551,None,2.266869772647624,,,,,,,,,18,001,2019_Dec_25_1512,untitled,3.1.0,60.01903887757021,
167,F,N,270,L,N,167FN270LN,HLN,0,62,62,222,,,0.749,270.8023873857019,271.13574553963554,271.152417303987,271.4358059104634,271.46909267456067,None,up,271.46909267456067,None,271.46909267456067,272.1857548223197,0.07180421954763005,None,2.2171262818810646,,,,,,,,,18,001,2019_Dec_25_1512,untitled,3.1.0,60.01903887757021,
_,R,N,45,_,_,_RN045__,N,0,63,63,65,,,1.006,273.7691463671981,274.1024848204761,274.11914122499365,274.40249243361177,274.43594648633734,None,up,274.43594648633734,None,274.43594648633734,275.40251380381596,0.07038410270251916,None,2.2003443274115853,,,,,,,,,18,001,2019_Dec_25_1512,untitled,3.1.0,60.01903887757021,
396,_4,M,135,R,N,396_4M135RN,HRN,0,64,64,163,,,1.022,276.71925428672694,277.0526364821417,277.06930590912816,277.3525579466441,277.3860183436482,None,up,277.3860183436482,None,277.3860183436482,278.36924373518923,0.07251210755566717,None,3.233672162372386,,,,,,,,,18,001,2019_Dec_25_1512,untitled,3.1.0,60.01903887757021,
496,_5,M,315,L,N,496_5M315LN,HLN,0,65,65,191,,,1.347,280.7027224304329,281.03597006034397,281.0526394873268,281.3359953706786,281.36937262423453,None,down,281.36937262423453,None,281.36937262423453,282.68610041858847,0.07031331390317064,None,2.9002088269626256,,,,,,,,,18,001,2019_Dec_25_1512,untitled,3.1.0,60.01903887757021,
484,_5,N,135,L,N,484_5N135LN,HLN,0,66,66,283,,,1.381,284.35280737699213,284.68605367126656,284.7028109164348,284.986063287859,285.01946257943564,None,up,285.01946257943564,None,285.01946257943564,286.36941002208914,0.07121954412286868,None,2.7003950816470024,,,,,,,,,18,001,2019_Dec_25_1512,untitled,3.1.0,60.01903887757021,
_,G,M,180,_,_,_GM180__,N,0,67,67,12,,,1.359,287.8028324869847,288.1361305372193,288.1528189970413,288.43613815035496,288.4696015525442,None,up,288.4696015525442,None,288.4696015525442,289.7862772570261,0.06996137335590902,None,3.3334987298076157,,,,,,,,,18,001,2019_Dec_25_1512,untitled,3.1.0,60.01903887757021,
492,_5,M,135,L,N,492_5M135LN,HLN,0,68,68,187,,,1.193,291.88628346774203,292.21957884670337,292.2362312443074,292.5195667591797,292.5529944330592,None,None,292.5529944330592,None,292.5529944330592,293.70301727246624,0.07134108715763432,None,,,,,,,,,,18,001,2019_Dec_25_1512,untitled,3.1.0,60.01903887757021,
_,G,N,225,_,_,_GN225__,N,0,69,69,61,,,1.342,296.0862975587188,296.4196570482927,296.4364129578207,296.7196619901515,296.75301119531287,296.0862975587188,up,296.75301119531287,None,296.75301119531287,298.0530248188188,0.06924246633570874,None,2.2003780522645684,,,,,,,,,18,001,2019_Dec_25_1512,untitled,3.1.0,60.01903887757021,
195,G,N,90,R,N,195GN090RN,HRN,0,70,70,226,,,1.224,299.0364021391579,299.3697442654375,299.38638831530625,299.6697308422772,299.70313848159276,None,up,299.70313848159276,None,299.70313848159276,300.8864377339014,0.07346007645173813,None,2.316868036319647,,,,,,,,,18,001,2019_Dec_25_1512,untitled,3.1.0,60.01903887757021,
389,_4,N,180,R,N,389_4N180RN,HRN,0,71,71,260,,,1.292,302.10319704930953,302.4364506895872,302.4531471632363,302.7364633113648,302.81992263986103,None,up,302.81992263986103,None,302.81992263986103,304.01982420335844,0.0700749025636469,None,2.0501264848935534,,,,,,,,,18,001,2019_Dec_25_1512,untitled,3.1.0,60.01903887757021,
_,R,M,180,_,_,_RM180__,N,0,72,72,20,,,1.022,304.95324900561536,305.2865216787359,305.303194778724,305.5865683592747,305.63654391710224,None,up,305.63654391710224,None,305.63654391710224,306.60322476379224,0.06951961116646999,None,1.9504268030432286,,,,,,,,,18,001,2019_Dec_25_1512,untitled,3.1.0,60.01903887757021,
240,G,M,315,L,N,240GM315LN,HLN,0,73,73,143,,,1.2550000000000001,307.6699442104109,308.0032529457494,308.0199193675471,308.30326055888145,308.33665550963997,None,None,308.33665550963997,None,308.33665550963997,309.55328693772753,0.07038744179953937,None,,,,,,,,,,18,001,2019_Dec_25_1512,untitled,3.1.0,60.01903887757021,
_,G,M,0,_,_,_GM000__,N,0,74,74,8,,,0.8250000000000001,311.8700294240989,312.2033471749928,312.2200162680674,312.5033678105938,312.53673003822405,311.8700294240989,down,312.53673003822405,None,312.53673003822405,313.32013066544096,0.07114875531988218,None,3.433588417883584,,,,,,,,,18,001,2019_Dec_25_1512,untitled,3.1.0,60.01903887757021,
196,G,N,135,R,N,196GN135RN,HRN,0,75,75,227,,,0.72,316.0535186708803,316.3867903422688,316.4034487502431,316.68683668889935,316.72024800121653,None,up,316.72024800121653,None,316.72024800121653,317.40355359780733,0.07232845736507443,None,2.6668335100839613,,,,,,,,,18,001,2019_Dec_25_1512,untitled,3.1.0,60.01903887757021,
296,_2,N,315,L,N,296_2N315LN,HLN,0,76,76,255,,,1.331,319.4702663662356,319.80352468125056,319.82019076914,320.103528621381,320.17031251252047,None,up,320.17031251252047,None,320.17031251252047,321.43697693086506,0.06984183377790032,None,3.2336868543861783,,,,,,,,,18,001,2019_Dec_25_1512,untitled,3.1.0,60.01903887757021,
424,_4,N,315,L,N,424_4N315LN,HLN,0,77,77,271,,,0.714,323.48702928786224,323.82029628452074,323.8369493499449,324.1202875360941,324.1537496026467,None,up,324.1537496026467,None,324.1537496026467,324.8370585383309,0.07029962361775688,None,1.9502461580377712,,,,,,,,,18,001,2019_Dec_25_1512,untitled,3.1.0,60.01903887757021,
_,_5,N,45,_,_,__5N045__,N,0,78,78,89,,,1.123,326.18708578533915,326.52036413491805,326.5370081847868,326.8203250007318,326.8871429506362,None,up,326.8871429506362,None,326.8871429506362,327.93704104147764,0.071111357461632,None,2.316989245446166,,,,,,,,,18,001,2019_Dec_25_1512,untitled,3.1.0,60.01903887757021,
_,F,N,45,_,_,_FN045__,N,0,79,79,49,,,0.9580000000000001,329.2871617831297,329.62041442168265,329.63707950784374,329.92041836181306,329.95388543700756,None,up,329.95388543700756,None,329.95388543700756,330.8705139266931,0.06969023889178061,None,1.833488712527469,,,,,,,,,18,001,2019_Dec_25_1512,untitled,3.1.0,60.01903887757021,
_,_4,N,0,_,_,__4N000__,N,0,80,80,80,,,1.324,331.87055366191635,332.2038022935558,332.22046871535713,332.5038940518716,332.5372723071523,None,up,332.5372723071523,None,332.5372723071523,333.82054738442093,0.07280594786061556,None,2.133642577995488,,,,,,,,,18,001,2019_Dec_25_1512,untitled,3.1.0,60.01903887757021,
_,G,N,315,_,_,_GN315__,N,0,81,81,63,,,0.9420000000000001,334.7539488130169,335.0872017854781,335.1038735498296,335.38729487943056,335.42056027332364,None,up,335.42056027332364,None,335.42056027332364,336.32056441379973,0.06946184483604156,None,2.067089084364852,,,,,,,,,18,001,2019_Dec_25_1512,untitled,3.1.0,60.01903887757021,
_,R,N,315,_,_,_RN315__,N,0,82,82,71,,,1.3920000000000001,337.570679612556,337.9039626368685,337.9206010102753,338.2039415337931,338.2372910728627,None,up,338.2372910728627,None,338.2372910728627,339.5873927816792,0.06969391189704766,None,2.56693415038535,,,,,,,,,18,001,2019_Dec_25_1512,untitled,3.1.0,60.01903887757021,
044,R,M,135,L,N,044RM135LN,HLN,0,83,83,107,,,1.083,340.88742477020423,341.2206713983833,341.23734316273476,341.520684687981,341.55408865429126,None,down,341.55408865429126,None,341.55408865429126,342.6040201360738,0.07052067166659981,None,2.8171294874082378,,,,,,,,,18,001,2019_Dec_25_1512,untitled,3.1.0,60.01903887757021,
199,G,N,270,R,N,199GN270RN,HRN,0,84,84,230,,,1.164,344.4541842859544,344.7874446044225,344.80410668539844,345.0874271743487,345.1541676572633,None,up,345.1541676572633,None,345.1541676572633,346.2541227798356,0.07053569759227685,None,2.0170383969161776,,,,,,,,,18,001,2019_Dec_25_1512,untitled,3.1.0,60.01903887757021,
_,_2,N,0,_,_,__2N000__,N,0,85,85,72,,,0.962,347.254203919827,347.5874846067745,347.6041597102194,347.8875807059085,347.92091789033293,None,up,347.92091789033293,None,347.92091789033293,348.8541860890655,0.07094206537658465,None,1.7170167595832027,,,,,,,,,18,001,2019_Dec_25_1512,untitled,3.1.0,60.01903887757021,
260,_2,N,135,R,N,260_2N135RN,HRN,0,86,86,243,,,1.107,349.720962567415,350.05429768159956,350.07087862258413,350.3542498657662,350.38761643422185,None,up,350.38761643422185,None,350.38761643422185,351.45427577714145,0.06977438406829606,None,2.5170514193814597,,,,,,,,,18,001,2019_Dec_25_1512,untitled,3.1.0,60.01903887757021,
_,R,M,45,_,_,_RM045__,N,0,87,87,17,,,0.719,352.987617302384,353.3209507470201,353.33761817054983,353.6210481817943,353.65434062235363,None,up,353.65434062235363,None,353.65434062235363,354.3376445493959,0.0689970429011737,None,2.1502168407896534,,,,,,,,,18,001,2019_Dec_25_1512,untitled,3.1.0,60.01903887757021,
259,_2,N,90,R,N,259_2N090RN,HRN,0,88,88,242,,,0.84,355.8877186105092,356.2211051467457,356.2376627140693,356.52102594342796,356.5544883438888,None,up,356.5544883438888,None,356.5544883438888,357.3543917772804,0.0712255544931395,None,1.8168012544301746,,,,,,,,,18,001,2019_Dec_25_1512,untitled,3.1.0,60.01903887757021,
193,G,N,0,R,N,193GN000RN,HRN,0,89,89,224,,,0.99,358.45438296207067,358.7877781799507,358.8044145499007,359.08789264410734,359.121172396106,None,up,359.121172396106,None,359.121172396106,360.0710859803439,0.07049095372713055,None,2.333606248648721,,,,,,,,,18,001,2019_Dec_25_1512,untitled,3.1.0,60.01903887757021,
301,_2,M,180,L,N,301_2M180LN,HLN,0,90,90,156,,,0.8280000000000001,361.5378416227468,361.8711476868084,361.88781644597475,362.1712337686622,362.20456026798274,None,up,362.20456026798274,None,362.20456026798274,363.00450343659395,0.07279626448871568,None,2.9502251217418234,,,,,,,,,18,001,2019_Dec_25_1512,untitled,3.1.0,60.01903887757021,
257,_2,N,0,R,N,257_2N000RN,HRN,0,91,91,240,,,0.718,365.2379732498448,365.57123223267627,365.58790065793437,365.87123917799545,365.90470124454805,None,up,365.90470124454805,None,365.90470124454805,366.5879216942303,0.07040146599683794,None,1.516971615026705,,,,,,,,,18,001,2019_Dec_25_1512,untitled,3.1.0,60.01903887757021,
001,R,N,0,R,N,001RN000RN,HRN,0,92,92,192,,,0.902,367.50464968892993,367.8379520799863,367.8546188356959,368.1379603609421,368.1879669723494,None,up,368.1879669723494,None,368.1879669723494,369.038068347254,0.07049863364227349,None,1.9169647364906268,,,,,,,,,18,001,2019_Dec_25_1512,untitled,3.1.0,60.01903887757021,
_,_5,N,0,_,_,__5N000__,N,0,93,93,88,,,1.222,370.18809485966267,370.5213371470236,370.53800724182656,370.82138983793266,370.8547243510802,None,up,370.8547243510802,None,370.8547243510802,372.0380446396848,0.06937269101763377,None,1.8835777995627723,,,,,,,,,18,001,2019_Dec_25_1512,untitled,3.1.0,60.01903887757021,
166,F,N,225,L,N,166FN225LN,HLN,0,94,94,221,,,1.262,372.8214749848412,373.1547279573024,373.1714210918544,373.45475660673037,373.48820832209094,None,up,373.48820832209094,None,373.48820832209094,374.7214387222739,0.07105125376256183,None,2.3836622786511725,,,,,,,,,18,001,2019_Dec_25_1512,untitled,3.1.0,60.01903887757021,
422,_4,N,225,L,N,422_4N225LN,HLN,0,95,95,269,,,0.937,375.9548417536389,376.288146148152,376.3048917064916,376.58824024383284,376.6216084818334,None,up,376.6216084818334,None,376.6216084818334,377.521507440837,0.07226468066073721,None,2.43348857896126,,,,,,,,,18,001,2019_Dec_25_1512,untitled,3.1.0,60.01903887757021,
_,_5,M,270,_,_,__5M270__,N,0,96,96,46,,,1.227,379.1381847480843,379.47155058193675,379.48821633591797,379.77157589227136,379.80502159726166,None,up,379.80502159726166,None,379.80502159726166,380.98825173031946,0.0704034694499569,None,2.833579535894387,,,,,,,,,18,001,2019_Dec_25_1512,untitled,3.1.0,60.01903887757021,
493,_5,M,180,L,N,493_5M180LN,HLN,0,97,97,188,,,0.913,382.7216247098331,383.0549668361127,383.0716335918223,383.3549861360807,383.38837941728707,None,up,383.38837941728707,None,383.38837941728707,384.27165870181125,0.07113272766946466,None,2.233528915221541,,,,,,,,,18,001,2019_Dec_25_1512,untitled,3.1.0,60.01903887757021,
135,F,N,270,R,N,135FN270RN,HRN,0,98,98,214,,,1.0230000000000001,385.7050931874437,386.0384546804744,386.0550422996457,386.3384455981359,386.37183320288386,None,up,386.37183320288386,None,386.37183320288386,387.3550789629044,0.07112371211042046,None,2.000135901140311,,,,,,,,,18,001,2019_Dec_25_1512,untitled,3.1.0,60.01903887757021,
_,_4,N,45,_,_,__4N045__,N,0,99,99,81,,,1.117,388.45506914596626,388.7884232929864,388.80509939815965,389.088433577399,389.1218959778598,None,up,389.1218959778598,None,389.1218959778598,390.2051239071152,0.06963547774284962,None,2.0334774263865256,,,,,,,,,18,001,2019_Dec_25_1512,untitled,3.1.0,60.01903887757021,
394,_4,M,45,R,N,394_4M045RN,HRN,0,100,100,161,,,1.321,391.238570279922,391.5719150774785,391.5884930132779,391.8718345385241,391.92195935386917,None,down,391.92195935386917,None,391.92195935386917,393.18852960975346,0.0709600964873971,None,2.4167877644904365,,,,,,,,,18,001,2019_Dec_25_1512,untitled,3.1.0,60.01903887757021,
263,_2,N,270,R,N,263_2N270RN,HRN,0,101,101,246,,,0.835,394.4219894057205,394.75528712204687,394.7719528760281,395.05523563321185,395.08860086602726,None,up,395.08860086602726,None,395.08860086602726,395.88863218673214,0.0702926115191076,None,1.7504197241651127,,,,,,,,,18,001,2019_Dec_25_1512,untitled,3.1.0,60.01903887757021,
264,_2,N,315,R,N,264_2N315RN,HRN,0,102,102,247,,,0.901,396.9220308104923,397.25529079505213,397.27195554730497,397.5552944012743,397.5887167326,None,up,397.5887167326,None,397.5887167326,398.45531757458593,0.07160120260959957,None,2.3336937329186185,,,,,,,,,18,001,2019_Dec_25_1512,untitled,3.1.0,60.01903887757021,
036,R,N,135,L,N,036RN135LN,HLN,0,103,103,203,,,1.365,400.00544138820624,400.3386880163889,400.3553637876539,400.63870163989486,400.672167713361,None,up,400.672167713361,None,400.672167713361,402.005401652983,0.07121286593246623,None,2.4002472265492543,,,,,,,,,18,001,2019_Dec_25_1512,untitled,3.1.0,60.01903887757021,
_,_2,M,225,_,_,__2M225__,N,0,104,104,29,,,0.841,403.15549160818773,403.48876094221123,403.5054333743792,403.7888757402761,403.8221731894737,None,down,403.8221731894737,None,403.8221731894737,404.6221240380073,0.07003917425390682,None,2.0502901005202148,,,,,,,,,18,001,2019_Dec_25_1512,untitled,3.1.0,60.01903887757021,
015,R,M,270,R,N,015RM270RN,HRN,0,105,105,102,,,1.047,405.9555713457594,406.2888323320476,406.30549708430044,406.58883293308463,406.6222929961805,None,down,406.6222929961805,None,406.6222929961805,407.6389477311495,0.0701904352317797,None,2.1668258301651804,,,,,,,,,18,001,2019_Dec_25_1512,untitled,3.1.0,60.01903887757021,
197,G,N,180,R,N,197GN180RN,HRN,0,106,106,228,,,0.977,408.8722462488586,409.20564714320426,409.2222297537337,409.5056574276132,409.53891413986275,None,up,409.53891413986275,None,409.53891413986275,410.47224411183925,0.07032399900708697,None,1.9668918774514168,,,,,,,,,18,001,2019_Dec_25_1512,untitled,3.1.0,60.01903887757021,
_,_5,N,270,_,_,__5N270__,N,0,107,107,94,,,1.11,411.5890079016317,411.9222922615809,411.9389590172905,412.2223052172667,412.25576361081403,None,up,412.25576361081403,None,412.25576361081403,413.32233279818684,0.07006488527986221,None,2.100254639335617,,,,,,,,,18,001,2019_Dec_25_1512,untitled,3.1.0,60.01903887757021,
_,_4,M,270,_,_,__4M270__,N,0,108,108,38,,,1.291,414.4391046018063,414.7723822835651,414.7890249977936,415.07245066822,415.1057638111597,None,down,415.1057638111597,None,415.1057638111597,416.35580521593147,0.07007957729729242,None,2.1170399328984786,,,,,,,,,18,001,2019_Dec_25_1512,untitled,3.1.0,60.01903887757021,
139,F,M,90,R,N,139FM090RN,HRN,0,109,109,114,,,0.76,417.30582665291877,417.63908697138686,417.65575639837334,417.9391793975192,417.97254663379135,None,down,417.97254663379135,None,417.97254663379135,418.68910994435646,0.07042250228914781,None,2.133482301465847,,,,,,,,,18,001,2019_Dec_25_1512,untitled,3.1.0,60.01903887757021,
014,R,M,225,R,N,014RM225RN,HRN,0,110,110,101,,,1.243,420.1892314873912,420.52248345812404,420.53915689202404,420.8225832302669,420.85595781254597,None,up,420.85595781254597,None,420.85595781254597,422.0558820818842,0.07041949710765039,None,2.649987111093651,,,,,,,,,18,001,2019_Dec_25_1512,untitled,3.1.0,60.01903887757021,
230,G,N,225,L,N,230GN225LN,HLN,0,111,111,237,,,0.735,423.5893164339541,423.9225643977734,423.93932398030665,424.2225683379038,424.27260566897894,None,up,424.27260566897894,None,424.27260566897894,424.95592161676177,0.07104891639755806,None,2.200242818944389,,,,,,,,,18,001,2019_Dec_25_1512,untitled,3.1.0,60.01903887757021,
486,_5,N,225,L,N,486_5N225LN,HLN,0,112,112,285,,,0.968,426.55599394154706,426.88929766824367,426.90600148789963,427.1893072848361,427.2227710209336,None,up,427.2227710209336,None,427.2227710209336,428.1559761107819,0.07076809855789179,None,1.7501288890416618,,,,,,,,,18,001,2019_Dec_25_1512,untitled,3.1.0,60.01903887757021,
_,R,N,90,_,_,_RN090__,N,0,113,113,66,,,1.171,429.05610379775317,429.38935610239423,429.40603421102423,429.68944585724967,429.72277469393885,None,up,429.72277469393885,None,429.72277469393885,430.85622260272794,0.06874928209435893,None,2.6002022155553277,,,,,,,,,18,001,2019_Dec_25_1512,untitled,3.1.0,60.01903887757021,
204,G,M,135,R,N,204GM135RN,HRN,0,114,114,131,,,0.724,432.4061330482182,432.73943210018115,432.75610219498776,433.0394423845937,433.0728994425044,None,down,433.0728994425044,None,433.0728994425044,433.75612189564345,0.07266136507678311,None,2.9502474936743965,,,,,,,,,18,001,2019_Dec_25_1512,untitled,3.1.0,60.01903887757021,
425,_4,M,0,L,N,425_4M000LN,HLN,0,115,115,168,,,1.256,436.1062099141709,436.4395156443243,436.4561864069474,436.7395088993544,436.7729045179258,None,up,436.7729045179258,None,436.7729045179258,437.98955097194266,0.07170337889328948,None,2.616905033482908,,,,,,,,,18,001,2019_Dec_25_1512,untitled,3.1.0,60.01903887757021,
392,_4,N,315,R,N,392_4N315RN,HRN,0,116,116,263,,,1.195,439.47300909836486,439.80626040127754,439.82292882653564,440.1062703517782,440.13974544079974,None,up,440.13974544079974,None,440.13974544079974,441.30630481123444,0.07006822437688243,None,2.3501174025586806,,,,,,,,,18,001,2019_Dec_25_1512,untitled,3.1.0,60.01903887757021,
228,G,N,135,L,N,228GN135LN,HLN,0,117,117,235,,,1.368,442.57305404257204,442.90633339388296,442.9229897983969,443.20633800182986,443.23971592320595,None,up,443.23971592320595,None,443.23971592320595,444.5730326723715,0.07088897377616377,None,2.9503009191867022,,,,,,,,,18,001,2019_Dec_25_1512,untitled,3.1.0,60.01903887757021,
137,F,M,0,R,N,137FM000RN,HRN,0,118,118,112,,,1.163,446.2730474311684,446.60642194666434,446.62309838574583,446.9064255528865,446.9565460274134,None,down,446.9565460274134,None,446.9565460274134,448.0731178192764,0.07219489358976716,None,2.2001496582124673,,,,,,,,,18,001,2019_Dec_25_1512,untitled,3.1.0,60.01903887757021,
266,_2,M,45,R,N,266_2M045RN,HRN,0,119,119,145,,,1.219,449.2399002412167,449.573148205036,449.5898189676591,449.8732493128118,449.9065901702379,None,down,449.9065901702379,None,449.9065901702379,451.0898556976972,0.07116077606042381,None,3.0835217695603205,,,,,,,,,18,001,2019_Dec_25_1512,untitled,3.1.0,60.01903887757021,
391,_4,N,270,R,N,391_4N270RN,HRN,0,120,120,262,,,0.805,453.07322233293235,453.40657080349047,453.42324356957033,453.70666690262806,453.7400080939624,None,up,453.7400080939624,None,453.7400080939624,454.506597048774,0.06979308299924014,None,1.950176704875048,,,,,,,,,18,001,2019_Dec_25_1512,untitled,3.1.0,60.01903887757021,
_,_5,M,180,_,_,__5M180__,N,0,121,121,44,,,1.3960000000000001,455.7733619738574,456.106631975701,456.123302070504,456.4067304122036,456.44007193744983,None,up,456.44007193744983,None,456.44007193744983,457.8066504075032,0.07177951024641516,None,3.0168310391527484,,,,,,,,,18,001,2019_Dec_25_1512,untitled,3.1.0,60.01903887757021,
304,_2,M,315,L,N,304_2M315LN,HLN,0,122,122,159,,,1.139,459.5400504336794,459.87338688350064,459.89007801459957,460.1733898219063,460.20673335060565,None,down,460.20673335060565,None,460.20673335060565,461.306829716872,0.07121219811233459,None,2.650447906118643,,,,,,,,,18,001,2019_Dec_25_1512,untitled,3.1.0,60.01903887757021,
388,_4,N,135,R,N,388_4N135RN,HRN,0,123,123,259,,,0.9400000000000001,462.94020950813865,463.27346815705823,463.2901312397662,463.5734717632804,463.60682263799026,None,up,463.60682263799026,None,463.60682263799026,464.5069155983765,0.06948054376334767,None,2.283584277407499,,,,,,,,,18,001,2019_Dec_25_1512,untitled,3.1.0,60.01903887757021,
293,_2,N,180,L,N,293_2N180LN,HLN,0,124,124,252,,,1.19,465.97356806276366,466.30686711472663,466.3235372095296,466.60697456678463,466.6568963651953,None,up,466.6568963651953,None,466.6568963651953,467.7903022013961,0.07069998103543185,None,2.717010749212932,,,,,,,,,18,001,2019_Dec_25_1512,untitled,3.1.0,60.01903887757021,
428,_4,M,135,L,N,428_4M135LN,HLN,0,125,125,171,,,0.715,469.4570141684453,469.7902981944826,469.80702839298465,470.090375260781,470.123689739361,None,down,470.123689739361,None,470.123689739361,470.80699333249504,0.07035705604357645,None,2.966900559098576,,,,,,,,,18,001,2019_Dec_25_1512,untitled,3.1.0,60.01903887757021,
206,G,M,225,R,N,206GM225RN,HRN,0,126,126,133,,,1.266,473.17377815858345,473.50703246668127,473.5237038971245,473.807050431009,473.84049446645076,None,down,473.84049446645076,None,473.84049446645076,475.0738267090128,0.07185430596291553,None,3.367009213230631,,,,,,,,,18,001,2019_Dec_25_1512,untitled,3.1.0,60.01903887757021,
_,F,N,0,_,_,_FN000__,N,0,127,127,48,,,0.971,477.2905436179208,477.6237989277506,477.6405474912717,477.9238900182427,477.9572575884231,None,up,477.9572575884231,None,477.9572575884231,478.89049139448616,0.07014034881285625,None,1.8168012544301746,,,,,,,,,18,001,2019_Dec_25_1512,untitled,3.1.0,60.01903887757021,
034,R,N,45,L,N,034RN045LN,HLN,0,128,128,201,,,1.165,479.85723668569335,480.1905303951062,480.20718446225874,480.4906104665897,480.5239209382562,None,up,480.5239209382562,None,480.5239209382562,481.6572239303532,0.07142656797077507,None,2.266849070263561,,,,,,,,,18,001,2019_Dec_25_1512,untitled,3.1.0,60.01903887757021,
164,F,N,135,L,N,164FN135LN,HLN,0,129,129,219,,,0.917,482.8739324915259,483.2072535815132,483.22392033721917,483.50726553547065,483.55738901517907,None,up,483.55738901517907,None,483.55738901517907,484.42394578112,0.07058411445905222,None,2.3834789623724646,,,,,,,,,18,001,2019_Dec_25_1512,untitled,3.1.0,60.01903887757021,
269,_2,M,180,R,N,269_2M180RN,HRN,0,130,130,148,,,1.266,486.02396100739134,486.3573305142454,486.37399960732,486.6573347882877,486.69080453475544,None,up,486.69080453475544,None,486.69080453475544,487.9240810144438,0.07085257764629205,None,3.0834883786155842,,,,,,,,,18,001,2019_Dec_25_1512,untitled,3.1.0,60.01903887757021,
464,_5,M,315,R,N,464_5M315RN,HRN,0,131,131,183,,,1.29,489.85750014024234,490.1907511092468,490.2074141919511,490.49075705283394,490.5242161142014,None,down,490.5242161142014,None,490.5242161142014,491.77409590680327,0.07109098898581578,None,3.3001642166600504,,,,,,,,,18,001,2019_Dec_25_1512,untitled,3.1.0,60.01903887757021,
461,_5,M,180,R,N,461_5M180RN,HRN,0,132,132,180,,,0.865,493.9075034125526,494.24084386928735,494.25750728590356,494.5408524841514,494.5742497722713,None,up,494.5742497722713,None,494.5742497722713,495.407616941764,0.07362269034638302,None,2.1170399328984786,,,,,,,,,18,001,2019_Dec_25_1512,untitled,3.1.0,60.01903887757021,
_,_4,N,90,_,_,__4N090__,N,0,133,133,82,,,1.1500000000000001,496.77424950514614,497.10757961068884,497.12425604977034,497.40755817370155,497.4410449495517,None,up,497.4410449495517,None,497.4410449495517,498.55769354058793,0.06990460875385907,None,2.2336374357910245,,,,,,,,,18,001,2019_Dec_25_1512,untitled,3.1.0,60.01903887757021,
168,F,N,315,L,N,168FN315LN,HLN,0,134,134,223,,,0.727,499.75767123543847,500.0909746282232,500.10765874722347,500.3909942620994,500.4244456435481,None,up,500.4244456435481,None,500.4244456435481,501.10765874722347,0.06976536851288984,None,2.183481232954364,,,,,,,,,18,001,2019_Dec_25_1512,untitled,3.1.0,60.01903887757021,
_,_2,M,180,_,_,__2M180__,N,0,135,135,28,,,1.298,502.691126423455,503.02447556183324,503.04103980734726,503.3243809986816,503.35784740605595,None,up,503.35784740605595,None,503.35784740605595,504.6245074835788,0.06858065782944323,None,3.2668270322392345,,,,,,,,,18,001,2019_Dec_25_1512,untitled,3.1.0,60.01903887757021,
300,_2,M,135,L,N,300_2M135LN,HLN,0,136,136,155,,,0.913,506.7078853381681,507.0411353054442,507.05782109399297,507.34122706376,507.374606654681,None,down,507.374606654681,None,507.374606654681,508.25784253098027,0.07054237577904132,None,2.5668112717139593,,,,,,,,,18,001,2019_Dec_25_1512,untitled,3.1.0,60.01903887757021,
_,_4,N,180,_,_,__4N180__,N,0,137,137,84,,,1.094,510.02462982799625,510.3578831343657,510.37454788661853,510.65792847926787,510.69134480022694,None,up,510.69134480022694,None,510.69134480022694,511.7578879426619,0.06841704220641986,None,2.200195737714239,,,,,,,,,18,001,2019_Dec_25_1512,untitled,3.1.0,60.01903887757021,
483,_5,N,90,L,N,483_5N090LN,HLN,0,138,138,282,,,1.1340000000000001,512.9746953410286,513.3080050780954,513.3246117301023,513.6079719542759,513.6414166575378,None,up,513.6414166575378,None,513.6414166575378,514.7413120103192,0.07083755172425299,None,2.7502203802287113,,,,,,,,,18,001,2019_Dec_25_1512,untitled,3.1.0,60.01903887757021,
456,_5,N,315,R,N,456_5N315RN,HRN,0,139,139,279,,,1.0170000000000001,516.4747694689213,516.8080251126594,516.8246935379175,517.1081228813418,517.1414887819774,None,up,517.1414887819774,None,517.1414887819774,518.1248123428959,0.07078212275519036,None,2.4336595405948174,,,,,,,,,18,001,2019_Dec_25_1512,untitled,3.1.0,60.01903887757021,
048,R,M,315,L,N,048RM315LN,HLN,0,140,140,111,,,0.9560000000000001,519.6581525325018,519.9914328855375,520.0080973038821,520.2914425021299,520.3247933768398,None,down,520.3247933768398,None,520.3247933768398,521.2414646069337,0.07137514591886429,None,1.8837517663814651,,,,,,,,,18,001,2019_Dec_25_1512,untitled,3.1.0,60.01903887757021,
_,_2,N,225,_,_,__2N225__,N,0,141,141,77,,,0.851,522.2915279829467,522.624822360176,522.6414927888909,522.9249234679555,522.9582960467778,None,up,522.9582960467778,None,522.9582960467778,523.7748295058409,0.07081651542830514,None,2.266807665491797,,,,,,,,,18,001,2019_Dec_25_1512,untitled,3.1.0,60.01903887757021,
229,G,N,180,L,N,229GN180LN,HLN,0,142,142,236,,,0.9480000000000001,525.3083109391409,525.6415745967024,525.6582276621266,525.9415965679436,525.9750032055308,None,up,525.9750032055308,None,525.9750032055308,526.8915705897889,0.0718623197863053,None,3.0501909294180223,,,,,,,,,18,001,2019_Dec_25_1512,untitled,3.1.0,60.01903887757021,
458,_5,M,45,R,N,458_5M045RN,HRN,0,143,143,177,,,1.002,529.1084016957248,529.4416686923832,529.4583194204388,529.7417157068303,529.7750361957806,None,down,529.7750361957806,None,529.7750361957806,530.7417581133304,0.07146530146565055,None,2.700240815487632,,,,,,,,,18,001,2019_Dec_25_1512,untitled,3.1.0,60.01903887757021,
494,_5,M,225,L,N,494_5M225LN,HLN,0,144,144,189,,,0.93,532.5584077728781,532.8917305324103,532.9083949507549,533.1917378116377,533.2251931999999,None,down,533.2251931999999,None,533.2251931999999,534.1250921590035,0.07102320537160267,None,2.6002626531626447,,,,,,,,,18,001,2019_Dec_25_1512,untitled,3.1.0,60.01903887757021,
417,_4,N,0,L,N,417_4N000LN,HLN,0,145,145,264,,,0.983,535.9085585663779,536.2418051945606,536.2584722841784,536.5418248284368,536.5751923986172,None,up,536.5751923986172,None,536.5751923986172,537.5251804446598,0.07006555310363183,None,1.7837191768194316,,,,,,,,,18,001,2019_Dec_25_1512,untitled,3.1.0,60.01903887757021,
_,_5,N,225,_,_,__5N225__,N,0,146,146,93,,,1.324,538.4419478406744,538.7752809514022,538.7918615584749,539.075207090631,539.1086741658255,None,up,539.1086741658255,None,539.1086741658255,540.3918968193102,0.06962546045906493,None,2.400130358244496,,,,,,,,,18,001,2019_Dec_25_1512,untitled,3.1.0,60.01903887757021,
169,F,M,0,L,N,169FM000LN,HLN,0,147,147,120,,,1.165,541.5920204325848,541.9252517009336,541.941946838946,542.2252546393356,542.2587487611963,None,down,542.2587487611963,None,542.2587487611963,543.3919712811148,0.07075808127774508,None,3.0001502592458564,,,,,,,,,18,001,2019_Dec_25_1512,untitled,3.1.0,60.01903887757021,
397,_4,M,180,R,N,397_4M180RN,HRN,0,148,148,164,,,0.808,545.3420748598255,545.6753575502262,545.6920266433008,545.9753591529916,546.0088208856323,None,up,546.0088208856323,None,546.0088208856323,546.7754011587967,0.07188202044562786,None,1.8834702807253052,,,,,,,,,18,001,2019_Dec_25_1512,untitled,3.1.0,60.01903887757021,
_,F,M,180,_,_,_FM180__,N,0,149,149,4,,,0.994,547.9755030679589,548.3087493622334,548.325416117943,548.608787361125,548.6422170384612,None,down,548.6422170384612,None,548.6422170384612,549.608779347298,0.06936768237210345,None,3.0002487625315553,,,,,,,,,18,001,2019_Dec_25_1512,untitled,3.1.0,60.01903887757021,
455,_5,N,270,R,N,455_5N270RN,HRN,0,150,150,278,,,1.196,551.7254963897685,552.05883417523,552.0755927560349,552.3588437918224,552.3922988462764,None,up,552.3922988462764,None,552.3922988462764,553.5588802547318,0.07030129316262901,None,2.750160610441526,,,,,,,,,18,001,2019_Dec_25_1512,untitled,3.1.0,60.01903887757021,
_,F,N,135,_,_,_FN135__,N,0,151,151,51,,,0.896,555.2256075816149,555.558895948474,555.5755837404795,555.8589215927204,555.8923896696433,None,up,555.8923896696433,None,555.8923896696433,556.7589430964872,0.06887917286439915,None,2.4169049667034415,,,,,,,,,18,001,2019_Dec_25_1512,untitled,3.1.0,60.01903887757021,
_,R,M,225,_,_,_RM225__,N,0,152,152,21,,,1.357,558.3923192147522,558.7256553306615,558.742342454847,559.0256636116173,559.0591286833551,None,up,559.0591286833551,None,559.0591286833551,560.3757479571395,0.07022015317124897,None,3.3835053412149136,,,,,,,,,18,001,2019_Dec_25_1512,untitled,3.1.0,60.01903887757021,
270,_2,M,225,R,N,270_2M225RN,HRN,0,153,153,149,,,1.161,562.5257470889774,562.8590862100718,562.8757536336016,563.1591799718444,563.1925011286112,None,down,563.1925011286112,None,563.1925011286112,564.3257834183241,0.07170605017381604,None,2.5002090273083013,,,,,,,,,18,001,2019_Dec_25_1512,untitled,3.1.0,60.01903887757021,
_,_2,N,90,_,_,__2N090__,N,0,154,154,74,,,1.147,565.7759120402407,566.1091586684233,566.1258264258577,566.4091672832838,566.4425458724763,None,up,566.4425458724763,None,566.4425458724763,567.5592061503448,0.07000812067781226,None,2.3169054341778974,,,,,,,,,18,001,2019_Dec_25_1512,untitled,3.1.0,60.01903887757021,
_,_2,N,270,_,_,__2N270__,N,0,155,155,78,,,0.778,568.8425703814319,569.1759004869709,569.1926023031738,569.4759007540997,569.5259794899466,None,up,569.5259794899466,None,569.5259794899466,570.2592543000865,0.07086459838683368,None,1.933522303817881,,,,,,,,,18,001,2019_Dec_25_1512,untitled,3.1.0,60.01903887757021,
426,_4,M,45,L,N,426_4M045LN,HLN,0,156,156,169,,,1.115,571.5427063493553,571.8760407957197,571.8926327557128,572.175971943594,572.2094380170565,None,down,572.2094380170565,None,572.2094380170565,573.2926602698499,0.07033301456249319,None,2.250128555137053,,,,,,,,,18,001,2019_Dec_25_1512,untitled,3.1.0,60.01903887757021,
235,G,M,90,L,N,235GM090LN,HLN,0,157,157,138,,,0.9520000000000001,574.5426709549538,574.8760635015606,574.8926978680538,575.1760323812014,575.2094346779631,None,down,575.2094346779631,None,575.2094346779631,576.1261436398272,0.07075607781735016,None,2.766894148036954,,,,,,,,,18,001,2019_Dec_25_1512,untitled,3.1.0,60.01903887757021,
234,G,M,45,L,N,234GM045LN,HLN,0,158,158,137,,,0.897,578.0594672675252,578.3927719959502,578.4095295750267,578.6927585727899,578.7429090991645,None,down,578.7429090991645,None,578.7429090991645,579.5928458567178,0.07039245044143172,None,3.28361299361859,,,,,,,,,18,001,2019_Dec_25_1512,untitled,3.1.0,60.01903887757021,
172,F,M,135,L,N,172FM135LN,HLN,0,159,159,123,,,1.317,582.1096194634483,582.4428847905583,582.4595101414961,582.742889064597,582.7762696572463,None,None,582.7762696572463,None,582.7762696572463,584.0595731168178,0.07045656105037779,None,,,,,,,,,,18,001,2019_Dec_25_1512,untitled,3.1.0,60.01903887757021,
200,G,N,315,R,N,200GN315RN,HRN,0,160,160,231,,,1.326,586.3096619367279,586.6429599869625,586.6596320852223,586.9429699374632,586.976427663194,586.3096619367279,up,586.976427663194,None,586.976427663194,588.2596693495179,0.07181089773439453,None,2.233481500079506,,,,,,,,,18,001,2019_Dec_25_1512,untitled,3.1.0,60.01903887757021,
_,_4,M,180,_,_,__4M180__,N,0,161,161,36,,,0.889,589.2930632985444,589.6263630183275,589.6430367861358,589.9263706314632,589.9598410457511,None,down,589.9598410457511,None,589.9598410457511,590.8097046771363,0.06886615039911703,None,2.0334610648242233,,,,,,,,,18,001,2019_Dec_25_1512,untitled,3.1.0,60.01903887757021,
_,_2,N,135,_,_,__2N135__,N,0,162,162,75,,,0.85,592.0765133443565,592.4097663168177,592.4264297334339,592.709796301886,592.743175558895,None,up,592.743175558895,None,592.743175558895,593.5597878205845,0.07012131597366533,None,2.050276744143048,,,,,,,,,18,001,2019_Dec_25_1512,untitled,3.1.0,60.01903887757021,
_,G,M,225,_,_,_GM225__,N,0,163,163,13,,,1.349,594.8765109402084,595.2098280232822,595.2264957807201,595.5098730342725,595.5433013759721,None,down,595.5433013759721,None,595.5433013759721,596.8598752380749,0.068894532701961,None,3.1834929197830206,,,,,,,,,18,001,2019_Dec_25_1512,untitled,3.1.0,60.01903887757021,
039,R,N,270,L,N,039RN270LN,HLN,0,164,164,206,,,0.78,598.8099728064153,599.1432548289959,599.1599035535983,599.4432941635278,599.476716828769,None,up,599.476716828769,None,599.476716828769,600.2266994654783,0.07016839720745338,None,2.3502362743165577,,,,,,,,,18,001,2019_Dec_25_1512,untitled,3.1.0,60.01903887757021,
_,F,M,0,_,_,_FM000__,N,0,165,165,0,,,1.365,601.9100384530102,602.2433174704092,602.2599892347571,602.5434118999983,602.5767841449087,None,down,602.5767841449087,None,602.5767841449087,603.9100281018182,0.07099682652551564,None,2.483670826732123,,,,,,,,,18,001,2019_Dec_25_1512,untitled,3.1.0,60.01903887757021,
_,_5,N,90,_,_,__5N090__,N,0,166,166,90,,,0.853,605.1434792161417,605.4767261782326,605.4933999460409,605.7767528242039,605.8101624669762,None,up,605.8101624669762,None,605.8101624669762,606.6267566975548,0.06945750401428086,None,2.033552556007635,,,,,,,,,18,001,2019_Dec_25_1512,untitled,3.1.0,60.01903887757021,
175,F,M,270,L,N,175FM270LN,HLN,0,167,167,126,,,0.755,607.9268808450834,608.2601308123594,608.2768373032923,608.5601374237667,608.593539052712,None,down,608.593539052712,None,608.593539052712,609.3101574583343,0.07188602735914174,None,2.3337064214792917,,,,,,,,,18,001,2019_Dec_25_1512,untitled,3.1.0,60.01903887757021,
_,F,N,315,_,_,_FN315__,N,0,168,168,55,,,1.342,611.0101969264288,611.3435350457985,611.3602001319596,611.6435660325951,611.6768825146319,None,up,611.6768825146319,None,611.6768825146319,612.9769178422503,0.06954231701092795,None,2.6667880983986834,,,,,,,,,18,001,2019_Dec_25_1512,untitled,3.1.0,60.01903887757021,
432,_4,M,315,L,N,432_4M315LN,HLN,0,169,169,175,,,0.8,614.4270224226857,614.7602954297145,614.7769488290469,615.0602623058985,615.0937474122002,None,up,615.0937474122002,None,615.0937474122002,615.8603079847089,0.07079781650099903,None,2.00031888351441,,,,,,,,,18,001,2019_Dec_25_1512,untitled,3.1.0,60.01903887757021,
_,_4,M,90,_,_,__4M090__,N,0,170,170,34,,,0.98,617.177082860293,617.5104313308548,617.5270072631974,617.810352127537,617.8604769428857,None,down,617.8604769428857,None,617.8604769428857,618.7937080776683,0.07047626170970034,None,1.9501459852072003,,,,,,,,,18,001,2019_Dec_25_1512,untitled,3.1.0,60.01903887757021,
_,R,N,180,_,_,_RN180__,N,0,171,171,68,,,1.149,619.8938251463187,620.2270691032245,620.2437462101261,620.5271114429415,620.560531102994,None,up,620.560531102994,None,620.560531102994,621.6771319449799,0.06998908783862134,None,2.416833843992208,,,,,,,,,18,001,2019_Dec_25_1512,untitled,3.1.0,60.01903887757021,
_,_5,M,45,_,_,__5M045__,N,0,172,172,41,,,1.075,623.0605010511463,623.3938288193203,623.4104815508363,623.6938170657086,623.7271999957266,None,down,623.7271999957266,None,623.7271999957266,624.7605067943878,0.07252145701932022,None,3.366918389860075,,,,,,,,,18,001,2019_Dec_25_1512,untitled,3.1.0,60.01903887757021,
299,_2,M,90,L,N,299_2M090LN,HLN,0,173,173,154,,,1.198,627.1772154223399,627.5105916073844,627.5272273095179,627.810669341503,627.843986157448,None,down,627.843986157448,None,627.843986157448,629.0106897767619,0.07016238683718257,None,2.8669778257426515,,,,,,,,,18,001,2019_Dec_25_1512,untitled,3.1.0,60.01903887757021,
233,G,M,0,L,N,233GM000LN,HLN,0,174,174,136,,,1.227,630.7940777154181,631.1273206705955,631.1439907653985,631.4273319567365,631.460777995635,None,up,631.460777995635,None,631.460777995635,632.6440562116477,0.07080616423627362,None,2.933692263719422,,,,,,,,,18,001,2019_Dec_25_1512,untitled,3.1.0,60.01903887757021,
292,_2,N,135,L,N,292_2N135LN,HLN,0,175,175,251,,,0.982,634.4774931682114,634.8108312875811,634.8274085555604,635.1108375650765,635.1607576939386,None,up,635.1607576939386,None,635.1607576939386,636.0941016901161,0.07095608957388322,None,2.183590421336703,,,,,,,,,18,001,2019_Dec_25_1512,untitled,3.1.0,60.01903887757021,
205,G,M,180,R,N,205GM180RN,HRN,0,176,176,132,,,1.097,637.4275620203371,637.7608056433346,637.7774944370685,638.0607965609997,638.0942836707582,None,up,638.0942836707582,None,638.0942836707582,639.160855195496,0.07067593955434859,None,2.400520030558255,,,,,,,,,18,001,2019_Dec_25_1512,untitled,3.1.0,60.01903887757021,
463,_5,M,270,R,N,463_5M270RN,HRN,0,177,177,182,,,1.131,640.5776332766109,640.9108595363177,640.9275499995965,641.2108798380141,641.2442734531287,None,down,641.2442734531287,None,641.2442734531287,642.3442509476336,0.07026155794301303,None,2.6669610634889978,,,,,,,,,18,001,2019_Dec_25_1512,untitled,3.1.0,60.01903887757021,
198,G,N,225,R,N,198GN225RN,HRN,0,178,178,229,,,1.243,643.9943218699991,644.3276262645122,644.3442943558621,644.6276328759195,644.6610979476573,None,up,644.6610979476573,None,644.6610979476573,645.8609918312395,0.07053803495728062,None,2.316808266528824,,,,,,,,,18,001,2019_Dec_25_1512,untitled,3.1.0,60.01903887757021,
201,G,M,0,R,N,201GM000RN,HRN,0,179,179,128,,,0.9530000000000001,647.0611174479709,647.3943620726968,647.4110338370447,647.6943706875572,647.7444644493298,None,down,647.7444644493298,None,647.7444644493298,648.6444809444547,0.07034336575452471,None,2.366863294806535,,,,,,,,,18,001,2019_Dec_25_1512,untitled,3.1.0,60.01903887757021,
485,_5,N,180,L,N,485_5N180LN,HLN,0,180,180,284,,,1.135,650.1944474867305,650.5278530558062,650.5444737320104,650.8278593333016,650.8612616300634,None,up,650.8612616300634,None,650.8612616300634,651.9611486351096,0.0732046357334184,None,2.7501442488755856,,,,,,,,,18,001,2019_Dec_25_1512,untitled,3.1.0,60.01903887757021,
_,_4,M,135,_,_,__4M135__,N,0,181,181,35,,,1.074,653.6945262893569,654.0278513862577,654.0444971056713,654.3278596672099,654.3613240711311,None,down,654.3613240711311,None,654.3613240711311,655.3945877954757,0.07037909406062681,None,2.833494722894102,,,,,,,,,18,001,2019_Dec_25_1512,untitled,3.1.0,60.01903887757021,
_,F,M,225,_,_,_FM225__,N,0,182,182,5,,,0.877,657.2779388705312,657.6112813307227,657.6279330605066,657.9112702449274,657.9446611887688,None,down,657.9446611887688,None,657.9446611887688,658.7946273303533,0.0699223059527867,None,2.4668851992646523,,,,,,,,,18,001,2019_Dec_25_1512,untitled,3.1.0,60.01903887757021,
_,R,N,135,_,_,_RN135__,N,0,183,183,67,,,1.039,660.4946991876641,660.8280793796221,660.8446730091637,661.1280165378666,661.1613674125765,None,up,661.1613674125765,None,661.1613674125765,662.1613684143049,0.06999476429700735,None,2.366924066322099,,,,,,,,,18,001,2019_Dec_25_1512,untitled,3.1.0,60.01903887757021,
171,F,M,90,L,N,171FM090LN,HLN,0,184,184,122,,,1.164,663.6114072145792,663.9447446661288,663.9614120896586,664.2447649678252,664.3114850822603,None,down,664.3114850822603,None,664.3114850822603,665.4115330316563,0.07236051266954746,None,2.066870039776404,,,,,,,,,18,001,2019_Dec_25_1512,untitled,3.1.0,60.01903887757021,
453,_5,N,180,R,N,453_5N180RN,HRN,0,185,185,276,,,1.293,666.4614705238091,666.7948106466356,666.8114774023452,667.0948182597713,667.1448322171855,None,up,667.1448322171855,None,667.1448322171855,668.378210205341,0.07129801283736015,None,2.500287162114546,,,,,,,,,18,001,2019_Dec_25_1512,untitled,3.1.0,60.01903887757021,
_,G,M,270,_,_,_GM270__,N,0,186,186,14,,,0.796,669.7282541478235,670.061549860693,670.0781999209285,670.3615581416452,670.3950235472912,None,down,670.3950235472912,None,670.3950235472912,671.161571097331,0.07063353305784403,None,2.633565444917622,,,,,,,,,18,001,2019_Dec_25_1512,untitled,3.1.0,60.01903887757021,
490,_5,M,45,L,N,490_5M045LN,HLN,0,187,187,185,,,0.792,673.1116285965363,673.444964378541,673.4616261256087,673.7449673169431,673.7950968070218,None,down,673.7950968070218,None,673.7950968070218,674.5284220374888,0.07202293022783124,None,3.366855614884116,,,,,,,,,18,001,2019_Dec_25_1512,untitled,3.1.0,60.01903887757021,
_,R,M,90,_,_,_RM090__,N,0,188,188,18,,,1.373,677.2451446228552,677.5784874169549,677.5950633492976,677.8784883519038,677.9117908097433,None,down,677.9117908097433,None,677.9117908097433,679.2451850258985,0.06999643384551746,None,3.2836924640614598,,,,,,,,,18,001,2019_Dec_25_1512,untitled,3.1.0,60.01903887757021,
482,_5,N,45,L,N,482_5N045LN,HLN,0,189,189,281,,,1.307,681.2785692915495,681.6118359542997,681.628577171814,681.9118502456222,681.945252542384,None,up,681.945252542384,None,681.945252542384,683.2118341511887,0.07127463917640853,None,2.5168343782497686,,,,,,,,,18,001,2019_Dec_25_1512,untitled,3.1.0,60.01903887757021,
423,_4,N,270,L,N,423_4N270LN,HLN,0,190,190,270,,,1.281,684.5451919712141,684.8785621458883,684.8952309050546,685.1785634147454,685.2120111231889,None,up,685.2120111231889,None,685.2120111231889,686.4619463447598,0.07226701802937896,None,2.1669987952554948,,,,,,,,,18,001,2019_Dec_25_1512,untitled,3.1.0,60.01903887757021,
290,_2,N,45,L,N,290_2N045LN,HLN,0,191,191,249,,,1.242,687.462011791009,687.7952894727678,687.8119612371192,688.0953037640938,688.1287604880927,None,up,688.1287604880927,None,688.1287604880927,689.3287512054121,0.07127330353978323,None,2.683505274431809,,,,,,,,,18,001,2019_Dec_25_1512,untitled,3.1.0,60.01903887757021,
267,_2,M,90,R,N,267_2M090RN,HRN,0,192,192,146,,,1.287,690.8953985275912,691.2287914081098,691.2454598333643,691.5288040298838,691.5621996484588,None,down,691.5621996484588,None,691.5621996484588,692.8121121641852,0.07172474910112214,None,2.8501304250276007,,,,,,,,,18,001,2019_Dec_25_1512,untitled,3.1.0,60.01903887757021,
004,R,N,135,R,N,004RN135RN,HRN,0,193,193,195,,,0.841,694.4954264424196,694.8287879354502,694.8454523537948,695.1288853702245,695.1622569473184,None,up,695.1622569473184,None,695.1622569473184,695.9621530347031,0.0714082029517158,None,2.2835078121461265,,,,,,,,,18,001,2019_Dec_25_1512,untitled,3.1.0,60.01903887757021,
303,_2,M,270,L,N,303_2M270LN,HLN,0,194,194,158,,,0.908,697.5289399310277,697.8621972443107,697.8789511503855,698.1622192155519,698.1956004760214,None,down,698.1956004760214,None,698.1956004760214,699.0622183473861,0.07110167408609414,None,1.916862560206937,,,,,,,,,18,001,2019_Dec_25_1512,untitled,3.1.0,60.01903887757021,
138,F,M,45,R,N,138FM045RN,HRN,0,195,195,113,,,1.349,700.1956362043311,700.5289198964601,700.54559266254,700.8289358573311,700.8622703704787,None,down,700.8622703704787,None,700.8622703704787,702.1790479173396,0.07387078506144462,None,2.9337914348216145,,,,,,,,,18,001,2019_Dec_25_1512,untitled,3.1.0,60.01903887757021,
430,_4,M,225,L,N,430_4M225LN,HLN,0,196,196,173,,,0.933,703.8790807072473,704.212345032629,704.2290294855375,704.512437124853,704.545753940798,None,up,704.545753940798,None,704.545753940798,705.4457033201288,0.07152440343634225,None,2.4668695055188437,,,,,,,,,18,001,2019_Dec_25_1512,untitled,3.1.0,60.01903887757021,
385,_4,N,0,R,N,385_4N000RN,HRN,0,197,197,256,,,0.882,707.0957461940998,707.4291711299229,707.4457443909887,707.729085582323,707.7624641715156,None,up,707.7624641715156,None,707.7624641715156,708.6124430016571,0.07030262879925431,None,1.4502848915326467,,,,,,,,,18,001,2019_Dec_25_1512,untitled,3.1.0,60.01903887757021,
_,_4,N,135,_,_,__4N135__,N,0,198,198,83,,,0.896,709.2958300721511,709.6291528316833,709.6457982171887,709.9292222180666,709.9626054819892,None,up,709.9626054819892,None,709.9626054819892,710.8291331978107,0.07153508854025858,None,2.8834909831130062,,,,,,,,,18,001,2019_Dec_25_1512,untitled,3.1.0,60.01903887757021,
008,R,N,315,R,N,008RN315RN,HRN,0,199,199,199,,,1.243,712.9292562768278,713.2625446436905,713.2792124011285,713.5626374037347,713.5959659065084,None,up,713.5959659065084,None,713.5959659065084,714.7959178903329,0.07151839306607144,None,2.266927872889937,,,,,,,,,18,001,2019_Dec_25_1512,untitled,3.1.0,60.01903887757021,
395,_4,M,90,R,N,395_4M090RN,HRN,0,200,200,162,,,0.715,715.9460365617451,716.2792902020265,716.2959482760925,716.5793766177885,716.6127041188374,None,up,716.6127041188374,None,716.6127041188374,717.296053457565,0.0705276837652491,None,2.583615598112374,,,,,,,,,18,001,2019_Dec_25_1512,untitled,3.1.0,60.01903887757021,
140,F,M,135,R,N,140FM135RN,HRN,0,201,201,115,,,1.17,719.2793746811149,719.6126991101955,719.6293641963603,719.9127364412707,719.9461611099687,None,down,719.9461611099687,None,719.9461611099687,721.079393647171,0.07763628179964144,None,2.9334989301532914,,,,,,,,,18,001,2019_Dec_25_1512,untitled,3.1.0,60.01903887757021,
265,_2,M,0,R,N,265_2M000RN,HRN,0,202,202,144,,,0.809,722.9628074972024,723.2961158986291,723.312783656067,723.5960994702837,723.6628262629129,None,down,723.6628262629129,None,723.6628262629129,724.3961391387274,0.06983515559113584,None,2.75028148565616,,,,,,,,,18,001,2019_Dec_25_1512,untitled,3.1.0,60.01903887757021,
386,_4,N,45,R,N,386_4N045RN,HRN,0,203,203,257,,,1.2610000000000001,726.4961951019468,726.8295295483113,726.8461986413895,727.1295354919021,727.1629090724527,None,up,727.1629090724527,None,727.1629090724527,728.3962483271134,0.07134542797575705,None,2.2504280718967493,,,,,,,,,18,001,2019_Dec_25_1512,untitled,3.1.0,60.01903887757021,
_,G,M,135,_,_,_GM135__,N,0,204,204,11,,,0.807,729.4962418492687,729.8295953284724,729.846259412905,730.1296122910717,730.1629925498128,None,down,730.1629925498128,None,730.1629925498128,730.9296192363872,0.06915765333542367,None,3.4004201916359307,,,,,,,,,18,001,2019_Dec_25_1512,untitled,3.1.0,60.01903887757021,
041,R,M,0,L,N,041RM000LN,HLN,0,205,205,104,,,1.064,733.6464419945878,733.9796912940437,733.9963583836652,734.2797907322747,734.3130845084706,None,down,734.3130845084706,None,734.3130845084706,735.346391974952,0.07101118463106104,None,2.400198475770594,,,,,,,,,18,001,2019_Dec_25_1512,untitled,3.1.0,60.01903887757021,
_,R,N,225,_,_,_RN225__,N,0,206,206,69,,,0.845,736.7964301074098,737.129766557231,737.146449674503,737.4298639920053,737.4631791384054,None,up,737.4631791384054,None,737.4631791384054,738.2797747046243,0.07130836403302965,None,2.0169462379089964,,,,,,,,,18,001,2019_Dec_25_1512,untitled,3.1.0,60.01903887757021,
_,_5,N,315,_,_,__5N315__,N,0,207,207,95,,,0.9420000000000001,739.5632521310108,739.8965004287384,739.913164847083,740.1965063723255,740.2299627624197,None,up,740.2299627624197,None,740.2299627624197,741.1299532126068,0.069393059489812,None,2.5168360477946408,,,,,,,,,18,001,2019_Dec_25_1512,untitled,3.1.0,60.01903887757021,
488,_5,N,315,L,N,488_5N315LN,HLN,0,208,208,287,,,0.718,742.8299920128848,743.1632346341539,743.1799007220434,743.46324892548,743.4967133293976,None,up,743.4967133293976,None,743.4967133293976,744.1799234278878,0.07007256519864313,None,2.6001721637039736,,,,,,,,,18,001,2019_Dec_25_1512,untitled,3.1.0,60.01903887757021,
225,G,N,0,L,N,225GN000LN,HLN,0,209,209,232,,,1.344,746.1800646715783,746.513342687249,746.5300154533288,746.8134100701718,746.8467756368991,None,up,746.8467756368991,None,746.8467756368991,748.1633658605642,0.07291146324132569,None,2.4501302914650296,,,,,,,,,18,001,2019_Dec_25_1512,untitled,3.1.0,60.01903887757021,
_,G,N,45,_,_,_GN045__,N,0,210,210,57,,,0.73,749.3800340186936,749.7133854944404,749.7300756238074,750.0134845987595,750.0467980756112,None,up,750.0467980756112,None,750.0467980756112,750.7468385454376,0.06923512032881263,None,1.6002182432093832,,,,,,,,,18,001,2019_Dec_25_1512,untitled,3.1.0,60.01903887757021,
047,R,M,270,L,N,047RM270LN,HLN,0,211,211,110,,,1.085,751.7301751288214,752.0634447967532,752.0801195662898,752.363538892434,752.4135802304227,None,down,752.4135802304227,None,752.4135802304227,753.4468970463713,0.07335790016441024,None,2.0169011601356033,,,,,,,,,18,001,2019_Dec_25_1512,untitled,3.1.0,60.01903887757021,
144,F,M,315,R,N,144FM315RN,HRN,0,212,212,119,,,1.094,754.5134956177717,754.8468444222417,754.8635148509566,755.1468466928272,755.1802299567498,None,down,755.1802299567498,None,755.1802299567498,756.2468535713597,0.07050998656632146,None,2.233554960159381,,,,,,,,,18,001,2019_Dec_25_1512,untitled,3.1.0,60.01903887757021,
035,R,N,90,L,N,035RN090LN,HLN,0,213,213,202,,,0.835,757.4969640953859,757.8303135676761,757.8469118719477,758.1302604092925,758.1636523548623,None,up,758.1636523548623,None,758.1636523548623,758.963607544214,0.07133006814547116,None,2.1835386653765454,,,,,,,,,18,001,2019_Dec_25_1512,untitled,3.1.0,60.01903887757021,
457,_5,M,0,R,N,457_5M000RN,HRN,0,214,214,176,,,0.8280000000000001,760.4304075965738,760.7636422040159,760.7803173074608,761.0636571631585,761.0971158906141,None,down,761.0971158906141,None,761.0971158906141,761.8970036302635,0.07139150748116663,None,1.783467075194494,,,,,,,,,18,001,2019_Dec_25_1512,untitled,3.1.0,60.01903887757021,
_,_2,M,135,_,_,__2M135__,N,0,215,215,27,,,1.395,762.9636773312886,763.297037488679,763.3137242789562,763.5971349234533,763.6304240249156,None,down,763.6304240249156,None,763.6304240249156,764.9970799619587,0.06962546045906493,None,3.3002543722104747,,,,,,,,,18,001,2019_Dec_25_1512,untitled,3.1.0,60.01903887757021,
_,_5,M,90,_,_,__5M090__,N,0,216,216,42,,,1.059,767.013811496101,767.3471305826315,767.3638036826196,767.647228351314,767.6805491741725,None,None,767.6805491741725,None,767.6805491741725,768.6971411341692,0.07062952614433016,None,,,,,,,,,,18,001,2019_Dec_25_1512,untitled,3.1.0,60.01903887757021,
_,G,M,45,_,_,_GM045__,N,0,217,217,9,,,1.183,771.2139601525814,771.5472241440548,771.5638975779548,771.8473165701871,771.8806954932916,771.2139601525814,down,771.8806954932916,None,771.8806954932916,773.0305941183833,0.06965784967906075,None,2.066777880769223,,,,,,,,,18,001,2019_Dec_25_1512,untitled,3.1.0,60.01903887757021,
491,_5,M,90,L,N,491_5M090LN,HLN,0,218,218,186,,,1.177,774.0306749244701,774.3639616217843,774.3806300470387,774.6639632245497,774.6973611804897,None,down,774.6973611804897,None,774.6973611804897,775.8306645064949,0.07156480647972785,None,2.3668819937338412,,,,,,,,,18,001,2019_Dec_25_1512,untitled,3.1.0,60.01903887757021,
431,_4,M,270,L,N,431_4M270LN,HLN,0,219,219,174,,,1.012,777.147359243816,777.4807868509124,777.4973661223485,777.7807917927712,777.8140495067491,None,up,777.8140495067491,None,777.8140495067491,778.7973931022316,0.07126395407613018,None,2.0002654580057424,,,,,,,,,18,001,2019_Dec_25_1512,untitled,3.1.0,60.01903887757021,
390,_4,N,225,R,N,390_4N225RN,HRN,0,220,220,261,,,0.923,779.8974400498992,780.2308479563399,780.2474268938677,780.5308629154824,780.5641129495416,None,up,780.5641129495416,None,780.5641129495416,781.4474433222094,0.07045155241212342,None,2.0169272050734435,,,,,,,,,18,001,2019_Dec_25_1512,untitled,3.1.0,60.01903887757021,
239,G,M,270,L,N,239GM270LN,HLN,0,221,221,142,,,0.711,782.6642447102058,782.9975200545996,783.0141480768143,783.2974992854324,783.3309099299331,None,down,783.3309099299331,None,783.3309099299331,784.0141848068524,0.07042483965778956,None,2.217023771678214,,,,,,,,,18,001,2019_Dec_25_1512,untitled,3.1.0,60.01903887757021,
170,F,M,45,L,N,170FM045LN,HLN,0,222,222,121,,,1.028,785.6309255568922,785.9642316209574,785.9808913645684,786.2643293896399,786.2976745878877,None,down,786.2976745878877,None,786.2976745878877,787.2976538855037,0.07116812206368195,None,2.3835013343013998,,,,,,,,,18,001,2019_Dec_25_1512,untitled,3.1.0,60.01903887757021,
013,R,M,180,R,N,013RM180RN,HRN,0,223,223,100,,,1.19,788.7643016751572,789.0976531509004,789.1143926988698,789.3976460720223,789.4310373497719,None,up,789.4310373497719,None,789.4310373497719,790.5810838967482,0.07089899105994846,None,2.383571121376008,,,,,,,,,18,001,2019_Dec_25_1512,untitled,3.1.0,60.01903887757021,
454,_5,N,225,R,N,454_5N225RN,HRN,0,224,224,277,,,0.993,791.8977055079013,792.2310376169007,792.2477093812522,792.5311357194951,792.5645116374108,None,up,792.5645116374108,None,792.5645116374108,793.5144355728407,0.07426145910358173,None,2.8336653506194125,,,,,,,,,18,001,2019_Dec_25_1512,untitled,3.1.0,60.01903887757021,
007,R,N,270,R,N,007RN270RN,HRN,0,225,225,198,,,0.8220000000000001,795.4811491426517,795.8144572101737,795.8311212946064,796.1144958768855,796.1478050129153,None,up,796.1478050129153,None,796.1478050129153,796.9311585588985,0.07100049953078269,None,1.9169937866136024,,,,,,,,,18,001,2019_Dec_25_1512,untitled,3.1.0,60.01903887757021,
_,_5,M,0,_,_,__5M000__,N,0,226,226,40,,,1.348,798.147939578419,798.4812142549927,798.4978539640397,798.7812302158636,798.8145416892585,None,down,798.8145416892585,None,798.8145416892585,800.1312217345658,0.06924213242746191,None,2.883602842772234,,,,,,,,,18,001,2019_Dec_25_1512,untitled,3.1.0,60.01903887757021,
_,R,M,0,_,_,_RM000__,N,0,227,227,16,,,1.115,801.7813500893535,802.1146751862543,802.1312658106108,802.414690813217,802.4480610546707,None,down,802.4480610546707,None,802.4480610546707,803.5312772970938,0.06926383653990342,None,2.43348857896126,,,,,,,,,18,001,2019_Dec_25_1512,untitled,3.1.0,60.01903887757021,
208,G,M,315,R,N,208GM315RN,HRN,0,228,228,135,,,0.751,804.9647491805845,805.298099654603,805.314676588674,805.5980204512853,805.6314785109244,None,None,805.6314785109244,None,805.6314785109244,806.3480384823924,0.0708288700770936,None,,,,,,,,,,18,001,2019_Dec_25_1512,untitled,3.1.0,60.01903887757021,
393,_4,M,0,R,N,393_4M000RN,HRN,0,229,229,160,,,1.235,809.1647949929611,809.4981918803896,809.5147744909191,809.7982018308903,809.8315744097126,809.1647949929611,down,809.8315744097126,None,809.8315744097126,811.0315647931238,0.0710495842176897,None,2.266854746721947,,,,,,,,,18,001,2019_Dec_25_1512,untitled,3.1.0,60.01903887757021,
006,R,N,225,R,N,006RN225RN,HRN,0,230,230,197,,,1.332,812.1815963141744,812.514868653383,812.5315066928815,812.8148725935134,812.8483182985037,None,up,812.8483182985037,None,812.8483182985037,814.1482217318953,0.07006254791849642,None,2.183635833021981,,,,,,,,,18,001,2019_Dec_25_1512,untitled,3.1.0,60.01903887757021,
_,F,M,90,_,_,_FM090__,N,0,231,231,2,,,1.02,815.1149930680403,815.4482674107057,815.4649628826264,815.7482439702617,815.7815965145201,None,down,815.7815965145201,None,815.7815965145201,816.7649367709091,0.06895430248914636,None,2.0502286611845193,,,,,,,,,18,001,2019_Dec_25_1512,untitled,3.1.0,60.01903887757021,
291,_2,N,90,L,N,291_2N090LN,HLN,0,232,232,250,,,0.932,817.9150250565617,818.2483067452376,818.2649771739489,818.5483961661848,818.5816979562078,None,up,818.5816979562078,None,818.5816979562078,819.4817057696855,0.07121720675422694,None,2.267092490241339,,,,,,,,,18,001,2019_Dec_25_1512,untitled,3.1.0,60.01903887757021,
_,R,M,315,_,_,_RM315__,N,0,233,233,23,,,1.048,820.9317305457662,821.265045291475,821.2817167219182,821.5651433940693,821.5984852532238,None,down,821.5984852532238,None,821.5984852532238,822.615161358397,0.0717788424299215,None,1.8001715626705845,,,,,,,,,18,001,2019_Dec_25_1512,untitled,3.1.0,60.01903887757021,
136,F,N,315,R,N,136FN315RN,HRN,0,234,234,215,,,0.71,823.4818587002082,823.8151049944827,823.8317684110989,824.1151109380698,824.148459809323,None,up,824.148459809323,None,824.148459809323,824.8151297037803,0.07160120260959957,None,2.1669216621776286,,,,,,,,,18,001,2019_Dec_25_1512,untitled,3.1.0,60.01903887757021,
_,_2,M,45,_,_,__2M045__,N,0,235,235,25,,,0.9,826.3985265912124,826.7319294890112,826.7485120995407,827.0319391056037,827.0651894735711,None,down,827.0651894735711,None,827.0651894735711,827.9318677825468,0.07064355033799075,None,2.3837581106599828,,,,,,,,,18,001,2019_Dec_25_1512,untitled,3.1.0,60.01903887757021,
_,F,N,270,_,_,_FN270__,N,0,236,236,54,,,1.219,829.5319414429687,829.8652408288435,829.8819132610115,830.1652474402508,830.1986874687791,None,up,830.1986874687791,None,830.1986874687791,831.3819610100618,0.06984216768614715,None,2.4668354467576137,,,,,,,,,18,001,2019_Dec_25_1512,untitled,3.1.0,60.01903887757021,
421,_4,N,180,L,N,421_4N180LN,HLN,0,237,237,268,,,1.104,832.7487408275083,833.0819851183223,833.0986545453088,833.3820788800949,833.4153422705313,None,up,833.4153422705313,None,833.4153422705313,834.4820199784699,0.07173510029315366,None,2.0170196979852335,,,,,,,,,18,001,2019_Dec_25_1512,untitled,3.1.0,60.01903887757021,
237,G,M,180,L,N,237GM180LN,HLN,0,238,238,140,,,0.9570000000000001,835.5154656834566,835.8487219950148,835.8654054461949,836.1488077429567,836.1821068617028,None,None,836.1821068617028,None,836.1821068617028,837.0987453686757,0.07157482375987456,None,,,,,,,,,,18,001,2019_Dec_25_1512,untitled,3.1.0,60.01903887757021,
009,R,M,0,R,N,009RM000RN,HRN,0,239,239,96,,,0.987,839.7155385424994,840.0488165581664,840.0654866529694,840.3488184948437,840.3822371531678,839.7155385424994,down,840.3822371531678,None,840.3822371531678,841.3321574155925,0.07170204325666418,None,2.7669592603742785,,,,,,,,,18,001,2019_Dec_25_1512,untitled,3.1.0,60.01903887757021,
176,F,M,315,L,N,176FM315LN,HLN,0,240,240,127,,,0.93,843.232293450299,843.5655581095925,843.5822549171498,843.8656702363805,843.8989105870642,None,down,843.8989105870642,None,843.8989105870642,844.7989254126442,0.07086359665845521,None,2.400270266298321,,,,,,,,,18,001,2019_Dec_25_1512,untitled,3.1.0,60.01903887757021,
289,_2,N,0,L,N,289_2N000LN,HLN,0,241,241,248,,,1.101,846.382296922955,846.7156343745082,846.7323007963059,847.0157257989122,847.0489845146149,None,up,847.0489845146149,None,847.0489845146149,848.1156628903736,0.07156781166486326,None,2.1002573106125055,,,,,,,,,18,001,2019_Dec_25_1512,untitled,3.1.0,60.01903887757021,
481,_5,N,0,L,N,481_5N000LN,HLN,0,242,242,280,,,1.338,849.2323378602523,849.565701690648,849.582367110721,849.8657249975295,849.8991693668795,None,up,849.8991693668795,None,849.8991693668795,851.1991576132677,0.07188502563076327,None,2.433650858947658,,,,,,,,,18,001,2019_Dec_25_1512,untitled,3.1.0,60.01903887757021,
202,G,M,45,R,N,202GM045RN,HRN,0,243,243,129,,,1.352,852.4157953856375,852.7491081278895,852.7657758853275,853.0492012218419,853.0825808127629,None,down,853.0825808127629,None,853.0825808127629,854.3991486644954,0.07118114453624003,None,3.050155868924776,,,,,,,,,18,001,2019_Dec_25_1512,untitled,3.1.0,60.01903887757021,
489,_5,M,0,L,N,489_5M000LN,HLN,0,244,244,184,,,1.397,856.2158818013995,856.5491978827449,856.5658436021622,856.8492943157908,856.8826645572481,None,down,856.8826645572481,None,856.8826645572481,858.2492333439295,0.07074873181045405,None,3.2002007463524933,,,,,,,,,18,001,2019_Dec_25_1512,untitled,3.1.0,60.01903887757021,
_,F,N,225,_,_,_FN225__,N,0,245,245,53,,,1.135,860.1660371360704,860.4992894407151,860.5159558625128,860.7993778599339,860.8327567830347,None,up,860.8327567830347,None,860.8327567830347,861.9327426252748,0.06978339962734026,None,2.4334855737761245,,,,,,,,,18,001,2019_Dec_25_1512,untitled,3.1.0,60.01903887757021,
272,_2,M,315,R,N,272_2M315RN,HRN,0,246,246,151,,,0.888,863.3493410631127,863.6826935405879,863.6993816665017,863.9827923109988,864.0161635541845,None,down,864.0161635541845,None,864.0161635541845,864.8660549000524,0.0708188527933089,None,1.9668070644547697,,,,,,,,,18,001,2019_Dec_25_1512,untitled,3.1.0,60.01903887757021,
033,R,N,0,L,N,033RN000LN,HLN,0,247,247,200,,,0.882,866.0661401137404,866.3994568629059,866.4160902276708,866.6994314190088,866.7328924838293,None,up,866.7328924838293,None,866.7328924838293,867.5828753208843,0.0715237356198486,None,1.6336338963483286,,,,,,,,,18,001,2019_Dec_25_1512,untitled,3.1.0,60.01903887757021,
398,_4,M,225,R,N,398_4M225RN,HRN,0,248,248,165,,,1.291,868.4495055469015,868.7829004308769,868.7994756953995,869.0829080440126,869.116285965385,None,up,869.116285965385,None,869.116285965385,870.3662021541168,0.07103355656363419,None,2.0334924523122027,,,,,,,,,18,001,2019_Dec_25_1512,untitled,3.1.0,60.01903887757021,
045,R,M,180,L,N,045RM180LN,HLN,0,249,249,108,,,1.3860000000000001,871.2328550859747,871.5662109025434,871.5829681477117,871.8662185156791,871.8996605476641,None,up,871.8996605476641,None,871.8996605476641,873.2496811164856,0.07067393609759165,None,2.7001753692347847,,,,,,,,,18,001,2019_Dec_25_1512,untitled,3.1.0,60.01903887757021,
_,_2,M,0,_,_,__2M000__,N,0,250,250,24,,,0.963,874.6829980659968,875.0162934449545,875.0329608684842,875.3162970511767,875.349701017487,None,down,875.349701017487,None,875.349701017487,876.2829902525154,0.06943279471306596,None,2.9835469463287154,,,,,,,,,18,001,2019_Dec_25_1512,untitled,3.1.0,60.01903887757021,
_,F,M,270,_,_,_FM270__,N,0,251,251,6,,,0.736,878.4163837340675,878.749713505702,878.7663936177887,879.0497184475607,879.083104048852,None,down,879.083104048852,None,879.083104048852,879.7830940983513,0.07077978539018659,None,1.9670504844361858,,,,,,,,,18,001,2019_Dec_25_1512,untitled,3.1.0,60.01903887757021,
_,F,M,135,_,_,_FM135__,N,0,252,252,3,,,1.391,881.1331393764704,881.466440765802,881.4831061858713,881.7664503823908,881.7999000942946,None,up,881.7999000942946,None,881.7999000942946,883.1499019641888,0.07082686662033666,None,2.2002141027296602,,,,,,,,,18,001,2019_Dec_25_1512,untitled,3.1.0,60.01903887757021,
_,_2,M,315,_,_,__2M315__,N,0,253,253,31,,,0.841,884.0832412856289,884.4165687198984,884.4332201157704,884.7166063848817,884.7499843062542,None,down,884.7499843062542,None,884.7499843062542,885.5498707102633,0.06911357729040901,None,3.250156603528012,,,,,,,,,18,001,2019_Dec_25_1512,untitled,3.1.0,60.01903887757021,
173,F,M,180,L,N,173FM180LN,HLN,0,254,254,124,,,1.1440000000000001,888.0833387871862,888.4166064516648,888.4332698682774,888.7166411114631,888.7500717905277,None,up,888.7500717905277,None,888.7500717905277,889.8667143711937,0.07031565127181238,None,2.8336600080692733,,,,,,,,,18,001,2019_Dec_25_1512,untitled,3.1.0,60.01903887757021,
130,F,N,45,R,N,130FN045RN,HRN,0,255,255,209,,,0.9440000000000001,891.6667590482757,892.000015025922,892.016771937182,892.3000209695128,892.3500352608353,None,up,892.3500352608353,None,892.3500352608353,893.2501338976836,0.07063086178095546,None,1.850435952164844,,,,,,,,,18,001,2019_Dec_25_1512,untitled,3.1.0,60.01903887757021,
_,_2,M,270,_,_,__2M270__,N,0,256,256,30,,,1.127,894.2834874436667,894.6167460925899,894.6334148517562,894.9169183230806,894.9502090940878,None,down,894.9502090940878,None,894.9502090940878,896.0334620665526,0.0692705147266679,None,2.316824628091126,,,,,,,,,18,001,2019_Dec_25_1512,untitled,3.1.0,60.01903887757021,
165,F,N,180,L,N,165FN180LN,HLN,0,257,257,220,,,0.902,897.3502329352232,897.6834829024992,897.7002368085741,897.9834931869118,898.0168741134694,None,up,898.0168741134694,None,898.0168741134694,898.883510683765,0.07038310097777867,None,1.9003737782259122,,,,,,,,,18,001,2019_Dec_25_1512,untitled,3.1.0,60.01903887757021,
451,_5,N,90,R,N,451_5N090RN,HRN,0,258,258,274,,,1.395,900.0002350722425,900.3335471466744,900.3502122328391,900.6335497511682,900.7003466647766,None,up,900.7003466647766,None,900.7003466647766,902.0336146631635,0.07137414419048582,None,2.6003177482234605,,,,,,,,,18,001,2019_Dec_25_1512,untitled,3.1.0,60.01903887757021,
010,R,M,45,R,N,010RM045RN,HRN,0,259,259,97,,,1.074,903.3836138617808,903.7169519811505,903.7336190707683,904.0170477463762,904.0504223286553,None,down,904.0504223286553,None,904.0504223286553,905.083734135962,0.07332651267643087,None,2.3501785079861293,,,,,,,,,18,001,2019_Dec_25_1512,untitled,3.1.0,60.01903887757021,
227,G,N,90,L,N,227GN090LN,HLN,0,260,260,234,,,0.929,906.483774672568,906.8170289806658,906.8336970720156,907.1170315851596,907.1670485477589,None,up,907.1670485477589,None,907.1670485477589,908.050385932529,0.07173242901626509,None,2.0836032434635854,,,,,,,,,18,001,2019_Dec_25_1512,untitled,3.1.0,60.01903887757021,
_,_4,M,315,_,_,__4M315__,N,0,261,261,39,,,0.993,909.333840986983,909.6670906203508,909.6837623846986,909.9670958961178,910.0004477725561,None,up,910.0004477725561,None,910.0004477725561,910.9504638669896,0.07072702769801253,None,1.8335785341623705,,,,,,,,,18,001,2019_Dec_25_1512,untitled,3.1.0,60.01903887757021,
203,G,M,90,R,N,203GM090RN,HRN,0,262,262,130,,,1.123,911.9172352031346,912.2505028676132,912.267151592212,912.550489444453,912.5839535144623,None,down,912.5839535144623,None,912.5839535144623,913.667184114991,0.07079380958748516,None,2.350179175806261,,,,,,,,,18,001,2019_Dec_25_1512,untitled,3.1.0,60.01903887757021,
_,_4,N,315,_,_,__4N315__,N,0,263,263,87,,,0.778,915.0173051905549,915.3505691820283,915.3672229152689,915.6505687813369,915.7006638787461,None,up,915.7006638787461,None,915.7006638787461,916.4339113083079,0.07043686039469321,None,1.7334694793389644,,,,,,,,,18,001,2019_Dec_25_1512,untitled,3.1.0,60.01903887757021,
143,F,M,270,R,N,143FM270RN,HRN,0,264,264,118,,,0.9380000000000001,917.5173319033092,917.85061526153,917.8673020518072,918.1506205373007,918.1840759256629,None,down,918.1840759256629,None,918.1840759256629,919.0839768881233,0.07133173769034329,None,2.0170070094245602,,,,,,,,,18,001,2019_Dec_25_1512,untitled,3.1.0,60.01903887757021,
_,G,N,90,_,_,_GN090__,N,0,265,265,58,,,0.926,920.2839832991849,920.617428269572,920.6340339198541,920.9173787841937,920.9674862362517,None,up,920.9674862362517,None,920.9674862362517,921.8341258117325,0.06958973215296282,None,2.0834653388665174,,,,,,,,,18,001,2019_Dec_25_1512,untitled,3.1.0,60.01903887757021,
236,G,M,135,L,N,236GM135LN,HLN,0,266,266,139,,,0.861,923.1341107190274,923.4674254647325,923.4840828709785,923.7673960139218,923.8008243556214,None,down,923.8008243556214,None,923.8008243556214,924.6341227397643,0.07120852510706754,None,2.283551888191141,,,,,,,,,18,001,2019_Dec_25_1512,untitled,3.1.0,60.01903887757021,
_,F,N,90,_,_,_FN090__,N,0,267,267,50,,,1.256,926.1675711160315,926.5008157407574,926.5174908442023,926.8008223521647,926.8509555152486,None,up,926.8509555152486,None,926.8509555152486,928.0508500666474,0.06893693919846555,None,2.516813341950183,,,,,,,,,18,001,2019_Dec_25_1512,untitled,3.1.0,60.01903887757021,
262,_2,N,225,R,N,262_2N225RN,HRN,0,268,268,245,,,0.851,929.4509510408607,929.7842831498601,929.800890803599,930.0842356679386,930.1175731862713,None,up,930.1175731862713,None,930.1175731862713,930.9343360411149,0.07016639375069644,None,3.2669422309991205,,,,,,,,,18,001,2019_Dec_25_1512,untitled,3.1.0,60.01903887757021,
419,_4,N,90,L,N,419_4N090LN,HLN,0,269,269,266,,,1.2510000000000001,933.4676625404354,933.800987303428,933.8176740937015,934.1010206275896,934.1677965049021,None,up,934.1677965049021,None,934.1677965049021,935.3511067762229,0.0713320716022281,None,2.2001356340151688,,,,,,,,,18,001,2019_Dec_25_1512,untitled,3.1.0,60.01903887757021,
_,R,N,0,_,_,_RN000__,N,0,270,270,64,,,1.061,936.4511370284199,936.7843672950403,936.8010550870422,937.0843719029872,937.1511364273829,None,up,937.1511364273829,None,937.1511364273829,938.1510876766042,0.06920339893258642,None,1.7668567501823418,,,,,,,,,18,001,2019_Dec_25_1512,untitled,3.1.0,60.01903887757021,
450,_5,N,45,R,N,450_5N045RN,HRN,0,271,271,273,,,1.104,939.0011907210574,939.3344480343403,939.3511161256865,939.6344563152961,939.6677978405387,None,up,939.6677978405387,None,939.6677978405387,940.7344785536625,0.0706358704228478,None,1.983589352832496,,,,,,,,,18,001,2019_Dec_25_1512,untitled,3.1.0,60.01903887757021,
040,R,N,315,L,N,040RN315LN,HLN,0,272,272,207,,,1.075,941.7345630327509,942.0678473927001,942.0845148162298,942.3678750404033,942.4013107281098,None,up,942.4013107281098,None,942.4013107281098,943.4346298814198,0.07137581373535795,None,2.2669729506633303,,,,,,,,,18,001,2019_Dec_25_1512,untitled,3.1.0,60.01903887757021,
141,F,M,180,R,N,141FM180RN,HRN,0,273,273,116,,,1.326,944.7513246187409,945.0845772572939,945.1012383365414,945.3845908807998,945.4513958082352,None,down,945.4513958082352,None,945.4513958082352,946.7012605749114,0.07076342382424627,None,3.150351740201586,,,,,,,,,18,001,2019_Dec_25_1512,untitled,3.1.0,60.01903887757021,
_,_2,M,90,_,_,__2M090__,N,0,274,274,26,,,0.864,948.6847537618232,949.0181029002015,949.0346721543574,949.3180036623162,949.3514156424535,None,down,949.3514156424535,None,949.3514156424535,950.1847130248716,0.06926250089964014,None,2.9337343363076798,,,,,,,,,18,001,2019_Dec_25_1512,untitled,3.1.0,60.01903887757021,
462,_5,M,225,R,N,462_5M225RN,HRN,0,275,275,181,,,1.2530000000000001,952.3681745571666,952.7014478981073,952.7180936175209,953.0014294663051,953.051504863055,None,None,953.051504863055,None,953.051504863055,954.2514611877014,0.07047859907834209,None,,,,,,,,,,18,001,2019_Dec_25_1512,untitled,3.1.0,60.01903887757021,
016,R,M,315,R,N,016RM315RN,HRN,0,276,276,103,,,1.213,956.5682724594153,956.9015184197779,956.9181938571346,957.201509337443,957.2349934420163,956.5682724594153,down,957.2349934420163,None,957.2349934420163,958.4182219055256,0.07178485280019231,None,3.4335046066153154,,,,,,,,,18,001,2019_Dec_25_1512,untitled,3.1.0,60.01903887757021,
_,F,M,45,_,_,_FM045__,N,0,277,277,1,,,1.173,960.7517076128679,961.0849495663169,961.10162032894,961.3850379855357,961.4184195799135,None,down,961.4184195799135,None,961.4184195799135,962.5517422726662,0.06865511963405879,None,3.2001760370585544,,,,,,,,,18,001,2019_Dec_25_1512,untitled,3.1.0,60.01903887757021,
134,F,N,225,R,N,134FN225RN,HRN,0,278,278,213,,,0.962,964.701710017016,965.035061158851,965.0517142242752,965.3351285417775,965.368451702001,None,up,965.368451702001,None,965.368451702001,966.3017412709378,0.07170938926719828,None,1.883708358156582,,,,,,,,,18,001,2019_Dec_25_1512,untitled,3.1.0,60.01903887757021,
_,_5,M,135,_,_,__5M135__,N,0,279,279,43,,,0.936,967.3350817944556,967.6684780140677,967.6851080397355,967.9685307049767,968.0019146367194,None,up,968.0019146367194,None,968.0019146367194,968.9017995715258,0.06902242001524428,None,2.766816681047203,,,,,,,,,18,001,2019_Dec_25_1512,untitled,3.1.0,60.01903887757021,
429,_4,M,180,L,N,429_4M180LN,HLN,0,280,280,172,,,1.072,970.8519402141828,971.1851668077979,971.201852930255,971.4852425384597,971.5186571898703,None,down,971.5186571898703,None,971.5186571898703,972.5518891928186,0.07054104013877804,None,2.816995255812799,,,,,,,,,18,001,2019_Dec_25_1512,untitled,3.1.0,60.01903887757021,
161,F,N,0,L,N,161FN000LN,HLN,0,281,281,216,,,0.929,974.4186810310057,974.7519356730118,974.7686010930847,975.0519442878758,975.0852921574005,None,up,975.0852921574005,None,975.0852921574005,975.9853941333422,0.07104023475039867,None,1.8502496306973626,,,,,,,,,18,001,2019_Dec_25_1512,untitled,3.1.0,60.01903887757021,
271,_2,M,270,R,N,271_2M270RN,HRN,0,282,282,150,,,1.356,977.0186895790866,977.3519973126968,977.368748881403,977.6520139413842,977.7020833277675,None,down,977.7020833277675,None,977.7020833277675,979.0020411883961,0.0732333519445092,None,2.6669844371463114,,,,,,,,,18,001,2019_Dec_25_1512,untitled,3.1.0,60.01903887757021,
_,_5,N,180,_,_,__5N180__,N,0,283,283,92,,,1.055,980.452165135579,980.7854090924848,980.8020788533795,981.0855055255306,981.1188480525052,None,up,981.1188480525052,None,981.1188480525052,982.1355208185851,0.06976837370166322,None,1.9501703605965304,,,,,,,,,18,001,2019_Dec_25_1512,untitled,3.1.0,60.01903887757021,
295,_2,N,270,L,N,295_2N270LN,HLN,0,284,284,254,,,1.121,983.1522279773344,983.485474939429,983.5021734165348,983.7854711996406,983.8188888562399,None,up,983.8188888562399,None,983.8188888562399,984.9022637056441,0.07031231217843015,None,2.650209828691004,,,,,,,,,18,001,2019_Dec_25_1512,untitled,3.1.0,60.01903887757021,
_,_2,N,45,_,_,__2N045__,N,0,285,285,73,,,0.811,986.5522297804455,986.885552206073,986.9022186278708,987.1855628243902,987.2355714392543,None,up,987.2355714392543,None,987.2355714392543,988.0022445392424,0.07013600799473352,None,1.7336013735693996,,,,,,,,,18,001,2019_Dec_25_1512,untitled,3.1.0,60.01903887757021,
418,_4,N,45,L,N,418_4N045LN,HLN,0,286,286,265,,,0.993,989.0522855433228,989.3856109741319,989.4022987661374,989.685620256816,989.7189657889721,None,up,989.7189657889721,None,989.7189657889721,990.6689732017621,0.0718943750980543,None,1.8336810443652212,,,,,,,,,18,001,2019_Dec_25_1512,untitled,3.1.0,60.01903887757021,
399,_4,M,270,R,N,399_4M270RN,HRN,0,287,287,166,,,1.027,991.6357201625178,991.969010198929,991.9856736155452,992.2690478639124,992.3191386204999,None,up,992.3191386204999,None,992.3191386204999,993.2857890814266,0.07193310859292978,None,2.666996457890491,,,,,,,,,18,001,2019_Dec_25_1512,untitled,3.1.0,60.01903887757021,
,,,,,,,,,,,,,,,,,,,,,,,,,,,,,995.0024111600542,None,1013.2028800356857,None,1017.9363825720648,None,1020.8363913872709,None,,,,,,,
