Number,Letter,type,Orientation,human,face_type,image,picture,trials.thisRepN,trials.thisTrialN,trials.thisN,trials.thisIndex,text.started,text.stopped,stimulus_duration,CROSS.started,CROSS.stopped,BLANK.started,BLANK.stopped,TEST.started,TEST.stopped,key_JUDGE.keys,key_JUDGE.rt,key_JUDGE.started,key_JUDGE.stopped,image_2.started,image_2.stopped,ISI.started,ISI.stopped,q1.started,q1.stopped,q2.started,q2.stopped,q3.started,q3.stopped,text_2.started,text_2.stopped,participant,session,date,expName,psychopyVersion,frameRate,
200,G,N,315,R,N,200GN315RN,HRN,0,0,0,231,91.80244289996335,None,1.278,114.16571429994656,114.50079369999003,114.51797049999004,114.8006215999485,114.8174268999719,None,up,2.4148111999966204,114.8174268999719,None,114.8174268999719,116.08321029995568,0.0663969999877736,None,,,,,,,,,19,001,2019_Dec_25_1459,untitled,3.1.0,60.224891785623385,
387,_4,N,90,R,N,387_4N090RN,HRN,0,1,1,258,,,1.2770000000000001,117.34910559997661,117.69849469995825,117.69849469995825,117.99790959997335,117.99790959997335,None,None,,117.99790959997335,None,117.99790959997335,119.26326089998474,0.06507589999819174,None,,,,,,,,,19,001,2019_Dec_25_1459,untitled,3.1.0,60.224891785623385,
258,_2,N,45,R,N,258_2N045RN,HRN,0,2,2,241,,,1.066,121.55014209996443,121.89423619996523,121.91096549999202,122.19396619999316,122.21158349997131,121.55014209996443,up,1.900593200000003,122.21158349997131,None,122.21158349997131,123.25974529999075,0.06433039996773005,None,,,,,,,,,19,001,2019_Dec_25_1459,untitled,3.1.0,60.224891785623385,
198,G,N,225,R,N,198GN225RN,HRN,0,3,3,229,,,0.705,124.18255489994772,124.52581889997236,124.54274269996677,124.82551009999588,124.84251759998733,None,down,1.717205599998124,124.84251759998733,None,124.84251759998733,125.5249310999643,0.06118840002454817,None,,,,,,,,,19,001,2019_Dec_25_1459,untitled,3.1.0,60.224891785623385,
_,F,M,90,_,_,_FM090__,N,0,4,4,2,,,1.33,126.65868639998371,126.97333189996425,126.99073569994653,127.27360419998877,127.28976989997318,None,down,2.417110800044611,127.28976989997318,None,127.28976989997318,128.6067700999556,0.08871330000692979,None,,,,,,,,,19,001,2019_Dec_25_1459,untitled,3.1.0,60.224891785623385,
452,_5,N,135,R,N,452_5N135RN,HRN,0,5,5,275,,,1.17,129.78151239996077,130.1212711999542,130.13774919998832,130.4211003999808,130.43797479994828,None,up,2.7314102000091225,130.43797479994828,None,130.43797479994828,131.58659279998392,0.06809600000269711,None,,,,,,,,,19,001,2019_Dec_25_1459,untitled,3.1.0,60.224891785623385,
201,G,M,0,R,N,201GM000RN,HRN,0,6,6,128,,,1.195,133.2404552999651,133.58556889998727,133.60137579997536,133.88412929995684,133.90095519996248,None,down,2.8833624999970198,133.90095519996248,None,133.90095519996248,135.08342149999226,0.061319799977354705,None,,,,,,,,,19,001,2019_Dec_25_1459,untitled,3.1.0,60.224891785623385,
400,_4,M,315,R,N,400_4M315RN,HRN,0,7,7,167,,,1.365,136.85226509999484,137.1982810999616,137.21462489996338,137.4976561999647,137.5141230999725,None,down,2.283215100003872,137.5141230999725,None,137.5141230999725,138.8629818999907,0.060844300023745745,None,,,,,,,,,19,001,2019_Dec_25_1459,untitled,3.1.0,60.224891785623385,
293,_2,N,180,L,N,293_2N180LN,HLN,0,8,8,252,,,1.187,139.86769619997358,140.21206699998584,140.22888629999943,140.51175559998956,140.52818319998914,None,up,3.150978000019677,140.52818319998914,None,140.52818319998914,141.69485369999893,0.06344100000569597,None,,,,,,,,,19,001,2019_Dec_25_1459,untitled,3.1.0,60.224891785623385,
003,R,N,90,R,N,003RN090RN,HRN,0,9,9,194,,,1.111,143.75207180000143,144.09229269996285,144.1089739999734,144.39193819998764,144.40840689995093,None,up,2.032999400049448,144.40840689995093,None,144.40840689995093,145.50862699997379,0.06573540001409128,None,,,,,,,,,19,001,2019_Dec_25_1459,untitled,3.1.0,60.224891785623385,
202,G,M,45,R,N,202GM045RN,HRN,0,10,10,129,,,0.866,146.54225599998608,146.8566540000029,146.8731280999491,147.15624589996878,147.17282949999208,None,down,2.1499479999765754,147.17282949999208,None,147.17282949999208,148.02199729997665,0.09079249994829297,None,,,,,,,,,19,001,2019_Dec_25_1459,untitled,3.1.0,60.224891785623385,
_,G,N,45,_,_,_GN045__,N,0,11,11,57,,,0.96,149.4139669999713,149.73824869998498,149.75385099998675,150.0389959999593,150.05392639996717,None,up,1.8820712000015192,150.05392639996717,None,150.05392639996717,151.0026138999965,0.08034300000872463,None,,,,,,,,,19,001,2019_Dec_25_1459,untitled,3.1.0,60.224891785623385,
393,_4,M,0,R,N,393_4M000RN,HRN,0,12,12,160,,,0.763,152.01447119994555,152.3519828999997,152.36838010000065,152.65160669997567,152.66758489998756,None,up,2.651035699993372,152.66758489998756,None,152.66758489998756,153.41768199997023,0.07012719998601824,None,,,,,,,,,19,001,2019_Dec_25_1459,untitled,3.1.0,60.224891785623385,
173,F,M,180,L,N,173FM180LN,HLN,0,13,13,124,,,0.889,155.38883929996518,155.7320298999548,155.74849969998468,156.03184449998662,156.0483802999952,None,up,2.714878899976611,156.0483802999952,None,156.0483802999952,156.9140898999758,0.06342840002616867,None,,,,,,,,,19,001,2019_Dec_25_1459,untitled,3.1.0,60.224891785623385,
016,R,M,315,R,N,016RM315RN,HRN,0,14,14,103,,,0.9440000000000001,158.8347061999957,159.17905789997894,159.19605420000153,159.47894659999292,159.49530089995824,None,down,1.7665386999724433,159.49530089995824,None,159.49530089995824,160.4275759999873,0.06416579999495298,None,,,,,,,,,19,001,2019_Dec_25_1459,untitled,3.1.0,60.224891785623385,
013,R,M,180,R,N,013RM180RN,HRN,0,15,15,100,,,1.256,161.3554513999843,161.67677359998925,161.69448779994855,161.97689579997677,161.9933550999849,None,up,2.814714999985881,161.9933550999849,None,161.9933550999849,163.2272483999841,0.0841562999994494,None,,,,,,,,,19,001,2019_Dec_25_1459,untitled,3.1.0,60.224891785623385,
_,G,N,270,_,_,_GN270__,N,0,16,16,62,,,0.778,164.88538659998449,165.22369979997166,165.2397823999636,165.52378539997153,165.54022639995674,None,up,1.8843002000357956,165.54022639995674,None,165.54022639995674,166.30614519998198,0.06806229997891933,None,,,,,,,,,19,001,2019_Dec_25_1459,untitled,3.1.0,60.224891785623385,
010,R,M,45,R,N,010RM045RN,HRN,0,17,17,97,,,1.302,167.5135033999686,167.838401099958,167.8548767999746,168.13811089994851,168.1548988999566,None,down,2.3160169000038877,168.1548988999566,None,168.1548988999566,169.436847999983,0.08032909996109083,None,,,,,,,,,19,001,2019_Dec_25_1459,untitled,3.1.0,60.224891785623385,
168,F,N,315,L,N,168FN315LN,HLN,0,18,18,223,,,0.8220000000000001,170.54137229995104,170.88535169995157,170.90201819996582,171.18539739999687,171.201910499949,None,down,2.232006400008686,171.201910499949,None,171.201910499949,172.00121279997984,0.06343340000603348,None,,,,,,,,,19,001,2019_Dec_25_1459,untitled,3.1.0,60.224891785623385,
140,F,M,135,R,N,140FM135RN,HRN,0,19,19,115,,,1.122,173.50265359994955,173.85033289995044,173.86624089995166,174.14891209994676,174.16613430000143,None,up,2.481424600002356,174.16613430000143,None,174.16613430000143,175.26528409996536,0.06174319999990985,None,,,,,,,,,19,001,2019_Dec_25_1459,untitled,3.1.0,60.224891785623385,
_,_4,M,270,_,_,__4M270__,N,0,20,20,38,,,1.393,176.71525489998749,177.06376989994897,177.08009399997536,177.36321789998328,177.3809845999931,None,down,2.59877320000669,177.3809845999931,None,177.3809845999931,178.76137819996802,0.05941859999438748,None,,,,,,,,,19,001,2019_Dec_25_1459,untitled,3.1.0,60.224891785623385,
453,_5,N,180,R,N,453_5N180RN,HRN,0,21,21,276,,,0.7030000000000001,180.06108639994636,180.394201099989,180.41018969996367,180.69383499998366,180.71113650000188,None,up,2.0489716000156477,180.71113650000188,None,180.71113650000188,181.39431379997404,0.0727074999595061,None,,,,,,,,,19,001,2019_Dec_25_1459,untitled,3.1.0,60.224891785623385,
386,_4,N,45,R,N,386_4N045RN,HRN,0,22,22,257,,,1.2730000000000001,182.8427970999619,183.1748603999731,183.19111759995576,183.4771303999587,183.49258029996417,None,up,2.280479100008961,183.49258029996417,None,183.49258029996417,184.73995039996225,0.07224449998466298,None,,,,,,,,,19,001,2019_Dec_25_1459,untitled,3.1.0,60.224891785623385,
_,G,M,90,_,_,_GM090__,N,0,23,23,10,,,1.3780000000000001,185.861293199996,186.18864789995132,186.20565359998727,186.48834119999083,186.5056386999786,None,down,2.9661912000156008,186.5056386999786,None,186.5056386999786,187.8705653999932,0.07976759999291971,None,,,,,,,,,19,001,2019_Dec_25_1459,untitled,3.1.0,60.224891785623385,
_,_2,N,135,_,_,__2N135__,N,0,24,24,75,,,0.898,189.53979529999197,189.88598829996772,189.90239000000292,190.18527369998628,190.20187409996288,None,down,2.317896299995482,190.20187409996288,None,190.20187409996288,191.08403719996568,0.06106330000329763,None,,,,,,,,,19,001,2019_Dec_25_1459,untitled,3.1.0,60.224891785623385,
_,_5,M,180,_,_,__5M180__,N,0,25,25,44,,,1.098,192.60715549997985,192.93355409998912,192.9497366999858,193.23269619996427,193.249197899946,None,up,3.1497571999789216,193.249197899946,None,193.249197899946,194.33158239995828,0.0775108000379987,None,,,,,,,,,19,001,2019_Dec_25_1459,untitled,3.1.0,60.224891785623385,
_,_2,M,45,_,_,__2M045__,N,0,26,26,25,,,0.765,196.48611559998244,196.8129617999657,196.82990729995072,197.112811399973,197.12935089995153,None,down,2.2508105999440886,197.12935089995153,None,197.12935089995153,197.8788430999848,0.07783180003752932,None,,,,,,,,,19,001,2019_Dec_25_1459,untitled,3.1.0,60.224891785623385,
_,R,N,270,_,_,_RN270__,N,0,27,27,70,,,0.9440000000000001,199.4584171999595,199.79350799997337,199.80991439998616,200.09406259999378,200.10981759999413,None,up,1.9839288999792188,200.10981759999413,None,200.10981759999413,201.04186439997284,0.07110820000525564,None,,,,,,,,,19,001,2019_Dec_25_1459,untitled,3.1.0,60.224891785623385,
175,F,M,270,L,N,175FM270LN,HLN,0,28,28,126,,,1.26,202.1628663999727,202.5082274999586,202.52464359998703,202.80760839994764,202.8242634999915,None,down,2.466677599994,202.8242634999915,None,202.8242634999915,204.07773589994758,0.06164620001800358,None,,,,,,,,,19,001,2019_Dec_25_1459,untitled,3.1.0,60.224891785623385,
001,R,N,0,R,N,001RN000RN,HRN,0,29,29,192,,,0.962,205.35879229998682,205.7057709999499,205.7215498999576,206.00482959998772,206.02130189997843,None,up,1.8492049999767914,206.02130189997843,None,206.02130189997843,206.97113719995832,0.061119799967855215,None,,,,,,,,,19,001,2019_Dec_25_1459,untitled,3.1.0,60.224891785623385,
266,_2,M,45,R,N,266_2M045RN,HRN,0,30,30,145,,,1.076,207.95210229995428,208.2866425999673,208.30276160000358,208.58604419999756,208.60287899995456,None,down,2.6665351999690756,208.60287899995456,None,208.60287899995456,209.66816929995548,0.07299260003492236,None,,,,,,,,,19,001,2019_Dec_25_1459,untitled,3.1.0,60.224891785623385,
_,F,N,45,_,_,_FN045__,N,0,31,31,49,,,0.841,211.34042619995307,211.6828824999975,211.70000129996333,211.9834192999988,211.9996304999804,None,up,1.931747400027234,211.9996304999804,None,211.9996304999804,212.81566249998286,0.06399399996735156,None,,,,,,,,,19,001,2019_Dec_25_1459,untitled,3.1.0,60.224891785623385,
299,_2,M,90,L,N,299_2M090LN,HLN,0,32,32,154,,,0.721,214.0234087999561,214.34743429999799,214.36379979999037,214.64665939996485,214.66431029996602,None,down,1.765996099973563,214.66431029996602,None,214.66431029996602,215.36316829995485,0.08261549996677786,None,,,,,,,,,19,001,2019_Dec_25_1459,untitled,3.1.0,60.224891785623385,
462,_5,M,225,R,N,462_5M225RN,HRN,0,33,33,181,,,0.853,216.5071609999868,216.84526799997548,216.86179369996535,217.14579079998657,217.16292239999166,None,down,2.8475332999951206,217.16292239999166,None,217.16292239999166,217.99411410000175,0.06998279999243096,None,,,,,,,,,19,001,2019_Dec_25_1459,untitled,3.1.0,60.224891785623385,
432,_4,M,315,L,N,432_4M315LN,HLN,0,34,34,175,,,1.2690000000000001,220.07870449998882,220.42683979996946,220.44211469998118,220.7263471999904,220.74287059996277,None,down,2.830961400002707,220.74287059996277,None,220.74287059996277,221.99076739995508,0.06071609997889027,None,,,,,,,,,19,001,2019_Dec_25_1459,untitled,3.1.0,60.224891785623385,
_,_5,M,135,_,_,__5M135__,N,0,35,35,43,,,0.709,223.66525139997248,223.98995540000033,224.00591169996187,224.2890839999891,224.30568759999005,None,down,3.2337311999872327,224.30568759999005,None,224.30568759999005,225.005096399982,0.08165520004695281,None,,,,,,,,,19,001,2019_Dec_25_1459,untitled,3.1.0,60.224891785623385,
047,R,M,270,L,N,047RM270LN,HLN,0,36,36,110,,,0.913,227.62834959995234,227.9524253999698,227.9688813999528,228.25231239997083,228.26894979999634,None,down,1.8991573000093922,228.26894979999634,None,228.26894979999634,229.16770189994713,0.07995070004835725,None,,,,,,,,,19,001,2019_Dec_25_1459,untitled,3.1.0,60.224891785623385,
426,_4,M,45,L,N,426_4M045LN,HLN,0,37,37,169,,,0.837,230.23635859997012,230.58359799999744,230.60019239998655,230.88331269996706,230.89982639998198,None,up,3.2654093999881297,230.89982639998198,None,230.89982639998198,231.71596179995686,0.060780800005886704,None,,,,,,,,,19,001,2019_Dec_25_1459,untitled,3.1.0,60.224891785623385,
494,_5,M,225,L,N,494_5M225LN,HLN,0,38,38,189,,,0.933,234.26034789998084,234.58004789997358,234.59669569996186,234.8801183999749,234.89601979998406,None,down,2.649013800022658,234.89601979998406,None,234.89601979998406,235.81206519994885,0.08576769998762757,None,,,,,,,,,19,001,2019_Dec_25_1459,untitled,3.1.0,60.224891785623385,
161,F,N,0,L,N,161FN000LN,HLN,0,39,39,216,,,1.303,237.61492529994575,237.9601765999687,237.97682599996915,238.25992699997732,238.27683489996707,None,up,2.2156511999783106,238.27683489996707,None,238.27683489996707,239.55874670000048,0.06206879997625947,None,,,,,,,,,19,001,2019_Dec_25_1459,untitled,3.1.0,60.224891785623385,
420,_4,N,135,L,N,420_4N135LN,HLN,0,40,40,267,,,1.2630000000000001,240.5763922999613,240.9080861999537,240.92472319997614,241.20744939998258,241.22548559994902,None,up,2.182976600015536,241.22548559994902,None,241.22548559994902,242.47300329996506,0.07571409997763112,None,,,,,,,,,19,001,2019_Dec_25_1459,untitled,3.1.0,60.224891785623385,
225,G,N,0,L,N,225GN000LN,HLN,0,41,41,232,,,1.381,243.5027173999697,243.82219299999997,243.83904029999394,244.12377239996567,244.13866339996457,None,up,2.14863150002202,244.13866339996457,None,244.13866339996457,245.50369809998665,0.0858198000350967,None,,,,,,,,,19,001,2019_Dec_25_1459,untitled,3.1.0,60.224891785623385,
_,_4,M,45,_,_,__4M045__,N,0,42,42,33,,,0.849,246.35362409998197,246.70312799996464,246.71966139995493,247.00272549997317,247.01924029999645,None,None,,247.01924029999645,None,247.01924029999645,247.85153929999797,0.05923640000401065,None,,,,,,,,,19,001,2019_Dec_25_1459,untitled,3.1.0,60.224891785623385,
419,_4,N,90,L,N,419_4N090LN,HLN,0,43,43,266,,,0.796,250.5780951999477,250.8985216000001,250.91577639995376,251.19885230000364,251.21594039996853,250.5780951999477,up,1.866508899955079,251.21594039996853,None,251.21594039996853,251.99835099995835,0.08555790001992136,None,,,,,,,,,19,001,2019_Dec_25_1459,untitled,3.1.0,60.224891785623385,
262,_2,N,225,R,N,262_2N225RN,HRN,0,44,44,245,,,1.163,253.1522896999959,253.4969146999647,253.51360469998326,253.79666169994744,253.81356719997711,None,up,2.5973934000357985,253.81356719997711,None,253.81356719997711,254.96256709995214,0.06303679995471612,None,,,,,,,,,19,001,2019_Dec_25_1459,untitled,3.1.0,60.224891785623385,
_,_4,N,135,_,_,__4N135__,N,0,45,45,83,,,1.115,256.4794624999631,256.82729619997554,256.8449902999564,257.12732059997506,257.14435419999063,None,up,3.2484318999922834,257.14435419999063,None,257.14435419999063,258.24217669997597,0.06071809999411926,None,,,,,,,,,19,001,2019_Dec_25_1459,untitled,3.1.0,60.224891785623385,
_,_5,N,135,_,_,__5N135__,N,0,46,46,91,,,0.979,260.47866119997343,260.8077730999794,260.82388479996007,261.10677620000206,261.12334839999676,None,None,,261.12334839999676,None,261.12334839999676,262.08923869999126,0.0768889999599196,None,,,,,,,,,19,001,2019_Dec_25_1459,untitled,3.1.0,60.224891785623385,
_,_2,M,90,_,_,__2M090__,N,0,47,47,26,,,1.072,264.6856040999992,265.0036456999951,265.0204206999624,265.30344369995873,265.3205294999643,264.6856040999992,down,2.04947720002383,265.3205294999643,None,265.3205294999643,266.3690970999887,0.0890019999933429,None,,,,,,,,,19,001,2019_Dec_25_1459,untitled,3.1.0,60.224891785623385,
045,R,M,180,L,N,045RM180LN,HLN,0,48,48,108,,,1.188,267.46509039995726,267.7844830999966,267.8011491999496,268.0836922999588,268.10079579998273,None,up,2.0984847000217997,268.10079579998273,None,268.10079579998273,269.2834976000013,0.08197539998218417,None,,,,,,,,,19,001,2019_Dec_25_1459,untitled,3.1.0,60.224891785623385,
_,_5,N,90,_,_,__5N090__,N,0,49,49,90,,,0.8200000000000001,270.2686722999788,270.61484479997307,270.63254069996765,270.91532569995616,270.93179780000355,None,up,1.7335078999749385,270.93179780000355,None,270.93179780000355,271.73131019994617,0.062126000004354864,None,,,,,,,,,19,001,2019_Dec_25_1459,untitled,3.1.0,60.224891785623385,
005,R,N,180,R,N,005RN180RN,HRN,0,50,50,196,,,0.729,272.7520746999653,273.0798170999624,273.09729879995575,273.37964839994675,273.3962969999993,None,up,1.6833648000028916,273.3962969999993,None,273.3962969999993,274.1125194999622,0.07725969998864457,None,,,,,,,,,19,001,2019_Dec_25_1459,untitled,3.1.0,60.224891785623385,
491,_5,M,90,L,N,491_5M090LN,HLN,0,51,51,186,,,1.2790000000000001,275.1503494999488,275.49444859998766,275.5111539999489,275.7950641999487,275.8109188999515,None,down,2.050367899995763,275.8109188999515,None,275.8109188999515,277.0762199999881,0.06383769999956712,None,,,,,,,,,19,001,2019_Dec_25_1459,untitled,3.1.0,60.224891785623385,
142,F,M,225,R,N,142FM225RN,HRN,0,52,52,117,,,0.988,277.93124129995704,278.2757778999512,278.2921283999458,278.57514459994854,278.592245799955,None,down,1.9815063999849372,278.592245799955,None,278.592245799955,279.5592580999946,0.06320620002225041,None,,,,,,,,,19,001,2019_Dec_25_1459,untitled,3.1.0,60.224891785623385,
269,_2,M,180,R,N,269_2M180RN,HRN,0,53,53,148,,,1.091,280.6463776999735,280.98970279999776,281.00643309997395,281.28950869996333,281.30630519997794,None,down,2.1510437999968417,281.30630519997794,None,281.30630519997794,282.3717371999519,0.06392090005101636,None,,,,,,,,,19,001,2019_Dec_25_1459,untitled,3.1.0,60.224891785623385,
396,_4,M,135,R,N,396_4M135RN,HRN,0,54,54,163,,,1.2650000000000001,283.5452129999758,283.8699781000032,283.88655799999833,284.1698868999956,284.1874367999844,None,up,2.897100700007286,284.1874367999844,None,284.1874367999844,285.4354893999989,0.07870539999566972,None,,,,,,,,,19,001,2019_Dec_25_1459,untitled,3.1.0,60.224891785623385,
_,G,N,225,_,_,_GN225__,N,0,55,55,61,,,1.077,287.1524308999651,287.50036929995986,287.51789389998885,287.80072189995553,287.81708029995207,None,up,2.3980976999737322,287.81708029995207,None,287.81708029995207,288.88256369996816,0.05995009996695444,None,,,,,,,,,19,001,2019_Dec_25_1459,untitled,3.1.0,60.224891785623385,
_,F,M,225,_,_,_FM225__,N,0,56,56,5,,,1.072,290.28399440000067,290.6307620999869,290.64778929995373,290.93112019996624,290.94736479996936,None,down,1.9823827999643981,290.94736479996936,None,290.94736479996936,291.99659579998115,0.06217710004420951,None,,,,,,,,,19,001,2019_Dec_25_1459,untitled,3.1.0,60.224891785623385,
300,_2,M,135,L,N,300_2M135LN,HLN,0,57,57,155,,,1.34,292.99957679997897,293.3455524999881,293.36240069998894,293.64507549995324,293.6617796999635,None,up,3.331075599999167,293.6617796999635,None,293.6617796999635,294.9965678000008,0.06261379999341443,None,,,,,,,,,19,001,2019_Dec_25_1459,untitled,3.1.0,60.224891785623385,
043,R,M,90,L,N,043RM090LN,HLN,0,58,58,106,,,1.3980000000000001,297.07951219996903,297.4085085999686,297.4254088999587,297.7078863999923,297.724819199997,None,down,3.0484342999989167,297.724819199997,None,297.724819199997,299.10704969998915,0.07697509997524321,None,,,,,,,,,19,001,2019_Dec_25_1459,untitled,3.1.0,60.224891785623385,
205,G,M,180,R,N,205GM180RN,HRN,0,59,59,132,,,0.784,300.86139189999085,301.18872699997155,301.20528009999543,301.4888353999704,301.5051719999756,None,down,2.8806473999866284,301.5051719999756,None,301.5051719999756,302.27123769995524,0.07888960000127554,None,,,,,,,,,19,001,2019_Dec_25_1459,untitled,3.1.0,60.224891785623385,
_,_5,N,180,_,_,__5N180__,N,0,60,60,92,,,0.963,304.45395049999934,304.8016414999729,304.8183678999776,305.101552099979,305.11826159997145,None,up,2.3665230000042357,305.11826159997145,None,305.11826159997145,306.0677517000004,0.061438400007318705,None,,,,,,,,,19,001,2019_Dec_25_1459,untitled,3.1.0,60.224891785623385,
002,R,N,45,R,N,002RN045RN,HRN,0,61,61,193,,,1.317,307.5606203999487,307.89951939997263,307.91646259999834,308.1991690999712,308.2165967999608,None,up,2.3988669999525882,308.2165967999608,None,308.2165967999608,309.5146270999685,0.06841740000527352,None,,,,,,,,,19,001,2019_Dec_25_1459,untitled,3.1.0,60.224891785623385,
133,F,N,180,R,N,133FN180RN,HRN,0,62,62,212,,,1.343,310.71430130000226,311.03033399995184,311.04718199995114,311.3306379999849,311.34714129997883,None,up,2.2976456999895163,311.34714129997883,None,311.34714129997883,312.6785435999627,0.087818400003016,None,,,,,,,,,19,001,2019_Dec_25_1459,untitled,3.1.0,60.224891785623385,
_,R,N,0,_,_,_RN000__,N,0,63,63,64,,,0.9490000000000001,313.7277010999969,314.0607682999689,314.0779743999592,314.36066639999626,314.377898799954,None,up,1.6489901999593712,314.377898799954,None,314.377898799954,315.30954940000083,0.07372280000708997,None,,,,,,,,,19,001,2019_Dec_25_1459,untitled,3.1.0,60.224891785623385,
291,_2,N,90,L,N,291_2N090LN,HLN,0,64,64,250,,,0.7010000000000001,316.11559519998264,316.4421924999915,316.45917649997864,316.741653999954,316.7583265999565,None,up,1.4993258999893442,316.7583265999565,None,316.7583265999565,317.4408983999747,0.07877909997478127,None,,,,,,,,,19,001,2019_Dec_25_1459,untitled,3.1.0,60.224891785623385,
304,_2,M,315,L,N,304_2M315LN,HLN,0,65,65,159,,,0.753,318.3282152999891,318.673718099948,318.69006279995665,318.97277509997366,318.9898325999966,None,down,1.5331890999805182,318.9898325999966,None,318.9898325999966,319.72201709996443,0.06347120000282302,None,,,,,,,,,19,001,2019_Dec_25_1459,untitled,3.1.0,60.224891785623385,
039,R,N,270,L,N,039RN270LN,HLN,0,66,66,206,,,0.8200000000000001,320.61255379999056,320.9376613999484,320.95448859996395,321.2382413999876,321.2545341999503,None,up,1.5828937999904156,321.2545341999503,None,321.2545341999503,322.0533660999499,0.08216160000301898,None,,,,,,,,,19,001,2019_Dec_25_1459,untitled,3.1.0,60.224891785623385,
204,G,M,135,R,N,204GM135RN,HRN,0,67,67,131,,,0.781,322.9111028999905,323.2529626999749,323.26984859997174,323.553014599951,323.56935689999955,None,up,2.11484960000962,323.56935689999955,None,323.56935689999955,324.3347739999881,0.06490029999986291,None,,,,,,,,,19,001,2019_Dec_25_1459,untitled,3.1.0,60.224891785623385,
171,F,M,90,L,N,171FM090LN,HLN,0,68,68,122,,,1.2750000000000001,325.7525520999916,326.1003410999547,326.1171628999873,326.40055739996023,326.40055739996023,None,down,3.030766800045967,326.40055739996023,None,326.40055739996023,327.66542299999855,0.06164830003399402,None,,,,,,,,,19,001,2019_Dec_25_1459,untitled,3.1.0,60.224891785623385,
_,F,M,180,_,_,_FM180__,N,0,69,69,4,,,0.873,329.5101114999852,329.8473974999506,329.8634477999876,330.1469487999566,330.16427559999283,None,down,3.114431800029706,330.16427559999283,None,330.16427559999283,331.01258949999465,0.07042920001549646,None,,,,,,,,,19,001,2019_Dec_25_1459,untitled,3.1.0,60.224891785623385,
_,_4,M,90,_,_,__4M090__,N,0,70,70,34,,,1.174,333.36797259998275,333.6944053999614,333.710002399981,333.9943164999713,334.0101810999913,None,down,2.416758999985177,334.0101810999913,None,334.0101810999913,335.17576589999953,0.07801900000777096,None,,,,,,,,,19,001,2019_Dec_25_1459,untitled,3.1.0,60.224891785623385,
174,F,M,225,L,N,174FM225LN,HLN,0,71,71,125,,,0.708,336.5033410000033,336.84130249999,336.8576971999719,337.1413488999824,337.15716499998234,None,up,2.7312051000189967,337.15716499998234,None,337.15716499998234,337.85649759997614,0.06820319994585589,None,,,,,,,,,19,001,2019_Dec_25_1459,untitled,3.1.0,60.224891785623385,
_,R,M,90,_,_,_RM090__,N,0,72,72,18,,,1.0130000000000001,339.9563646999886,340.3046623999835,340.3206961999531,340.60415789997205,340.6206129999482,None,down,3.000115300004836,340.6206129999482,None,340.6206129999482,341.61999069998274,0.06054540001787245,None,,,,,,,,,19,001,2019_Dec_25_1459,untitled,3.1.0,60.224891785623385,
_,_4,N,225,_,_,__4N225__,N,0,73,73,85,,,0.869,343.71979539998574,344.0346741999965,344.05186599999433,344.3353827999672,344.3516983999871,None,up,1.8822488999576308,344.3516983999871,None,344.3516983999871,345.20055680000223,0.08745859999908134,None,,,,,,,,,19,001,2019_Dec_25_1459,untitled,3.1.0,60.224891785623385,
267,_2,M,90,R,N,267_2M090RN,HRN,0,74,74,146,,,1.057,346.3028660999844,346.64894079999067,346.6658551999717,346.94870509998873,346.96564569999464,None,down,2.650344700028654,346.96564569999464,None,346.96564569999464,347.9979862999753,0.06152829999336973,None,,,,,,,,,19,001,2019_Dec_25_1459,untitled,3.1.0,60.224891785623385,
399,_4,M,270,R,N,399_4M270RN,HRN,0,75,75,166,,,1.05,349.69978939997964,350.0304175999481,350.04637060000096,350.32868469995447,350.34576899994863,None,down,2.664742599998135,350.34576899994863,None,350.34576899994863,351.37792289996287,0.07364630000665784,None,,,,,,,,,19,001,2019_Dec_25_1459,untitled,3.1.0,60.224891785623385,
_,R,N,180,_,_,_RN180__,N,0,76,76,68,,,0.891,353.09114449995104,353.4261873999494,353.44275930000003,353.7265829999815,353.7428166999598,None,up,1.9831385999568738,353.7428166999598,None,353.7428166999598,354.6084178999881,0.07185519998893142,None,,,,,,,,,19,001,2019_Dec_25_1459,untitled,3.1.0,60.224891785623385,
_,G,N,90,_,_,_GN090__,N,0,77,77,58,,,0.78,355.8166996999644,356.1406350999605,356.1573392999708,356.44115569995483,356.45708749996265,None,up,1.782032499962952,356.45708749996265,None,356.45708749996265,357.2230103999609,0.08077679999405518,None,,,,,,,,,19,001,2019_Dec_25_1459,untitled,3.1.0,60.224891785623385,
_,F,N,0,_,_,_FN000__,N,0,78,78,48,,,1.339,358.31031649996294,358.655069099972,358.67213719995925,358.9550128999981,358.97154589998536,None,up,2.3170633999980055,358.97154589998536,None,358.97154589998536,360.2873804999981,0.0637671000440605,None,,,,,,,,,19,001,2019_Dec_25_1459,untitled,3.1.0,60.224891785623385,
260,_2,N,135,R,N,260_2N135RN,HRN,0,79,79,243,,,1.139,361.37336549995234,361.70220719999634,361.71946469997056,362.0028669000021,362.018867799954,None,down,2.881709899986163,362.018867799954,None,362.018867799954,363.15063469996676,0.07542080001439899,None,,,,,,,,,19,001,2019_Dec_25_1459,untitled,3.1.0,60.224891785623385,
_,_2,M,270,_,_,__2M270__,N,0,80,80,30,,,1.3840000000000001,364.9820370999514,365.3159185999539,365.33339869999327,365.61586369998986,365.6324919000035,None,down,2.8481044999789447,365.6324919000035,None,365.6324919000035,366.9976204999839,0.07242639997275546,None,,,,,,,,,19,001,2019_Dec_25_1459,untitled,3.1.0,60.224891785623385,
_,R,N,45,_,_,_RN045__,N,0,81,81,65,,,0.705,368.54740729997866,368.8965963999508,368.9129322999506,369.1959062999813,369.2124946999829,None,up,1.5658093999954872,369.2124946999829,None,369.2124946999829,369.8955513999681,0.05996910005342215,None,,,,,,,,,19,001,2019_Dec_25_1459,untitled,3.1.0,60.224891785623385,
264,_2,N,315,R,N,264_2N315RN,HRN,0,82,82,247,,,1.289,370.8561561999959,371.1954819999519,371.2109453000012,371.4939844000037,371.5106278999592,None,up,2.367038699972909,371.5106278999592,None,371.5106278999592,372.77634849998867,0.07051930000307038,None,,,,,,,,,19,001,2019_Dec_25_1459,untitled,3.1.0,60.224891785623385,
163,F,N,90,L,N,163FN090LN,HLN,0,83,83,218,,,0.9440000000000001,373.9608612000011,374.2926765999873,374.30865879997145,374.5923533999594,374.6089953999617,None,up,2.46408419997897,374.6089953999617,None,374.6089953999617,375.54054049996193,0.07174959999974817,None,,,,,,,,,19,001,2019_Dec_25_1459,untitled,3.1.0,60.224891785623385,
130,F,N,45,R,N,130FN045RN,HRN,0,84,84,209,,,1.223,377.1529788999469,377.4888697999995,377.50510629999917,377.78895239997655,377.80478309997125,None,up,1.9825315000489354,377.80478309997125,None,377.80478309997125,379.004094599979,0.07110419997479767,None,,,,,,,,,19,001,2019_Dec_25_1459,untitled,3.1.0,60.224891785623385,
035,R,N,90,L,N,035RN090LN,HLN,0,85,85,202,,,1.305,379.85687529999996,380.2039746999508,380.2206844999455,380.5026572999777,380.51929279998876,None,up,1.984726700000465,380.51929279998876,None,380.51929279998876,381.80162349995226,0.06278919999022037,None,,,,,,,,,19,001,2019_Dec_25_1459,untitled,3.1.0,60.224891785623385,
_,_2,M,225,_,_,__2M225__,N,0,86,86,29,,,0.74,382.5733724999591,382.91800119995605,382.9345998999779,383.2171642999747,383.234416399966,None,down,2.082577000022866,383.234416399966,None,383.234416399966,383.9663639999926,0.06045510002877563,None,,,,,,,,,19,001,2019_Dec_25_1459,untitled,3.1.0,60.224891785623385,
238,G,M,225,L,N,238GM225LN,HLN,0,87,87,141,,,1.177,385.4033020999632,385.7316427999758,385.7482853999827,386.0314186999458,386.04784849996213,None,down,2.198701999965124,386.04784849996213,None,386.04784849996213,387.21350109996274,0.07755009998800233,None,,,,,,,,,19,001,2019_Dec_25_1459,untitled,3.1.0,60.224891785623385,
_,R,M,180,_,_,_RM180__,N,0,88,88,20,,,0.78,388.31278159999056,388.662847999949,388.67925970000215,388.962187099969,388.9786203999538,None,up,1.6186567999538966,388.9786203999538,None,388.9786203999538,389.7446865999955,0.05908600002294406,None,,,,,,,,,19,001,2019_Dec_25_1459,untitled,3.1.0,60.224891785623385,
298,_2,M,45,L,N,298_2M045LN,HLN,0,89,89,153,,,0.844,390.68011609994574,391.0102022999781,391.02717699995264,391.310300299956,391.3269558000029,None,down,2.6483123999787495,391.3269558000029,None,391.3269558000029,392.1593280999805,0.07276239997008815,None,,,,,,,,,19,001,2019_Dec_25_1459,untitled,3.1.0,60.224891785623385,
_,_5,N,270,_,_,__5N270__,N,0,90,90,94,,,0.903,394.06374459998915,394.39100029994734,394.4076872000005,394.6905337999924,394.70729759999085,None,up,1.848103899974376,394.70729759999085,None,394.70729759999085,395.5899210999487,0.07994530000723898,None,,,,,,,,,19,001,2019_Dec_25_1459,untitled,3.1.0,60.224891785623385,
_,_2,M,135,_,_,__2M135__,N,0,91,91,27,,,1.032,396.6376022999757,396.97239579999587,396.98896339995554,397.27177269995445,397.2887322999886,None,down,2.8483689000131562,397.2887322999886,None,397.2887322999886,398.3038403999526,0.07430500001646578,None,,,,,,,,,19,001,2019_Dec_25_1459,untitled,3.1.0,60.224891785623385,
490,_5,M,45,L,N,490_5M045LN,HLN,0,92,92,185,,,1.129,400.2048244999605,400.5522505999543,400.5691843999666,400.8516139999847,400.86864429997513,None,down,2.6146314999787137,400.86864429997513,None,400.86864429997513,401.984485199966,0.06050610000966117,None,,,,,,,,,19,001,2019_Dec_25_1459,untitled,3.1.0,60.224891785623385,
_,R,N,225,_,_,_RN225__,N,0,93,93,69,,,0.7000000000000001,403.55663429998094,403.89889630000107,403.9159948999877,404.1989923999645,404.2156959999702,None,up,1.5327639000024647,404.2156959999702,None,404.2156959999702,404.89825829997426,0.06569620000664145,None,,,,,,,,,19,001,2019_Dec_25_1459,untitled,3.1.0,60.224891785623385,
395,_4,M,90,R,N,395_4M090RN,HRN,0,94,94,162,,,0.794,405.84518189996015,406.1639424999594,406.18083529995056,406.4640289999661,406.4801160999923,None,down,3.384681100025773,406.4801160999923,None,406.4801160999923,407.2626953999861,0.08459199999924749,None,,,,,,,,,19,001,2019_Dec_25_1459,untitled,3.1.0,60.224891785623385,
_,G,M,0,_,_,_GM000__,N,0,95,95,8,,,1.245,409.97439339995617,410.2782699999516,410.29335849999916,410.57684549997794,410.5933096999652,None,down,2.8824222999974154,410.5933096999652,None,410.5933096999652,411.8253962000017,0.09764399996493012,None,,,,,,,,,19,001,2019_Dec_25_1459,untitled,3.1.0,60.224891785623385,
_,_2,N,270,_,_,__2N270__,N,0,96,96,78,,,0.752,413.5652700999635,413.8899388999562,413.9071691999561,414.190292699961,414.20733359997394,None,up,1.734091000049375,414.20733359997394,None,414.20733359997394,414.9396823999705,0.07897739997133613,None,,,,,,,,,19,001,2019_Dec_25_1459,untitled,3.1.0,60.224891785623385,
455,_5,N,270,R,N,455_5N270RN,HRN,0,97,97,278,,,0.974,416.03700579999713,416.3549253999954,416.37212459999137,416.6553997999872,416.67198149999604,None,up,2.5140037999954075,416.67198149999604,None,416.67198149999604,417.63768189999973,0.08618849999038503,None,,,,,,,,,19,001,2019_Dec_25_1459,untitled,3.1.0,60.224891785623385,
483,_5,N,90,L,N,483_5N090LN,HLN,0,98,98,282,,,1.2690000000000001,419.26364509999985,419.60214979999,419.6189773999504,419.9026676999638,419.9187391999876,None,up,2.400141699996311,419.9187391999876,None,419.9187391999876,421.1671309999656,0.06718640000326559,None,,,,,,,,,19,001,2019_Dec_25_1459,untitled,3.1.0,60.224891785623385,
_,F,N,225,_,_,_FN225__,N,0,99,99,53,,,1.0190000000000001,422.3996699999552,422.7327516999794,422.7499548999476,423.0324110999936,423.04921349999495,None,up,1.8495457000099123,423.04921349999495,None,423.04921349999495,424.04815759998746,0.07210089999716729,None,,,,,,,,,19,001,2019_Dec_25_1459,untitled,3.1.0,60.224891785623385,
197,G,N,180,R,N,197GN180RN,HRN,0,100,100,228,,,0.759,424.97951989999274,425.31467209995026,425.33090249996167,425.61405989999184,425.6308919999865,None,up,1.764650899975095,425.6308919999865,None,425.6308919999865,426.3796031999518,0.07156950002536178,None,,,,,,,,,19,001,2019_Dec_25_1459,untitled,3.1.0,60.224891785623385,
_,_4,M,180,_,_,__4M180__,N,0,101,101,36,,,0.971,427.46259039995493,427.8114526999998,427.82848709996324,428.11162909999257,428.12804919999326,None,None,,428.12804919999326,None,428.12804919999326,429.07712099998025,0.058732899953611195,None,,,,,,,,,19,001,2019_Dec_25_1459,untitled,3.1.0,60.224891785623385,
390,_4,N,225,R,N,390_4N225RN,HRN,0,102,102,261,,,0.8240000000000001,431.6657757999492,432.00822869996773,432.0246997999493,432.3078123999876,432.3242830999661,431.6657757999492,up,1.649564300023485,432.3242830999661,None,432.3242830999661,433.12369999999646,0.06744039995828643,None,,,,,,,,,19,001,2019_Dec_25_1459,untitled,3.1.0,60.224891785623385,
_,R,N,135,_,_,_RN135__,N,0,103,103,67,,,1.07,434.04712869995274,434.38956359995063,434.40630629996303,434.6893022999866,434.7060915999464,None,up,1.648533099971246,434.7060915999464,None,434.7060915999464,435.754979499965,0.06618259998504072,None,,,,,,,,,19,001,2019_Dec_25_1459,untitled,3.1.0,60.224891785623385,
_,_5,N,315,_,_,__5N315__,N,0,104,104,95,,,1.287,436.42661579995183,436.7705014999956,436.78832910000347,437.0713072999497,437.0870580999763,None,up,2.5310324000311084,437.0870580999763,None,437.0870580999763,438.3521562999813,0.06513310002628714,None,,,,,,,,,19,001,2019_Dec_25_1459,untitled,3.1.0,60.224891785623385,
296,_2,N,315,L,N,296_2N315LN,HLN,0,105,105,255,,,1.1,439.6854903999483,440.03480219998164,440.0510556999943,440.33486419997644,440.3504095999524,None,down,2.215719999978319,440.3504095999524,None,440.3504095999524,441.4326257999637,0.06052090000594035,None,,,,,,,,,19,001,2019_Dec_25_1459,untitled,3.1.0,60.224891785623385,
195,G,N,90,R,N,195GN090RN,HRN,0,106,106,226,,,1.397,442.65304439998,442.9820270999917,442.9983207999612,443.28175460000057,443.2984360999544,None,up,2.566007500048727,443.2984360999544,None,443.2984360999544,444.6807438999531,0.07877960003679618,None,,,,,,,,,19,001,2019_Dec_25_1459,untitled,3.1.0,60.224891785623385,
004,R,N,135,R,N,004RN135RN,HRN,0,107,107,195,,,1.131,445.94314659998054,446.2811446999549,446.29769989999477,446.5785867999657,446.5955511999782,None,up,2.1333420000155456,446.5955511999782,None,446.5955511999782,447.7106755999848,0.07082990003982559,None,,,,,,,,,19,001,2019_Dec_25_1459,untitled,3.1.0,60.224891785623385,
289,_2,N,0,L,N,289_2N000LN,HLN,0,108,108,248,,,1.0210000000000001,448.7949497999507,449.1434240999515,449.15986529999645,449.4437901999918,449.4596934999572,None,up,1.8151200999855064,449.4596934999572,None,449.4596934999572,450.45959899999434,0.0588502999744378,None,,,,,,,,,19,001,2019_Dec_25_1459,untitled,3.1.0,60.224891785623385,
461,_5,M,180,R,N,461_5M180RN,HRN,0,109,109,180,,,0.781,451.360616299964,451.691071499954,451.7077931999811,451.990900099976,452.00777669996023,None,down,1.7330013999599032,452.00777669996023,None,452.00777669996023,452.77310489997035,0.07828409998910502,None,,,,,,,,,19,001,2019_Dec_25_1459,untitled,3.1.0,60.224891785623385,
135,F,N,270,R,N,135FN270RN,HRN,0,110,110,214,,,1.181,453.8098120999639,454.15542869997444,454.1722006999771,454.4548977999948,454.4717936999514,None,up,1.9674641999881715,454.4717936999514,None,454.4717936999514,455.6374586999882,0.061493200017139316,None,,,,,,,,,19,001,2019_Dec_25_1459,untitled,3.1.0,60.224891785623385,
233,G,M,0,L,N,233GM000LN,HLN,0,111,111,136,,,1.139,456.5117303999723,456.85287750000134,456.86960779997753,457.1527772999834,457.1691385000013,None,down,2.74812349997228,457.1691385000013,None,457.1691385000013,458.2851085999864,0.06551579997176304,None,,,,,,,,,19,001,2019_Dec_25_1459,untitled,3.1.0,60.224891785623385,
263,_2,N,270,R,N,263_2N270RN,HRN,0,112,112,246,,,1.324,459.98990619997494,460.33337859995663,460.35025989997666,460.63593619997846,460.6508503999794,None,up,2.2147938999696635,460.6508503999794,None,460.6508503999794,461.9484443999827,0.06578419997822493,None,,,,,,,,,19,001,2019_Dec_25_1459,untitled,3.1.0,60.224891785623385,
234,G,M,45,L,N,234GM045LN,HLN,0,113,113,137,,,1.3880000000000001,462.93552729999647,463.28095230000326,463.29717709997203,463.5804267999483,463.59765349997906,None,down,2.282818299951032,463.59765349997906,None,463.59765349997906,464.96393289999105,0.06276170001365244,None,,,,,,,,,19,001,2019_Dec_25_1459,untitled,3.1.0,60.224891785623385,
485,_5,N,180,L,N,485_5N180LN,HLN,0,114,114,284,,,1.159,465.9592803999549,466.29504899994936,466.3113494999707,466.5953842999879,466.6111681999755,None,up,2.082180600031279,466.6111681999755,None,466.6111681999755,467.7600824999972,0.07009019999532029,None,,,,,,,,,19,001,2019_Dec_25_1459,untitled,3.1.0,60.224891785623385,
044,R,M,135,L,N,044RM135LN,HLN,0,115,115,107,,,0.923,468.77311469998676,469.1091912999982,469.12598849995993,469.40999909996754,469.425692699966,None,up,2.016667400021106,469.425692699966,None,469.425692699966,470.32463099999586,0.07125879998784512,None,,,,,,,,,19,001,2019_Dec_25_1459,untitled,3.1.0,60.224891785623385,
137,F,M,0,R,N,137FM000RN,HRN,0,116,116,112,,,1.245,471.51564859994687,471.85678499995265,471.8734344999539,472.1563405999914,472.1733626999776,None,up,2.3328236000379547,472.1733626999776,None,472.1733626999776,473.40522059996147,0.06632680003531277,None,,,,,,,,,19,001,2019_Dec_25_1459,untitled,3.1.0,60.224891785623385,
_,_2,N,90,_,_,__2N090__,N,0,117,117,74,,,1.04,474.5730220999685,474.9212068999768,474.9375922999461,475.22083209996345,475.23735670000315,None,up,1.9317673000041395,475.23735670000315,None,475.23735670000315,476.2525509999832,0.05947019997984171,None,,,,,,,,,19,001,2019_Dec_25_1459,untitled,3.1.0,60.224891785623385,
460,_5,M,135,R,N,460_5M135RN,HRN,0,118,118,179,,,1.22,477.236932299973,477.58535909996135,477.60250699997414,477.88435799995204,477.90119689999847,None,down,3.2149169000331312,477.90119689999847,None,477.90119689999847,479.09981779998634,0.06033070001285523,None,,,,,,,,,19,001,2019_Dec_25_1459,untitled,3.1.0,60.224891785623385,
228,G,N,135,L,N,228GN135LN,HLN,0,119,119,235,,,1.288,481.1886791999568,481.53193029999966,481.5484899999574,481.83146219997434,481.8480548999505,None,up,2.0486611999804154,481.8480548999505,None,481.8480548999505,483.11444019997725,0.06445879995590076,None,,,,,,,,,19,001,2019_Dec_25_1459,untitled,3.1.0,60.224891785623385,
_,_4,N,0,_,_,__4N000__,N,0,120,120,80,,,1.1480000000000001,483.96736489998875,484.31240229995456,484.3300330999773,484.6126897999784,484.6287025999627,None,up,2.0334714999771677,484.6287025999627,None,484.6287025999627,485.760699299979,0.06289709999691695,None,,,,,,,,,19,001,2019_Dec_25_1459,untitled,3.1.0,60.224891785623385,
_,G,N,315,_,_,_GN315__,N,0,121,121,63,,,0.855,486.73728739999933,487.0771731999703,487.09375939995516,487.376299800002,487.39294229994994,None,up,1.6655971999862231,487.39294229994994,None,487.39294229994994,488.2257586999913,0.06799140002112836,None,,,,,,,,,19,001,2019_Dec_25_1459,untitled,3.1.0,60.224891785623385,
_,_2,M,315,_,_,__2M315__,N,0,122,122,31,,,0.8150000000000001,489.1247117999592,489.47499469999457,489.49370739998994,489.77513669995824,489.7916364999837,None,down,1.8991946000023745,489.7916364999837,None,489.7916364999837,490.5898864999763,0.05906100000720471,None,,,,,,,,,19,001,2019_Dec_25_1459,untitled,3.1.0,60.224891785623385,
449,_5,N,0,R,N,449_5N000RN,HRN,0,123,123,272,,,0.925,491.77284130000044,492.1054710999597,492.1220364999608,492.406276899972,492.42273949994706,None,up,1.799677699978929,492.42273949994706,None,492.42273949994706,493.3377436999581,0.07418029999826103,None,,,,,,,,,19,001,2019_Dec_25_1459,untitled,3.1.0,60.224891785623385,
425,_4,M,0,L,N,425_4M000LN,HLN,0,124,124,168,,,1.164,494.29830869997386,494.6373743999866,494.65330379997613,494.93655629997374,494.9531337999506,None,up,1.966090100002475,494.9531337999506,None,494.9531337999506,496.1023360999534,0.06799579999642447,None,,,,,,,,,19,001,2019_Dec_25_1459,untitled,3.1.0,60.224891785623385,
_,_5,M,225,_,_,__5M225__,N,0,125,125,45,,,1.122,497.0126793999807,497.33478629996534,497.3509120999952,497.63424519996624,497.6507311000023,None,down,2.7819399000145495,497.6507311000023,None,497.6507311000023,498.7501182999695,0.08166650001658127,None,,,,,,,,,19,001,2019_Dec_25_1459,untitled,3.1.0,60.224891785623385,
036,R,N,135,L,N,036RN135LN,HLN,0,126,126,203,,,0.909,500.50120040000184,500.84810029994696,500.86486629996216,501.1476028999896,501.16415009996854,None,up,1.7491855999687687,501.16415009996854,None,501.16415009996854,502.046949999989,0.061515300010796636,None,,,,,,,,,19,001,2019_Dec_25_1459,untitled,3.1.0,60.224891785623385,
261,_2,N,180,R,N,261_2N180RN,HRN,0,127,127,244,,,1.3780000000000001,502.9956605999614,503.329086999991,503.3467332999571,503.6292133999523,503.6454928999883,None,up,2.3657795999897644,503.6454928999883,None,503.6454928999883,505.01067339995643,0.0749364000512287,None,,,,,,,,,19,001,2019_Dec_25_1459,untitled,3.1.0,60.224891785623385,
_,_5,M,315,_,_,__5M315__,N,0,128,128,47,,,1.369,506.09309629997006,506.42643489997135,506.44336979999207,506.72616239998024,506.74284039996564,None,down,2.467443000001367,506.74284039996564,None,506.74284039996564,508.09159849997377,0.07131739996839315,None,,,,,,,,,19,001,2019_Dec_25_1459,untitled,3.1.0,60.224891785623385,
_,_4,M,135,_,_,__4M135__,N,0,129,129,35,,,1.122,509.29591970000183,509.62385859998176,509.6408885999699,509.92351309995865,509.94051609997405,None,up,2.9992789000389166,509.94051609997405,None,509.94051609997405,511.05602729995735,0.07693769998149946,None,,,,,,,,,19,001,2019_Dec_25_1459,untitled,3.1.0,60.224891785623385,
424,_4,N,315,L,N,424_4N315LN,HLN,0,130,130,271,,,1.249,513.0104982999619,513.3539960999624,513.3706722999923,513.653868799971,513.6707731999923,None,up,3.3986830999492668,513.6707731999923,None,513.6707731999923,514.9032969999826,0.06268450000789016,None,,,,,,,,,19,001,2019_Dec_25_1459,untitled,3.1.0,60.224891785623385,
_,F,M,135,_,_,_FM135__,N,0,131,131,3,,,0.75,517.1411495999782,517.4834147999645,517.5004451999557,517.7830851999461,517.7996988999657,None,up,2.448801100021228,517.7996988999657,None,517.7996988999657,518.532570099982,0.06428250001044944,None,,,,,,,,,19,001,2019_Dec_25_1459,untitled,3.1.0,60.224891785623385,
430,_4,M,225,L,N,430_4M225LN,HLN,0,132,132,173,,,1.155,520.3276050999993,520.6642149999971,520.6813002999988,520.9641622999916,520.9807650999865,None,up,2.7810837000142783,520.9807650999865,None,520.9807650999865,522.1129371999996,0.07115500001236796,None,,,,,,,,,19,001,2019_Dec_25_1459,untitled,3.1.0,60.224891785623385,
270,_2,M,225,R,N,270_2M225RN,HRN,0,133,133,149,,,0.745,523.8360530999489,524.1781551999738,524.1953993999632,524.4777077999897,524.4957800999982,None,down,2.0811697999597527,524.4957800999982,None,524.4957800999982,525.227726699959,0.06681980000576004,None,,,,,,,,,19,001,2019_Dec_25_1459,untitled,3.1.0,60.224891785623385,
481,_5,N,0,L,N,481_5N000LN,HLN,0,134,134,280,,,1.218,526.6771241999813,526.9922630999936,527.0084380999906,527.2944069999503,527.3097263999516,None,up,2.1343393999850377,527.3097263999516,None,527.3097263999516,528.507339099946,0.08813869999721646,None,,,,,,,,,19,001,2019_Dec_25_1459,untitled,3.1.0,60.224891785623385,
495,_5,M,270,L,N,495_5M270LN,HLN,0,135,135,190,,,1.346,529.530091899971,529.8558752999525,529.8728775999625,530.1559659999912,530.1724818999646,None,down,2.2321989000192843,530.1724818999646,None,530.1724818999646,531.5042783999816,0.07539259997429326,None,,,,,,,,,19,001,2019_Dec_25_1459,untitled,3.1.0,60.224891785623385,
_,R,M,45,_,_,_RM045__,N,0,136,136,17,,,1.154,532.4821706999792,532.8203131999471,532.8365877999458,533.1198264999548,533.1366995999706,None,down,2.4157719999784604,533.1366995999706,None,533.1366995999706,534.2691106999991,0.06990049994783476,None,,,,,,,,,19,001,2019_Dec_25_1459,untitled,3.1.0,60.224891785623385,
196,G,N,135,R,N,196GN135RN,HRN,0,137,137,227,,,1.364,535.6380648999475,535.9676604999695,535.9843535999535,536.2672677999944,536.2836151999654,None,up,2.2841501000220887,536.2836151999654,None,536.2836151999654,537.6333981999778,0.07699929998489097,None,,,,,,,,,19,001,2019_Dec_25_1459,untitled,3.1.0,60.224891785623385,
165,F,N,180,L,N,165FN180LN,HLN,0,138,138,220,,,0.9570000000000001,538.6544715999626,538.9818429999868,538.9984724999522,539.2818929999485,539.298134599987,None,up,2.5669708999921568,539.298134599987,None,539.298134599987,540.2468802999938,0.0773676999961026,None,,,,,,,,,19,001,2019_Dec_25_1459,untitled,3.1.0,60.224891785623385,
259,_2,N,90,R,N,259_2N090RN,HRN,0,139,139,242,,,0.873,541.9590495000011,542.278679799987,542.2956166999647,542.5791791999945,542.595586899959,None,up,1.715373900020495,542.595586899959,None,542.595586899959,543.4612670999486,0.08429359999718145,None,,,,,,,,,19,001,2019_Dec_25_1459,untitled,3.1.0,60.224891785623385,
_,G,N,0,_,_,_GN000__,N,0,140,140,56,,,0.745,544.3988255999866,544.7259602999547,544.7434201999567,545.0260901000001,545.0429043999757,None,up,1.5165167999803089,545.0429043999757,None,545.0429043999757,545.7756793999579,0.07769990002270788,None,,,,,,,,,19,001,2019_Dec_25_1459,untitled,3.1.0,60.224891785623385,
237,G,M,180,L,N,237GM180LN,HLN,0,141,141,140,,,0.9570000000000001,546.6314614999574,546.9750834999722,546.9923501999583,547.2741332000005,547.2911131999572,None,down,1.982482799969148,547.2911131999572,None,547.2911131999572,548.2233238999615,0.06264929997269064,None,,,,,,,,,19,001,2019_Dec_25_1459,untitled,3.1.0,60.224891785623385,
431,_4,M,270,L,N,431_4M270LN,HLN,0,142,142,174,,,1.09,549.3398544999654,549.6891445999499,549.7057300999877,549.9885227999766,550.0056900999625,None,up,2.3480272000306286,550.0056900999625,None,550.0056900999625,551.0705334999948,0.05843709997134283,None,,,,,,,,,19,001,2019_Dec_25_1459,untitled,3.1.0,60.224891785623385,
_,G,M,135,_,_,_GM135__,N,0,143,143,11,,,1.199,552.4307080999715,552.7704072999768,552.7890580999665,553.0696750999778,553.085847499955,None,up,3.4004876000108197,553.085847499955,None,553.085847499955,554.2680220999755,0.0688050999888219,None,,,,,,,,,19,001,2019_Dec_25_1459,untitled,3.1.0,60.224891785623385,
144,F,M,315,R,N,144FM315RN,HRN,0,144,144,119,,,1.192,556.5770862999489,556.8990868999972,556.9156563999713,557.1990525999572,557.2155967999715,None,down,2.1171853999840096,557.2155967999715,None,557.2155967999715,558.3984304999467,0.08196480001788586,None,,,,,,,,,19,001,2019_Dec_25_1459,untitled,3.1.0,60.224891785623385,
457,_5,M,0,R,N,457_5M000RN,HRN,0,145,145,176,,,1.16,559.4010861999705,559.7468941999832,559.763533899968,560.0468675000011,560.0633805999532,None,down,2.098983899981249,560.0633805999532,None,560.0633805999532,561.2119634999544,0.060992499988060445,None,,,,,,,,,19,001,2019_Dec_25_1459,untitled,3.1.0,60.224891785623385,
391,_4,N,270,R,N,391_4N270RN,HRN,0,146,146,262,,,0.935,562.2481827999582,562.5777384999674,562.5967225999921,562.8778028999805,562.8943616999895,None,up,2.531558800023049,562.8943616999895,None,562.8943616999895,563.8098561999504,0.07728260004660115,None,,,,,,,,,19,001,2019_Dec_25_1459,untitled,3.1.0,60.224891785623385,
_,_4,M,225,_,_,__4M225__,N,0,147,147,37,,,0.8160000000000001,565.4971173999947,565.8416902999743,565.8582739999983,566.1413793999818,566.1580253999564,None,down,2.4485250000143424,566.1580253999564,None,566.1580253999564,566.9568726999569,0.06382310000481084,None,,,,,,,,,19,001,2019_Dec_25_1459,untitled,3.1.0,60.224891785623385,
203,G,M,90,R,N,203GM090RN,HRN,0,148,148,130,,,1.393,568.674263999972,569.022179499967,569.0387320999871,569.3216713999864,569.3387979999534,None,down,2.9975609999964945,569.3387979999534,None,569.3387979999534,570.7205476999516,0.06060540000908077,None,,,,,,,,,19,001,2019_Dec_25_1459,untitled,3.1.0,60.224891785623385,
_,F,M,0,_,_,_FM000__,N,0,149,149,0,,,0.836,572.4189753999817,572.7526436999906,572.7686318999622,573.0517018999672,573.0684900999768,None,down,1.8157840000349097,573.0684900999768,None,573.0684900999768,573.884264399996,0.07320089999120682,None,,,,,,,,,19,001,2019_Dec_25_1459,untitled,3.1.0,60.224891785623385,
268,_2,M,135,R,N,268_2M135RN,HRN,0,150,150,147,,,1.28,574.9679110999568,575.2993086999631,575.3163970999885,575.59968569997,575.6174362999736,None,up,2.466237199958414,575.6174362999736,None,575.6174362999736,576.8823521999875,0.07500330003676936,None,,,,,,,,,19,001,2019_Dec_25_1459,untitled,3.1.0,60.224891785623385,
170,F,M,45,L,N,170FM045LN,HLN,0,151,151,121,,,1.1520000000000001,578.1568429999752,578.4972660999629,578.5140794999897,578.7963368999772,578.8134775999933,None,down,2.599808400031179,578.8134775999933,None,578.8134775999933,579.9463346999837,0.0659262000117451,None,,,,,,,,,19,001,2019_Dec_25_1459,untitled,3.1.0,60.224891785623385,
489,_5,M,0,L,N,489_5M000LN,HLN,0,152,152,184,,,0.898,581.485743199999,581.8276136999484,581.8445728999795,582.127476499998,582.1436649999814,None,down,2.1829111000406556,582.1436649999814,None,582.1436649999814,583.0267329999479,0.06580979999853298,None,,,,,,,,,19,001,2019_Dec_25_1459,untitled,3.1.0,60.224891785623385,
429,_4,M,180,L,N,429_4M180LN,HLN,0,153,153,172,,,0.962,584.3968841999886,584.7414974999847,584.7587566999719,585.0411150999716,585.0586269999621,None,up,2.298094099969603,585.0586269999621,None,585.0586269999621,586.0074154999456,0.06285770004615188,None,,,,,,,,,19,001,2019_Dec_25_1459,untitled,3.1.0,60.224891785623385,
134,F,N,225,R,N,134FN225RN,HRN,0,154,154,213,,,0.91,587.4421551999985,587.7723024999723,587.7883811999927,588.0719926999882,588.0886706999736,None,up,1.9324525999836624,588.0886706999736,None,588.0886706999736,588.9881353999954,0.0761569999740459,None,,,,,,,,,19,001,2019_Dec_25_1459,untitled,3.1.0,60.224891785623385,
206,G,M,225,R,N,206GM225RN,HRN,0,155,155,133,,,1.3860000000000001,590.0961941999849,590.4366417999845,590.4539835999603,590.7369792999816,590.7530883,None,down,3.098398400004953,590.7530883,None,590.7530883,592.1184492000029,0.06740070000523701,None,,,,,,,,,19,001,2019_Dec_25_1459,untitled,3.1.0,60.224891785623385,
_,G,M,270,_,_,_GM270__,N,0,156,156,14,,,1.34,593.9393680999638,594.2664532999624,594.2831081999466,594.5666167999734,594.5828583999537,None,down,2.5333146000048146,594.5828583999537,None,594.5828583999537,595.8994805999682,0.07959849998587742,None,,,,,,,,,19,001,2019_Dec_25_1459,untitled,3.1.0,60.224891785623385,
454,_5,N,225,R,N,454_5N225RN,HRN,0,157,157,277,,,1.2690000000000001,597.2118425999652,597.5304738999694,597.5476148999878,597.8301102999831,597.8477028999478,None,up,2.397702799993567,597.8477028999478,None,597.8477028999478,599.0952772999881,0.08463160000974312,None,,,,,,,,,19,001,2019_Dec_25_1459,untitled,3.1.0,60.224891785623385,
048,R,M,315,L,N,048RM315LN,HLN,0,158,158,111,,,1.308,600.3322741999873,600.6611156999716,600.678111199988,600.9626430999488,600.9781529000029,None,down,2.4658160000108182,600.9781529000029,None,600.9781529000029,602.2760970999952,0.07852560002356768,None,,,,,,,,,19,001,2019_Dec_25_1459,untitled,3.1.0,60.224891785623385,
132,F,N,135,R,N,132FN135RN,HRN,0,159,159,211,,,1.0090000000000001,603.5476792999543,603.8580578999827,603.8752159999567,604.1579483999521,604.1744578999933,None,up,2.216978400014341,604.1744578999933,None,604.1744578999933,605.1738604999846,0.0917273000231944,None,,,,,,,,,19,001,2019_Dec_25_1459,untitled,3.1.0,60.224891785623385,
450,_5,N,45,R,N,450_5N045RN,HRN,0,160,160,273,,,0.985,606.4583120999741,606.8056676999549,606.8227091999725,607.1057052999968,607.1225619000033,None,up,1.8672023000544868,607.1225619000033,None,607.1225619000033,608.0880168000003,0.059479599993210286,None,,,,,,,,,19,001,2019_Dec_25_1459,untitled,3.1.0,60.224891785623385,
398,_4,M,225,R,N,398_4M225RN,HRN,0,161,161,165,,,1.092,609.0814184999908,609.4032418999705,609.4198239999823,609.70297449996,609.7197241999675,None,up,3.431754000019282,609.7197241999675,None,609.7197241999675,610.8020238999743,0.08246290002716705,None,,,,,,,,,19,001,2019_Dec_25_1459,untitled,3.1.0,60.224891785623385,
487,_5,N,270,L,N,487_5N270LN,HLN,0,162,162,286,,,1.219,613.2170129999868,613.5678447999526,613.5838436999475,613.8658241999801,613.8828445999534,None,up,2.0653657999937423,613.8828445999534,None,613.8828445999534,615.0817253999994,0.05834099999628961,None,,,,,,,,,19,001,2019_Dec_25_1459,untitled,3.1.0,60.224891785623385,
131,F,N,90,R,N,131FN090RN,HRN,0,163,163,210,,,1.353,616.0232880999683,616.3644292999525,616.3818284999579,616.6635768999695,616.680526399985,None,up,2.4506496000103652,616.680526399985,None,616.680526399985,618.0121545000002,0.06805840000743046,None,,,,,,,,,19,001,2019_Dec_25_1459,untitled,3.1.0,60.224891785623385,
235,G,M,90,L,N,235GM090LN,HLN,0,164,164,138,,,1.301,619.2190509999637,619.544504999998,619.5615609999513,619.8447205999983,619.8608983999584,None,up,2.2150977999554016,619.8608983999584,None,619.8608983999584,621.1431088999962,0.0788878999883309,None,,,,,,,,,19,001,2019_Dec_25_1459,untitled,3.1.0,60.224891785623385,
_,G,M,180,_,_,_GM180__,N,0,165,165,12,,,1.101,622.1562135999557,622.4933361999574,622.5086634999607,622.7919609999517,622.8086038999609,None,up,2.3669074999634176,622.8086038999609,None,622.8086038999609,623.8903309999732,0.07223230000818148,None,,,,,,,,,19,001,2019_Dec_25_1459,untitled,3.1.0,60.224891785623385,
_,_5,N,0,_,_,__5N000__,N,0,166,166,88,,,0.874,625.2426303999964,625.5893056999776,625.605832399975,625.8885365999886,625.9057209999883,None,up,1.7157886000350118,625.9057209999883,None,625.9057209999883,626.7719059999799,0.060178799962159246,None,,,,,,,,,19,001,2019_Dec_25_1459,untitled,3.1.0,60.224891785623385,
294,_2,N,225,L,N,294_2N225LN,HLN,0,167,167,253,,,1.083,627.7086985999485,628.0371672999463,628.0539782999549,628.3364860999864,628.3530587999849,None,up,2.2660546000115573,628.3530587999849,None,628.3530587999849,629.4190652999678,0.07810799998696893,None,,,,,,,,,19,001,2019_Dec_25_1459,untitled,3.1.0,60.224891785623385,
_,F,N,180,_,_,_FN180__,N,0,168,168,52,,,1.22,630.6884592999704,631.0345717999735,631.0512939999462,631.3343429999659,631.3505559999612,None,up,2.3867748999618925,631.3505559999612,None,631.3505559999612,632.5498024999979,0.061805800010915846,None,,,,,,,,,19,001,2019_Dec_25_1459,untitled,3.1.0,60.224891785623385,
139,F,M,90,R,N,139FM090RN,HRN,0,169,169,114,,,0.98,633.8393649999634,634.1496332999668,634.1656491999747,634.4479918999714,634.4643918999936,None,down,2.419619699998293,634.4643918999936,None,634.4643918999936,635.4309604999726,0.09116020001238212,None,,,,,,,,,19,001,2019_Dec_25_1459,untitled,3.1.0,60.224891785623385,
193,G,N,0,R,N,193GN000RN,HRN,0,170,170,224,,,1.012,636.9738198999548,637.2963329999475,637.3124918999965,637.5957159999525,637.6123006999842,None,up,1.7680625999928452,637.6123006999842,None,637.6123006999842,638.6113315999974,0.07975149998674169,None,,,,,,,,,19,001,2019_Dec_25_1459,untitled,3.1.0,60.224891785623385,
199,G,N,270,R,N,199GN270RN,HRN,0,171,171,230,,,1.246,639.4525897999993,639.7932363,639.810075699992,640.093314400001,640.1098113999469,None,up,2.2006029000040144,640.1098113999469,None,640.1098113999469,641.3431114999694,0.06511040002806112,None,,,,,,,,,19,001,2019_Dec_25_1459,untitled,3.1.0,60.224891785623385,
_,_5,M,270,_,_,__5M270__,N,0,172,172,46,,,1.349,642.4027150999755,642.7244159999536,642.7414240999497,643.0252013999852,643.040374299977,None,down,2.367892900016159,643.040374299977,None,643.040374299977,644.3738182999659,0.0806581000215374,None,,,,,,,,,19,001,2019_Dec_25_1459,untitled,3.1.0,60.224891785623385,
496,_5,M,315,L,N,496_5M315LN,HLN,0,173,173,191,,,0.865,645.497132199991,645.821697599953,645.8387453999603,646.1214372999966,646.1384293999872,None,down,2.014612400031183,646.1384293999872,None,646.1384293999872,646.9876866999548,0.0804700999869965,None,,,,,,,,,19,001,2019_Dec_25_1459,untitled,3.1.0,60.224891785623385,
_,_2,N,225,_,_,__2N225__,N,0,174,174,77,,,0.9590000000000001,648.2236962000025,648.5691051000031,648.5861220999504,648.8699098999496,648.8874283999903,None,up,1.7471051000175066,648.8874283999903,None,648.8874283999903,649.8178155999631,0.06311079999431968,None,,,,,,,,,19,001,2019_Dec_25_1459,untitled,3.1.0,60.224891785623385,
456,_5,N,315,R,N,456_5N315RN,HRN,0,175,175,279,,,1.198,650.7043507999624,651.0515855999547,651.0681099999929,651.3524635999929,651.3676913999952,None,up,2.218745600024704,651.3676913999952,None,651.3676913999952,652.549603099993,0.0623640000121668,None,,,,,,,,,19,001,2019_Dec_25_1459,untitled,3.1.0,60.224891785623385,
007,R,N,270,R,N,007RN270RN,HRN,0,176,176,198,,,1.1,653.6828980999999,653.9974263999611,654.014240199991,654.297528599971,654.3145561999991,None,up,1.8498025000444613,654.3145561999991,None,654.3145561999991,655.3965887999511,0.08562510000774637,None,,,,,,,,,19,001,2019_Dec_25_1459,untitled,3.1.0,60.224891785623385,
015,R,M,270,R,N,015RM270RN,HRN,0,177,177,102,,,0.883,656.2429298999486,656.578907499963,656.5960079999641,656.8789090999635,656.895363699994,None,down,1.6687795000034384,656.895363699994,None,656.895363699994,657.7611300999997,0.06993570004124194,None,,,,,,,,,19,001,2019_Dec_25_1459,untitled,3.1.0,60.224891785623385,
290,_2,N,45,L,N,290_2N045LN,HLN,0,178,178,249,,,0.799,658.6599042000016,658.9770335999783,658.9947619999875,659.277194699971,659.2949966999586,None,up,1.4973220000392757,659.2949966999586,None,659.2949966999586,660.0760863999603,0.08394450001651421,None,,,,,,,,,19,001,2019_Dec_25_1459,untitled,3.1.0,60.224891785623385,
_,R,M,0,_,_,_RM000__,N,0,179,179,16,,,0.848,660.8605219000019,661.2083156000008,661.2253672999796,661.5076624999638,661.5244576999685,None,down,1.8022079999791458,661.5244576999685,None,661.5244576999685,662.3578304999974,0.061430799949448556,None,,,,,,,,,19,001,2019_Dec_25_1459,untitled,3.1.0,60.224891785623385,
484,_5,N,135,L,N,484_5N135LN,HLN,0,180,180,283,,,1.027,663.425492899958,663.7395561999874,663.7565110999858,664.039362099953,664.0560732999584,None,up,3.1144475000328384,664.0560732999584,None,664.0560732999584,665.0722573999665,0.08580060000531375,None,,,,,,,,,19,001,2019_Dec_25_1459,untitled,3.1.0,60.224891785623385,
486,_5,N,225,L,N,486_5N225LN,HLN,0,181,181,285,,,1.316,667.2380310999579,667.5862901999499,667.6026961999596,667.8858646999579,667.902409399976,None,up,2.2484232000424527,667.902409399976,None,667.902409399976,669.2011593999923,0.06010219996096566,None,,,,,,,,,19,001,2019_Dec_25_1459,untitled,3.1.0,60.224891785623385,
_,R,N,315,_,_,_RN315__,N,0,182,182,71,,,1.284,670.2293147000019,670.5664691999555,670.5831655999646,670.8670098999864,670.8840813999996,None,up,2.014618100016378,670.8840813999996,None,670.8840813999996,672.1491440999671,0.07086800003889948,None,,,,,,,,,19,001,2019_Dec_25_1459,untitled,3.1.0,60.224891785623385,
_,G,N,180,_,_,_GN180__,N,0,183,183,60,,,1.366,672.9701618999825,673.314676399983,673.3310751999961,673.6141304999474,673.631060499989,None,None,,673.631060499989,None,673.631060499989,674.9830363999936,0.0631273000035435,None,,,,,,,,,19,001,2019_Dec_25_1459,untitled,3.1.0,60.224891785623385,
301,_2,M,180,L,N,301_2M180LN,HLN,0,184,184,156,,,0.739,677.1900727999746,677.5106547999894,677.5277207999607,677.8099515999784,677.8270891999709,677.1900727999746,up,1.732471199997235,677.8270891999709,None,677.8270891999709,678.5429159999476,0.08562269998947158,None,,,,,,,,,19,001,2019_Dec_25_1459,untitled,3.1.0,60.224891785623385,
272,_2,M,315,R,N,272_2M315RN,HRN,0,185,185,151,,,0.782,679.6286591999815,679.9754440999823,679.9923596999724,680.2769363999832,680.2932062000036,None,down,1.915789999999106,680.2932062000036,None,680.2932062000036,681.0573176000034,0.06170690001454204,None,,,,,,,,,19,001,2019_Dec_25_1459,untitled,3.1.0,60.224891785623385,
162,F,N,45,L,N,162FN045LN,HLN,0,186,186,217,,,0.751,682.2822598999483,682.6230040999944,682.6394384999876,682.9234381999704,682.9393776999786,None,up,1.7328210000414401,682.9393776999786,None,682.9393776999786,683.6720041999943,0.06657439999980852,None,,,,,,,,,19,001,2019_Dec_25_1459,untitled,3.1.0,60.224891785623385,
_,G,M,225,_,_,_GM225__,N,0,187,187,13,,,1.291,684.7503764999565,685.0875372999581,685.1041053999797,685.3874152999488,685.4040222999756,None,down,2.716071799979545,685.4040222999756,None,685.4040222999756,686.6694265999831,0.07006100000580773,None,,,,,,,,,19,001,2019_Dec_25_1459,untitled,3.1.0,60.224891785623385,
009,R,M,0,R,N,009RM000RN,HRN,0,188,188,96,,,1.362,688.2080394999939,688.5343920000014,688.5522532999748,688.8349353999947,688.8509980999515,None,down,2.5989603999769315,688.8509980999515,None,688.8509980999515,690.2233573999838,0.07798469997942448,None,,,,,,,,,19,001,2019_Dec_25_1459,untitled,3.1.0,60.224891785623385,
_,_5,M,0,_,_,__5M000__,N,0,189,189,40,,,0.869,691.5393592999899,691.8652781999554,691.8814610999543,692.1645640999777,692.181295599963,None,down,2.2326692000497133,692.181295599963,None,692.181295599963,693.0306689999998,0.07923989999108016,None,,,,,,,,,19,001,2019_Dec_25_1459,untitled,3.1.0,60.224891785623385,
040,R,N,315,L,N,040RN315LN,HLN,0,190,190,207,,,1.343,694.4883055999526,694.8293182999478,694.846076399961,695.1289013999631,695.145431699988,None,up,2.1148482999997213,695.145431699988,None,695.145431699988,696.4774584999541,0.06623789999866858,None,,,,,,,,,19,001,2019_Dec_25_1459,untitled,3.1.0,60.224891785623385,
042,R,M,45,L,N,042RM045LN,HLN,0,191,191,105,,,1.117,697.3313015999738,697.6767266999814,697.6932600999717,697.9765606999863,697.9928854999598,None,down,2.715409600001294,697.9928854999598,None,697.9928854999598,699.0921275999863,0.06374529999447986,None,,,,,,,,,19,001,2019_Dec_25_1459,untitled,3.1.0,60.224891785623385,
422,_4,N,225,L,N,422_4N225LN,HLN,0,192,192,269,,,1.302,700.7897481999826,701.1233626999892,701.1399777999613,701.4232442999491,701.4401970999897,None,up,3.0661302999942563,701.4401970999897,None,701.4401970999897,702.7224222999648,0.07290920004015788,None,,,,,,,,,19,001,2019_Dec_25_1459,untitled,3.1.0,60.224891785623385,
417,_4,N,0,L,N,417_4N000LN,HLN,0,193,193,264,,,0.9450000000000001,704.5775067999493,704.9202663999749,704.9367734999978,705.220168699976,705.2372916999739,None,None,,705.2372916999739,None,705.2372916999739,706.1690794999595,0.06387830001767725,None,,,,,,,,,19,001,2019_Dec_25_1459,untitled,3.1.0,60.224891785623385,
397,_4,M,180,R,N,397_4M180RN,HRN,0,194,194,164,,,0.988,708.7982461999636,709.116382999986,709.133782799996,709.4167715999647,709.4329034999828,708.7982461999636,up,2.331420300004538,709.4329034999828,None,709.4329034999828,710.3986878999858,0.08628119999775663,None,,,,,,,,,19,001,2019_Dec_25_1459,untitled,3.1.0,60.224891785623385,
194,G,N,45,R,N,194GN045RN,HRN,0,195,195,225,,,0.798,711.8393777000019,712.1803969999892,712.1981127999607,712.4811704999884,712.4976822999888,None,up,1.6484445999958552,712.4976822999888,None,712.4976822999888,713.2795688999468,0.06741669995244592,None,,,,,,,,,19,001,2019_Dec_25_1459,untitled,3.1.0,60.224891785623385,
492,_5,M,135,L,N,492_5M135LN,HLN,0,196,196,187,,,1.369,714.2210652999929,714.5617705999757,714.5787655999884,714.8621930999798,714.8793405999895,None,down,3.2153579000150785,714.8793405999895,None,714.8793405999895,716.227107899962,0.06757329998072237,None,,,,,,,,,19,001,2019_Dec_25_1459,untitled,3.1.0,60.224891785623385,
292,_2,N,135,L,N,292_2N135LN,HLN,0,197,197,251,,,1.236,718.1958874999546,718.5084340999601,718.525530199986,718.8079517000006,718.8248027999653,None,up,2.1506729999673553,718.8248027999653,None,718.8248027999653,720.0402610999881,0.09226220002165064,None,,,,,,,,,19,001,2019_Dec_25_1459,untitled,3.1.0,60.224891785623385,
230,G,N,225,L,N,230GN225LN,HLN,0,198,198,237,,,1.175,721.0452317000018,721.3898141999962,721.406206399959,721.6890802999842,721.7054637999972,None,up,2.0340681999805383,721.7054637999972,None,721.7054637999972,722.8710423999582,0.06253519997699186,None,,,,,,,,,19,001,2019_Dec_25_1459,untitled,3.1.0,60.224891785623385,
141,F,M,180,R,N,141FM180RN,HRN,0,199,199,116,,,1.008,723.8240105999867,724.1533179999678,724.1701729999622,724.453166799969,724.4697133000009,None,up,2.0668224000255577,724.4697133000009,None,724.4697133000009,725.4687778999796,0.07612430001609027,None,,,,,,,,,19,001,2019_Dec_25_1459,untitled,3.1.0,60.224891785623385,
033,R,N,0,L,N,033RN000LN,HLN,0,200,200,200,,,1.1420000000000001,726.6077081999974,726.9513427999918,726.9681413999642,727.2514963999856,727.2676091999747,None,up,2.2669712000060827,727.2676091999747,None,727.2676091999747,728.4002709999913,0.06379590003052726,None,,,,,,,,,19,001,2019_Dec_25_1459,untitled,3.1.0,60.224891785623385,
_,_4,M,0,_,_,__4M000__,N,0,201,201,32,,,0.914,729.6016404999536,729.9484898999799,729.965313499968,730.2484458999825,730.2646083,None,down,2.3990503000095487,730.2646083,None,730.2646083,731.1641762999934,0.06005099997855723,None,,,,,,,,,19,001,2019_Dec_25_1459,untitled,3.1.0,60.224891785623385,
459,_5,M,90,R,N,459_5M090RN,HRN,0,202,202,178,,,1.097,732.7410717000021,733.0790202999488,733.0959618999623,733.3792630999815,733.3957327999524,None,up,2.08228259999305,733.3957327999524,None,733.3957327999524,734.4779313999461,0.06891959998756647,None,,,,,,,,,19,001,2019_Dec_25_1459,untitled,3.1.0,60.224891785623385,
046,R,M,225,L,N,046RM225LN,HLN,0,203,203,109,,,0.769,735.5695662999642,735.8934131999849,735.910225599946,736.1959999999963,736.2111892999965,None,None,,736.2111892999965,None,736.2111892999965,736.9587764999596,0.08309540001209825,None,,,,,,,,,19,001,2019_Dec_25_1459,untitled,3.1.0,60.224891785623385,
034,R,N,45,L,N,034RN045LN,HLN,0,204,204,201,,,1.183,739.7453223999473,740.0897656999878,740.1061101999949,740.389398499974,740.4059883999871,739.7453223999473,up,2.214984399965033,740.4059883999871,None,740.4059883999871,741.5708731999621,0.06439290003618225,None,,,,,,,,,19,001,2019_Dec_25_1459,untitled,3.1.0,60.224891785623385,
176,F,M,315,L,N,176FM315LN,HLN,0,205,205,127,,,0.9530000000000001,742.6906985999667,743.0372272999957,743.0536468999926,743.3370341999689,743.3532236999599,None,down,2.150929299998097,743.3532236999599,None,743.3532236999599,744.285740399966,0.06230350001715124,None,,,,,,,,,19,001,2019_Dec_25_1459,untitled,3.1.0,60.224891785623385,
_,R,M,135,_,_,_RM135__,N,0,206,206,19,,,0.723,745.5752562999842,745.9177999999956,745.934265399992,746.2172782999696,746.2339433999732,None,down,1.5187320999684744,746.2339433999732,None,746.2339433999732,746.932851599995,0.06455690000439063,None,,,,,,,,,19,001,2019_Dec_25_1459,untitled,3.1.0,60.224891785623385,
038,R,N,225,L,N,038RN225LN,HLN,0,207,207,205,,,1.051,747.8321755999932,748.1668035999755,748.1827540999511,748.4658418999752,748.4831495999824,None,up,2.683745699992869,748.4831495999824,None,748.4831495999824,749.5147912999964,0.07104229996912181,None,,,,,,,,,19,001,2019_Dec_25_1459,untitled,3.1.0,60.224891785623385,
_,_2,M,180,_,_,__2M180__,N,0,208,208,28,,,0.89,751.2374850999913,751.5797259999672,751.5966565999552,751.8800040999777,751.896039699961,None,up,2.6829660999937914,751.896039699961,None,751.896039699961,752.7783901999937,0.06363150000106543,None,,,,,,,,,19,001,2019_Dec_25_1459,untitled,3.1.0,60.224891785623385,
_,_4,N,45,_,_,__4N045__,N,0,209,209,81,,,1.375,754.6673792999936,754.9932557999855,755.0098750999896,755.2928939999547,755.3095528999693,None,up,2.333192999998573,755.3095528999693,None,755.3095528999693,756.674805699964,0.07794580003246665,None,,,,,,,,,19,001,2019_Dec_25_1459,untitled,3.1.0,60.224891785623385,
208,G,M,315,R,N,208GM315RN,HRN,0,210,210,135,,,0.843,757.7282210999983,758.0572511999635,758.0739984999527,758.3567660999834,758.3735823999741,None,down,1.8217557999887504,758.3735823999741,None,758.3735823999741,759.2060700999573,0.07667129999026656,None,,,,,,,,,19,001,2019_Dec_25_1459,untitled,3.1.0,60.224891785623385,
_,R,M,225,_,_,_RM225__,N,0,211,211,21,,,0.864,760.2900740999612,760.6045598999481,760.6214190999744,760.9050809000037,760.921537999995,None,down,2.0678507999982685,760.921537999995,None,760.921537999995,761.7704109999468,0.0840623999829404,None,,,,,,,,,19,001,2019_Dec_25_1459,untitled,3.1.0,60.224891785623385,
236,G,M,135,L,N,236GM135LN,HLN,0,212,212,139,,,0.996,763.0576816999819,763.4028003999847,763.4199809999554,763.7031926999916,763.7195426999824,None,down,3.0160206999862567,763.7195426999824,None,763.7195426999824,764.7015916999662,0.06129859999055043,None,,,,,,,,,19,001,2019_Dec_25_1459,untitled,3.1.0,60.224891785623385,
421,_4,N,180,L,N,421_4N180LN,HLN,0,213,213,268,,,0.752,766.807273799961,767.1510253999732,767.1663715999457,767.4495758999838,767.4662674999563,None,up,2.049273999989964,767.4662674999563,None,767.4662674999563,768.1981701999903,0.06422589998692274,None,,,,,,,,,19,001,2019_Dec_25_1459,untitled,3.1.0,60.224891785623385,
295,_2,N,270,L,N,295_2N270LN,HLN,0,214,214,254,,,0.993,769.5954557999503,769.9313620999455,769.9469480999978,770.2307960999897,770.2467207000009,None,up,2.0836995000136085,770.2467207000009,None,770.2467207000009,771.2297307999688,0.07282390003092587,None,,,,,,,,,19,001,2019_Dec_25_1459,untitled,3.1.0,60.224891785623385,
418,_4,N,45,L,N,418_4N045LN,HLN,0,215,215,265,,,1.114,772.4185585999512,772.7446416000021,772.761283699947,773.0436528999708,773.0606317999773,None,up,1.9676046000095084,773.0606317999773,None,773.0606317999773,774.1604177999543,0.07970050000585616,None,,,,,,,,,19,001,2019_Dec_25_1459,untitled,3.1.0,60.224891785623385,
_,R,M,315,_,_,_RM315__,N,0,216,216,23,,,0.723,775.1073256999953,775.4429261999903,775.4587266999879,775.7421830999665,775.7581617999822,None,down,1.6497824999969453,775.7581617999822,None,775.7581617999822,776.4750141999684,0.07025050005177036,None,,,,,,,,,19,001,2019_Dec_25_1459,untitled,3.1.0,60.224891785623385,
_,G,M,45,_,_,_GM045__,N,0,217,217,9,,,0.778,777.4875854999991,777.8238493999816,777.8399366999511,778.1230862999801,778.1396901999833,None,down,2.48210740002105,778.1396901999833,None,778.1396901999833,778.9056047999766,0.07163530000252649,None,,,,,,,,,19,001,2019_Dec_25_1459,untitled,3.1.0,60.224891785623385,
458,_5,M,45,R,N,458_5M045RN,HRN,0,218,218,177,,,0.8200000000000001,780.7095870999619,781.0374365999596,781.0544116999954,781.3373974999995,781.3538257000037,None,down,2.3658749999594875,781.3538257000037,None,781.3538257000037,782.1527808999526,0.07760170003166422,None,,,,,,,,,19,001,2019_Dec_25_1459,untitled,3.1.0,60.224891785623385,
271,_2,M,270,R,N,271_2M270RN,HRN,0,219,219,150,,,1.002,783.7922785999835,784.1355146999704,784.1510487999767,784.4344334999914,784.450832100003,None,down,2.2486951000173576,784.450832100003,None,784.450832100003,785.4333055999596,0.06583410000894219,None,,,,,,,,,19,001,2019_Dec_25_1459,untitled,3.1.0,60.224891785623385,
231,G,N,270,L,N,231GN270LN,HLN,0,220,220,238,,,1.203,786.777773699956,787.1152591999853,787.1317942999885,787.4151565999491,787.4316858999664,None,up,2.1835744999698363,787.4316858999664,None,787.4316858999664,788.6140541999484,0.07011760002933443,None,,,,,,,,,19,001,2019_Dec_25_1459,untitled,3.1.0,60.224891785623385,
388,_4,N,135,R,N,388_4N135RN,HRN,0,221,221,259,,,1.0170000000000001,789.6835194999585,790.029041999951,790.0457155999611,790.3289127000025,790.3455986999907,None,up,2.181929299957119,790.3455986999907,None,790.3455986999907,791.344840899983,0.06106989999534562,None,,,,,,,,,19,001,2019_Dec_25_1459,untitled,3.1.0,60.224891785623385,
392,_4,N,315,R,N,392_4N315RN,HRN,0,222,222,263,,,1.357,792.6113855000003,792.9436443999875,792.960504299961,793.2434109000023,793.2600739999907,None,up,2.133483999990858,793.2600739999907,None,793.2600739999907,794.5920573999756,0.07600790000287816,None,,,,,,,,,19,001,2019_Dec_25_1459,untitled,3.1.0,60.224891785623385,
037,R,N,180,L,N,037RN180LN,HLN,0,223,223,204,,,0.909,795.4591185000027,795.8082018999849,795.8248797999695,796.1078752999892,796.1236708999495,None,up,1.801392699999269,796.1236708999495,None,796.1236708999495,797.0242211999721,0.05761780001921579,None,,,,,,,,,19,001,2019_Dec_25_1459,untitled,3.1.0,60.224891785623385,
482,_5,N,45,L,N,482_5N045LN,HLN,0,224,224,281,,,1.029,797.9931281000027,798.33947789995,798.355317199952,798.6391146999667,798.6561308999662,None,up,1.7835074000176974,798.6561308999662,None,798.6561308999662,799.6712884999579,0.06109869998181239,None,,,,,,,,,19,001,2019_Dec_25_1459,untitled,3.1.0,60.224891785623385,
_,_2,N,0,_,_,__2N000__,N,0,225,225,72,,,1.174,800.5058155999868,800.8531724999775,800.8697863999987,801.1529707000009,801.1694780999678,None,up,1.9819647000404075,801.1694780999678,None,801.1694780999678,802.3350609999616,0.05941799998981878,None,,,,,,,,,19,001,2019_Dec_25_1459,untitled,3.1.0,60.224891785623385,
464,_5,M,315,R,N,464_5M315RN,HRN,0,226,226,183,,,1.33,803.2181109999656,803.5682464999845,803.5842346999561,803.8679837999516,803.8846249999478,None,down,2.480827799998224,803.8846249999478,None,803.8846249999478,805.199461399985,0.059658799960743636,None,,,,,,,,,19,001,2019_Dec_25_1459,untitled,3.1.0,60.224891785623385,
_,R,N,90,_,_,_RN090__,N,0,227,227,66,,,0.919,806.4423040999682,806.7812879999983,806.7980541999568,807.0810944999685,807.0975317999837,None,up,2.301134600013029,807.0975317999837,None,807.0975317999837,807.9972960999585,0.0692953999969177,None,,,,,,,,,19,001,2019_Dec_25_1459,untitled,3.1.0,60.224891785623385,
_,_2,N,45,_,_,__2N045__,N,0,228,228,73,,,0.985,809.4789845999912,809.8123303999892,809.8286759999464,810.1120747999521,810.1287107999669,None,up,1.766000300005544,810.1287107999669,None,810.1287107999669,811.0945467999554,0.07116729998961091,None,,,,,,,,,19,001,2019_Dec_25_1459,untitled,3.1.0,60.224891785623385,
_,F,N,90,_,_,_FN090__,N,0,229,229,50,,,1.316,811.9757404999691,812.3102093999623,812.3266171999858,812.6100924999919,812.6269028999959,None,up,2.1654499999713153,812.6269028999959,None,812.6269028999959,813.925399300002,0.07299700001021847,None,,,,,,,,,19,001,2019_Dec_25_1459,untitled,3.1.0,60.224891785623385,
167,F,N,270,L,N,167FN270LN,HLN,0,230,230,222,,,0.758,814.8822376999888,815.2078199999523,815.2241972999764,815.5074901999906,815.5240402999916,None,up,1.9039096999913454,815.5240402999916,None,815.5240402999916,816.2733335999656,0.07911729998886585,None,,,,,,,,,19,001,2019_Dec_25_1459,untitled,3.1.0,60.224891785623385,
451,_5,N,90,R,N,451_5N090RN,HRN,0,231,231,274,,,0.904,817.5175586999976,817.8555096999626,817.8555096999626,818.1550697999774,818.1550697999774,None,up,1.9651395000400953,818.1550697999774,None,818.1550697999774,819.0538090999471,0.07659569999668747,None,,,,,,,,,19,001,2019_Dec_25_1459,untitled,3.1.0,60.224891785623385,
232,G,N,315,L,N,232GN315LN,HLN,0,232,232,239,,,0.879,820.1893641999923,820.5363022999954,820.5528846999514,820.8361297999509,820.8525108000031,None,up,2.1155826000031084,820.8525108000031,None,820.8525108000031,821.7184202999924,0.06270380003843457,None,,,,,,,,,19,001,2019_Dec_25_1459,untitled,3.1.0,60.224891785623385,
_,_4,N,315,_,_,__4N315__,N,0,233,233,87,,,0.861,823.0475750999758,823.3844062999706,823.4002382999752,823.6840999999549,823.6999224000028,None,up,1.7835830000112765,823.6999224000028,None,823.6999224000028,824.5497549999855,0.0716346999979578,None,,,,,,,,,19,001,2019_Dec_25_1459,untitled,3.1.0,60.224891785623385,
488,_5,N,315,L,N,488_5N315LN,HLN,0,234,234,287,,,1.348,825.5820163000026,825.8984716999694,825.9147433000035,826.1975588999921,826.2142606999842,None,up,2.200677999993786,826.2142606999842,None,826.2142606999842,827.5468539999565,0.0847024000249803,None,,,,,,,,,19,001,2019_Dec_25_1459,untitled,3.1.0,60.224891785623385,
_,F,M,270,_,_,_FM270__,N,0,235,235,6,,,0.751,828.4829995999462,828.8292646999471,828.846828699985,829.1287917000009,829.1451317999745,None,down,1.599678800033871,829.1451317999745,None,829.1451317999745,829.8790173999732,0.061490399995818734,None,,,,,,,,,19,001,2019_Dec_25_1459,untitled,3.1.0,60.224891785623385,
428,_4,M,135,L,N,428_4M135LN,HLN,0,236,236,171,,,1.353,830.8133409000002,831.1603033999563,831.1776832999894,831.4598873999785,831.4765182999545,None,up,3.232300999981817,831.4765182999545,None,831.4765182999545,832.8086617999943,0.0623135999776423,None,,,,,,,,,19,001,2019_Dec_25_1459,untitled,3.1.0,60.224891785623385,
389,_4,N,180,R,N,389_4N180RN,HRN,0,237,237,260,,,0.925,834.7863079999806,835.1231100999867,835.1399427999859,835.4232591999462,835.440042799979,None,up,1.8491278999717906,835.440042799979,None,835.440042799979,836.3558711999794,0.06916630000341684,None,,,,,,,,,19,001,2019_Dec_25_1459,untitled,3.1.0,60.224891785623385,
_,_5,N,225,_,_,__5N225__,N,0,238,238,93,,,1.09,837.3672902999679,837.7043127999641,837.7208640999743,838.0039162999601,838.0205896999687,None,up,2.798952499986626,838.0205896999687,None,838.0205896999687,839.0870817999821,0.07121980004012585,None,,,,,,,,,19,001,2019_Dec_25_1459,untitled,3.1.0,60.224891785623385,
_,G,N,135,_,_,_GN135__,N,0,239,239,59,,,0.995,840.8931659999653,841.2354001999483,841.2519923999789,841.5346098999726,841.5511025000014,None,up,1.7994445999502204,841.5511025000014,None,841.5511025000014,842.5535549999913,0.06684709998080507,None,,,,,,,,,19,001,2019_Dec_25_1459,untitled,3.1.0,60.224891785623385,
_,F,N,315,_,_,_FN315__,N,0,240,240,55,,,1.2570000000000001,843.421808199957,843.7659879999701,843.7825694999774,844.0655918999691,844.0830301999813,None,up,1.8816993000218645,844.0830301999813,None,844.0830301999813,845.3276984999538,0.06413439998868853,None,,,,,,,,,19,001,2019_Dec_25_1459,untitled,3.1.0,60.224891785623385,
297,_2,M,0,L,N,297_2M000LN,HLN,0,241,241,152,,,1.213,846.0506840999587,846.3798695000005,846.3980487999506,846.6800258999574,846.6977643999853,None,down,2.2976037000189535,846.6977643999853,None,846.6977643999853,847.8954380999785,0.07660670002223924,None,,,,,,,,,19,001,2019_Dec_25_1459,untitled,3.1.0,60.224891785623385,
463,_5,M,270,R,N,463_5M270RN,HRN,0,242,242,182,,,1.292,849.0774482999695,849.4110311999684,849.4278506999835,849.711772199953,849.7275399999926,None,down,2.467519700003322,849.7275399999926,None,849.7275399999926,851.0107507999637,0.07304689998272806,None,,,,,,,,,19,001,2019_Dec_25_1459,untitled,3.1.0,60.224891785623385,
_,_4,N,180,_,_,__4N180__,N,0,243,243,84,,,1.043,852.2656591999694,852.6090174999554,852.6248397000018,852.907928199973,852.9244080999633,None,up,2.267275999998674,852.9244080999633,None,852.9244080999633,853.9572287999908,0.06384219997562468,None,,,,,,,,,19,001,2019_Dec_25_1459,untitled,3.1.0,60.224891785623385,
_,_2,M,0,_,_,__2M000__,N,0,244,244,24,,,0.899,855.280837600003,855.6055170999607,855.622433499957,855.9057958999765,855.9216748999897,None,down,2.0167476000497118,855.9216748999897,None,855.9216748999897,856.8045171999838,0.08038030000170693,None,,,,,,,,,19,001,2019_Dec_25_1459,untitled,3.1.0,60.224891785623385,
_,F,N,135,_,_,_FN135__,N,0,245,245,51,,,1.324,858.0300766999717,858.3543126999866,858.3696787999943,858.6530695999973,858.6699378999765,None,up,2.198491000046488,858.6699378999765,None,858.6699378999765,859.9687656000024,0.0838703999761492,None,,,,,,,,,19,001,2019_Dec_25_1459,untitled,3.1.0,60.224891785623385,
_,_5,N,45,_,_,__5N045__,N,0,246,246,89,,,0.735,860.9371900999686,861.2841573999613,861.3004894999904,861.5834332999657,861.6007940999698,None,up,1.6511097000329755,861.6007940999698,None,861.6007940999698,862.3163919999497,0.061724499973934144,None,,,,,,,,,19,001,2019_Dec_25_1459,untitled,3.1.0,60.224891785623385,
227,G,N,90,L,N,227GN090LN,HLN,0,247,247,234,,,1.116,863.3193021999905,863.6661293999641,863.6824177999515,863.9654250000021,863.9815877999645,None,up,2.084369499993045,863.9815877999645,None,863.9815877999645,865.080805799982,0.059071000025141984,None,,,,,,,,,19,001,2019_Dec_25_1459,untitled,3.1.0,60.224891785623385,
_,F,N,270,_,_,_FN270__,N,0,248,248,54,,,1.235,866.1457137999823,866.4796944999835,866.4961725999601,866.7790443999693,866.7957094999729,None,up,2.4483078999910504,866.7957094999729,None,866.7957094999729,868.0115542999702,0.07089660002384335,None,,,,,,,,,19,001,2019_Dec_25_1459,untitled,3.1.0,60.224891785623385,
138,F,M,45,R,N,138FM045RN,HRN,0,249,249,113,,,1.334,869.3213499999838,869.6609203999978,869.6766699999571,869.960210899997,869.9774795999983,None,down,2.132312100031413,869.9774795999983,None,869.9774795999983,871.2927310999949,0.07022829999914393,None,,,,,,,,,19,001,2019_Dec_25_1459,untitled,3.1.0,60.224891785623385,
385,_4,N,0,R,N,385_4N000RN,HRN,0,250,250,256,,,0.728,872.1982974999701,872.5243506999686,872.5411782999872,872.824646299996,872.8432317999541,None,up,1.5644474999862723,872.8432317999541,None,872.8432317999541,873.5564334999654,0.08007679996080697,None,,,,,,,,,19,001,2019_Dec_25_1459,untitled,3.1.0,60.224891785623385,
257,_2,N,0,R,N,257_2N000RN,HRN,0,251,251,240,,,1.137,874.4837803999544,874.8235281999805,874.8388374999631,875.1217403999763,875.1384643999627,None,up,1.7838297000271268,875.1384643999627,None,875.1384643999627,876.2552860999713,0.06945579999592155,None,,,,,,,,,19,001,2019_Dec_25_1459,untitled,3.1.0,60.224891785623385,
427,_4,M,90,L,N,427_4M090LN,HLN,0,252,252,170,,,1.302,876.9993216999574,877.3369634999544,877.3534614999662,877.6367815999547,877.654783499951,None,down,2.880522099963855,877.654783499951,None,877.654783499951,878.9352408999694,0.06955100002232939,None,,,,,,,,,19,001,2019_Dec_25_1459,untitled,3.1.0,60.224891785623385,
226,G,N,45,L,N,226GN045LN,HLN,0,253,253,233,,,0.904,880.6329897999531,880.9502805999946,880.9669468999491,881.2505470999749,881.2666068999679,None,up,2.4990710000274703,881.2666068999679,None,881.2666068999679,882.148860199959,0.08917769999243319,None,,,,,,,,,19,001,2019_Dec_25_1459,untitled,3.1.0,60.224891785623385,
493,_5,M,180,L,N,493_5M180LN,HLN,0,254,254,188,,,0.872,883.845193199988,884.1808535999735,884.1970845999895,884.4810686999699,884.4970809999504,None,up,2.5665753000066616,884.4970809999504,None,884.4970809999504,885.3464150999789,0.07161350001115352,None,,,,,,,,,19,001,2019_Dec_25_1459,untitled,3.1.0,60.224891785623385,
172,F,M,135,L,N,172FM135LN,HLN,0,255,255,123,,,0.78,887.1547783999704,887.4777800999582,887.494461299968,887.7774854999734,887.794404699991,None,up,2.015507800038904,887.794404699991,None,887.794404699991,888.5608783999924,0.08319289999781176,None,,,,,,,,,19,001,2019_Dec_25_1459,untitled,3.1.0,60.224891785623385,
207,G,M,270,R,N,207GM270RN,HRN,0,256,256,134,,,0.989,889.9052191999508,890.225372899964,890.2423549999949,890.5254694999894,890.5421186999884,None,down,2.150018699991051,890.5421186999884,None,890.5421186999884,891.508643499983,0.08527680003317073,None,,,,,,,,,19,001,2019_Dec_25_1459,untitled,3.1.0,60.224891785623385,
240,G,M,315,L,N,240GM315LN,HLN,0,257,257,143,,,1.189,892.7694743999746,893.1065457999939,893.1232337999973,893.4067712999531,893.4234110999969,None,down,2.1476146999630146,893.4234110999969,None,893.4234110999969,894.5886110999854,0.0706036000046879,None,,,,,,,,,19,001,2019_Dec_25_1459,untitled,3.1.0,60.224891785623385,
_,_2,N,315,_,_,__2N315__,N,0,258,258,79,,,0.768,895.6391585999518,895.987517499947,896.003880299977,896.2869851999567,896.3038422999671,None,up,2.0649748999858275,896.3038422999671,None,896.3038422999671,897.0531843999634,0.061032400000840425,None,,,,,,,,,19,001,2019_Dec_25_1459,untitled,3.1.0,60.224891785623385,
_,_4,N,90,_,_,__4N090__,N,0,259,259,82,,,0.9550000000000001,898.4387777999509,898.784253299993,898.8011624999926,899.0843932999996,899.1007637999719,None,up,1.7990167000098154,899.1007637999719,None,899.1007637999719,900.0336395999766,0.0628916000132449,None,,,,,,,,,19,001,2019_Dec_25_1459,untitled,3.1.0,60.224891785623385,
_,_5,M,45,_,_,__5M045__,N,0,260,260,41,,,0.937,900.9731542999507,901.3163080999511,901.3330342999543,901.6167357999948,901.6319355999585,None,down,2.282411599997431,901.6319355999585,None,901.6319355999585,902.5480473999633,0.0660300999879837,None,,,,,,,,,19,001,2019_Dec_25_1459,untitled,3.1.0,60.224891785623385,
041,R,M,0,L,N,041RM000LN,HLN,0,261,261,104,,,0.999,903.9996788999997,904.32986659999,904.3467211999814,904.6301541999565,904.64657729998,None,up,2.015228300006129,904.64657729998,None,904.64657729998,905.6291265999898,0.0783004000550136,None,,,,,,,,,19,001,2019_Dec_25_1459,untitled,3.1.0,60.224891785623385,
166,F,N,225,L,N,166FN225LN,HLN,0,262,262,221,,,1.391,906.7389411999611,907.0774235999561,907.0943602999905,907.3773980999831,907.3937420999864,None,up,2.7506004000315443,907.3937420999864,None,907.3937420999864,908.7768712999532,0.0680840999702923,None,,,,,,,,,19,001,2019_Dec_25_1459,untitled,3.1.0,60.224891785623385,
394,_4,M,45,R,N,394_4M045RN,HRN,0,263,263,161,,,0.708,910.2244251999655,910.5577095999615,910.5743618999841,910.8576425999636,910.8738986999961,None,down,2.815734200004954,910.8738986999961,None,910.8738986999961,911.5735983999912,0.06973559997277334,None,,,,,,,,,19,001,2019_Dec_25_1459,untitled,3.1.0,60.224891785623385,
_,_2,N,180,_,_,__2N180__,N,0,264,264,76,,,1.223,913.7621757999877,914.1046288999496,914.1212811999721,914.4044818999828,914.4210886999499,None,up,2.516933600010816,914.4210886999499,None,914.4210886999499,915.6199301999877,0.06460819998756051,None,,,,,,,,,19,001,2019_Dec_25_1459,untitled,3.1.0,60.224891785623385,
_,G,M,315,_,_,_GM315__,N,0,265,265,15,,,0.922,917.0132783000008,917.3524372999673,917.3692647999851,917.6514854999841,917.668088299979,None,down,2.7487799000227824,917.668088299979,None,917.668088299979,918.5839285999537,0.06480310001643375,None,,,,,,,,,19,001,2019_Dec_25_1459,untitled,3.1.0,60.224891785623385,
229,G,N,180,L,N,229GN180LN,HLN,0,266,266,236,,,1.0,920.5121131999767,920.832000800001,920.8484385999618,921.13192049996,921.1485828000004,None,up,2.4668067000457086,921.1485828000004,None,921.1485828000004,922.1317013999796,0.08430290000978857,None,,,,,,,,,19,001,2019_Dec_25_1459,untitled,3.1.0,60.224891785623385,
136,F,N,315,R,N,136FN315RN,HRN,0,267,267,215,,,1.3920000000000001,923.6953942999826,924.0290300999768,924.0459378999658,924.3291071999702,924.3451716999989,None,up,2.199373100011144,924.3451716999989,None,924.3451716999989,925.7280648999731,0.06948870001360774,None,,,,,,,,,19,001,2019_Dec_25_1459,untitled,3.1.0,60.224891785623385,
_,_4,M,315,_,_,__4M315__,N,0,268,268,39,,,1.112,926.6146758999676,926.9598287999979,926.9771054000012,927.2599131999887,927.2764268000028,None,down,3.331303199985996,927.2764268000028,None,927.2764268000028,928.3752625999623,0.06285849999403581,None,,,,,,,,,19,001,2019_Dec_25_1459,untitled,3.1.0,60.224891785623385,
143,F,M,270,R,N,143FM270RN,HRN,0,269,269,118,,,0.787,930.6824852999998,931.0231357999728,931.0407656999887,931.3229876999976,931.3401168999844,None,down,1.816780099994503,931.3401168999844,None,931.3401168999844,932.1053355999757,0.06719999999040738,None,,,,,,,,,19,001,2019_Dec_25_1459,untitled,3.1.0,60.224891785623385,
_,F,M,315,_,_,_FM315__,N,0,270,270,7,,,1.111,933.2220816999907,933.5714711999753,933.587487199984,933.8710681999801,933.887840499985,None,down,2.6494657999719493,933.887840499985,None,933.887840499985,934.9866684000008,0.05849500000476837,None,,,,,,,,,19,001,2019_Dec_25_1459,untitled,3.1.0,60.224891785623385,
265,_2,M,0,R,N,265_2M000RN,HRN,0,271,271,144,,,1.058,936.6092362999916,936.9514303999604,936.9680701000034,937.2521996999858,937.2676723999903,None,down,2.581408200028818,937.2676723999903,None,937.2676723999903,938.2999824999715,0.06507920002331957,None,,,,,,,,,19,001,2019_Dec_25_1459,untitled,3.1.0,60.224891785623385,
303,_2,M,270,L,N,303_2M270LN,HLN,0,272,272,158,,,1.052,939.9210867999936,940.265835499973,940.2821351999883,940.5673063999857,940.5823413999751,None,down,2.6639843999873847,940.5823413999751,None,940.5823413999751,941.6138723999611,0.06554250000044703,None,,,,,,,,,19,001,2019_Dec_25_1459,untitled,3.1.0,60.224891785623385,
239,G,M,270,L,N,239GM270LN,HLN,0,273,273,142,,,1.373,943.3308164999471,943.6622221999569,943.6794186999905,943.9616425999557,943.9786731999484,None,down,2.9988128000404686,943.9786731999484,None,943.9786731999484,945.3272726999712,0.07588910002959892,None,,,,,,,,,19,001,2019_Dec_25_1459,untitled,3.1.0,60.224891785623385,
302,_2,M,225,L,N,302_2M225LN,HLN,0,274,274,157,,,1.179,947.043813599972,947.3923210999928,947.4091015000013,947.6918990999693,947.7091379999765,None,down,3.299697899958119,947.7091379999765,None,947.7091379999765,948.8742025999818,0.058549300010781735,None,,,,,,,,,19,001,2019_Dec_25_1459,untitled,3.1.0,60.224891785623385,
_,_4,N,270,_,_,__4N270__,N,0,275,275,86,,,1.047,951.0941831999808,951.4223690999788,951.439030599955,951.7222644999856,951.7387226999854,None,up,2.2514531999477185,951.7387226999854,None,951.7387226999854,952.770787699963,0.07533310004509985,None,,,,,,,,,19,001,2019_Dec_25_1459,untitled,3.1.0,60.224891785623385,
423,_4,N,270,L,N,423_4N270LN,HLN,0,276,276,270,,,0.937,954.0576604999951,954.4031212999835,954.4197937999852,954.7031117999577,954.7198147999588,None,up,1.6323139000451192,954.7198147999588,None,954.7198147999588,955.6358290999779,0.06089379999320954,None,,,,,,,,,19,001,2019_Dec_25_1459,untitled,3.1.0,60.224891785623385,
011,R,M,90,R,N,011RM090RN,HRN,0,277,277,98,,,0.758,956.4377386999549,956.7678898999584,956.784789999947,957.0675990000018,957.0844471000019,None,up,2.2827372000319883,957.0844471000019,None,957.0844471000019,957.8330201999634,0.07695539999986067,None,,,,,,,,,19,001,2019_Dec_25_1459,untitled,3.1.0,60.224891785623385,
_,R,M,270,_,_,_RM270__,N,0,278,278,22,,,1.215,959.4383187999483,959.781841399963,959.7986015999923,960.0809461000026,960.0975605999702,None,down,2.1338861000258476,960.0975605999702,None,960.0975605999702,961.2967305999482,0.06314460001885891,None,,,,,,,,,19,001,2019_Dec_25_1459,untitled,3.1.0,60.224891785623385,
012,R,M,135,R,N,012RM135RN,HRN,0,279,279,99,,,1.113,962.3404567999532,962.6452143999632,962.6625717999996,962.9459756999859,962.9629801999545,None,up,2.11561639996944,962.9629801999545,None,962.9629801999545,964.0611628999468,0.09799159999238327,None,,,,,,,,,19,001,2019_Dec_25_1459,untitled,3.1.0,60.224891785623385,
008,R,N,315,R,N,008RN315RN,HRN,0,280,280,199,,,0.881,965.1481363999774,965.4931873999885,965.5100113999797,965.7928104999592,965.8096663999604,None,up,2.1173734000185505,965.8096663999604,None,965.8096663999604,966.6759598999633,0.06271879997802898,None,,,,,,,,,19,001,2019_Dec_25_1459,untitled,3.1.0,60.224891785623385,
_,_5,M,90,_,_,__5M090__,N,0,281,281,42,,,0.8310000000000001,968.0020216999692,968.3409383999533,968.3576347999624,968.6407744999742,968.6573862999794,None,down,3.2482707000453956,968.6573862999794,None,968.6573862999794,969.473403299984,0.06675610004458576,None,,,,,,,,,19,001,2019_Dec_25_1459,untitled,3.1.0,60.224891785623385,
014,R,M,225,R,N,014RM225RN,HRN,0,282,282,101,,,1.246,971.9736822999548,972.3208890999667,972.3381613999954,972.6206889000023,972.637178099947,None,up,2.4817805999773555,972.637178099947,None,972.637178099947,973.8700310999993,0.06033240002579987,None,,,,,,,,,19,001,2019_Dec_25_1459,untitled,3.1.0,60.224891785623385,
169,F,M,0,L,N,169FM000LN,HLN,0,283,283,120,,,1.181,975.2059223999968,975.5344674999942,975.5507910999586,975.8341331999982,975.8505680999951,None,down,2.7002940999809653,975.8505680999951,None,975.8505680999951,977.016178699967,0.07962480001151562,None,,,,,,,,,19,001,2019_Dec_25_1459,untitled,3.1.0,60.224891785623385,
_,F,M,45,_,_,_FM045__,N,0,284,284,1,,,1.223,978.6206020999816,978.9648523999495,978.9818891999894,979.264329299971,979.2809986999491,None,down,2.3990364999626763,979.2809986999491,None,979.2809986999491,980.4813144999789,0.06287460000021383,None,,,,,,,,,19,001,2019_Dec_25_1459,untitled,3.1.0,60.224891785623385,
006,R,N,225,R,N,006RN225RN,HRN,0,285,285,197,,,1.317,981.7479475999717,982.0950882000034,982.1122640999965,982.3952164999791,982.4117108999635,None,up,2.5002942999708466,982.4117108999635,None,982.4117108999635,983.7103670999641,0.06086249998770654,None,,,,,,,,,19,001,2019_Dec_25_1459,untitled,3.1.0,60.224891785623385,
164,F,N,135,L,N,164FN135LN,HLN,0,286,286,219,,,0.9480000000000001,985.0005195999984,985.3264273999957,985.3428593999706,985.6256998999743,985.6420161999995,None,up,2.083551499992609,985.6420161999995,None,985.6420161999995,986.5748213999905,0.0800667000003159,None,,,,,,,,,19,001,2019_Dec_25_1459,untitled,3.1.0,60.224891785623385,
129,F,N,0,R,N,129FN000RN,HRN,0,287,287,208,,,1.089,987.7912720000022,988.1405504999566,988.1572967999964,988.4403122999938,988.4572646999732,None,up,2.147836800024379,988.4572646999732,None,988.4572646999732,989.5226400999818,0.05842610000399873,None,,,,,,,,,19,001,2019_Dec_25_1459,untitled,3.1.0,60.224891785623385,
,,,,,,,,,,,,,,,,,,,,,,,,,,,,,990.6211529999855,None,997.565403799992,None,1001.6279681999586,None,1004.6253892999957,None,,,,,,,
