Number,Letter,type,Orientation,human,face_type,image,picture,trials.thisRepN,trials.thisTrialN,trials.thisN,trials.thisIndex,text.started,text.stopped,stimulus_duration,CROSS.started,CROSS.stopped,BLANK.started,BLANK.stopped,TEST.started,TEST.stopped,key_JUDGE.keys,key_JUDGE.rt,key_JUDGE.started,key_JUDGE.stopped,image_2.started,image_2.stopped,ISI.started,ISI.stopped,q1.started,q1.stopped,q2.started,q2.stopped,q3.started,q3.stopped,text_2.started,text_2.stopped,participant,session,date,expName,psychopyVersion,frameRate
231,G,N,270,L,N,231GN270LN,HLN,0,0,0,238,792.4174212,None,1.377,857.7830751,858.0301618,858.0301618,858.2471663,858.263763,None,None,,858.263763,None,858.263763,859.6340446,0.1844815,None,,,,,,,,,1,1,2019_Dec_20_1553,untitled,3.1.0,60.09561212
172,F,M,135,L,N,172FM135LN,HLN,0,1,1,123,,,0.97,861.9882995,862.2793131,862.2793131,862.4942726,862.5101192,861.9882995,down,0.0350505,862.5101192,None,862.5101192,None,0.2007723,None,,,,,,,,,1,1,2019_Dec_20_1553,untitled,3.1.0,60.09561212
419,_4,N,90,L,N,419_4N090LN,HLN,0,2,2,266,,,1.012,862.7884986,863.077503,863.077503,863.2600862,863.276572,None,up,2.2327864,863.276572,None,863.276572,864.2756987,0.2304649,None,,,,,,,,,1,1,2019_Dec_20_1553,untitled,3.1.0,60.09561212
_,_4,N,180,_,_,__4N180__,N,0,3,3,84,,,0.785,865.6504349,865.9404146,865.9404146,866.2241134,866.240734,None,down,2.2984065,866.240734,None,866.240734,867.0061449,0.1285641,None,,,,,,,,,1,1,2019_Dec_20_1553,untitled,3.1.0,60.09561212
291,_2,N,90,L,N,291_2N090LN,HLN,0,4,4,250,,,0.851,868.7309648,869.0214152,869.0214152,869.2541094,869.2712287,None,up,1.9502524,869.2712287,None,869.2712287,870.1031586,0.1820841,None,,,,,,,,,1,1,2019_Dec_20_1553,untitled,3.1.0,60.09561212
_,R,N,180,_,_,_RN180__,N,0,5,5,68,,,1.227,871.4406002,871.7351404,871.7351404,871.9359091,871.9523653,None,up,2.6168385,871.9523653,None,871.9523653,873.1678525,0.2056569,None,,,,,,,,,1,1,2019_Dec_20_1553,untitled,3.1.0,60.09561212
136,F,N,315,R,N,136FN315RN,HRN,0,6,6,215,,,1.212,874.7992283,875.0989895,875.0989895,875.2824648,875.2991469,None,down,3.1178741,875.2991469,None,875.2991469,876.4986397,0.2220948,None,,,,,,,,,1,1,2019_Dec_20_1553,untitled,3.1.0,60.09561212
_,_4,M,180,_,_,__4M180__,N,0,7,7,36,,,0.747,878.5656173,878.862568,878.862568,879.1292807,879.14618,None,up,2.1478863,879.14618,None,879.14618,879.8790186,0.1371927,None,,,,,,,,,1,1,2019_Dec_20_1553,untitled,3.1.0,60.09561212
459,_5,M,90,R,N,459_5M090RN,HRN,0,8,8,178,,,1.352,881.4564673,881.7457819,881.7457819,882.0109278,882.0271168,None,down,3.0149316,882.0271168,None,882.0271168,883.3592218,0.1546433,None,,,,,,,,,1,1,2019_Dec_20_1553,untitled,3.1.0,60.09561212
270,_2,M,225,R,N,270_2M225RN,HRN,0,9,9,149,,,0.91,885.2555157,885.5567388,885.5567388,885.7576711,885.773788,None,up,2.7491835,885.773788,None,885.773788,886.6731023,0.2026806,None,,,,,,,,,1,1,2019_Dec_20_1553,untitled,3.1.0,60.09561212
458,_5,M,45,R,N,458_5M045RN,HRN,0,10,10,177,,,1.043,888.609086,888.9367184,888.9538374,889.2369071,889.2555097,None,up,2.9964934,889.2555097,None,889.2555097,890.2857098,0.0784187,None,,,,,,,,,1,1,2019_Dec_20_1553,untitled,3.1.0,60.09561212
9,R,M,0,R,N,009RM000RN,HRN,0,11,11,96,,,0.744,892.4653527,892.7651961,892.7651961,892.9666681,892.9834897,None,down,1.8196338,892.9834897,None,892.9834897,893.7171566,0.2006985,None,,,,,,,,,1,1,2019_Dec_20_1553,untitled,3.1.0,60.09561212
390,_4,N,225,R,N,390_4N225RN,HRN,0,12,12,261,,,1.377,894.9256662,895.2149327,895.2149327,895.515058,895.5318859,None,up,2.8005072,895.5318859,None,895.5318859,896.8973016,0.1115337,None,,,,,,,,,1,1,2019_Dec_20_1553,untitled,3.1.0,60.09561212
143,F,M,270,R,N,143FM270RN,HRN,0,13,13,118,,,0.797,898.4654997,898.7621102,898.7621102,899.0446434,899.06102,None,down,2.59948,899.06102,None,899.06102,899.8443866,0.1209725,None,,,,,,,,,1,1,2019_Dec_20_1553,untitled,3.1.0,60.09561212
290,_2,N,45,L,N,290_2N045LN,HLN,0,14,14,249,,,0.975,901.7913536,902.0916756,902.0916756,902.3750865,902.3915502,None,up,2.151451,902.3915502,None,902.3915502,903.3574033,0.1213589,None,,,,,,,,,1,1,2019_Dec_20_1553,untitled,3.1.0,60.09561212
_,R,N,315,_,_,_RN315__,N,0,15,15,71,,,1.056,904.6457921,904.9562189,904.973317,905.2569843,905.2734222,None,up,2.0494926,905.2734222,None,905.2734222,906.3229788,0.0911298,None,,,,,,,,,1,1,2019_Dec_20_1553,untitled,3.1.0,60.09561212
33,R,N,0,L,N,033RN000LN,HLN,0,16,16,200,,,1.074,907.5526817,907.8540851,907.8540851,908.0371409,908.0534958,None,up,1.7851809,908.0534958,None,908.0534958,909.1198685,0.2184258,None,,,,,,,,,1,1,2019_Dec_20_1553,untitled,3.1.0,60.09561212
_,_2,M,135,_,_,__2M135__,N,0,17,17,27,,,1.176,909.9600749,910.251854,910.2685393,910.5519114,910.5688137,None,down,2.6320891,910.5688137,None,910.5688137,911.7346268,0.1090989,None,,,,,,,,,1,1,2019_Dec_20_1553,untitled,3.1.0,60.09561212
301,_2,M,180,L,N,301_2M180LN,HLN,0,18,18,156,,,0.794,913.4061227,913.6987215,913.6987215,913.9155947,913.9325254,None,down,2.2979446,913.9325254,None,913.9325254,914.7147394,0.1934505,None,,,,,,,,,1,1,2019_Dec_20_1553,untitled,3.1.0,60.09561212
_,_4,N,135,_,_,__4N135__,N,0,19,19,83,,,1.302,916.3257539,916.6463296,916.6627476,916.9465957,916.9662896,None,up,2.5290194,916.9662896,None,916.9662896,918.2445994,0.0850104,None,,,,,,,,,1,1,2019_Dec_20_1553,untitled,3.1.0,60.09561212
39,R,N,270,L,N,039RN270LN,HLN,0,20,20,206,,,1.206,919.7102567,920.0109007,920.0109007,920.2107741,920.2268464,None,up,2.2036098,920.2268464,None,920.2268464,921.4259958,0.200803,None,,,,,,,,,1,1,2019_Dec_20_1553,untitled,3.1.0,60.09561212
199,G,N,270,R,N,199GN270RN,HRN,0,21,21,230,,,1.188,922.5541013,922.8433775,922.8433775,923.1411966,923.1576266,None,up,2.08611,923.1576266,None,923.1576266,924.339933,0.1128792,None,,,,,,,,,1,1,2019_Dec_20_1553,untitled,3.1.0,60.09561212
421,_4,N,180,L,N,421_4N180LN,HLN,0,22,22,268,,,0.842,925.3592407,925.6551593,925.6719223,925.9552418,925.9719535,None,up,2.0845883,925.9719535,None,925.9719535,926.8051116,0.104319,None,,,,,,,,,1,1,2019_Dec_20_1553,untitled,3.1.0,60.09561212
_,_5,M,180,_,_,__5M180__,N,0,23,23,44,,,1.163,928.1877385,928.4690931,928.4856402,928.7687588,928.7854616,None,None,,928.7854616,None,928.7854616,929.9345502,0.0996621,None,,,,,,,,,1,1,2019_Dec_20_1553,untitled,3.1.0,60.09561212
_,_2,M,0,_,_,__2M000__,N,0,24,24,24,,,1.367,932.3698427,932.6661565,932.6822872,932.9658692,932.9829712,932.3698427,down,2.4975795,932.9829712,None,932.9829712,934.331527,0.1104969,None,,,,,,,,,1,1,2019_Dec_20_1553,untitled,3.1.0,60.09561212
_,G,N,315,_,_,_GN315__,N,0,25,25,63,,,0.777,935.7004703,935.9963528,935.9963528,936.1961632,936.2129265,None,up,2.418466,936.2129265,None,936.2129265,936.9780798,0.212822,None,,,,,,,,,1,1,2019_Dec_20_1553,untitled,3.1.0,60.09561212
464,_5,M,315,R,N,464_5M315RN,HRN,0,26,26,183,,,1.147,938.8409296,939.1433217,939.1433217,939.3430466,939.3595378,None,down,2.201028,939.3595378,None,939.3595378,940.4926691,0.1984749,None,,,,,,,,,1,1,2019_Dec_20_1553,untitled,3.1.0,60.09561212
194,G,N,45,R,N,194GN045RN,HRN,0,27,27,225,,,0.835,941.6845096,941.9741473,941.991057,942.274264,942.2921116,None,up,2.016601,942.2921116,None,942.2921116,943.1070457,0.1114062,None,,,,,,,,,1,1,2019_Dec_20_1553,untitled,3.1.0,60.09561212
130,F,N,45,R,N,130FN045RN,HRN,0,28,28,209,,,0.7,944.4272619,944.7214436,944.738125,945.0219321,945.0386208,None,up,1.598863,945.0386208,None,945.0386208,945.7209348,0.1071525,None,,,,,,,,,1,1,2019_Dec_20_1553,untitled,3.1.0,60.09561212
_,F,N,45,_,_,_FN045__,N,0,29,29,49,,,1.219,946.8023365,947.1030344,947.1030344,947.3537809,947.3710228,None,up,1.7988161,947.3710228,None,947.3710228,948.5679543,0.1570091,None,,,,,,,,,1,1,2019_Dec_20_1553,untitled,3.1.0,60.09561212
_,_4,M,315,_,_,__4M315__,N,0,30,30,39,,,0.955,949.2860679,949.5842363,949.6007021,949.8844045,949.9009598,None,down,2.0667019,949.9009598,None,949.9009598,950.8501643,0.1045249,None,,,,,,,,,1,1,2019_Dec_20_1553,untitled,3.1.0,60.09561212
494,_5,M,225,L,N,494_5M225LN,HLN,0,31,31,189,,,0.854,952.1667118,952.4646644,952.4646644,952.6815216,952.6984044,None,down,2.5826306,952.6984044,None,952.6984044,953.5478153,0.1860883,None,,,,,,,,,1,1,2019_Dec_20_1553,untitled,3.1.0,60.09561212
302,_2,M,225,L,N,302_2M225LN,HLN,0,32,32,157,,,1.345,955.4076907,955.6972621,955.6972621,955.9958947,956.0123674,None,up,3.0492856,956.0123674,None,956.0123674,957.3446003,0.1151812,None,,,,,,,,,1,1,2019_Dec_20_1553,untitled,3.1.0,60.09561212
295,_2,N,270,L,N,295_2N270LN,HLN,0,33,33,254,,,1.229,959.2993886,959.5923945,959.5923945,959.7756946,959.7923896,None,up,2.4164254,959.7923896,None,959.7923896,961.0077241,0.2264692,None,,,,,,,,,1,1,2019_Dec_20_1553,untitled,3.1.0,60.09561212
496,_5,M,315,L,N,496_5M315LN,HLN,0,34,34,191,,,1.062,962.3362252,962.6395387,962.6395387,962.9232245,962.9399436,None,down,2.2985778,962.9399436,None,962.9399436,963.9891393,0.1193804,None,,,,,,,,,1,1,2019_Dec_20_1553,untitled,3.1.0,60.09561212
_,F,M,45,_,_,_FM045__,N,0,35,35,1,,,0.986,965.3609331,965.6534961,965.6534961,965.9536837,965.9705448,None,down,1.9324948,965.9705448,None,965.9705448,966.9361111,0.1133472,None,,,,,,,,,1,1,2019_Dec_20_1553,untitled,3.1.0,60.09561212
263,_2,N,270,R,N,263_2N270RN,HRN,0,36,36,246,,,1.31,968.0442404,968.3347896,968.3347896,968.618083,968.6348795,None,up,2.1849517,968.6348795,None,968.6348795,969.9337355,0.1334355,None,,,,,,,,,1,1,2019_Dec_20_1553,untitled,3.1.0,60.09561212
_,G,M,225,_,_,_GM225__,N,0,37,37,13,,,0.973,971.051966,971.3487243,971.3487243,971.5314589,971.5481708,None,down,2.1194945,971.5481708,None,971.5481708,972.5147091,0.2209243,None,,,,,,,,,1,1,2019_Dec_20_1553,untitled,3.1.0,60.09561212
_,_5,N,315,_,_,__5N315__,N,0,38,38,95,,,0.828,973.7949355,974.0817807,974.0817807,974.379765,974.3965172,None,up,1.898706,974.3965172,None,974.3965172,975.2120964,0.1148711,None,,,,,,,,,1,1,2019_Dec_20_1553,untitled,3.1.0,60.09561212
_,G,N,270,_,_,_GN270__,N,0,39,39,62,,,1.245,976.4896491,976.7792221,976.7792221,977.0108706,977.0271255,None,up,2.2339805,977.0271255,None,977.0271255,978.2594783,0.1849148,None,,,,,,,,,1,1,2019_Dec_20_1553,untitled,3.1.0,60.09561212
205,G,M,180,R,N,205GM180RN,HRN,0,40,40,132,,,1.128,979.3782556,979.6747384,979.6908092,979.9748218,979.9914642,None,down,2.5655349,979.9914642,None,979.9914642,981.1073008,0.1063253,None,,,,,,,,,1,1,2019_Dec_20_1553,untitled,3.1.0,60.09561212
15,R,M,270,R,N,015RM270RN,HRN,0,41,41,102,,,0.986,982.677627,982.9719216,982.9882889,983.2719719,983.2887913,None,down,2.1493588,983.2887913,None,983.2887913,984.2547221,0.1097132,None,,,,,,,,,1,1,2019_Dec_20_1553,untitled,3.1.0,60.09561212
234,G,M,45,L,N,234GM045LN,HLN,0,42,42,137,,,0.947,985.5590032,985.8529965,985.8688681,986.1527027,986.1695541,None,down,2.5337827,986.1695541,None,986.1695541,987.101954,0.1083515,None,,,,,,,,,1,1,2019_Dec_20_1553,untitled,3.1.0,60.09561212
_,R,M,90,_,_,_RM090__,N,0,43,43,18,,,1.36,988.8252495,989.1165057,989.132956,989.4166613,989.4331887,None,down,2.8314228,989.4331887,None,989.4331887,990.7815094,0.1114016,None,,,,,,,,,1,1,2019_Dec_20_1553,untitled,3.1.0,60.09561212
229,G,N,180,L,N,229GN180LN,HLN,0,44,44,236,,,1.314,992.3541887,992.6797658,992.6968601,992.9820026,992.997253,None,down,2.9145287,992.997253,None,992.997253,994.2947274,0.0803098,None,,,,,,,,,1,1,2019_Dec_20_1553,untitled,3.1.0,60.09561212
_,F,N,225,_,_,_FN225__,N,0,45,45,53,,,1.256,996.0968926,996.393528,996.393528,996.6265735,996.6431417,None,up,2.60083,996.6431417,None,996.6431417,997.8757827,0.1755745,None,,,,,,,,,1,1,2019_Dec_20_1553,untitled,3.1.0,60.09561212
41,R,M,0,L,N,041RM000LN,HLN,0,46,46,104,,,1.216,999.3790696,999.6737845,999.6737845,999.9572919,999.9743558,None,down,2.3011726,999.9743558,None,999.9743558,1001.173082,0.1241923,None,,,,,,,,,1,1,2019_Dec_20_1553,untitled,3.1.0,60.09561212
3,R,N,90,R,N,003RN090RN,HRN,0,47,47,194,,,1.12,1002.502127,1002.804632,1002.804632,1002.988427,1003.00477,None,up,2.0028449,1003.00477,None,1003.00477,1004.120475,0.2159968,None,,,,,,,,,1,1,2019_Dec_20_1553,untitled,3.1.0,60.09561212
174,F,M,225,L,N,174FM225LN,HLN,0,48,48,125,,,0.925,1005.140295,1005.435678,1005.435678,1005.718193,1005.734962,None,down,1.7176623,1005.734962,None,1005.734962,1006.651709,0.121372,None,,,,,,,,,1,1,2019_Dec_20_1553,untitled,3.1.0,60.09561212
226,G,N,45,L,N,226GN045LN,HLN,0,49,49,233,,,1.019,1007.638431,1007.933284,1007.933284,1008.182697,1008.182697,None,up,2.0007876,1008.182697,None,1008.182697,1009.183084,0.17765,None,,,,,,,,,1,1,2019_Dec_20_1553,untitled,3.1.0,60.09561212
_,_5,N,90,_,_,__5N090__,N,0,50,50,90,,,1.076,1010.30244,1010.597423,1010.614133,1010.899251,1010.917104,None,up,2.5798235,1010.917104,None,1010.917104,1011.980436,0.1081524,None,,,,,,,,,1,1,2019_Dec_20_1553,untitled,3.1.0,60.09561212
387,_4,N,90,R,N,387_4N090RN,HRN,0,51,51,258,,,1.258,1013.632888,1013.928682,1013.928682,1014.211853,1014.228096,None,up,3.2821904,1014.228096,None,1014.228096,1015.477413,0.1235635,None,,,,,,,,,1,1,2019_Dec_20_1553,untitled,3.1.0,60.09561212
162,F,N,45,L,N,162FN045LN,HLN,0,52,52,217,,,1.322,1017.740599,1018.041161,1018.041161,1018.224248,1018.240867,None,up,1.9337522,1018.240867,None,1018.240867,1019.556966,0.2189312,None,,,,,,,,,1,1,2019_Dec_20_1553,untitled,3.1.0,60.09561212
397,_4,M,180,R,N,397_4M180RN,HRN,0,53,53,164,,,1.12,1020.392296,1020.688815,1020.688815,1020.889145,1020.905988,None,down,2.6331225,1020.905988,None,1020.905988,1022.004383,0.2032671,None,,,,,,,,,1,1,2019_Dec_20_1553,untitled,3.1.0,60.09561212
_,_2,M,45,_,_,__2M045__,N,0,54,54,25,,,1.163,1023.664422,1023.954353,1023.954353,1024.253159,1024.272046,None,None,,1024.272046,None,1024.272046,1025.41896,0.1143665,None,,,,,,,,,1,1,2019_Dec_20_1553,untitled,3.1.0,60.09561212
_,_2,N,315,_,_,__2N315__,N,0,55,55,79,,,1.041,1027.845052,1028.134438,1028.166465,1028.450249,1028.467653,1027.845052,up,3.0155444,1028.467653,None,1028.467653,1029.483007,0.1011634,None,,,,,,,,,1,1,2019_Dec_20_1553,untitled,3.1.0,60.09561212
139,F,M,90,R,N,139FM090RN,HRN,0,56,56,114,,,1.356,1031.635305,1031.929193,1031.929193,1032.19575,1032.212212,None,down,2.7826541,1032.212212,None,1032.212212,1033.560393,0.1388095,None,,,,,,,,,1,1,2019_Dec_20_1553,untitled,3.1.0,60.09561212
_,_2,N,0,_,_,__2N000__,N,0,57,57,72,,,1.099,1035.11659,1035.409277,1035.425654,1035.709711,1035.726341,None,up,2.2818285,1035.726341,None,1035.726341,1036.808623,0.1102028,None,,,,,,,,,1,1,2019_Dec_20_1553,untitled,3.1.0,60.09561212
233,G,M,0,L,N,233GM000LN,HLN,0,58,58,136,,,0.762,1038.200496,1038.47502,1038.47502,1038.723196,1038.740551,None,down,2.3978591,1038.740551,None,1038.740551,1039.489371,0.1621632,None,,,,,,,,,1,1,2019_Dec_20_1553,untitled,3.1.0,60.09561212
_,_5,N,0,_,_,__5N000__,N,0,59,59,88,,,0.717,1041.232948,1041.554009,1041.570435,1041.853784,1041.870309,None,up,1.8175272,1041.870309,None,1041.870309,1042.570131,0.0853072,None,,,,,,,,,1,1,2019_Dec_20_1553,untitled,3.1.0,60.09561212
451,_5,N,90,R,N,451_5N090RN,HRN,0,60,60,274,,,1.339,1043.81368,1044.102851,1044.102851,1044.402556,1044.4188,None,up,2.0495562,1044.4188,None,1044.4188,1045.751229,0.1148186,None,,,,,,,,,1,1,2019_Dec_20_1553,untitled,3.1.0,60.09561212
_,G,M,0,_,_,_GM000__,N,0,61,61,8,,,1.357,1046.68902,1046.982581,1046.982581,1047.183024,1047.199571,None,down,2.4004889,1047.199571,None,1047.199571,1048.547577,0.2107573,None,,,,,,,,,1,1,2019_Dec_20_1553,untitled,3.1.0,60.09561212
292,_2,N,135,L,N,292_2N135LN,HLN,0,62,62,251,,,1.349,1049.752543,1050.046957,1050.046957,1050.313493,1050.330378,None,up,2.9309116,1050.330378,None,1050.330378,1051.661709,0.1407773,None,,,,,,,,,1,1,2019_Dec_20_1553,untitled,3.1.0,60.09561212
482,_5,N,45,L,N,482_5N045LN,HLN,0,63,63,281,,,1.105,1053.445997,1053.743136,1053.743136,1053.976815,1053.99514,None,up,1.816483,1053.99514,None,1053.99514,1055.076134,0.1758654,None,,,,,,,,,1,1,2019_Dec_20_1553,untitled,3.1.0,60.09561212
_,R,N,270,_,_,_RN270__,N,0,64,64,70,,,0.941,1055.934302,1056.22438,1056.241569,1056.524944,1056.543213,None,up,1.8308208,1056.543213,None,1056.543213,1057.475392,0.1106249,None,,,,,,,,,1,1,2019_Dec_20_1553,untitled,3.1.0,60.09561212
_,_4,M,90,_,_,__4M090__,N,0,65,65,34,,,1.052,1058.479386,1058.788883,1058.805416,1059.089222,1059.10588,None,down,2.016143,1059.10588,None,1059.10588,1060.138344,0.0958113,None,,,,,,,,,1,1,2019_Dec_20_1553,untitled,3.1.0,60.09561212
264,_2,N,315,R,N,264_2N315RN,HRN,0,66,66,247,,,1.208,1061.243257,1061.537227,1061.5533,1061.837675,1061.853705,None,up,2.6815164,1061.853705,None,1061.853705,1063.05294,0.110002,None,,,,,,,,,1,1,2019_Dec_20_1553,untitled,3.1.0,60.09561212
262,_2,N,225,R,N,262_2N225RN,HRN,0,67,67,245,,,0.93,1064.624251,1064.949966,1064.967057,1065.25034,1065.267235,None,up,1.6869897,1065.267235,None,1065.267235,1066.183246,0.0809706,None,,,,,,,,,1,1,2019_Dec_20_1553,untitled,3.1.0,60.09561212
393,_4,M,0,R,N,393_4M000RN,HRN,0,68,68,160,,,0.881,1067.077024,1067.365701,1067.365701,1067.664924,1067.681742,None,down,1.9686915,1067.681742,None,1067.681742,1068.546905,0.1122104,None,,,,,,,,,1,1,2019_Dec_20_1553,untitled,3.1.0,60.09561212
_,R,N,225,_,_,_RN225__,N,0,69,69,69,,,1.108,1069.767826,1070.062774,1070.07902,1070.362894,1070.379609,None,up,1.9488425,1070.379609,None,1070.379609,1071.478452,0.106337,None,,,,,,,,,1,1,2019_Dec_20_1553,untitled,3.1.0,60.09561212
492,_5,M,135,L,N,492_5M135LN,HLN,0,70,70,187,,,1.198,1072.424994,1072.743849,1072.760789,1073.044158,1073.060456,None,down,3.2156081,1073.060456,None,1073.060456,1074.242295,0.0867247,None,,,,,,,,,1,1,2019_Dec_20_1553,untitled,3.1.0,60.09561212
13,R,M,180,R,N,013RM180RN,HRN,0,71,71,100,,,1.071,1076.404018,1076.691889,1076.691889,1076.990404,1077.007075,None,down,3.2495202,1077.007075,None,1077.007075,1078.074548,0.115748,None,,,,,,,,,1,1,2019_Dec_20_1553,untitled,3.1.0,60.09561212
_,G,M,45,_,_,_GM045__,N,0,72,72,9,,,0.736,1080.469284,1080.769963,1080.769963,1080.970096,1080.986822,None,down,2.4484886,1080.986822,None,1080.986822,1081.703034,0.2001995,None,,,,,,,,,1,1,2019_Dec_20_1553,untitled,3.1.0,60.09561212
_,G,N,0,_,_,_GN000__,N,0,73,73,56,,,1.398,1083.614164,1083.903272,1083.903272,1084.150992,1084.167302,None,up,2.7322933,1084.167302,None,1084.167302,1085.54984,0.1698416,None,,,,,,,,,1,1,2019_Dec_20_1553,untitled,3.1.0,60.09561212
493,_5,M,180,L,N,493_5M180LN,HLN,0,74,74,188,,,1.269,1087.036656,1087.331113,1087.331113,1087.614515,1087.631657,None,down,2.998702,1087.631657,None,1087.631657,1088.879178,0.1251572,None,,,,,,,,,1,1,2019_Dec_20_1553,untitled,3.1.0,60.09561212
36,R,N,135,L,N,036RN135LN,HLN,0,75,75,203,,,1.187,1090.837277,1091.127897,1091.127897,1091.344129,1091.360772,None,up,2.3193245,1091.360772,None,1091.360772,1092.543399,0.1955382,None,,,,,,,,,1,1,2019_Dec_20_1553,untitled,3.1.0,60.09561212
428,_4,M,135,L,N,428_4M135LN,HLN,0,76,76,171,,,0.967,1093.800305,1094.091827,1094.108414,1094.391319,1094.407935,None,up,2.8817695,1094.407935,None,1094.407935,1095.357721,0.1087324,None,,,,,,,,,1,1,2019_Dec_20_1553,untitled,3.1.0,60.09561212
6,R,N,225,R,N,006RN225RN,HRN,0,77,77,197,,,0.821,1097.419545,1097.70707,1097.70707,1098.004997,1098.021721,None,up,2.9654634,1098.021721,None,1098.021721,1098.820896,0.1196689,None,,,,,,,,,1,1,2019_Dec_20_1553,untitled,3.1.0,60.09561212
8,R,N,315,R,N,008RN315RN,HRN,0,78,78,199,,,0.843,1101.097203,1101.386273,1101.418639,1101.701306,1101.718299,None,up,1.6669428,1101.718299,None,1101.718299,1102.551085,0.1022434,None,,,,,,,,,1,1,2019_Dec_20_1553,untitled,3.1.0,60.09561212
200,G,N,315,R,N,200GN315RN,HRN,0,79,79,231,,,1.335,1103.516087,1103.816687,1103.816687,1104.099894,1104.116297,None,up,2.3180913,1104.116297,None,1104.116297,1105.432156,0.1198748,None,,,,,,,,,1,1,2019_Dec_20_1553,untitled,3.1.0,60.09561212
_,R,M,225,_,_,_RM225__,N,0,80,80,21,,,0.716,1106.5727,1106.864071,1106.864071,1107.147351,1107.165374,None,down,1.7485095,1107.165374,None,1107.165374,1107.863367,0.1260366,None,,,,,,,,,1,1,2019_Dec_20_1553,untitled,3.1.0,60.09561212
_,F,N,315,_,_,_FN315__,N,0,81,81,55,,,1.067,1109.105336,1109.395151,1109.395151,1109.628675,1109.64537,None,up,1.8665417,1109.64537,None,1109.64537,1110.694698,0.1811349,None,,,,,,,,,1,1,2019_Dec_20_1553,untitled,3.1.0,60.09561212
_,_5,M,90,_,_,__5M090__,N,0,82,82,42,,,1.366,1111.73028,1112.026358,1112.026358,1112.22637,1112.243142,None,down,2.8635887,1112.243142,None,1112.243142,1113.591454,0.2067504,None,,,,,,,,,1,1,2019_Dec_20_1553,untitled,3.1.0,60.09561212
_,F,N,270,_,_,_FN270__,N,0,83,83,54,,,0.858,1115.245603,1115.539363,1115.539363,1115.823072,1115.839947,None,up,1.8329335,1115.839947,None,1115.839947,1116.672758,0.1299071,None,,,,,,,,,1,1,2019_Dec_20_1553,untitled,3.1.0,60.09561212
_,F,M,315,_,_,_FM315__,N,0,84,84,7,,,0.913,1117.787957,1118.087965,1118.104186,1118.387494,1118.404419,None,down,2.1333005,1118.404419,None,1118.404419,1119.30497,0.1038937,None,,,,,,,,,1,1,2019_Dec_20_1553,untitled,3.1.0,60.09561212
456,_5,N,315,R,N,456_5N315RN,HRN,0,85,85,279,,,0.772,1120.658341,1120.951429,1120.96815,1121.251857,1121.268589,None,up,1.4666449,1121.268589,None,1121.268589,1122.034126,0.1075868,None,,,,,,,,,1,1,2019_Dec_20_1553,untitled,3.1.0,60.09561212
462,_5,M,225,R,N,462_5M225RN,HRN,0,86,86,181,,,1.182,1122.862749,1123.151748,1123.151748,1123.453247,1123.468821,None,None,,1123.468821,None,1123.468821,1124.632538,0.1162345,None,,,,,,,,,1,1,2019_Dec_20_1553,untitled,3.1.0,60.09561212
_,_5,N,180,_,_,__5N180__,N,0,87,87,92,,,0.717,1127.061546,1127.362646,1127.362646,1127.646284,1127.663088,1127.061546,up,2.2813732,1127.663088,None,1127.663088,1128.36218,0.1203992,None,,,,,,,,,1,1,2019_Dec_20_1553,untitled,3.1.0,60.09561212
_,G,M,135,_,_,_GM135__,N,0,88,88,11,,,1.309,1130.139564,1130.429198,1130.429198,1130.660088,1130.676971,None,up,2.7171299,1130.676971,None,1130.676971,1131.960627,0.1871214,None,,,,,,,,,1,1,2019_Dec_20_1553,untitled,3.1.0,60.09561212
422,_4,N,225,L,N,422_4N225LN,HLN,0,89,89,269,,,1.195,1133.518328,1133.806814,1133.806814,1134.10731,1134.124164,None,up,2.4514007,1134.124164,None,1134.124164,1135.306611,0.1155555,None,,,,,,,,,1,1,2019_Dec_20_1553,untitled,3.1.0,60.09561212
_,R,N,135,_,_,_RN135__,N,0,90,90,67,,,1.35,1136.791603,1137.087527,1137.087527,1137.287135,1137.304195,None,up,2.1996392,1137.304195,None,1137.304195,1138.636515,0.203147,None,,,,,,,,,1,1,2019_Dec_20_1553,untitled,3.1.0,60.09561212
_,R,M,180,_,_,_RM180__,N,0,91,91,20,,,0.827,1139.632174,1139.920351,1139.920351,1140.21916,1140.235317,None,down,2.3008067,1140.235317,None,1140.235317,1141.051507,0.1159493,None,,,,,,,,,1,1,2019_Dec_20_1553,untitled,3.1.0,60.09561212
203,G,M,90,R,N,203GM090RN,HRN,0,92,92,130,,,0.901,1142.667944,1142.96607,1142.96607,1143.248366,1143.265236,None,down,3.1500445,1143.265236,None,1143.265236,1144.148191,0.1183402,None,,,,,,,,,1,1,2019_Dec_20_1553,untitled,3.1.0,60.09561212
395,_4,M,90,R,N,395_4M090RN,HRN,0,93,93,162,,,0.93,1146.557877,1146.846714,1146.846714,1147.129383,1147.145987,None,down,2.3172209,1147.145987,None,1147.145987,1148.062099,0.1314425,None,,,,,,,,,1,1,2019_Dec_20_1553,untitled,3.1.0,60.09561212
227,G,N,90,L,N,227GN090LN,HLN,0,94,94,234,,,1.138,1149.592115,1149.893013,1149.893013,1150.176127,1150.193056,None,up,2.0365063,1150.193056,None,1150.193056,1151.324902,0.116963,None,,,,,,,,,1,1,2019_Dec_20_1553,untitled,3.1.0,60.09561212
417,_4,N,0,L,N,417_4N000LN,HLN,0,95,95,264,,,1.113,1152.354479,1152.64248,1152.64248,1152.940423,1152.957184,None,up,2.0343586,1152.957184,None,1152.957184,1154.056578,0.1134657,None,,,,,,,,,1,1,2019_Dec_20_1553,untitled,3.1.0,60.09561212
453,_5,N,180,R,N,453_5N180RN,HRN,0,96,96,276,,,1.186,1155.115185,1155.404902,1155.404902,1155.705179,1155.721661,None,up,2.6658945,1155.721661,None,1155.721661,1156.887715,0.1123771,None,,,,,,,,,1,1,2019_Dec_20_1553,untitled,3.1.0,60.09561212
452,_5,N,135,R,N,452_5N135RN,HRN,0,97,97,275,,,0.987,1158.512129,1158.80172,1158.80172,1159.10158,1159.119059,None,up,1.9150069,1159.119059,None,1159.119059,1160.084587,0.1123293,None,,,,,,,,,1,1,2019_Dec_20_1553,untitled,3.1.0,60.09561212
206,G,M,225,R,N,206GM225RN,HRN,0,98,98,133,,,1.173,1161.111146,1161.450397,1161.465964,1161.74959,1161.766655,None,down,2.3150273,1161.766655,None,1161.766655,1162.91456,0.0684537,None,,,,,,,,,1,1,2019_Dec_20_1553,untitled,3.1.0,60.09561212
_,_4,M,270,_,_,__4M270__,N,0,99,99,38,,,0.733,1164.172961,1164.496772,1164.513416,1164.799502,1164.799502,None,down,3.0120447,1164.799502,None,1164.799502,1165.529751,0.0839922,None,,,,,,,,,1,1,2019_Dec_20_1553,untitled,3.1.0,60.09561212
_,F,M,225,_,_,_FM225__,N,0,100,100,5,,,1.33,1168.027597,1168.326866,1168.326866,1168.526191,1168.543759,None,down,2.9503152,1168.543759,None,1168.543759,1169.859873,0.2054751,None,,,,,,,,,1,1,2019_Dec_20_1553,untitled,3.1.0,60.09561212
_,G,M,90,_,_,_GM090__,N,0,101,101,10,,,0.877,1171.703693,1171.99259,1171.99259,1172.207476,1172.224165,None,down,2.2984973,1172.224165,None,1172.224165,1173.089911,0.1987875,None,,,,,,,,,1,1,2019_Dec_20_1553,untitled,3.1.0,60.09561212
_,_5,N,45,_,_,__5N045__,N,0,102,102,89,,,1.14,1174.61177,1174.937863,1174.954508,1175.238124,1175.255293,None,up,2.0326481,1175.255293,None,1175.255293,1176.371188,0.0811677,None,,,,,,,,,1,1,2019_Dec_20_1553,untitled,3.1.0,60.09561212
484,_5,N,135,L,N,484_5N135LN,HLN,0,103,103,283,,,0.803,1177.387635,1177.702127,1177.718897,1178.002269,1178.019016,None,up,1.7514507,1178.019016,None,1178.019016,1178.801179,0.0901235,None,,,,,,,,,1,1,2019_Dec_20_1553,untitled,3.1.0,60.09561212
_,G,N,45,_,_,_GN045__,N,0,104,104,57,,,0.914,1179.982214,1180.283344,1180.283344,1180.483549,1180.500158,None,up,1.6831081,1180.500158,None,1180.500158,1181.399815,0.2008978,None,,,,,,,,,1,1,2019_Dec_20_1553,untitled,3.1.0,60.09561212
_,_4,M,135,_,_,__4M135__,N,0,105,105,35,,,1.031,1182.386946,1182.681241,1182.681241,1182.897963,1182.914816,None,down,2.8636903,1182.914816,None,1182.914816,1183.930552,0.1916536,None,,,,,,,,,1,1,2019_Dec_20_1553,untitled,3.1.0,60.09561212
_,_4,N,45,_,_,__4N045__,N,0,106,106,81,,,1.014,1185.859875,1186.194905,1186.211507,1186.49575,1186.511738,None,up,1.6536785,1186.511738,None,1186.511738,1187.51125,0.0710001,None,,,,,,,,,1,1,2019_Dec_20_1553,untitled,3.1.0,60.09561212
208,G,M,315,R,N,208GM315RN,HRN,0,107,107,135,,,1.191,1188.238929,1188.575964,1188.592419,1188.875571,1188.892223,None,down,2.9006518,1188.892223,None,1188.892223,1190.074607,0.0655293,None,,,,,,,,,1,1,2019_Dec_20_1553,untitled,3.1.0,60.09561212
386,_4,N,45,R,N,386_4N045RN,HRN,0,108,108,257,,,1.324,1191.923754,1192.222804,1192.222804,1192.506602,1192.523773,None,up,2.0309822,1192.523773,None,1192.523773,1193.839093,0.1187728,None,,,,,,,,,1,1,2019_Dec_20_1553,untitled,3.1.0,60.09561212
43,R,M,90,L,N,043RM090LN,HLN,0,109,109,106,,,0.75,1194.661084,1194.953538,1194.987026,1195.270768,1195.287468,None,down,1.7487792,1195.287468,None,1195.287468,1196.020726,0.0993704,None,,,,,,,,,1,1,2019_Dec_20_1553,untitled,3.1.0,60.09561212
420,_4,N,135,L,N,420_4N135LN,HLN,0,110,110,267,,,1.376,1197.165318,1197.466746,1197.466746,1197.751711,1197.768372,None,up,2.2167466,1197.768372,None,1197.768372,1199.133466,0.1185577,None,,,,,,,,,1,1,2019_Dec_20_1553,untitled,3.1.0,60.09561212
_,_5,M,225,_,_,__5M225__,N,0,111,111,45,,,1.261,1200.139415,1200.432039,1200.432039,1200.699142,1200.715939,None,up,2.5680561,1200.715939,None,1200.715939,1201.965218,0.1431683,None,,,,,,,,,1,1,2019_Dec_20_1553,untitled,3.1.0,60.09561212
_,F,N,135,_,_,_FN135__,N,0,112,112,51,,,1.124,1203.504351,1203.796325,1203.796325,1203.996221,1204.012221,None,up,1.7831802,1204.012221,None,1204.012221,1205.128996,0.207624,None,,,,,,,,,1,1,2019_Dec_20_1553,untitled,3.1.0,60.09561212
296,_2,N,315,L,N,296_2N315LN,HLN,0,113,113,255,,,1.107,1205.880803,1206.210299,1206.22699,1206.510763,1206.527648,None,up,2.6988127,1206.527648,None,1206.527648,1207.61031,0.0771506,None,,,,,,,,,1,1,2019_Dec_20_1553,untitled,3.1.0,60.09561212
10,R,M,45,R,N,010RM045RN,HRN,0,114,114,97,,,1.007,1209.330472,1209.640712,1209.657499,1209.941119,1209.958094,None,down,1.8852811,1209.958094,None,1209.958094,1210.955928,0.0921832,None,,,,,,,,,1,1,2019_Dec_20_1553,untitled,3.1.0,60.09561212
_,R,M,270,_,_,_RM270__,N,0,115,115,22,,,0.926,1211.963371,1212.255076,1212.27194,1212.555608,1212.572264,None,down,2.3324705,1212.572264,None,1212.572264,1213.48817,0.1089707,None,,,,,,,,,1,1,2019_Dec_20_1553,untitled,3.1.0,60.09561212
_,R,N,90,_,_,_RN090__,N,0,116,116,66,,,0.867,1215.047588,1215.338539,1215.338539,1215.620718,1215.636502,None,up,1.4519633,1215.636502,None,1215.636502,1216.485381,0.1309615,None,,,,,,,,,1,1,2019_Dec_20_1553,untitled,3.1.0,60.09561212
_,_4,N,315,_,_,__4N315__,N,0,117,117,87,,,1.098,1217.212539,1217.501135,1217.501135,1217.801388,1217.817606,None,up,1.7340021,1217.817606,None,1217.817606,1218.901498,0.112175,None,,,,,,,,,1,1,2019_Dec_20_1553,untitled,3.1.0,60.09561212
495,_5,M,270,L,N,495_5M270LN,HLN,0,118,118,190,,,0.989,1219.76018,1220.050466,1220.050466,1220.26487,1220.281592,None,down,2.8220782,1220.281592,None,1220.281592,1221.264785,0.1975708,None,,,,,,,,,1,1,2019_Dec_20_1553,untitled,3.1.0,60.09561212
265,_2,M,0,R,N,265_2M000RN,HRN,0,119,119,144,,,0.818,1223.233902,1223.529246,1223.529246,1223.829138,1223.829138,None,down,2.1011715,1223.829138,None,1223.829138,1224.644621,0.1179048,None,,,,,,,,,1,1,2019_Dec_20_1553,untitled,3.1.0,60.09561212
267,_2,M,90,R,N,267_2M090RN,HRN,0,120,120,146,,,1.144,1226.062071,1226.359591,1226.359591,1226.642808,1226.659445,None,down,3.1993269,1226.659445,None,1226.659445,1227.792221,0.1189873,None,,,,,,,,,1,1,2019_Dec_20_1553,untitled,3.1.0,60.09561212
_,_5,N,270,_,_,__5N270__,N,0,121,121,94,,,0.741,1229.971568,1230.272826,1230.289681,1230.573613,1230.590084,None,up,1.8164486,1230.590084,None,1230.590084,1231.322079,0.1013102,None,,,,,,,,,1,1,2019_Dec_20_1553,untitled,3.1.0,60.09561212
260,_2,N,135,R,N,260_2N135RN,HRN,0,122,122,243,,,1.392,1232.525279,1232.820977,1232.838336,1233.12146,1233.13769,None,up,3.4476324,1233.13769,None,1233.13769,1234.519687,0.1077773,None,,,,,,,,,1,1,2019_Dec_20_1553,untitled,3.1.0,60.09561212
1,R,N,0,R,N,001RN000RN,HRN,0,123,123,192,,,0.803,1236.763117,1237.050891,1237.050891,1237.30057,1237.317285,None,up,1.6000876,1237.317285,None,1237.317285,1238.10022,0.16926,None,,,,,,,,,1,1,2019_Dec_20_1553,untitled,3.1.0,60.09561212
460,_5,M,135,R,N,460_5M135RN,HRN,0,124,124,179,,,1.202,1239.02788,1239.331754,1239.348206,1239.631847,1239.648523,None,up,3.0503568,1239.648523,None,1239.648523,1240.830156,0.0984438,None,,,,,,,,,1,1,2019_Dec_20_1553,untitled,3.1.0,60.09561212
164,F,N,135,L,N,164FN135LN,HLN,0,125,125,219,,,0.814,1242.919252,1243.211361,1243.211361,1243.411368,1243.428056,None,up,2.382557,1243.428056,None,1243.428056,1244.228236,0.2093358,None,,,,,,,,,1,1,2019_Dec_20_1553,untitled,3.1.0,60.09561212
_,F,M,90,_,_,_FM090__,N,0,126,126,2,,,1.027,1245.954038,1246.242682,1246.242682,1246.527884,1246.542766,None,down,2.7988448,1246.542766,None,1246.542766,1247.558533,0.1309395,None,,,,,,,,,1,1,2019_Dec_20_1553,untitled,3.1.0,60.09561212
430,_4,M,225,L,N,430_4M225LN,HLN,0,127,127,173,,,1.181,1249.561748,1249.855733,1249.855733,1250.055715,1250.072303,None,up,2.3663636,1250.072303,None,1250.072303,1251.23834,0.2069182,None,,,,,,,,,1,1,2019_Dec_20_1553,untitled,3.1.0,60.09561212
485,_5,N,180,L,N,485_5N180LN,HLN,0,128,128,284,,,1.17,1252.582405,1252.871753,1252.871753,1253.153905,1253.170282,None,up,2.4995541,1253.170282,None,1253.170282,1254.335256,0.1319879,None,,,,,,,,,1,1,2019_Dec_20_1553,untitled,3.1.0,60.09561212
_,_2,M,180,_,_,__2M180__,N,0,129,129,28,,,0.801,1255.796235,1256.085934,1256.085934,1256.384188,1256.400816,None,None,,1256.400816,None,1256.400816,1257.184613,0.1150095,None,,,,,,,,,1,1,2019_Dec_20_1553,untitled,3.1.0,60.09561212
133,F,N,180,R,N,133FN180RN,HRN,0,130,130,212,,,1.302,1259.99391,1260.29708,1260.29708,1260.580439,1260.597168,1259.99391,up,3.0647473,1260.597168,None,1260.597168,1261.879312,0.1187701,None,,,,,,,,,1,1,2019_Dec_20_1553,untitled,3.1.0,60.09561212
_,_4,N,90,_,_,__4N090__,N,0,131,131,82,,,0.8,1263.756101,1264.07697,1264.093707,1264.376951,1264.393534,None,up,1.5519609,1264.393534,None,1264.393534,1265.176757,0.0862133,None,,,,,,,,,1,1,2019_Dec_20_1553,untitled,3.1.0,60.09561212
_,_2,N,135,_,_,__2N135__,N,0,132,132,75,,,0.895,1266.067193,1266.35854,1266.35854,1266.658047,1266.674785,None,up,2.367297,1266.674785,None,1266.674785,1267.557972,0.1123709,None,,,,,,,,,1,1,2019_Dec_20_1553,untitled,3.1.0,60.09561212
400,_4,M,315,R,N,400_4M315RN,HRN,0,133,133,167,,,0.836,1269.172055,1269.47225,1269.47225,1269.755857,1269.773838,None,up,1.7652513,1269.773838,None,1269.773838,1270.588159,0.118693,None,,,,,,,,,1,1,2019_Dec_20_1553,untitled,3.1.0,60.09561212
237,G,M,180,L,N,237GM180LN,HLN,0,134,134,140,,,1.322,1271.669698,1271.96999,1271.96999,1272.253794,1272.270518,None,up,3.1980245,1272.270518,None,1272.270518,1273.585805,0.1161561,None,,,,,,,,,1,1,2019_Dec_20_1553,untitled,3.1.0,60.09561212
176,F,M,315,L,N,176FM315LN,HLN,0,135,135,127,,,1.176,1275.594842,1275.883775,1275.883775,1276.183415,1276.200031,None,down,2.8662993,1276.200031,None,1276.200031,1277.36696,0.1156668,None,,,,,,,,,1,1,2019_Dec_20_1553,untitled,3.1.0,60.09561212
_,_2,N,225,_,_,__2N225__,N,0,136,136,77,,,1.139,1279.197403,1279.496815,1279.496815,1279.780459,1279.797108,None,up,2.4315514,1279.797108,None,1279.797108,1280.929393,0.1189938,None,,,,,,,,,1,1,2019_Dec_20_1553,untitled,3.1.0,60.09561212
48,R,M,315,L,N,048RM315LN,HLN,0,137,137,111,,,1.087,1282.40965,1282.710805,1282.710805,1282.94385,1282.960457,None,down,2.3654966,1282.960457,None,1282.960457,1284.026516,0.1716679,None,,,,,,,,,1,1,2019_Dec_20_1553,untitled,3.1.0,60.09561212
289,_2,N,0,L,N,289_2N000LN,HLN,0,138,138,248,,,0.957,1285.428458,1285.742827,1285.7575,1286.041405,1286.058172,None,up,1.5999031,1286.058172,None,1286.058172,1286.989806,0.0928188,None,,,,,,,,,1,1,2019_Dec_20_1553,untitled,3.1.0,60.09561212
198,G,N,225,R,N,198GN225RN,HRN,0,139,139,229,,,1.332,1287.782153,1288.073305,1288.073305,1288.373016,1288.390045,None,up,2.2991608,1288.390045,None,1288.390045,1289.704656,0.1126774,None,,,,,,,,,1,1,2019_Dec_20_1553,untitled,3.1.0,60.09561212
299,_2,M,90,L,N,299_2M090LN,HLN,0,140,140,154,,,1.193,1290.809251,1291.103508,1291.120029,1291.403446,1291.420342,None,down,2.8164136,1291.420342,None,1291.420342,1292.602568,0.1078376,None,,,,,,,,,1,1,2019_Dec_20_1553,untitled,3.1.0,60.09561212
7,R,N,270,R,N,007RN270RN,HRN,0,141,141,198,,,1.017,1294.355959,1294.650393,1294.66658,1294.950251,1294.967171,None,up,1.9491131,1294.967171,None,1294.967171,1295.966123,0.1075059,None,,,,,,,,,1,1,2019_Dec_20_1553,untitled,3.1.0,60.09561212
144,F,M,315,R,N,144FM315RN,HRN,0,142,142,119,,,1.141,1297.016414,1297.331231,1297.348156,1297.630839,1297.647617,None,down,2.0348539,1297.647617,None,1297.647617,1298.780328,0.0894498,None,,,,,,,,,1,1,2019_Dec_20_1553,untitled,3.1.0,60.09561212
_,_5,M,0,_,_,__5M000__,N,0,143,143,40,,,0.935,1299.803007,1300.095763,1300.112356,1300.396021,1300.412453,None,up,2.3503015,1300.412453,None,1300.412453,1301.32769,0.1095033,None,,,,,,,,,1,1,2019_Dec_20_1553,untitled,3.1.0,60.09561212
461,_5,M,180,R,N,461_5M180RN,HRN,0,144,144,180,,,0.767,1302.895211,1303.192819,1303.192819,1303.476537,1303.494086,None,up,2.6486082,1303.494086,None,1303.494086,1304.242005,0.1208388,None,,,,,,,,,1,1,2019_Dec_20_1553,untitled,3.1.0,60.09561212
196,G,N,135,R,N,196GN135RN,HRN,0,145,145,227,,,1.221,1306.278771,1306.573392,1306.573392,1306.856554,1306.873355,None,up,2.6856598,1306.873355,None,1306.873355,1308.089212,0.1230247,None,,,,,,,,,1,1,2019_Dec_20_1553,untitled,3.1.0,60.09561212
167,F,N,270,L,N,167FN270LN,HLN,0,146,146,222,,,1.286,1309.675035,1309.970028,1309.986875,1310.270192,1310.287172,None,up,2.482267,1310.287172,None,1310.287172,1311.569378,0.1053465,None,,,,,,,,,1,1,2019_Dec_20_1553,untitled,3.1.0,60.09561212
5,R,N,180,R,N,005RN180RN,HRN,0,147,147,196,,,1.109,1312.857553,1313.184451,1313.200456,1313.484069,1313.501004,None,up,2.6323498,1313.501004,None,1313.501004,1314.599607,0.0792031,None,,,,,,,,,1,1,2019_Dec_20_1553,untitled,3.1.0,60.09561212
197,G,N,180,R,N,197GN180RN,HRN,0,148,148,228,,,1.118,1316.23969,1316.547741,1316.564208,1316.847967,1316.864096,None,up,2.0666326,1316.864096,None,1316.864096,1317.963598,0.0970469,None,,,,,,,,,1,1,2019_Dec_20_1553,untitled,3.1.0,60.09561212
163,F,N,90,L,N,163FN090LN,HLN,0,149,149,218,,,0.743,1319.150527,1319.446079,1319.446079,1319.64578,1319.66232,None,up,1.4847342,1319.66232,None,1319.66232,1320.394914,0.2113824,None,,,,,,,,,1,1,2019_Dec_20_1553,untitled,3.1.0,60.09561212
_,F,N,90,_,_,_FN090__,N,0,150,150,50,,,0.986,1321.371015,1321.659965,1321.659965,1321.860691,1321.877083,None,up,1.4998153,1321.877083,None,1321.877083,1322.842705,0.2115467,None,,,,,,,,,1,1,2019_Dec_20_1553,untitled,3.1.0,60.09561212
_,F,M,270,_,_,_FM270__,N,0,151,151,6,,,0.899,1323.594101,1323.891147,1323.891147,1324.091847,1324.109543,None,down,2.2467234,1324.109543,None,1324.109543,1324.989994,0.2048149,None,,,,,,,,,1,1,2019_Dec_20_1553,untitled,3.1.0,60.09561212
175,F,M,270,L,N,175FM270LN,HLN,0,152,152,126,,,1.25,1326.442804,1326.7725,1326.789459,1327.072018,1327.089064,None,down,2.132067,1327.089064,None,1327.089064,1328.3226,0.0785335,None,,,,,,,,,1,1,2019_Dec_20_1553,untitled,3.1.0,60.09561212
449,_5,N,0,R,N,449_5N000RN,HRN,0,153,153,272,,,1.125,1329.35423,1329.652689,1329.652689,1329.936433,1329.953353,None,up,1.7341727,1329.953353,None,1329.953353,1331.068038,0.122216,None,,,,,,,,,1,1,2019_Dec_20_1553,untitled,3.1.0,60.09561212
38,R,N,225,L,N,038RN225LN,HLN,0,154,154,205,,,0.744,1331.90744,1332.200948,1332.200948,1332.401087,1332.418796,None,up,1.4007735,1332.418796,None,1332.418796,1333.150562,0.2112096,None,,,,,,,,,1,1,2019_Dec_20_1553,untitled,3.1.0,60.09561212
232,G,N,315,L,N,232GN315LN,HLN,0,155,155,239,,,1.303,1333.942893,1334.232563,1334.232563,1334.533518,1334.550244,None,up,2.0655586,1334.550244,None,1334.550244,1335.849064,0.1121032,None,,,,,,,,,1,1,2019_Dec_20_1553,untitled,3.1.0,60.09561212
385,_4,N,0,R,N,385_4N000RN,HRN,0,156,156,256,,,1.157,1336.824283,1337.113422,1337.113422,1337.33009,1337.346967,None,up,1.7001315,1337.346967,None,1337.346967,1338.480796,0.1980606,None,,,,,,,,,1,1,2019_Dec_20_1553,untitled,3.1.0,60.09561212
193,G,N,0,R,N,193GN000RN,HRN,0,157,157,224,,,1.07,1339.151887,1339.461285,1339.478443,1339.761418,1339.778973,None,up,1.6504735,1339.778973,None,1339.778973,1340.843767,0.0913491,None,,,,,,,,,1,1,2019_Dec_20_1553,untitled,3.1.0,60.09561212
134,F,N,225,R,N,134FN225RN,HRN,0,158,158,213,,,0.859,1341.53047,1341.842675,1341.859381,1342.142013,1342.158866,None,up,1.6486103,1342.158866,None,1342.158866,1343.008755,0.0918634,None,,,,,,,,,1,1,2019_Dec_20_1553,untitled,3.1.0,60.09561212
491,_5,M,90,L,N,491_5M090LN,HLN,0,159,159,186,,,0.95,1343.896712,1344.223467,1344.240223,1344.52379,1344.540607,None,down,2.5974406,1344.540607,None,1344.540607,1345.473263,0.0813431,None,,,,,,,,,1,1,2019_Dec_20_1553,untitled,3.1.0,60.09561212
427,_4,M,90,L,N,427_4M090LN,HLN,0,160,160,170,,,1.177,1347.230681,1347.553998,1347.571218,1347.854789,1347.871067,None,down,2.1685307,1347.871067,None,1347.871067,1349.03729,0.083919,None,,,,,,,,,1,1,2019_Dec_20_1553,untitled,3.1.0,60.09561212
_,F,N,180,_,_,_FN180__,N,0,161,161,52,,,1.148,1350.276405,1350.568005,1350.568005,1350.752216,1350.768637,None,up,2.4002126,1350.768637,None,1350.768637,1351.902801,0.2254203,None,,,,,,,,,1,1,2019_Dec_20_1553,untitled,3.1.0,60.09561212
269,_2,M,180,R,N,269_2M180RN,HRN,0,162,162,148,,,0.971,1353.301045,1353.598855,1353.598855,1353.882518,1353.899181,None,up,2.4522961,1353.899181,None,1353.899181,1354.864191,0.1207693,None,,,,,,,,,1,1,2019_Dec_20_1553,untitled,3.1.0,60.09561212
_,R,M,135,_,_,_RM135__,N,0,163,163,19,,,0.803,1356.475928,1356.764319,1356.764319,1357.062711,1357.079521,None,down,2.4826827,1357.079521,None,1357.079521,1357.878485,0.1122388,None,,,,,,,,,1,1,2019_Dec_20_1553,untitled,3.1.0,60.09561212
490,_5,M,45,L,N,490_5M045LN,HLN,0,164,164,185,,,0.864,1359.683573,1359.977882,1359.993573,1360.276486,1360.293035,None,down,2.9183371,1360.293035,None,1360.293035,1361.143181,0.1100638,None,,,,,,,,,1,1,2019_Dec_20_1553,untitled,3.1.0,60.09561212
129,F,N,0,R,N,129FN000RN,HRN,0,165,165,208,,,0.792,1363.328709,1363.62359,1363.639839,1363.922982,1363.939682,None,up,2.6494512,1363.939682,None,1363.939682,1364.722339,0.1058927,None,,,,,,,,,1,1,2019_Dec_20_1553,untitled,3.1.0,60.09561212
_,_2,M,315,_,_,__2M315__,N,0,166,166,31,,,0.843,1366.706443,1367.003529,1367.020465,1367.304082,1367.320732,None,down,2.7832842,1367.320732,None,1367.320732,1368.202768,0.1061205,None,,,,,,,,,1,1,2019_Dec_20_1553,untitled,3.1.0,60.09561212
_,_2,N,270,_,_,__2N270__,N,0,167,167,78,,,1.245,1370.237841,1370.534075,1370.534075,1370.817751,1370.83446,None,up,2.4979933,1370.83446,None,1370.83446,1372.066679,0.1228821,None,,,,,,,,,1,1,2019_Dec_20_1553,untitled,3.1.0,60.09561212
165,F,N,180,L,N,165FN180LN,HLN,0,168,168,220,,,1.251,1373.419153,1373.747743,1373.764885,1374.048178,1374.06478,None,up,2.7141267,1374.06478,None,1374.06478,1375.297105,0.0782068,None,,,,,,,,,1,1,2019_Dec_20_1553,untitled,3.1.0,60.09561212
423,_4,N,270,L,N,423_4N270LN,HLN,0,169,169,270,,,1.35,1376.878246,1377.194513,1377.21206,1377.495162,1377.511975,None,up,2.438411,1377.511975,None,1377.511975,1378.844161,0.089982,None,,,,,,,,,1,1,2019_Dec_20_1553,untitled,3.1.0,60.09561212
4,R,N,135,R,N,004RN135RN,HRN,0,170,170,195,,,1.304,1380.081994,1380.37537,1380.37537,1380.675896,1380.675896,None,up,2.3023087,1380.675896,None,1380.675896,1381.974707,0.1195128,None,,,,,,,,,1,1,2019_Dec_20_1553,untitled,3.1.0,60.09561212
46,R,M,225,L,N,046RM225LN,HLN,0,171,171,109,,,1.109,1383.205258,1383.505979,1383.505979,1383.689706,1383.706556,None,down,2.1834232,1383.706556,None,1383.706556,1384.805423,0.2162753,None,,,,,,,,,1,1,2019_Dec_20_1553,untitled,3.1.0,60.09561212
169,F,M,0,L,N,169FM000LN,HLN,0,172,172,120,,,0.924,1386.021171,1386.320462,1386.320462,1386.604275,1386.620553,None,down,1.9826697,1386.620553,None,1386.620553,1387.537353,0.1196139,None,,,,,,,,,1,1,2019_Dec_20_1553,untitled,3.1.0,60.09561212
297,_2,M,0,L,N,297_2M000LN,HLN,0,173,173,152,,,0.802,1388.690838,1389.017909,1389.034633,1389.31817,1389.334766,None,down,2.4157855,1389.334766,None,1389.334766,1390.119105,0.0796449,None,,,,,,,,,1,1,2019_Dec_20_1553,untitled,3.1.0,60.09561212
304,_2,M,315,L,N,304_2M315LN,HLN,0,174,174,159,,,1.006,1391.878547,1392.167397,1392.167397,1392.465455,1392.481706,None,down,3.1670337,1392.481706,None,1392.481706,1393.464948,0.1128276,None,,,,,,,,,1,1,2019_Dec_20_1553,untitled,3.1.0,60.09561212
481,_5,N,0,L,N,481_5N000LN,HLN,0,175,175,280,,,0.954,1395.775754,1396.064,1396.064,1396.361986,1396.378837,None,up,1.6151469,1396.378837,None,1396.378837,1397.327982,0.115708,None,,,,,,,,,1,1,2019_Dec_20_1553,untitled,3.1.0,60.09561212
40,R,N,315,L,N,040RN315LN,HLN,0,176,176,207,,,1.184,1398.231812,1398.495789,1398.495789,1398.709273,1398.7266,None,up,2.100192,1398.7266,None,1398.7266,1399.892343,0.2044753,None,,,,,,,,,1,1,2019_Dec_20_1553,untitled,3.1.0,60.09561212
261,_2,N,180,R,N,261_2N180RN,HRN,0,177,177,244,,,1.216,1400.945413,1401.240688,1401.257128,1401.541257,1401.55773,None,up,2.8310274,1401.55773,None,1401.55773,1402.756812,0.1055476,None,,,,,,,,,1,1,2019_Dec_20_1553,untitled,3.1.0,60.09561212
394,_4,M,45,R,N,394_4M045RN,HRN,0,178,178,161,,,0.865,1404.481064,1404.804294,1404.821012,1405.104758,1405.121411,None,down,1.8320445,1405.121411,None,1405.121411,1405.970688,0.0831231,None,,,,,,,,,1,1,2019_Dec_20_1553,untitled,3.1.0,60.09561212
454,_5,N,225,R,N,454_5N225RN,HRN,0,179,179,277,,,1.218,1407.088934,1407.407283,1407.407283,1407.668689,1407.685379,None,up,2.199921,1407.685379,None,1407.685379,1408.884328,0.1246982,None,,,,,,,,,1,1,2019_Dec_20_1553,untitled,3.1.0,60.09561212
132,F,N,135,R,N,132FN135RN,HRN,0,180,180,211,,,0.729,1410.001582,1410.299411,1410.316233,1410.59968,1410.616751,None,up,1.616715,1410.616751,None,1410.616751,1411.331507,0.1047631,None,,,,,,,,,1,1,2019_Dec_20_1553,untitled,3.1.0,60.09561212
_,F,N,0,_,_,_FN000__,N,0,181,181,48,,,0.932,1412.460842,1412.764158,1412.764158,1412.9475,1412.964372,None,up,1.6176799,1412.964372,None,1412.964372,1413.880261,0.2152553,None,,,,,,,,,1,1,2019_Dec_20_1553,untitled,3.1.0,60.09561212
12,R,M,135,R,N,012RM135RN,HRN,0,182,182,99,,,1.021,1414.733995,1415.028584,1415.028584,1415.296028,1415.312316,None,down,2.1832671,1415.312316,None,1415.312316,1416.327495,0.139483,None,,,,,,,,,1,1,2019_Dec_20_1553,untitled,3.1.0,60.09561212
42,R,M,45,L,N,042RM045LN,HLN,0,183,183,105,,,0.776,1417.59932,1417.909751,1417.92599,1418.209026,1418.226079,None,down,1.5370634,1418.226079,None,1418.226079,1418.991912,0.0945963,None,,,,,,,,,1,1,2019_Dec_20_1553,untitled,3.1.0,60.09561212
235,G,M,90,L,N,235GM090LN,HLN,0,184,184,138,,,0.967,1419.920898,1420.209363,1420.209363,1420.474596,1420.49124,None,down,2.680353,1420.49124,None,1420.49124,1421.440539,0.1457622,None,,,,,,,,,1,1,2019_Dec_20_1553,untitled,3.1.0,60.09561212
_,G,M,270,_,_,_GM270__,N,0,185,185,14,,,1.006,1423.37145,1423.67136,1423.67136,1423.888852,1423.905298,None,down,2.5986027,1423.905298,None,1423.905298,1424.887345,0.1912482,None,,,,,,,,,1,1,2019_Dec_20_1553,untitled,3.1.0,60.09561212
44,R,M,135,L,N,044RM135LN,HLN,0,186,186,107,,,0.764,1426.61907,1426.918345,1426.934735,1427.218501,1427.23536,None,down,2.2007398,1427.23536,None,1427.23536,1427.984472,0.1043378,None,,,,,,,,,1,1,2019_Dec_20_1553,untitled,3.1.0,60.09561212
35,R,N,90,L,N,035RN090LN,HLN,0,187,187,202,,,0.97,1429.558092,1429.849013,1429.865577,1430.148672,1430.165261,None,up,1.6855037,1430.165261,None,1430.165261,1431.133094,0.1080839,None,,,,,,,,,1,1,2019_Dec_20_1553,untitled,3.1.0,60.09561212
_,F,M,180,_,_,_FM180__,N,0,188,188,4,,,1.198,1432.069208,1432.364256,1432.364256,1432.563655,1432.580535,None,down,3.2816602,1432.580535,None,1432.580535,1433.7623,0.2075798,None,,,,,,,,,1,1,2019_Dec_20_1553,untitled,3.1.0,60.09561212
450,_5,N,45,R,N,450_5N045RN,HRN,0,189,189,273,,,0.747,1435.9899,1436.293668,1436.293668,1436.576841,1436.593886,None,up,1.5490362,1436.593886,None,1436.593886,1437.329447,0.1167009,None,,,,,,,,,1,1,2019_Dec_20_1553,untitled,3.1.0,60.09561212
138,F,M,45,R,N,138FM045RN,HRN,0,190,190,113,,,1.181,1438.228501,1438.558044,1438.575422,1438.858591,1438.875132,None,down,2.1510095,1438.875132,None,1438.875132,1440.042239,0.0774356,None,,,,,,,,,1,1,2019_Dec_20_1553,untitled,3.1.0,60.09561212
230,G,N,225,L,N,230GN225LN,HLN,0,191,191,237,,,0.934,1441.168038,1441.455895,1441.455895,1441.739123,1441.755586,None,up,2.0523457,1441.755586,None,1441.755586,1442.671083,0.1298468,None,,,,,,,,,1,1,2019_Dec_20_1553,untitled,3.1.0,60.09561212
_,R,M,45,_,_,_RM045__,N,0,192,192,17,,,0.967,1443.924974,1444.219943,1444.236806,1444.520084,1444.537767,None,down,2.7349911,1444.537767,None,1444.537767,1445.485934,0.1063253,None,,,,,,,,,1,1,2019_Dec_20_1553,untitled,3.1.0,60.09561212
487,_5,N,270,L,N,487_5N270LN,HLN,0,193,193,286,,,1.088,1447.402803,1447.699785,1447.699785,1447.983654,1448.000508,None,up,2.0164957,1448.000508,None,1448.000508,1449.082533,0.1194583,None,,,,,,,,,1,1,2019_Dec_20_1553,untitled,3.1.0,60.09561212
_,F,M,135,_,_,_FM135__,N,0,194,194,3,,,0.998,1450.217401,1450.51456,1450.51456,1450.730616,1450.747523,None,up,3.0817212,1450.747523,None,1450.747523,1451.730451,0.1897174,None,,,,,,,,,1,1,2019_Dec_20_1553,untitled,3.1.0,60.09561212
259,_2,N,90,R,N,259_2N090RN,HRN,0,195,195,242,,,1.291,1453.930063,1454.24396,1454.261031,1454.545242,1454.561509,None,up,2.033408,1454.561509,None,1454.561509,1455.844023,0.0901443,None,,,,,,,,,1,1,2019_Dec_20_1553,untitled,3.1.0,60.09561212
463,_5,M,270,R,N,463_5M270RN,HRN,0,196,196,182,,,1.179,1456.819725,1457.109615,1457.109615,1457.308964,1457.325803,None,up,2.3475693,1457.325803,None,1457.325803,1458.490632,0.2136188,None,,,,,,,,,1,1,2019_Dec_20_1553,untitled,3.1.0,60.09561212
131,F,N,90,R,N,131FN090RN,HRN,0,197,197,210,,,1.385,1459.745673,1460.089455,1460.105953,1460.389621,1460.406295,None,up,2.0692024,1460.406295,None,1460.406295,1461.772029,0.0646633,None,,,,,,,,,1,1,2019_Dec_20_1553,untitled,3.1.0,60.09561212
166,F,N,225,L,N,166FN225LN,HLN,0,198,198,221,,,0.806,1462.5901,1462.886714,1462.903184,1463.186314,1463.203191,None,up,1.7827728,1463.203191,None,1463.203191,1464.002708,0.1026418,None,,,,,,,,,1,1,2019_Dec_20_1553,untitled,3.1.0,60.09561212
271,_2,M,270,R,N,271_2M270RN,HRN,0,199,199,150,,,0.889,1465.055914,1465.401559,1465.418723,1465.701239,1465.717984,None,down,2.2986103,1465.717984,None,1465.717984,1466.584431,0.0628761,None,,,,,,,,,1,1,2019_Dec_20_1553,untitled,3.1.0,60.09561212
137,F,M,0,R,N,137FM000RN,HRN,0,200,200,112,,,1.297,1468.106,1468.433981,1468.450502,1468.732787,1468.749135,None,down,2.4641977,1468.749135,None,1468.749135,1470.031302,0.0798941,None,,,,,,,,,1,1,2019_Dec_20_1553,untitled,3.1.0,60.09561212
391,_4,N,270,R,N,391_4N270RN,HRN,0,201,201,262,,,1.245,1471.286259,1471.629391,1471.646675,1471.929872,1471.947091,None,up,1.9982061,1471.947091,None,1471.947091,1473.179267,0.0660914,None,,,,,,,,,1,1,2019_Dec_20_1553,untitled,3.1.0,60.09561212
_,G,M,315,_,_,_GM315__,N,0,202,202,15,,,0.852,1474.081981,1474.377633,1474.377633,1474.660793,1474.677301,None,down,1.949653,1474.677301,None,1474.677301,1475.51009,0.1287533,None,,,,,,,,,1,1,2019_Dec_20_1553,untitled,3.1.0,60.09561212
266,_2,M,45,R,N,266_2M045RN,HRN,0,203,203,145,,,0.801,1476.747294,1477.041518,1477.058171,1477.344327,1477.359602,None,down,2.7463303,1477.359602,None,1477.359602,1478.206902,0.1071999,None,,,,,,,,,1,1,2019_Dec_20_1553,untitled,3.1.0,60.09561212
236,G,M,135,L,N,236GM135LN,HLN,0,204,204,139,,,0.957,1480.196272,1480.521512,1480.538282,1480.821901,1480.840048,None,down,3.0810187,1480.840048,None,1480.840048,1481.772569,0.081673,None,,,,,,,,,1,1,2019_Dec_20_1553,untitled,3.1.0,60.09561212
202,G,M,45,R,N,202GM045RN,HRN,0,205,205,129,,,0.947,1483.994728,1484.335189,1484.351752,1484.634727,1484.65131,None,down,2.3841468,1484.65131,None,1484.65131,1485.584316,0.0658795,None,,,,,,,,,1,1,2019_Dec_20_1553,untitled,3.1.0,60.09561212
_,G,N,90,_,_,_GN090__,N,0,206,206,58,,,0.824,1487.247311,1487.549107,1487.549107,1487.748265,1487.765076,None,up,1.715815,1487.765076,None,1487.765076,1488.580853,0.2003271,None,,,,,,,,,1,1,2019_Dec_20_1553,untitled,3.1.0,60.09561212
258,_2,N,45,R,N,258_2N045RN,HRN,0,207,207,241,,,1.072,1489.693606,1489.995163,1489.995163,1490.198112,1490.214003,None,up,1.7522128,1490.214003,None,1490.214003,1491.26332,0.2047234,None,,,,,,,,,1,1,2019_Dec_20_1553,untitled,3.1.0,60.09561212
201,G,M,0,R,N,201GM000RN,HRN,0,208,208,128,,,1.255,1492.076865,1492.377919,1492.39439,1492.678357,1492.694962,None,down,2.5986215,1492.694962,None,1492.694962,1493.946901,0.0996655,None,,,,,,,,,1,1,2019_Dec_20_1553,untitled,3.1.0,60.09561212
_,_2,M,90,_,_,__2M090__,N,0,209,209,26,,,1.118,1495.378742,1495.708505,1495.72488,1496.008787,1496.02569,None,down,2.4816068,1496.02569,None,1496.02569,1497.124209,0.0766094,None,,,,,,,,,1,1,2019_Dec_20_1553,untitled,3.1.0,60.09561212
303,_2,M,270,L,N,303_2M270LN,HLN,0,210,210,158,,,0.909,1498.596937,1498.923754,1498.938615,1499.222661,1499.239212,None,down,3.0017672,1499.239212,None,1499.239212,1500.138651,0.0806992,None,,,,,,,,,1,1,2019_Dec_20_1553,untitled,3.1.0,60.09561212
388,_4,N,135,R,N,388_4N135RN,HRN,0,211,211,259,,,1.113,1502.426449,1502.718886,1502.718886,1502.951691,1502.968239,None,up,2.1838337,1502.968239,None,1502.968239,1504.068433,0.1746615,None,,,,,,,,,1,1,2019_Dec_20_1553,untitled,3.1.0,60.09561212
298,_2,M,45,L,N,298_2M045LN,HLN,0,212,212,153,,,1.237,1505.275255,1505.566517,1505.583233,1505.866872,1505.883438,None,up,3.3159108,1505.883438,None,1505.883438,1507.098846,0.110476,None,,,,,,,,,1,1,2019_Dec_20_1553,untitled,3.1.0,60.09561212
195,G,N,90,R,N,195GN090RN,HRN,0,213,213,226,,,0.771,1509.327239,1509.614779,1509.614779,1509.912598,1509.929573,None,up,1.7511882,1509.929573,None,1509.929573,1510.69561,0.1167941,None,,,,,,,,,1,1,2019_Dec_20_1553,untitled,3.1.0,60.09561212
161,F,N,0,L,N,161FN000LN,HLN,0,214,214,216,,,1.055,1511.810512,1512.110744,1512.110744,1512.394413,1512.410905,None,up,1.8834326,1512.410905,None,1512.410905,1513.459182,0.1169716,None,,,,,,,,,1,1,2019_Dec_20_1553,untitled,3.1.0,60.09561212
396,_4,M,135,R,N,396_4M135RN,HRN,0,215,215,163,,,0.858,1514.393691,1514.70836,1514.724723,1515.008776,1515.026605,None,down,2.3814953,1515.026605,None,1515.026605,1515.874534,0.0912873,None,,,,,,,,,1,1,2019_Dec_20_1553,untitled,3.1.0,60.09561212
_,_5,N,135,_,_,__5N135__,N,0,216,216,91,,,0.908,1517.519695,1517.808478,1517.839093,1518.182058,1518.195483,None,up,2.1610455,1518.195483,None,1518.195483,1519.038542,0.1007899,None,,,,,,,,,1,1,2019_Dec_20_1553,untitled,3.1.0,60.09561212
389,_4,N,180,R,N,389_4N180RN,HRN,0,217,217,260,,,0.984,1520.483642,1520.786682,1520.786682,1521.070596,1521.087087,None,up,2.0347357,1521.087087,None,1521.087087,1522.052922,0.1156698,None,,,,,,,,,1,1,2019_Dec_20_1553,untitled,3.1.0,60.09561212
398,_4,M,225,R,N,398_4M225RN,HRN,0,218,218,165,,,0.743,1523.241848,1523.534354,1523.55094,1523.833768,1523.850332,None,down,3.0506032,1523.850332,None,1523.850332,1524.583247,0.1086488,None,,,,,,,,,1,1,2019_Dec_20_1553,untitled,3.1.0,60.09561212
_,_5,M,135,_,_,__5M135__,N,0,219,219,43,,,1.16,1527.047886,1527.347419,1527.347419,1527.614491,1527.631256,None,None,,1527.631256,None,1527.631256,1528.780217,0.1358088,None,,,,,,,,,1,1,2019_Dec_20_1553,untitled,3.1.0,60.09561212
486,_5,N,225,L,N,486_5N225LN,HLN,0,220,220,285,,,0.96,1531.227776,1531.527473,1531.527473,1531.810576,1531.827286,1531.227776,up,2.7323517,1531.827286,None,1531.827286,1532.776499,0.1214233,None,,,,,,,,,1,1,2019_Dec_20_1553,untitled,3.1.0,60.09561212
_,F,M,0,_,_,_FM000__,N,0,221,221,0,,,1.316,1534.787157,1535.076481,1535.076481,1535.274423,1535.291192,None,down,2.1848538,1535.291192,None,1535.291192,1536.591122,0.2162266,None,,,,,,,,,1,1,2019_Dec_20_1553,untitled,3.1.0,60.09561212
_,G,N,225,_,_,_GN225__,N,0,222,222,61,,,0.933,1537.61465,1537.904816,1537.904816,1538.187959,1538.205366,None,up,1.7651342,1538.205366,None,1538.205366,1539.120096,0.1269805,None,,,,,,,,,1,1,2019_Dec_20_1553,untitled,3.1.0,60.09561212
488,_5,N,315,L,N,488_5N315LN,HLN,0,223,223,287,,,1.279,1540.07371,1540.385963,1540.402638,1540.685908,1540.702529,None,up,2.5492857,1540.702529,None,1540.702529,1541.967603,0.0947096,None,,,,,,,,,1,1,2019_Dec_20_1553,untitled,3.1.0,60.09561212
300,_2,M,135,L,N,300_2M135LN,HLN,0,224,224,155,,,1.116,1543.373855,1543.666907,1543.683655,1543.967951,1543.984008,None,down,2.782011,1543.984008,None,1543.984008,1545.082476,0.1094081,None,,,,,,,,,1,1,2019_Dec_20_1553,untitled,3.1.0,60.09561212
_,G,N,135,_,_,_GN135__,N,0,225,225,59,,,1.287,1546.974645,1547.264005,1547.264005,1547.48023,1547.499167,None,up,2.1651542,1547.499167,None,1547.499167,1548.763374,0.1974999,None,,,,,,,,,1,1,2019_Dec_20_1553,untitled,3.1.0,60.09561212
_,_2,M,270,_,_,__2M270__,N,0,226,226,30,,,1.386,1549.793083,1550.094202,1550.094202,1550.377836,1550.394715,None,up,2.5155656,1550.394715,None,1550.394715,1551.759979,0.116236,None,,,,,,,,,1,1,2019_Dec_20_1553,untitled,3.1.0,60.09561212
_,_5,M,270,_,_,__5M270__,N,0,227,227,46,,,1.097,1553.040453,1553.341878,1553.341878,1553.625226,1553.641803,None,down,3.4153672,1553.641803,None,1553.641803,1554.724443,0.1198738,None,,,,,,,,,1,1,2019_Dec_20_1553,untitled,3.1.0,60.09561212
239,G,M,270,L,N,239GM270LN,HLN,0,228,228,142,,,1.303,1557.17664,1557.47112,1557.487662,1557.771043,1557.788862,None,down,2.9316169,1557.788862,None,1557.788862,1559.069717,0.1084094,None,,,,,,,,,1,1,2019_Dec_20_1553,untitled,3.1.0,60.09561212
141,F,M,180,R,N,141FM180RN,HRN,0,229,229,116,,,1.234,1560.858529,1561.151429,1561.151429,1561.43548,1561.451723,None,down,2.9821963,1561.451723,None,1561.451723,1562.667071,0.1261132,None,,,,,,,,,1,1,2019_Dec_20_1553,untitled,3.1.0,60.09561212
168,F,N,315,L,N,168FN315LN,HLN,0,230,230,223,,,0.897,1564.577789,1564.865201,1564.865201,1565.148349,1565.165087,None,up,1.8002699,1565.165087,None,1565.165087,1566.048007,0.1288745,None,,,,,,,,,1,1,2019_Dec_20_1553,untitled,3.1.0,60.09561212
268,_2,M,135,R,N,268_2M135RN,HRN,0,231,231,147,,,1.378,1567.087628,1567.379396,1567.396035,1567.67985,1567.696249,None,up,2.8659022,1567.696249,None,1567.696249,1569.061714,0.1094824,None,,,,,,,,,1,1,2019_Dec_20_1553,untitled,3.1.0,60.09561212
_,R,N,45,_,_,_RN045__,N,0,232,232,65,,,1.159,1570.763827,1571.059302,1571.059302,1571.275744,1571.292646,None,up,1.9524473,1571.292646,None,1571.292646,1572.441843,0.1901733,None,,,,,,,,,1,1,2019_Dec_20_1553,untitled,3.1.0,60.09561212
142,F,M,225,R,N,142FM225RN,HRN,0,233,233,117,,,0.732,1573.372091,1573.658705,1573.658705,1573.957918,1573.9756,None,down,2.5975208,1573.9756,None,1573.9756,1574.689987,0.1151189,None,,,,,,,,,1,1,2019_Dec_20_1553,untitled,3.1.0,60.09561212
_,G,N,180,_,_,_GN180__,N,0,234,234,60,,,0.885,1576.770478,1577.070732,1577.070732,1577.287978,1577.304568,None,up,2.0319504,1577.304568,None,1577.304568,1578.203154,0.1866403,None,,,,,,,,,1,1,2019_Dec_20_1553,untitled,3.1.0,60.09561212
225,G,N,0,L,N,225GN000LN,HLN,0,235,235,232,,,1.219,1579.446826,1579.735263,1579.768378,1580.052108,1580.068802,None,up,1.884624,1580.068802,None,1580.068802,1581.267757,0.0991785,None,,,,,,,,,1,1,2019_Dec_20_1553,untitled,3.1.0,60.09561212
424,_4,N,315,L,N,424_4N315LN,HLN,0,236,236,271,,,1.347,1582.074706,1582.366122,1582.382882,1582.666989,1582.683194,None,up,2.0166333,1582.683194,None,1582.683194,1584.01496,0.1105886,None,,,,,,,,,1,1,2019_Dec_20_1553,untitled,3.1.0,60.09561212
429,_4,M,180,L,N,429_4M180LN,HLN,0,237,237,172,,,1.352,1584.927679,1585.230534,1585.230534,1585.414796,1585.430596,None,down,3.3310791,1585.430596,None,1585.430596,1586.762367,0.21618,None,,,,,,,,,1,1,2019_Dec_20_1553,untitled,3.1.0,60.09561212
425,_4,M,0,L,N,425_4M000LN,HLN,0,238,238,168,,,1.195,1588.847359,1589.177023,1589.193887,1589.476989,1589.494016,None,up,1.9026175,1589.494016,None,1589.494016,1590.675614,0.076761,None,,,,,,,,,1,1,2019_Dec_20_1553,untitled,3.1.0,60.09561212
483,_5,N,90,L,N,483_5N090LN,HLN,0,239,239,282,,,1.134,1591.521974,1591.825461,1591.825461,1592.10853,1592.124926,None,up,1.870299,1592.124926,None,1592.124926,1593.240876,0.1144648,None,,,,,,,,,1,1,2019_Dec_20_1553,untitled,3.1.0,60.09561212
489,_5,M,0,L,N,489_5M000LN,HLN,0,240,240,184,,,1.336,1594.111106,1594.405799,1594.422526,1594.706024,1594.722746,None,down,2.6159348,1594.722746,None,1594.722746,1596.053791,0.1045149,None,,,,,,,,,1,1,2019_Dec_20_1553,untitled,3.1.0,60.09561212
392,_4,N,315,R,N,392_4N315RN,HRN,0,241,241,263,,,1.266,1597.464955,1597.753336,1597.753336,1598.053232,1598.069673,None,up,1.9327522,1598.069673,None,1598.069673,1599.318597,0.1144546,None,,,,,,,,,1,1,2019_Dec_20_1553,untitled,3.1.0,60.09561212
_,_4,N,0,_,_,__4N000__,N,0,242,242,80,,,1.287,1600.132762,1600.433752,1600.433752,1600.717626,1600.733921,None,up,1.8510371,1600.733921,None,1600.733921,1601.999132,0.1192565,None,,,,,,,,,1,1,2019_Dec_20_1553,untitled,3.1.0,60.09561212
272,_2,M,315,R,N,272_2M315RN,HRN,0,243,243,151,,,1.225,1602.715351,1603.015115,1603.015115,1603.297888,1603.315112,None,down,2.4332041,1603.315112,None,1603.315112,1604.530807,0.1185304,None,,,,,,,,,1,1,2019_Dec_20_1553,untitled,3.1.0,60.09561212
257,_2,N,0,R,N,257_2N000RN,HRN,0,244,244,240,,,1.358,1605.932572,1606.228802,1606.228802,1606.462337,1606.481466,None,up,1.9503731,1606.481466,None,1606.481466,1607.828001,0.1734798,None,,,,,,,,,1,1,2019_Dec_20_1553,untitled,3.1.0,60.09561212
_,_2,M,225,_,_,__2M225__,N,0,245,245,29,,,1.001,1608.560201,1608.860074,1608.860074,1609.14278,1609.159257,None,down,2.4488695,1609.159257,None,1609.159257,1610.15828,0.1146071,None,,,,,,,,,1,1,2019_Dec_20_1553,untitled,3.1.0,60.09561212
14,R,M,225,R,N,014RM225RN,HRN,0,246,246,101,,,0.83,1611.685894,1612.023663,1612.04115,1612.324116,1612.340758,None,down,2.0493236,1612.340758,None,1612.340758,1613.155935,0.070461,None,,,,,,,,,1,1,2019_Dec_20_1553,untitled,3.1.0,60.09561212
11,R,M,90,R,N,011RM090RN,HRN,0,247,247,98,,,0.902,1614.510614,1614.804945,1614.821069,1615.104478,1615.121058,None,down,1.7499418,1615.121058,None,1615.121058,1616.004083,0.1091888,None,,,,,,,,,1,1,2019_Dec_20_1553,untitled,3.1.0,60.09561212
173,F,M,180,L,N,173FM180LN,HLN,0,248,248,124,,,0.866,1616.979403,1617.285648,1617.302345,1617.585481,1617.602041,None,down,2.2831053,1617.602041,None,1617.602041,1618.452857,0.0985981,None,,,,,,,,,1,1,2019_Dec_20_1553,untitled,3.1.0,60.09561212
171,F,M,90,L,N,171FM090LN,HLN,0,249,249,122,,,1.232,1619.997316,1620.300164,1620.316305,1620.599894,1620.617208,None,down,2.3984426,1620.617208,None,1620.617208,1621.832129,0.1011679,None,,,,,,,,,1,1,2019_Dec_20_1553,untitled,3.1.0,60.09561212
431,_4,M,270,L,N,431_4M270LN,HLN,0,250,250,174,,,0.712,1623.131893,1623.430658,1623.447446,1623.731218,1623.747329,None,down,2.9664739,1623.747329,None,1623.747329,1624.447705,0.1055957,None,,,,,,,,,1,1,2019_Dec_20_1553,untitled,3.1.0,60.09561212
_,_5,N,225,_,_,__5N225__,N,0,251,251,93,,,1.323,1626.834166,1627.127139,1627.143796,1627.427513,1627.444166,None,up,2.9488321,1627.444166,None,1627.444166,1628.759946,0.1079951,None,,,,,,,,,1,1,2019_Dec_20_1553,untitled,3.1.0,60.09561212
_,_2,N,45,_,_,__2N045__,N,0,252,252,73,,,0.738,1630.524323,1630.823907,1630.823907,1631.107502,1631.124322,None,up,1.7155526,1631.124322,None,1631.124322,1631.856205,0.1191158,None,,,,,,,,,1,1,2019_Dec_20_1553,untitled,3.1.0,60.09561212
_,_4,N,270,_,_,__4N270__,N,0,253,253,86,,,0.903,1632.930894,1633.255253,1633.271833,1633.555587,1633.572208,None,up,1.6486415,1633.572208,None,1633.572208,1634.454638,0.0821117,None,,,,,,,,,1,1,2019_Dec_20_1553,untitled,3.1.0,60.09561212
457,_5,M,0,R,N,457_5M000RN,HRN,0,254,254,176,,,1.212,1635.298866,1635.636575,1635.653594,1635.938428,1635.953806,None,down,2.1184492,1635.953806,None,1635.953806,1637.151702,0.0685551,None,,,,,,,,,1,1,2019_Dec_20_1553,untitled,3.1.0,60.09561212
418,_4,N,45,L,N,418_4N045LN,HLN,0,255,255,265,,,1.321,1638.254222,1638.534127,1638.534127,1638.784164,1638.800832,None,up,1.9674415,1638.800832,None,1638.800832,1640.116324,0.1505283,None,,,,,,,,,1,1,2019_Dec_20_1553,untitled,3.1.0,60.09561212
_,_2,N,90,_,_,__2N090__,N,0,256,256,74,,,0.91,1640.921544,1641.215035,1641.215035,1641.483828,1641.498853,None,up,1.5164368,1641.498853,None,1641.498853,1642.397654,0.1406053,None,,,,,,,,,1,1,2019_Dec_20_1553,untitled,3.1.0,60.09561212
_,R,M,0,_,_,_RM000__,N,0,257,257,16,,,0.716,1643.131293,1643.429963,1643.446912,1643.73051,1643.746715,None,down,1.4843089,1643.746715,None,1643.746715,1644.448126,0.1046761,None,,,,,,,,,1,1,2019_Dec_20_1553,untitled,3.1.0,60.09561212
228,G,N,135,L,N,228GN135LN,HLN,0,258,258,235,,,1.202,1645.372115,1645.661357,1645.661357,1645.944676,1645.961691,None,up,2.0816338,1645.961691,None,1645.961691,1647.143455,0.1303864,None,,,,,,,,,1,1,2019_Dec_20_1553,untitled,3.1.0,60.09561212
140,F,M,135,R,N,140FM135RN,HRN,0,259,259,115,,,0.719,1648.164196,1648.458538,1648.475148,1648.758183,1648.775045,None,down,2.049841,1648.775045,None,1648.775045,1649.474515,0.0848433,None,,,,,,,,,1,1,2019_Dec_20_1553,untitled,3.1.0,60.09561212
204,G,M,135,R,N,204GM135RN,HRN,0,260,260,131,,,0.728,1650.983207,1651.272656,1651.272656,1651.539238,1651.556098,None,down,2.2332534,1651.556098,None,1651.556098,1652.29755,0.1453238,None,,,,,,,,,1,1,2019_Dec_20_1553,untitled,3.1.0,60.09561212
207,G,M,270,R,N,207GM270RN,HRN,0,261,261,134,,,0.981,1653.898162,1654.203956,1654.220358,1654.503939,1654.520574,None,down,2.116401,1654.520574,None,1654.520574,1655.486275,0.0976894,None,,,,,,,,,1,1,2019_Dec_20_1553,untitled,3.1.0,60.09561212
170,F,M,45,L,N,170FM045LN,HLN,0,262,262,121,,,1.095,1656.752001,1657.051251,1657.068031,1657.351624,1657.36819,None,down,2.6158772,1657.36819,None,1657.36819,1658.451449,0.1032211,None,,,,,,,,,1,1,2019_Dec_20_1553,untitled,3.1.0,60.09561212
_,G,M,180,_,_,_GM180__,N,0,263,263,12,,,1.034,1660.198566,1660.498457,1660.498457,1660.698845,1660.716399,None,down,2.8128169,1660.716399,None,1660.716399,1661.730579,0.2017293,None,,,,,,,,,1,1,2019_Dec_20_1553,untitled,3.1.0,60.09561212
238,G,M,225,L,N,238GM225LN,HLN,0,264,264,141,,,0.962,1663.614812,1663.945083,1663.961744,1664.245513,1664.262786,None,down,2.1348332,1664.262786,None,1664.262786,1665.210596,0.0768674,None,,,,,,,,,1,1,2019_Dec_20_1553,untitled,3.1.0,60.09561212
45,R,M,180,L,N,045RM180LN,HLN,0,265,265,108,,,1.135,1666.700009,1666.992767,1666.992767,1667.1358,1667.1358,None,down,3.1726219,1667.1358,None,1667.1358,1668.257668,0.2917599,None,,,,,,,,,1,1,2019_Dec_20_1553,untitled,3.1.0,60.09561212
37,R,N,180,L,N,037RN180LN,HLN,0,266,266,204,,,1.312,1670.378132,1670.722583,1670.739204,1671.021832,1671.03855,None,down,2.2021807,1671.03855,None,1671.03855,1672.337504,0.0625009,None,,,,,,,,,1,1,2019_Dec_20_1553,untitled,3.1.0,60.09561212
294,_2,N,225,L,N,294_2N225LN,HLN,0,267,267,253,,,0.77,1673.366231,1673.654269,1673.654269,1673.953409,1673.970176,None,up,2.3506402,1673.970176,None,1673.970176,1674.72014,0.1143077,None,,,,,,,,,1,1,2019_Dec_20_1553,untitled,3.1.0,60.09561212
_,_5,M,45,_,_,__5M045__,N,0,268,268,41,,,0.741,1676.449721,1676.752289,1676.752289,1677.033377,1677.050348,None,down,2.9169571,1677.050348,None,1677.050348,1677.782952,0.1155753,None,,,,,,,,,1,1,2019_Dec_20_1553,untitled,3.1.0,60.09561212
293,_2,N,180,L,N,293_2N180LN,HLN,0,269,269,252,,,1.026,1680.086408,1680.381117,1680.397966,1680.681043,1680.697809,None,up,2.4319016,1680.697809,None,1680.697809,1681.714146,0.1069553,None,,,,,,,,,1,1,2019_Dec_20_1553,untitled,3.1.0,60.09561212
34,R,N,45,L,N,034RN045LN,HLN,0,270,270,201,,,1.054,1683.352783,1683.64493,1683.64493,1683.844482,1683.860873,None,up,1.852493,1683.860873,None,1683.860873,1684.894167,0.2120881,None,,,,,,,,,1,1,2019_Dec_20_1553,untitled,3.1.0,60.09561212
455,_5,N,270,R,N,455_5N270RN,HRN,0,271,271,278,,,1.299,1685.844123,1686.142391,1686.142391,1686.426409,1686.442802,None,up,2.2993894,1686.442802,None,1686.442802,1687.725064,0.1187169,None,,,,,,,,,1,1,2019_Dec_20_1553,untitled,3.1.0,60.09561212
_,_4,M,45,_,_,__4M045__,N,0,272,272,33,,,1.229,1688.866339,1689.156896,1689.156896,1689.456772,1689.473544,None,down,2.0853486,1689.473544,None,1689.473544,1690.68957,0.1144225,None,,,,,,,,,1,1,2019_Dec_20_1553,untitled,3.1.0,60.09561212
_,_2,N,180,_,_,__2N180__,N,0,273,273,76,,,1.397,1691.671392,1691.97072,1691.987695,1692.270373,1692.28703,None,up,2.3499391,1692.28703,None,1692.28703,1693.670023,0.1017632,None,,,,,,,,,1,1,2019_Dec_20_1553,untitled,3.1.0,60.09561212
399,_4,M,270,R,N,399_4M270RN,HRN,0,274,274,166,,,0.808,1694.726861,1695.051221,1695.067838,1695.351592,1695.368351,None,down,1.7846188,1695.368351,None,1695.368351,1696.167728,0.0810445,None,,,,,,,,,1,1,2019_Dec_20_1553,untitled,3.1.0,60.09561212
_,_4,M,0,_,_,__4M000__,N,0,275,275,32,,,0.895,1697.283383,1697.584185,1697.584185,1697.866182,1697.882828,None,down,1.9687546,1697.882828,None,1697.882828,1698.765689,0.1178822,None,,,,,,,,,1,1,2019_Dec_20_1553,untitled,3.1.0,60.09561212
16,R,M,315,R,N,016RM315RN,HRN,0,276,276,103,,,1.04,1699.975042,1700.263706,1700.263706,1700.563708,1700.580763,None,down,2.1001533,1700.580763,None,1700.580763,1701.613138,0.1119968,None,,,,,,,,,1,1,2019_Dec_20_1553,untitled,3.1.0,60.09561212
_,_5,M,315,_,_,__5M315__,N,0,277,277,47,,,1.017,1702.891077,1703.179216,1703.179216,1703.39444,1703.411194,None,up,3.2507276,1703.411194,None,1703.411194,1704.409821,0.1970385,None,,,,,,,,,1,1,2019_Dec_20_1553,untitled,3.1.0,60.09561212
_,_4,N,225,_,_,__4N225__,N,0,278,278,85,,,1.069,1706.783809,1707.07412,1707.091269,1707.374081,1707.390464,None,up,1.9160849,1707.390464,None,1707.390464,1708.456785,0.1107639,None,,,,,,,,,1,1,2019_Dec_20_1553,untitled,3.1.0,60.09561212
240,G,M,315,L,N,240GM315LN,HLN,0,279,279,143,,,1.071,1709.48368,1709.772052,1709.772052,1710.022321,1710.039545,None,down,2.5804422,1710.039545,None,1710.039545,1711.087978,0.1679912,None,,,,,,,,,1,1,2019_Dec_20_1553,untitled,3.1.0,60.09561212
135,F,N,270,R,N,135FN270RN,HRN,0,280,280,214,,,1.136,1712.721999,1713.036324,1713.05261,1713.336278,1713.352766,None,up,1.8330247,1713.352766,None,1713.352766,1714.46823,0.0935554,None,,,,,,,,,1,1,2019_Dec_20_1553,untitled,3.1.0,60.09561212
47,R,M,270,L,N,047RM270LN,HLN,0,281,281,110,,,1.191,1715.306921,1715.60025,1715.617619,1715.900489,1715.917111,None,down,2.0979957,1715.917111,None,1715.917111,1717.099265,0.1092808,None,,,,,,,,,1,1,2019_Dec_20_1553,untitled,3.1.0,60.09561212
432,_4,M,315,L,N,432_4M315LN,HLN,0,282,282,175,,,1.246,1718.088497,1718.430909,1718.448223,1718.731158,1718.748592,None,up,2.1020528,1718.748592,None,1718.748592,1719.980504,0.0657268,None,,,,,,,,,1,1,2019_Dec_20_1553,untitled,3.1.0,60.09561212
_,R,M,315,_,_,_RM315__,N,0,283,283,23,,,1.293,1721.067548,1721.362148,1721.362148,1721.562283,1721.57887,None,down,2.131969,1721.57887,None,1721.57887,1722.860292,0.205978,None,,,,,,,,,1,1,2019_Dec_20_1553,untitled,3.1.0,60.09561212
2,R,N,45,R,N,002RN045RN,HRN,0,284,284,193,,,0.939,1723.799101,1724.126027,1724.142545,1724.426165,1724.44265,None,up,1.5523289,1724.44265,None,1724.44265,1725.358734,0.080651,None,,,,,,,,,1,1,2019_Dec_20_1553,untitled,3.1.0,60.09561212
_,R,N,0,_,_,_RN000__,N,0,285,285,64,,,1.194,1726.2171,1726.507728,1726.507728,1726.707604,1726.724367,None,up,1.8325657,1726.724367,None,1726.724367,1727.905748,0.2111356,None,,,,,,,,,1,1,2019_Dec_20_1553,untitled,3.1.0,60.09561212
426,_4,M,45,L,N,426_4M045LN,HLN,0,286,286,169,,,1.204,1728.636023,1728.97172,1728.988542,1729.272145,1729.290187,None,down,2.4490214,1729.290187,None,1729.290187,1730.471112,0.0721466,None,,,,,,,,,1,1,2019_Dec_20_1553,untitled,3.1.0,60.09561212
_,_4,M,225,_,_,__4M225__,N,0,287,287,37,,,0.866,1731.861671,1732.152512,1732.169144,1732.45247,1732.469214,None,up,2.0487224,1732.469214,None,1732.469214,1733.318001,0.1115233,None,,,,,,,,,1,1,2019_Dec_20_1553,untitled,3.1.0,60.09561212
,,,,,,,,,,,,,,,,,,,,,,,,,,,,,1734.533959,None,1738.164545,None,1739.512579,None,1741.811198,None,,,,,,
