Number,Letter,type,Orientation,human,face_type,image,picture,trials.thisRepN,trials.thisTrialN,trials.thisN,trials.thisIndex,text.started,text.stopped,stimulus_duration,CROSS.started,CROSS.stopped,BLANK.started,BLANK.stopped,TEST.started,TEST.stopped,key_JUDGE.keys,key_JUDGE.rt,key_JUDGE.started,key_JUDGE.stopped,image_2.started,image_2.stopped,ISI.started,ISI.stopped,q1.started,q1.stopped,q2.started,q2.stopped,q3.started,q3.stopped,text_2.started,text_2.stopped,participant,session,date,expName,psychopyVersion,frameRate,
129,F,N,0,R,N,129FN000RN,HRN,0,0,0,208,81.73763605111162,None,0.885,93.77074949115195,94.07069691805009,94.07069691805009,94.20401508861323,94.25403137700414,None,up,1.933422522208275,94.25403137700414,None,94.25403137700414,95.10392656186377,0.2538065839507908,None,,,,,,,,,20,001,2019_Dec_25_1405,untitled,3.1.0,60.01585557485937,
_,F,M,270,_,_,_FM270__,N,0,1,1,6,,,1.317,96.2539161664281,96.60389444857356,96.62057780090981,96.90388921774502,96.9372185120883,None,down,2.733458012364281,96.9372185120883,None,96.9372185120883,98.22052099017674,0.056447885752277216,None,,,,,,,,,20,001,2019_Dec_25_1405,untitled,3.1.0,60.01585557485937,
494,_5,M,225,L,N,494_5M225LN,HLN,0,2,2,189,,,1.19,99.73714574402766,100.08711773594041,100.10380903383339,100.38713733497934,100.42046629825927,None,None,,100.42046629825927,None,100.42046629825927,101.57041816142373,0.056903099961346015,None,,,,,,,,,20,001,2019_Dec_25_1405,untitled,3.1.0,60.01585557485937,
450,_5,N,45,R,N,450_5N045RN,HRN,0,3,3,273,,,0.886,103.93704867580527,104.28702033665468,104.30367786592979,104.58701444369945,104.62036558832187,103.93704867580527,up,2.0501420930449967,104.62036558832187,None,104.62036558832187,105.47036870033116,0.05831608485459583,None,,,,,,,,,20,001,2019_Dec_25_1405,untitled,3.1.0,60.01585557485937,
163,F,N,90,L,N,163FN090LN,HLN,0,4,4,218,,,0.914,106.73697888732931,107.0869839857296,107.10366568274185,107.38694333096282,107.42029844836361,None,up,1.4334735062038817,107.42029844836361,None,107.42029844836361,108.30358682308724,0.05838660167501075,None,,,,,,,,,20,001,2019_Dec_25_1405,untitled,3.1.0,60.01585557485937,
291,_2,N,90,L,N,291_2N090LN,HLN,0,5,5,250,,,0.882,108.93693677587726,109.27025554235661,109.28690744352934,109.57025593963408,109.60358357865334,None,up,1.6335115124493313,109.60358357865334,None,109.60358357865334,110.45355656375978,0.058218751779349986,None,,,,,,,,,20,001,2019_Dec_25_1405,untitled,3.1.0,60.01585557485937,
235,G,M,90,L,N,235GM090LN,HLN,0,6,6,138,,,0.75,111.30353252844725,111.65353729578419,111.6701819135269,111.95352709898361,111.98685573119656,None,down,2.4168037275267125,111.98685573119656,None,111.98685573119656,112.70348273629133,0.05683258314093109,None,,,,,,,,,20,001,2019_Dec_25_1405,untitled,3.1.0,60.01585557485937,
144,F,M,315,R,N,144FM315RN,HRN,0,7,7,119,,,0.91,114.47013496852742,114.82012649326862,114.83679130597011,115.12012192457405,115.15344559081132,None,down,2.4168321991055564,115.15344559081132,None,115.15344559081132,116.03676541669847,0.05792973214192898,None,,,,,,,,,20,001,2019_Dec_25_1405,untitled,3.1.0,60.01585557485937,
387,_4,N,90,R,N,387_4N090RN,HRN,0,8,8,258,,,1.033,117.65339560001667,117.98672529163377,118.00338613156055,118.28671045992814,118.32002684273903,None,None,,118.32002684273903,None,118.32002684273903,119.33665921108695,0.05850214331439929,None,,,,,,,,,20,001,2019_Dec_25_1405,untitled,3.1.0,60.01585557485937,
_,F,N,0,_,_,_FN000__,N,0,9,9,48,,,0.933,121.83667510220039,122.18661200123461,122.20328542162315,122.48661107425141,122.51994003753134,121.83667510220039,up,1.6001573882422235,122.51994003753134,None,122.51994003753134,123.43659776544519,0.05677067401120439,None,,,,,,,,,20,001,2019_Dec_25_1405,untitled,3.1.0,60.01585557485937,
_,_5,M,225,_,_,__5M225__,N,0,10,10,45,,,0.8300000000000001,124.18660637313224,124.53656346712523,124.55323754964411,124.83655029073998,124.86987859188957,None,down,1.5334981374289782,124.86987859188957,None,124.86987859188957,125.68653651844215,0.05499285562109435,None,,,,,,,,,20,001,2019_Dec_25_1405,untitled,3.1.0,60.01585557485937,
_,R,M,315,_,_,_RM315__,N,0,11,11,23,,,1.0130000000000001,126.46984826634434,126.81984277067022,126.83653142004187,127.11983456026064,127.15316385460028,None,down,1.7666916289599612,127.15316385460028,None,127.15316385460028,128.13645501026986,0.056121786848962074,None,,,,,,,,,20,001,2019_Dec_25_1405,untitled,3.1.0,60.01585557485937,
_,R,M,45,_,_,_RM045__,N,0,12,12,17,,,0.797,128.9864839453403,129.33647547007786,129.3531220742152,129.63648480610937,129.6697816560918,None,down,1.6168384231241362,129.6697816560918,None,129.6697816560918,130.45309836996967,0.05795025816405541,None,,,,,,,,,20,001,2019_Dec_25_1405,untitled,3.1.0,60.01585557485937,
_,_4,M,180,_,_,__4M180__,N,0,13,13,36,,,1.12,131.36975245617214,131.70303977148433,131.71969531437207,132.00307161992532,132.03642342668172,None,up,1.8834737710531044,132.03642342668172,None,132.03642342668172,133.11967796657336,0.058396533619088586,None,,,,,,,,,20,001,2019_Dec_25_1405,untitled,3.1.0,60.01585557485937,
007,R,N,270,R,N,007RN270RN,HRN,0,14,14,198,,,1.2,133.98634853980548,134.33637019144953,134.35303136243965,134.6363381443698,134.66966644551576,None,up,1.9668911948683672,134.66966644551576,None,134.66966644551576,135.85298964826507,0.058683235802163836,None,,,,,,,,,20,001,2019_Dec_25_1405,untitled,3.1.0,60.01585557485937,
393,_4,M,0,R,N,393_4M000RN,HRN,0,15,15,160,,,1.33,136.7029543567478,137.05292734185423,137.0696159912295,137.35292277315966,137.3862649790317,None,down,2.2501373919258185,137.3862649790317,None,137.3862649790317,138.70292389877795,0.057860539582179626,None,,,,,,,,,20,001,2019_Dec_25_1405,untitled,3.1.0,60.01585557485937,
173,F,M,180,L,N,173FM180LN,HLN,0,16,16,124,,,1.313,139.7195466662415,140.05286576378785,140.06952759690466,140.35282312263007,140.38619843498964,None,up,2.700162817705859,140.38619843498964,None,140.38619843498964,141.6694942917784,0.06091196455236059,None,,,,,,,,,20,001,2019_Dec_25_1405,untitled,3.1.0,60.01585557485937,
390,_4,N,225,R,N,390_4N225RN,HRN,0,17,17,261,,,1.157,143.1694880015457,143.50281173399708,143.5194795262869,143.80280054400646,143.83611229190865,None,up,2.1336846593803784,143.83611229190865,None,143.83611229190865,144.95278187194708,0.05735599671243108,None,,,,,,,,,20,001,2019_Dec_25_1405,untitled,3.1.0,60.01585557485937,
463,_5,M,270,R,N,463_5M270RN,HRN,0,18,18,182,,,1.164,146.03608143666133,146.38606104306746,146.40272453151192,146.6860544879819,146.71938543764918,None,down,2.700155203212489,146.71938543764918,None,146.71938543764918,147.86934921915235,0.05611351022889721,None,,,,,,,,,20,001,2019_Dec_25_1405,untitled,3.1.0,60.01585557485937,
300,_2,M,135,L,N,300_2M135LN,HLN,0,19,19,155,,,1.189,149.5360095955839,149.83598317660653,149.85265196209002,150.13598522920802,150.16931088183628,None,down,2.7001436159443983,150.16931088183628,None,150.16931088183628,151.3192806225088,0.10171074464597041,None,,,,,,,,,20,001,2019_Dec_25_1405,untitled,3.1.0,60.01585557485937,
_,_2,N,90,_,_,__2N090__,N,0,20,20,74,,,1.201,152.9359151096687,153.28589173649016,153.3025651568787,153.58587524945688,153.61922275236793,None,up,1.9168288884575304,153.61922275236793,None,153.61922275236793,154.80251020010837,0.05755893947934965,None,,,,,,,,,20,001,2019_Dec_25_1405,untitled,3.1.0,60.01585557485937,
_,_2,M,135,_,_,__2M135__,N,0,21,21,27,,,1.014,155.6191985846308,155.95249550082735,155.9691791842306,156.25251311347893,156.28584936018524,None,down,2.0501924149066326,156.28584936018524,None,156.28584936018524,157.26915706909494,0.05666771283358685,None,,,,,,,,,20,001,2019_Dec_25_1405,untitled,3.1.0,60.01585557485937,
_,_2,M,315,_,_,__2M315__,N,0,22,22,31,,,0.904,158.4024507408576,158.75245418393024,158.76909482889823,159.05250159242132,159.08576963976157,None,down,2.383490324296872,159.08576963976157,None,159.08576963976157,159.96908284434903,0.056109868513885885,None,,,,,,,,,20,001,2019_Dec_25_1405,untitled,3.1.0,60.01585557485937,
418,_4,N,45,L,N,418_4N045LN,HLN,0,23,23,265,,,1.229,161.53572289340082,161.8857200462444,161.90239346663293,162.18567541869925,162.2190063683629,None,up,1.8669354251323966,162.2190063683629,None,162.2190063683629,163.43565985864916,0.0582177585856698,None,,,,,,,,,20,001,2019_Dec_25_1405,untitled,3.1.0,60.01585557485937,
_,G,M,45,_,_,_GM045__,N,0,24,24,9,,,0.859,164.16900299150075,164.50232275117742,164.51898557749155,164.80226984700857,164.83563622061774,None,down,1.6003146440561977,164.83563622061774,None,164.83563622061774,165.6523107004141,0.058153863061306765,None,,,,,,,,,20,001,2019_Dec_25_1405,untitled,3.1.0,60.01585557485937,
_,_5,M,270,_,_,__5M270__,N,0,25,25,46,,,1.119,166.50229063788356,166.8522762034554,166.86894333361124,167.15226501346115,167.18560854359384,None,down,1.9005964464813587,167.18560854359384,None,167.18560854359384,168.26891075682943,0.0556808084329532,None,,,,,,,,,20,001,2019_Dec_25_1405,untitled,3.1.0,60.01585557485937,
039,R,N,270,L,N,039RN270LN,HLN,0,26,26,206,,,1.285,169.15221270521215,169.50220919592175,169.51887698821156,169.80217450032433,169.83551869258372,None,up,2.033457747515058,169.83551869258372,None,169.83551869258372,171.0854955180439,0.05662235694398987,None,,,,,,,,,20,001,2019_Dec_25_1405,untitled,3.1.0,60.01585557485937,
011,R,M,90,R,N,011RM090RN,HRN,0,27,27,98,,,1.262,171.93548439426377,172.28545307552486,172.30214602874548,172.585454797063,172.61876886242317,None,down,2.3001513628623798,172.61876886242317,None,172.61876886242317,173.86877680797988,0.058181010386761045,None,,,,,,,,,20,001,2019_Dec_25_1405,untitled,3.1.0,60.01585557485937,
047,R,M,270,L,N,047RM270LN,HLN,0,28,28,110,,,1.334,175.0020658448302,175.33540944117703,175.35207756452655,175.6353648136319,175.66870867482794,None,up,2.8501497737488535,175.66870867482794,None,175.66870867482794,176.9853480617494,0.05790655759847141,None,,,,,,,,,20,001,2019_Dec_25_1405,untitled,3.1.0,60.01585557485937,
_,F,M,135,_,_,_FM135__,N,0,29,29,3,,,0.8220000000000001,178.58533064773655,178.93529303876494,178.9519846677249,179.2353215765579,179.26864557386216,None,up,3.166847097021673,179.26864557386216,None,179.26864557386216,180.05198082737115,0.056317446193133947,None,,,,,,,,,20,001,2019_Dec_25_1405,untitled,3.1.0,60.01585557485937,
_,_4,N,45,_,_,__4N045__,N,0,30,30,81,,,0.9,182.50192017628433,182.85188058092535,182.8685496974722,183.15186343176538,183.1852238462052,None,up,1.666909999348718,183.1852238462052,None,183.1852238462052,184.06854896913137,0.05420955612135003,None,,,,,,,,,20,001,2019_Dec_25_1405,untitled,3.1.0,60.01585557485937,
_,G,N,315,_,_,_GN315__,N,0,31,31,63,,,1.131,184.9351794835129,185.26850818193634,185.28517431890214,185.56847348633892,185.60182363776767,None,up,2.116888744985772,185.60182363776767,None,185.60182363776767,186.71844852404683,0.058279336652049096,None,,,,,,,,,20,001,2019_Dec_25_1405,untitled,3.1.0,60.01585557485937,
299,_2,M,90,L,N,299_2M090LN,HLN,0,32,32,154,,,0.8280000000000001,187.80177821566758,188.1351026102493,188.1517862936489,188.43509075812472,188.4684001885762,None,down,2.2668641137606755,188.4684001885762,None,188.4684001885762,189.28507301304853,0.05861934028143878,None,,,,,,,,,20,001,2019_Dec_25_1405,untitled,3.1.0,60.01585557485937,
_,_5,N,225,_,_,__5N225__,N,0,33,33,93,,,1.3900000000000001,190.80170306393848,191.15172074280417,191.16838853509034,191.45167578419205,191.4850216317791,None,up,2.850153415463865,191.4850216317791,None,191.4850216317791,192.8350128254533,0.056536942207458196,None,,,,,,,,,20,001,2019_Dec_25_1405,untitled,3.1.0,60.01585557485937,
226,G,N,45,L,N,226GN045LN,HLN,0,34,34,233,,,0.975,194.40164426681804,194.75161493447013,194.76824134364506,195.05165207995014,195.084959524007,None,up,2.216783598782058,195.084959524007,None,195.084959524007,196.03491641936125,0.05634757309599081,None,,,,,,,,,20,001,2019_Dec_25_1405,untitled,3.1.0,60.01585557485937,
396,_4,M,135,R,N,396_4M135RN,HRN,0,35,35,163,,,1.3840000000000001,197.36825273227805,197.71823465613488,197.73490112416403,198.01822810105296,198.0515527604839,None,None,,198.0515527604839,None,198.0515527604839,199.40148866632444,0.05783802716905484,None,,,,,,,,,20,001,2019_Dec_25_1405,untitled,3.1.0,60.01585557485937,
460,_5,M,135,R,N,460_5M135RN,HRN,0,36,36,179,,,1.274,201.5681454010446,201.91813891217316,201.93481829173106,202.21811646597416,202.2514345041127,201.5681454010446,up,2.4169811782994657,202.2514345041127,None,202.2514345041127,203.50143980114808,0.05804428058763733,None,,,,,,,,,20,001,2019_Dec_25_1405,untitled,3.1.0,60.01585557485937,
203,G,M,90,R,N,203GM090RN,HRN,0,37,37,130,,,1.2770000000000001,204.7514106674389,205.08469963807875,205.10138530786935,205.3846937451235,205.41802337053014,None,down,3.2334864839431248,205.41802337053014,None,205.41802337053014,206.6680293296995,0.058155187325610314,None,,,,,,,,,20,001,2019_Dec_25_1405,untitled,3.1.0,60.01585557485937,
_,_5,M,0,_,_,__5M000__,N,0,38,38,40,,,1.0190000000000001,208.7179870196087,209.0679808618006,209.08464468131206,209.3679368963858,209.40126718392276,None,down,2.366843389099813,209.40126718392276,None,209.40126718392276,210.38458052093847,0.05506171711385832,None,,,,,,,,,20,001,2019_Dec_25_1405,untitled,3.1.0,60.01585557485937,
454,_5,N,225,R,N,454_5N225RN,HRN,0,39,39,277,,,1.295,211.83458144791803,212.1845660202962,212.20123579897336,212.48456774183433,212.5178950497866,None,up,2.083468738866941,212.5178950497866,None,212.5178950497866,213.80119719680806,0.058175382280751364,None,,,,,,,,,20,001,2019_Dec_25_1405,untitled,3.1.0,60.01585557485937,
388,_4,N,135,R,N,388_4N135RN,HRN,0,40,40,259,,,0.765,214.68447828810167,215.01784638324898,215.03452179002852,215.31779083056244,215.35115455565028,None,up,2.083486616371374,215.35115455565028,None,215.35115455565028,216.10115223819594,0.05777247632431681,None,,,,,,,,,20,001,2019_Dec_25_1405,untitled,3.1.0,60.01585557485937,
_,_2,N,270,_,_,__2N270__,N,0,41,41,78,,,0.923,217.50110277710337,217.85108006605515,217.86774587195396,218.15110992810514,218.18444617481146,None,up,2.3169406559572963,218.18444617481146,None,218.18444617481146,219.06775275810287,0.05615058949479135,None,,,,,,,,,20,001,2019_Dec_25_1405,untitled,3.1.0,60.01585557485937,
_,R,M,90,_,_,_RM090__,N,0,42,42,18,,,0.758,220.5676997877199,220.9177128316769,220.9343749958607,221.2177122357607,221.2510365641283,None,down,2.2668025356942962,221.2510365641283,None,221.2510365641283,221.9676761496885,0.056695853349083336,None,,,,,,,,,20,001,2019_Dec_25_1405,untitled,3.1.0,60.01585557485937,
194,G,N,45,R,N,194GN045RN,HRN,0,43,43,225,,,1.399,223.58431295430273,223.93431209353366,223.95098385860183,224.2343154703958,224.26763450172803,None,up,2.3834674808204,224.26763450172803,None,224.26763450172803,225.65090665427124,0.0584412273747148,None,,,,,,,,,20,001,2019_Dec_25_1405,untitled,3.1.0,60.01585557485937,
452,_5,N,135,R,N,452_5N135RN,HRN,0,44,44,275,,,1.025,226.73422939352895,227.06757265880879,227.0842318434079,227.36755484751848,227.40088480398845,None,up,2.1501544748716697,227.40088480398845,None,227.40088480398845,228.38420012739516,0.058222724557708716,None,,,,,,,,,20,001,2019_Dec_25_1405,untitled,3.1.0,60.01585557485937,
237,G,M,180,L,N,237GM180LN,HLN,0,45,45,140,,,1.326,229.63415940641426,229.9675086308598,229.98417708527995,230.26750472429558,230.30085024081563,None,up,2.78346337561743,230.30085024081563,None,230.30085024081563,231.58412060561022,0.059534403600991936,None,,,,,,,,,20,001,2019_Dec_25_1405,untitled,3.1.0,60.01585557485937,
301,_2,M,180,L,N,301_2M180LN,HLN,0,46,46,156,,,0.862,233.16741884606745,233.50075946282595,233.51739580395224,233.8007548941314,233.83410140384876,None,down,3.166792471321969,233.83410140384876,None,233.83410140384876,234.68403466116797,0.06136088852508692,None,,,,,,,,,20,001,2019_Dec_25_1405,untitled,3.1.0,60.01585557485937,
010,R,M,45,R,N,010RM045RN,HRN,0,47,47,97,,,1.184,237.06733727168103,237.41734005262697,237.43402572241757,237.71727456799272,237.7506452454436,None,up,3.2334719170903554,237.7506452454436,None,237.7506452454436,238.90061631037315,0.05842268774358672,None,,,,,,,,,20,001,2019_Dec_25_1405,untitled,3.1.0,60.01585557485937,
394,_4,M,45,R,N,394_4M045RN,HRN,0,48,48,161,,,1.307,241.0672733761603,241.40058452814628,241.4172546378868,241.7005610887536,241.73386257364473,None,down,2.516839283893205,241.73386257364473,None,241.73386257364473,243.01720643484077,0.057708249736606376,None,,,,,,,,,20,001,2019_Dec_25_1405,untitled,3.1.0,60.01585557485937,
304,_2,M,315,L,N,304_2M315LN,HLN,0,49,49,159,,,0.801,244.33383390342715,244.66715300096985,244.68381980006234,244.96714015565522,245.00049692838002,None,down,3.0169962086474698,245.00049692838002,None,245.00049692838002,245.78380205498615,0.05847797557726153,None,,,,,,,,,20,001,2019_Dec_25_1405,untitled,3.1.0,60.01585557485937,
290,_2,N,45,L,N,290_2N045LN,HLN,0,50,50,249,,,1.199,248.08376769045208,248.43370359629262,248.45040648145732,248.7337010139854,248.76706738759458,None,up,1.9335158825088001,248.76706738759458,None,248.76706738759458,249.95040946103836,0.05500477395617054,None,,,,,,,,,20,001,2019_Dec_25_1405,untitled,3.1.0,60.01585557485937,
261,_2,N,180,R,N,261_2N180RN,HRN,0,51,51,244,,,0.724,250.76705844884054,251.11703573779232,251.1337035300785,251.41702852057642,251.45037370603313,None,up,1.7501479860002291,251.45037370603313,None,251.45037370603313,252.13367936234135,0.05780955559384893,None,,,,,,,,,20,001,2019_Dec_25_1405,untitled,3.1.0,60.01585557485937,
_,_4,N,135,_,_,__4N135__,N,0,52,52,83,,,1.387,253.26696873025867,253.61698409167002,253.6336763827603,253.91695601736865,253.95025286735472,None,up,2.0502738568648056,253.95025286735472,None,253.95025286735472,255.30025333084268,0.05801084303675452,None,,,,,,,,,20,001,2019_Dec_25_1405,untitled,3.1.0,60.01585557485937,
_,_4,M,0,_,_,__4M000__,N,0,53,53,32,,,1.247,256.0669399938306,256.4169169517154,256.4336099049324,256.71688291824466,256.75022545518004,None,None,,256.75022545518004,None,256.75022545518004,257.9668700067159,0.05686072365642758,None,,,,,,,,,20,001,2019_Dec_25_1405,untitled,3.1.0,60.01585557485937,
169,F,M,0,L,N,169FM000LN,HLN,0,54,54,120,,,0.925,260.2668022046273,260.61682186988037,260.633453245031,260.9168027343294,260.9501482508531,260.2668022046273,down,2.13347410212009,260.9501482508531,None,260.9501482508531,261.8334558273382,0.056511119146307465,None,,,,,,,,,20,001,2019_Dec_25_1405,untitled,3.1.0,60.01585557485937,
044,R,M,135,L,N,044RM135LN,HLN,0,55,55,107,,,1.249,263.15009786277733,263.5000635644574,263.5167373159129,263.8000397939977,263.83335915639327,None,up,2.050275843255804,263.83335915639327,None,263.83335915639327,265.0500179437149,0.058533594474283746,None,,,,,,,,,20,001,2019_Dec_25_1405,untitled,3.1.0,60.01585557485937,
198,G,N,225,R,N,198GN225RN,HRN,0,56,56,229,,,1.193,265.9667081159896,266.30003747654337,266.3167191735556,266.60002529335543,266.6333582294137,None,up,2.5835720311115438,266.6333582294137,None,266.6333582294137,267.78331936239556,0.05933046763311722,None,,,,,,,,,20,001,2019_Dec_25_1405,untitled,3.1.0,60.01585557485937,
259,_2,N,90,R,N,259_2N090RN,HRN,0,57,57,242,,,1.077,269.2999653044026,269.6332714904129,269.6499455729354,269.9332841370924,269.96660747226633,None,up,2.1503011366112332,269.96660747226633,None,269.96660747226633,271.01654231869907,0.05829191711745807,None,,,,,,,,,20,001,2019_Dec_25_1405,untitled,3.1.0,60.01585557485937,
_,R,M,135,_,_,_RM135__,N,0,58,58,19,,,1.191,272.1832444093088,272.53324619705745,272.54989213906447,272.8331999141883,272.86654145793,None,down,2.666811673079792,272.86654145793,None,272.86654145793,274.0165068947572,0.05573245455525466,None,,,,,,,,,20,001,2019_Dec_25_1405,untitled,3.1.0,60.01585557485937,
_,G,N,180,_,_,_GN180__,N,0,59,59,60,,,0.8170000000000001,275.5998385727653,275.9497850726839,275.966447898998,276.24981129301887,276.2831409184255,None,up,2.233489132464456,276.2831409184255,None,276.2831409184255,277.06644074799624,0.05689151268597925,None,,,,,,,,,20,001,2019_Dec_25_1405,untitled,3.1.0,60.01585557485937,
462,_5,M,225,R,N,462_5M225RN,HRN,0,60,60,181,,,0.744,278.599734949461,278.9330666274691,278.94971588012413,279.2330193514026,279.2663827454271,None,down,2.6336240745113173,279.2663827454271,None,279.2663827454271,279.9830521268268,0.05996842965396354,None,,,,,,,,,20,001,2019_Dec_25_1405,untitled,3.1.0,60.01585557485937,
228,G,N,135,L,N,228GN135LN,HLN,0,61,61,235,,,0.801,281.9830170339519,282.31633116551893,282.3329800871106,282.6163011048302,282.649665160985,None,up,2.600294780168042,282.649665160985,None,282.649665160985,283.4329845233806,0.05807209003978642,None,,,,,,,,,20,001,2019_Dec_25_1405,untitled,3.1.0,60.01585557485937,
_,_4,M,135,_,_,__4M135__,N,0,62,62,35,,,1.262,285.31627322916756,285.6662505181157,285.6829371811036,285.9662615094712,285.9995994114979,None,up,2.7167663834079576,285.9995994114979,None,285.9995994114979,287.2495434615339,0.05593175561079988,None,,,,,,,,,20,001,2019_Dec_25_1405,untitled,3.1.0,60.01585557485937,
_,G,M,90,_,_,_GM090__,N,0,63,63,10,,,1.314,288.78285189878807,289.1328305119969,289.14948042678225,289.4328160113582,289.4661337184298,None,down,3.2836924725088465,289.4661337184298,None,289.4661337184298,290.749452418695,0.05853160808692337,None,,,,,,,,,20,001,2019_Dec_25_1405,untitled,3.1.0,60.01585557485937,
_,_4,M,270,_,_,__4M270__,N,0,64,64,38,,,1.05,292.83277979285776,293.16608299929067,293.1827418528228,293.4660933285122,293.4994169947531,None,down,2.73347820732306,293.4994169947531,None,293.4994169947531,294.51604903203406,0.05823894673449104,None,,,,,,,,,20,001,2019_Dec_25_1405,untitled,3.1.0,60.01585557485937,
033,R,N,0,L,N,033RN000LN,HLN,0,65,65,200,,,0.99,296.31601996453537,296.6493556153255,296.6659975845505,296.94934939130326,296.9826806720339,None,up,2.1503173587880156,296.9826806720339,None,296.9826806720339,297.93264220229685,0.05836342713155318,None,,,,,,,,,20,001,2019_Dec_25_1405,untitled,3.1.0,60.01585557485937,
165,F,N,180,L,N,165FN180LN,HLN,0,66,66,220,,,1.287,299.1992821851345,299.54922967824314,299.5659368672532,299.84926682372316,299.8826206168669,None,None,,299.8826206168669,None,299.8826206168669,301.13259678019676,0.05694017922724015,None,,,,,,,,,20,001,2019_Dec_25_1405,untitled,3.1.0,60.01585557485937,
420,_4,N,135,L,N,420_4N135LN,HLN,0,67,67,267,,,1.115,303.39921822339966,303.7491710135473,303.7658477445875,304.0491724040221,304.08250368475274,303.39921822339966,up,2.5336126858746866,304.08250368475274,None,304.08250368475274,305.16583867340887,0.05839719574942137,None,,,,,,,,,20,001,2019_Dec_25_1405,untitled,3.1.0,60.01585557485937,
_,_5,M,45,_,_,__5M045__,N,0,68,68,41,,,0.9,306.6824485293437,307.0324559451983,307.0491243996148,307.33243680964733,307.3657843125584,None,down,2.3502716056245845,307.3657843125584,None,307.3657843125584,308.2490773221871,0.058215772194671445,None,,,,,,,,,20,001,2019_Dec_25_1405,untitled,3.1.0,60.01585557485937,
_,_5,N,315,_,_,__5N315__,N,0,69,69,95,,,1.07,309.7990555381184,310.13237993270013,310.1490344823942,310.43236377673384,310.4656957195948,None,up,2.350156063985196,310.4656957195948,None,310.4656957195948,311.5156709559451,0.056924619177152636,None,,,,,,,,,20,001,2019_Dec_25_1405,untitled,3.1.0,60.01585557485937,
422,_4,N,225,L,N,422_4N225LN,HLN,0,70,70,269,,,0.751,312.88233358361686,313.2323436479892,313.24899356277456,313.53229835831735,313.56562533520264,None,up,1.8668119379326527,313.56562533520264,None,313.56562533520264,314.2822679003475,0.0570163241463888,None,,,,,,,,,20,001,2019_Dec_25_1405,untitled,3.1.0,60.01585557485937,
193,G,N,0,R,N,193GN000RN,HRN,0,71,71,224,,,0.867,315.498902519932,315.84890199022993,315.8655873289572,316.14892192033585,316.1822575049082,None,up,1.7834875433509296,316.1822575049082,None,316.1822575049082,317.0322480364557,0.05775426775653614,None,,,,,,,,,20,001,2019_Dec_25_1405,untitled,3.1.0,60.01585557485937,
231,G,N,270,L,N,231GN270LN,HLN,0,72,72,238,,,1.379,318.0488943095261,318.38219718488835,318.3988735848616,318.6821790425347,318.7155169445614,None,up,2.250156262623932,318.7155169445614,None,318.7155169445614,320.0655018480029,0.05963868903563707,None,,,,,,,,,20,001,2019_Dec_25_1405,untitled,3.1.0,60.01585557485937,
200,G,N,315,R,N,200GN315RN,HRN,0,73,73,231,,,1.3940000000000001,321.04881319863125,321.3821379242763,321.3988083650838,321.68208667543513,321.71544146177257,None,up,2.1501720213091176,321.71544146177257,None,321.71544146177257,323.0987616187231,0.05952811336828745,None,,,,,,,,,20,001,2019_Dec_25_1405,untitled,3.1.0,60.01585557485937,
496,_5,M,315,L,N,496_5M315LN,HLN,0,74,74,191,,,1.062,323.9320687979307,324.2820662818376,324.2986960016642,324.58206071994573,324.61537875808426,None,down,2.2835789172604564,324.61537875808426,None,324.61537875808426,325.66535167697657,0.05739638662271318,None,,,,,,,,,20,001,2019_Dec_25_1405,untitled,3.1.0,60.01585557485937,
_,_5,M,315,_,_,__5M315__,N,0,75,75,47,,,1.372,326.96534578402134,327.31531545847974,327.33200841169673,327.61533340219466,327.64866766251,None,down,2.766802204627311,327.64866766251,None,327.64866766251,328.99863501951404,0.057351361803739564,None,,,,,,,,,20,001,2019_Dec_25_1405,untitled,3.1.0,60.01585557485937,
257,_2,N,0,R,N,257_2N000RN,HRN,0,76,76,240,,,0.81,330.49861052071356,330.83192134163255,330.84858085729866,331.13192405636437,331.16525798561634,None,up,1.4501220967285917,331.16525798561634,None,331.16525798561634,331.9485780101422,0.05924008692454663,None,,,,,,,,,20,001,2019_Dec_25_1405,untitled,3.1.0,60.01585557485937,
_,G,N,225,_,_,_GN225__,N,0,77,77,61,,,1.203,332.6985247086959,333.03186698078207,333.0485264964482,333.33185446652715,333.3651923685575,None,up,2.0001575868809596,333.3651923685575,None,333.3651923685575,334.5484963695417,0.057622172873379895,None,,,,,,,,,20,001,2019_Dec_25_1405,untitled,3.1.0,60.01585557485937,
453,_5,N,180,R,N,453_5N180RN,HRN,0,78,78,276,,,0.9460000000000001,335.4318337418663,335.7818196385051,335.79847882310423,336.0817965301758,336.1151235070647,None,up,2.1501869192288723,336.1151235070647,None,336.1151235070647,337.0318050716487,0.05724111719609937,None,,,,,,,,,20,001,2019_Dec_25_1405,untitled,3.1.0,60.01585557485937,
161,F,N,0,L,N,161FN000LN,HLN,0,79,79,216,,,0.847,338.33176176836423,338.6817542862955,338.69842307177896,338.98171330046534,339.0150697421268,None,up,1.4668898706077016,339.0150697421268,None,339.0150697421268,339.83171177756594,0.05813300597583293,None,,,,,,,,,20,001,2019_Dec_25_1405,untitled,3.1.0,60.01585557485937,
136,F,N,315,R,N,136FN315RN,HRN,0,80,80,215,,,0.73,340.5650519308365,340.89837665648156,340.9150394827957,341.1983555345432,341.23166165434304,None,up,1.3168923204866587,341.23166165434304,None,341.23166165434304,341.94832739403137,0.05942415899335174,None,,,,,,,,,20,001,2019_Dec_25_1405,untitled,3.1.0,60.01585557485937,
013,R,M,180,R,N,013RM180RN,HRN,0,81,81,100,,,1.06,342.6316575491401,342.96497863307377,342.9816414593879,343.26499889424304,343.2983182566386,None,down,2.7168504738874617,343.2983182566386,None,343.2983182566386,344.3149632054483,0.05868389793249662,None,,,,,,,,,20,001,2019_Dec_25_1405,untitled,3.1.0,60.01585557485937,
008,R,N,315,R,N,008RN315RN,HRN,0,82,82,199,,,1.177,346.08165019949956,346.4315794840404,346.4482158251667,346.73158749581125,346.76490123010444,None,up,2.250251940371527,346.76490123010444,None,346.76490123010444,347.914873950358,0.0568878709746059,None,,,,,,,,,20,001,2019_Dec_25_1405,untitled,3.1.0,60.01585557485937,
016,R,M,315,R,N,016RM315RN,HRN,0,83,83,103,,,0.8220000000000001,349.08153101614516,349.4314669219857,349.4481237891305,349.7314967840357,349.76482243666396,None,down,1.8835803739420953,349.76482243666396,None,349.76482243666396,350.54815802123994,0.05821411687065847,None,,,,,,,,,20,001,2019_Dec_25_1405,untitled,3.1.0,60.01585557485937,
488,_5,N,315,L,N,488_5N315LN,HLN,0,84,84,287,,,1.118,351.73146996778087,352.0647943623626,352.08145785080706,352.3647705919029,352.3980859815201,None,up,2.2168604058315395,352.3980859815201,None,352.3980859815201,353.48142792254293,0.059260612946673064,None,,,,,,,,,20,001,2019_Dec_25_1405,untitled,3.1.0,60.01585557485937,
_,G,M,135,_,_,_GM135__,N,0,85,85,11,,,0.808,354.68139243238693,355.03139455120254,355.0480517494143,355.33136912541886,355.36469742656845,None,down,2.333505818132835,355.36469742656845,None,355.36469742656845,356.14804062563417,0.05739108958732686,None,,,,,,,,,20,001,2019_Dec_25_1405,untitled,3.1.0,60.01585557485937,
_,R,N,0,_,_,_RN000__,N,0,86,86,64,,,1.183,357.7646741196004,358.1146606783659,358.13133575407846,358.414652136893,358.4480158619808,None,up,1.7501181901607197,358.4480158619808,None,358.4480158619808,359.5979160790266,0.055801647115004016,None,,,,,,,,,20,001,2019_Dec_25_1405,untitled,3.1.0,60.01585557485937,
_,_5,N,45,_,_,__5N045__,N,0,87,87,89,,,0.742,360.2645916844449,360.61460207988057,360.63125398105694,360.9145624183111,360.9479191910359,None,up,1.9166484580964607,360.9479191910359,None,360.9479191910359,361.66457201919184,0.056478674789104844,None,,,,,,,,,20,001,2019_Dec_25_1405,untitled,3.1.0,60.01585557485937,
_,_2,N,225,_,_,__2N225__,N,0,88,88,77,,,0.903,362.9478930369114,363.2812194178805,363.29787860248325,363.5811946542308,363.61450772639364,None,up,1.9002667058666702,363.61450772639364,None,363.61450772639364,364.4978192756571,0.058061164898390416,None,,,,,,,,,20,001,2019_Dec_25_1405,untitled,3.1.0,60.01585557485937,
201,G,M,0,R,N,201GM000RN,HRN,0,89,89,128,,,1.197,365.5978369545228,365.93112460090197,365.94778312337075,366.23112665350345,366.26444634696236,None,down,2.45018201946732,366.26444634696236,None,366.26444634696236,367.4477539896616,0.0581181080560782,None,,,,,,,,,20,001,2019_Dec_25_1405,untitled,3.1.0,60.01585557485937,
386,_4,N,45,R,N,386_4N045RN,HRN,0,90,90,257,,,1.105,368.7810856676733,369.1310464033777,369.14771254033985,369.4310411725528,369.4643747707378,None,up,2.2168206780479522,369.4643747707378,None,369.4643747707378,370.5477206845353,0.057379502315598074,None,,,,,,,,,20,001,2019_Dec_25_1405,untitled,3.1.0,60.01585557485937,
_,_4,M,90,_,_,__4M090__,N,0,91,91,34,,,0.748,371.74769777484835,372.09765453777436,372.1143481531217,372.3976390439384,372.43099548559985,None,down,1.8169909778189322,372.43099548559985,None,372.43099548559985,373.14762050430363,0.05716662760096369,None,,,,,,,,,20,001,2019_Dec_25_1405,untitled,3.1.0,60.01585557485937,
_,_2,N,315,_,_,__2N315__,N,0,92,92,79,,,0.846,374.31428948842586,374.66426479098664,374.6809471501292,374.96426386400344,374.9975895166317,None,up,2.0669770730964956,374.9975895166317,None,374.9975895166317,375.8142481053146,0.05781882540759398,None,,,,,,,,,20,001,2019_Dec_25_1405,untitled,3.1.0,60.01585557485937,
484,_5,N,135,L,N,484_5N135LN,HLN,0,93,93,283,,,1.139,377.1309106667795,377.48089888086906,377.49757362551827,377.78086650272235,377.8142103639184,None,up,1.9835036993172253,377.8142103639184,None,377.8142103639184,378.93082167653847,0.05616681167157367,None,,,,,,,,,20,001,2019_Dec_25_1405,untitled,3.1.0,60.01585557485937,
391,_4,N,270,R,N,391_4N270RN,HRN,0,94,94,262,,,1.027,379.86413693373106,380.21415063981476,380.2308081690935,380.5140997220369,380.5474760275938,None,down,2.95014924404677,380.5474760275938,None,380.5474760275938,381.5307741356228,0.054661128615407506,None,,,,,,,,,20,001,2019_Dec_25_1405,untitled,3.1.0,60.01585557485937,
297,_2,M,0,L,N,297_2M000LN,HLN,0,95,95,152,,,1.232,383.564093166955,383.9140598618287,383.9307346064779,384.2140791298043,384.24741471437665,None,down,3.333452185626811,384.24741471437665,None,384.24741471437665,385.46404072627774,0.05838395315367961,None,,,,,,,,,20,001,2019_Dec_25_1405,untitled,3.1.0,60.01585557485937,
205,G,M,180,R,N,205GM180RN,HRN,0,96,96,132,,,1.074,387.6473172488768,387.99732698218577,388.014007023874,388.2973224134912,388.3306527010245,None,down,2.7668171025470656,388.3306527010245,None,388.3306527010245,389.380597148338,0.05656806230399525,None,,,,,,,,,20,001,2019_Dec_25_1405,untitled,3.1.0,60.01585557485937,
132,F,N,135,R,N,132FN135RN,HRN,0,97,97,211,,,1.371,391.1805829787627,391.5139173052921,391.53059105674765,391.81391075020656,391.84722713301744,None,up,2.6668305437815434,391.84722713301744,None,391.84722713301744,393.19719051724314,0.05855345836971537,None,,,,,,,,,20,001,2019_Dec_25_1405,untitled,3.1.0,60.01585557485937,
_,_4,M,225,_,_,__4M225__,N,0,98,98,37,,,0.714,394.5805212682717,394.93050749597023,394.9471802542321,395.23047478676017,395.26379514235305,None,down,1.9168275641968648,395.26379514235305,None,395.26379514235305,395.9471474788079,0.056001941364229424,None,,,,,,,,,20,001,2019_Dec_25_1405,untitled,3.1.0,60.01585557485937,
142,F,M,225,R,N,142FM225RN,HRN,0,99,99,117,,,0.905,397.2471054997841,397.597099341976,397.6137721002342,397.8971096712012,397.93043532382944,None,down,2.433469533425523,397.93043532382944,None,397.93043532382944,398.8137458798992,0.05786385023384355,None,,,,,,,,,20,001,2019_Dec_25_1405,untitled,3.1.0,60.01585557485937,
_,F,M,45,_,_,_FM045__,N,0,100,100,1,,,1.176,400.4303820223831,400.7803636151766,400.7970271036211,401.0803583843517,401.11368668549767,None,down,2.9334718508798687,401.11368668549767,None,401.11368668549767,402.2636862220061,0.058007201325381175,None,,,,,,,,,20,001,2019_Dec_25_1405,untitled,3.1.0,60.01585557485937,
_,F,N,315,_,_,_FN315__,N,0,101,101,55,,,1.365,404.1302862784214,404.46359842360107,404.48026191204553,404.76359981407586,404.7969317569332,None,down,2.200151892564463,404.7969317569332,None,404.7969317569332,406.14689116838053,0.05796052117511863,None,,,,,,,,,20,001,2019_Dec_25_1405,untitled,3.1.0,60.01585557485937,
233,G,M,0,L,N,233GM000LN,HLN,0,102,102,136,,,0.9570000000000001,407.06355055162203,407.4135589606667,407.43024165087627,407.713537507665,407.7468913008088,None,down,2.2001330218699877,407.7468913008088,None,407.7468913008088,408.6635102941327,0.05675643821814447,None,,,,,,,,,20,001,2019_Dec_25_1405,untitled,3.1.0,60.01585557485937,
_,_5,N,270,_,_,__5N270__,N,0,103,103,94,,,1.304,410.0134935422502,410.3634883776358,410.38013763029085,410.6634758633845,410.69680383346713,None,up,2.2336427465670567,410.69680383346713,None,410.69680383346713,411.9801106153973,0.0570438025315525,None,,,,,,,,,20,001,2019_Dec_25_1405,untitled,3.1.0,60.01585557485937,
172,F,M,135,L,N,172FM135LN,HLN,0,104,104,123,,,0.925,413.0134448757126,413.34677423626636,413.36340594248395,413.64676437053276,413.68008273973464,None,down,2.1668169701224542,413.68008273973464,None,413.68008273973464,414.56341183543555,0.05909574263569084,None,,,,,,,,,20,001,2019_Dec_25_1405,untitled,3.1.0,60.01585557485937,
014,R,M,225,R,N,014RM225RN,HRN,0,105,105,101,,,1.12,415.9300214927316,416.26334158347163,416.2800246047409,416.56333767690376,416.5966643227257,None,down,2.0835296548066253,416.5966643227257,None,416.5966643227257,417.68000659481186,0.05790390908077825,None,,,,,,,,,20,001,2019_Dec_25_1405,untitled,3.1.0,60.01585557485937,
_,G,N,270,_,_,_GN270__,N,0,106,106,62,,,1.02,418.7466406846943,419.0966500869363,419.11331192005673,419.39663624842433,419.42995527975654,None,up,1.8501643406016228,419.42995527975654,None,419.42995527975654,420.4132662993179,0.056290298871317646,None,,,,,,,,,20,001,2019_Dec_25_1405,untitled,3.1.0,60.01585557485937,
_,G,M,0,_,_,_GM000__,N,0,107,107,8,,,0.983,421.3465779147955,421.696568115276,421.7132223339031,421.99655692528177,422.0298594033666,None,down,1.9835066789019038,422.0298594033666,None,422.0298594033666,422.97987853891755,0.057759564795560436,None,,,,,,,,,20,001,2019_Dec_25_1405,untitled,3.1.0,60.01585557485937,
392,_4,N,315,R,N,392_4N315RN,HRN,0,108,108,263,,,1.301,424.09654116659294,424.4298367585325,424.4464975984556,424.72983980432764,424.76319922557377,None,up,2.000129446365463,424.76319922557377,None,424.76319922557377,426.0464970687535,0.05897093117891927,None,,,,,,,,,20,001,2019_Dec_25_1405,untitled,3.1.0,60.01585557485937,
_,R,N,180,_,_,_RN180__,N,0,109,109,68,,,1.093,426.8464504548174,427.17978610560385,427.19645820173537,427.4797643215352,427.51312241852065,None,down,2.7501281221084355,427.51312241852065,None,427.51312241852065,428.5630668658341,0.05741227773978608,None,,,,,,,,,20,001,2019_Dec_25_1405,untitled,3.1.0,60.01585557485937,
458,_5,M,45,R,N,458_5M045RN,HRN,0,110,110,177,,,0.862,430.3297177738132,430.67968215123256,430.69638139468225,430.9796974464298,431.01302773396674,None,up,2.983482511168404,431.01302773396674,None,431.01302773396674,431.8630010501365,0.0571166368026752,None,,,,,,,,,20,001,2019_Dec_25_1405,untitled,3.1.0,60.01585557485937,
_,G,N,0,_,_,_GN000__,N,0,111,111,56,,,1.242,434.06295463484275,434.41296602347575,434.4296321604379,434.71290086990484,434.74626691245066,None,up,2.0001903623051476,434.74626691245066,None,434.74626691245066,435.9629187474093,0.05667565838666633,None,,,,,,,,,20,001,2019_Dec_25_1405,untitled,3.1.0,60.01585557485937,
_,_2,N,45,_,_,__2N045__,N,0,112,112,73,,,1.258,436.8129195419642,437.1629057696664,437.17959177052035,437.4629038494895,437.4962285089241,None,up,2.1668169701188162,437.4962285089241,None,437.4962285089241,438.71283962290545,0.05778538785671117,None,,,,,,,,,20,001,2019_Dec_25_1405,untitled,3.1.0,60.01585557485937,
_,_2,M,90,_,_,__2M090__,N,0,113,113,26,,,1.101,439.74616991043877,440.07949728460517,440.0961591177256,440.3795069517,440.41283823243066,None,down,2.73345403958956,440.41283823243066,None,440.41283823243066,441.4961238924225,0.05714775690285023,None,,,,,,,,,20,001,2019_Dec_25_1405,untitled,3.1.0,60.01585557485937,
_,F,M,315,_,_,_FM315__,N,0,114,114,7,,,1.202,443.2127578498803,443.56274771929384,443.5793959787552,443.8627709600478,443.89608999138,None,down,2.2668084948600153,443.89608999138,None,443.89608999138,445.07934466369625,0.056309169569431106,None,,,,,,,,,20,001,2019_Dec_25_1405,untitled,3.1.0,60.01585557485937,
141,F,M,180,R,N,141FM180RN,HRN,0,115,115,116,,,1.306,446.22935876706106,446.5793532713833,446.5959955716753,446.8793559861151,446.91267104466897,None,None,,446.91267104466897,None,446.91267104466897,448.1959943798429,0.058428646909305826,None,,,,,,,,,20,001,2019_Dec_25_1405,untitled,3.1.0,60.01585557485937,
_,G,M,315,_,_,_GM315__,N,0,116,116,15,,,0.9400000000000001,450.44593478816387,450.77924064311446,450.79593624484914,451.07925792469905,451.112588212236,450.44593478816387,down,2.416887486942869,451.112588212236,None,451.112588212236,452.0292230966734,0.05848327261628583,None,,,,,,,,,20,001,2019_Dec_25_1405,untitled,3.1.0,60.01585557485937,
_,_5,N,0,_,_,__5N000__,N,0,117,117,88,,,0.9390000000000001,453.59587042915155,453.9458758586152,453.9625343810876,454.24583950769374,454.27921051620797,None,up,1.7334868150101101,454.27921051620797,None,454.27921051620797,455.1958189154575,0.05712392022905988,None,,,,,,,,,20,001,2019_Dec_25_1405,untitled,3.1.0,60.01585557485937,
419,_4,N,90,L,N,419_4N090LN,HLN,0,118,118,266,,,0.765,456.0791635712085,456.42913291460354,456.4457821672586,456.72910318497816,456.76245830237895,None,down,1.9334960186133685,456.76245830237895,None,456.76245830237895,457.5124351278391,0.05535735804733122,None,,,,,,,,,20,001,2019_Dec_25_1405,untitled,3.1.0,60.01585557485937,
_,_2,N,135,_,_,__2N135__,N,0,119,119,75,,,1.2510000000000001,458.7624324793178,459.1123587842776,459.12905471707927,459.4124167868431,459.44572555516424,None,up,2.1668249156791717,459.44572555516424,None,459.44572555516424,460.6623578572944,0.05632737814084976,None,,,,,,,,,20,001,2019_Dec_25_1405,untitled,3.1.0,60.01585557485937,
487,_5,N,270,L,N,487_5N270LN,HLN,0,120,120,286,,,1.197,461.6956719226546,462.0289853920949,462.0456283545136,462.3289947281228,462.3623028343136,None,up,2.2336602930045046,462.3623028343136,None,462.3623028343136,463.54563431368297,0.05902257729758276,None,,,,,,,,,20,001,2019_Dec_25_1405,untitled,3.1.0,60.01585557485937,
171,F,M,90,L,N,171FM090LN,HLN,0,121,121,122,,,1.2730000000000001,464.67896374045085,465.0122904524869,465.02896221755145,465.31225443262883,465.3456247790127,None,down,2.5834535098838387,465.3456247790127,None,465.3456247790127,466.5955721397004,0.05797012205584906,None,,,,,,,,,20,001,2019_Dec_25_1405,untitled,3.1.0,60.01585557485937,
456,_5,N,315,R,N,456_5N315RN,HRN,0,122,122,279,,,1.31,467.9955441978236,468.34552711487413,468.3621869616072,468.6455483692407,468.6788846159434,None,up,2.3002311495001777,468.6788846159434,None,468.6788846159434,469.96217815528144,0.057839020366373006,None,,,,,,,,,20,001,2019_Dec_25_1405,untitled,3.1.0,60.01585557485937,
430,_4,M,225,L,N,430_4M225LN,HLN,0,123,123,173,,,1.1260000000000001,471.06213657353146,471.3955063240028,471.41214895535813,471.6954726215954,471.72880489552335,None,up,3.3002285009788466,471.72880489552335,None,471.72880489552335,472.8120922108392,0.058875584494671784,None,,,,,,,,,20,001,2019_Dec_25_1405,untitled,3.1.0,60.01585557485937,
_,F,M,225,_,_,_FM225__,N,0,124,124,5,,,0.885,475.112038975607,475.4453716468088,475.4620374527076,475.74538296922765,475.7787159052823,None,down,2.2334894635314413,475.7787159052823,None,475.7787159052823,476.62866770223627,0.0619131047387782,None,,,,,,,,,20,001,2019_Dec_25_1405,untitled,3.1.0,60.01585557485937,
486,_5,N,225,L,N,486_5N225LN,HLN,0,125,125,285,,,1.118,478.09533642150564,478.4286558501153,478.44532298027116,478.7286208234509,478.7619597186749,None,up,2.4834643025969854,478.7619597186749,None,478.7619597186749,479.8452645804282,0.05822603520573466,None,,,,,,,,,20,001,2019_Dec_25_1405,untitled,3.1.0,60.01585557485937,
_,_2,M,180,_,_,__2M180__,N,0,126,126,28,,,1.322,481.3119154221931,481.66191456142406,481.6785727528295,481.9619027093031,481.9952071737789,None,down,3.1168043234429206,481.9952071737789,None,481.9952071737789,483.27852157020243,0.057164310146617936,None,,,,,,,,,20,001,2019_Dec_25_1405,untitled,3.1.0,60.01585557485937,
_,R,N,45,_,_,_RN045__,N,0,127,127,65,,,1.042,485.1785078641151,485.52848118028487,485.54515360748337,485.8284931648341,485.86180954764495,None,up,2.583459800116543,485.86180954764495,None,485.86180954764495,486.8784425781232,0.056904424218373606,None,,,,,,,,,20,001,2019_Dec_25_1405,untitled,3.1.0,60.01585557485937,
385,_4,N,0,R,N,385_4N000RN,HRN,0,128,128,256,,,0.937,488.5284374797229,488.86175094916325,488.8784243695518,489.1617506843104,489.19505746624054,None,up,1.8335124394325248,489.19505746624054,None,489.19505746624054,490.11172115332374,0.05990122348157456,None,,,,,,,,,20,001,2019_Dec_25_1405,untitled,3.1.0,60.01585557485937,
001,R,N,0,R,N,001RN000RN,HRN,0,129,129,192,,,1.143,491.1116880468362,491.44500052308285,491.46168255115845,491.7450029067513,491.7783593484128,None,up,1.8336322849172575,491.7783593484128,None,491.7783593484128,492.89496668825086,0.05861371217906708,None,,,,,,,,,20,001,2019_Dec_25_1405,untitled,3.1.0,60.01585557485937,
_,R,N,225,_,_,_RN225__,N,0,130,130,69,,,1.323,493.67831386009857,494.0283126682625,494.0449658936959,494.32829750549354,494.361597666124,None,up,1.9168368340142479,494.361597666124,None,494.361597666124,495.64492994005195,0.05609861230914248,None,,,,,,,,,20,001,2019_Dec_25_1405,untitled,3.1.0,60.01585557485937,
455,_5,N,270,R,N,455_5N270RN,HRN,0,131,131,278,,,1.312,496.36158276820424,496.6949015346836,496.7115663473887,496.9948837233933,497.02820507217984,None,up,1.8501739414859912,497.02820507217984,None,497.02820507217984,498.3115433052735,0.05920102127129212,None,,,,,,,,,20,001,2019_Dec_25_1405,untitled,3.1.0,60.01585557485937,
427,_4,M,90,L,N,427_4M090LN,HLN,0,132,132,170,,,1.129,498.9615213225661,499.2948417443695,499.3115072192013,499.59483386502325,499.62818335432166,None,down,2.466934564363328,499.62818335432166,None,499.62818335432166,500.7448059231465,0.059242073311907006,None,,,,,,,,,20,001,2019_Dec_25_1405,untitled,3.1.0,60.01585557485937,
417,_4,N,0,L,N,417_4N000LN,HLN,0,133,133,264,,,0.854,502.1781473344636,502.51145683112554,502.52813819707444,502.81142180446113,502.84473719407833,None,up,1.7501820856850827,502.84473719407833,None,502.84473719407833,503.6613954516979,0.0584630776575068,None,,,,,,,,,20,001,2019_Dec_25_1405,untitled,3.1.0,60.01585557485937,
495,_5,M,270,L,N,495_5M270LN,HLN,0,134,134,190,,,0.991,504.66140107980027,505.0113992258375,505.0280544376583,505.31139267075196,505.34470375652745,None,down,2.5501712267541734,505.34470375652745,None,505.34470375652745,506.2947159397154,0.057203375803510426,None,,,,,,,,,20,001,2019_Dec_25_1405,untitled,3.1.0,60.01585557485937,
_,_2,N,0,_,_,__2N000__,N,0,135,135,72,,,1.2630000000000001,507.96133195345465,508.311298317265,508.3279627989032,508.61129904560585,508.64465350087994,None,up,1.950202214426099,508.64465350087994,None,508.64465350087994,509.894605827536,0.057196754507458536,None,,,,,,,,,20,001,2019_Dec_25_1405,untitled,3.1.0,60.01585557485937,
_,F,N,45,_,_,_FN045__,N,0,136,136,49,,,1.207,510.6612881866786,511.011259185394,511.02794452412127,511.31122647618395,511.3445534530729,None,up,1.9001713591824227,511.3445534530729,None,511.3445534530729,512.5278985061013,0.05786418129719095,None,,,,,,,,,20,001,2019_Dec_25_1405,untitled,3.1.0,60.01585557485937,
292,_2,N,135,L,N,292_2N135LN,HLN,0,137,137,251,,,0.724,513.3278585134649,513.6611809216593,513.6778460654277,513.9611899266238,513.9945112754067,None,up,2.450160169188166,513.9945112754067,None,513.9945112754067,514.6778166006516,0.05851770336084883,None,,,,,,,,,20,001,2019_Dec_25_1405,untitled,3.1.0,60.01585557485937,
_,_2,M,225,_,_,__2M225__,N,0,138,138,29,,,1.165,516.5111390088459,516.8611172909877,516.8778367293962,517.1610951758557,517.1944420166365,None,down,2.6668424621166196,517.1944420166365,None,517.1944420166365,518.3443849410505,0.05381029187992681,None,,,,,,,,,20,001,2019_Dec_25_1405,untitled,3.1.0,60.01585557485937,
005,R,N,180,R,N,005RN180RN,HRN,0,139,139,196,,,0.859,519.9277229092913,520.2777290008853,520.2943951378475,520.5776992712599,520.6110332005119,None,up,2.8167827380129893,520.6110332005119,None,520.6110332005119,521.4276914581278,0.05852763530856464,None,,,,,,,,,20,001,2019_Dec_25_1405,untitled,3.1.0,60.01585557485937,
389,_4,N,180,R,N,389_4N180RN,HRN,0,140,140,260,,,0.915,523.4943027045338,523.8443223697905,523.8609540760044,524.1442985993308,524.1776037259369,None,up,1.6834708576825506,524.1776037259369,None,524.1776037259369,525.0609212343697,0.057239461872086395,None,,,,,,,,,20,001,2019_Dec_25_1405,untitled,3.1.0,60.01585557485937,
492,_5,M,135,L,N,492_5M135LN,HLN,0,141,141,187,,,1.344,525.9275888280172,526.2775588335389,526.2942944941278,526.5775625414644,526.6108997813644,None,down,3.30014474156269,526.6108997813644,None,526.6108997813644,527.927558038984,0.056571704019006575,None,,,,,,,,,20,001,2019_Dec_25_1405,untitled,3.1.0,60.01585557485937,
_,R,M,180,_,_,_RM180__,N,0,142,142,20,,,1.066,529.9775041416215,530.3274969906197,530.3441697488815,530.6274983810945,530.6608458840019,None,down,3.2501145484493463,530.6608458840019,None,530.6608458840019,531.7107803993713,0.0557645678454719,None,,,,,,,,,20,001,2019_Dec_25_1405,untitled,3.1.0,60.01585557485937,
490,_5,M,45,L,N,490_5M045LN,HLN,0,143,143,185,,,1.3860000000000001,533.9774174026243,534.3273728412933,534.3440638081192,534.6274099867696,534.6607303423625,None,None,,534.6607303423625,None,534.6607303423625,536.0107106108953,0.05798998594764271,None,,,,,,,,,20,001,2019_Dec_25_1405,untitled,3.1.0,60.01585557485937,
294,_2,N,225,L,N,294_2N225LN,HLN,0,144,144,253,,,1.035,538.193986802431,538.5273227842808,538.5439899144403,538.8273079525752,538.8606104306637,538.193986802431,up,1.9835099895499297,538.8606104306637,None,538.8606104306637,539.8772924587392,0.058219744973030174,None,,,,,,,,,20,001,2019_Dec_25_1405,untitled,3.1.0,60.01585557485937,
238,G,M,225,L,N,238GM225LN,HLN,0,145,145,141,,,0.753,540.9105926193733,541.2605761985542,541.277237038481,541.5605464689288,541.5938827156315,None,down,2.2336357942040195,541.5938827156315,None,541.5938827156315,542.3105388544354,0.05612244897929486,None,,,,,,,,,20,001,2019_Dec_25_1405,untitled,3.1.0,60.01585557485937,
449,_5,N,0,R,N,449_5N000RN,HRN,0,146,146,272,,,1.23,543.8938718567042,544.243855435885,544.2605238903052,544.5438366314011,544.577158642318,None,up,1.9336671791570552,544.577158642318,None,544.577158642318,545.7938273615837,0.0566154045809526,None,,,,,,,,,20,001,2019_Dec_25_1405,untitled,3.1.0,60.01585557485937,
012,R,M,135,R,N,012RM135RN,HRN,0,147,147,99,,,0.8300000000000001,546.5938115366844,546.9271448700165,546.9437613472473,547.2271449362306,547.2604527113544,None,up,1.8834555624853238,547.2604527113544,None,547.2604527113544,548.0770887876279,0.058661716586357215,None,,,,,,,,,20,001,2019_Dec_25_1405,untitled,3.1.0,60.01585557485937,
267,_2,M,90,R,N,267_2M090RN,HRN,0,148,148,146,,,1.127,549.2270807096429,549.560411063394,549.5770795178105,549.8603707396906,549.8936987097732,None,down,2.48348582181643,549.8936987097732,None,549.8936987097732,550.9770098617591,0.05880937151960097,None,,,,,,,,,20,001,2019_Dec_25_1405,untitled,3.1.0,60.01585557485937,
_,F,N,270,_,_,_FN270__,N,0,149,149,54,,,1.0230000000000001,552.4436686490844,552.7936793755871,552.8103471678733,553.0936612332298,553.12698357521,None,up,3.2336357942040195,553.12698357521,None,553.12698357521,554.1103005539371,0.05550865469922428,None,,,,,,,,,20,001,2019_Dec_25_1405,untitled,3.1.0,60.01585557485937,
_,R,N,315,_,_,_RN315__,N,0,150,150,71,,,1.035,556.4269270293298,556.776917891937,556.7935856842269,557.076888824442,557.1102131528096,None,up,1.6835201863505063,557.1102131528096,None,557.1102131528096,558.1268528045839,0.05423902089387411,None,,,,,,,,,20,001,2019_Dec_25_1405,untitled,3.1.0,60.01585557485937,
174,F,M,225,L,N,174FM225LN,HLN,0,151,151,125,,,1.383,558.8602114974856,559.2101960698637,559.2268632000196,559.5101643538474,559.5435121878218,None,down,2.900150502093311,559.5435121878218,None,559.5435121878218,560.8934719303325,0.058226697339705424,None,,,,,,,,,20,001,2019_Dec_25_1405,untitled,3.1.0,60.01585557485937,
_,_2,N,180,_,_,__2N180__,N,0,152,152,76,,,1.268,562.5101302541661,562.8600939694552,562.8767521608606,563.1600907250177,563.1933902235214,None,up,2.9835162797826342,563.1933902235214,None,563.1933902235214,564.44337929838,0.05736294907183037,None,,,,,,,,,20,001,2019_Dec_25_1405,untitled,3.1.0,60.01585557485937,
139,F,M,90,R,N,139FM090RN,HRN,0,153,153,114,,,1.091,566.2433730743614,566.5933374517808,566.6100453029176,566.8933577129501,566.9267045537308,None,down,3.000278756626358,566.9267045537308,None,566.9267045537308,567.9766695270664,0.05597214552471996,None,,,,,,,,,20,001,2019_Dec_25_1405,untitled,3.1.0,60.01585557485937,
046,R,M,225,L,N,046RM225LN,HLN,0,154,154,109,,,1.315,569.9932916324033,570.3432642864427,570.3599483009093,570.6432643526568,570.6765949712571,None,down,2.8335005210974487,570.6765949712571,None,570.6765949712571,571.9598785786475,0.05665678768855287,None,,,,,,,,,20,001,2019_Dec_25_1405,untitled,3.1.0,60.01585557485937,
_,F,M,90,_,_,_FM090__,N,0,155,155,2,,,1.036,573.5932133024507,573.9265499464345,573.9432091310337,574.2265089606008,574.2598452073071,None,down,2.3001705646238406,574.2598452073071,None,574.2598452073071,575.2765043919062,0.06364887788731721,None,,,,,,,,,20,001,2019_Dec_25_1405,untitled,3.1.0,60.01585557485937,
_,_2,M,270,_,_,__2M270__,N,0,156,156,30,,,0.963,576.6264657897409,576.9764692328172,576.9931337144553,577.2764401653221,577.3097678043378,None,down,2.766803197820991,577.3097678043378,None,577.3097678043378,578.2597511848799,0.05615886611485621,None,,,,,,,,,20,001,2019_Dec_25_1405,untitled,3.1.0,60.01585557485937,
_,_4,N,270,_,_,__4N270__,N,0,157,157,86,,,1.0150000000000001,580.1430806116477,580.4930304222144,580.5097114570963,580.7930162526354,580.8263703768462,None,up,2.616812268999638,580.8263703768462,None,580.8263703768462,581.8096645120968,0.057045788922550855,None,,,,,,,,,20,001,2019_Dec_25_1405,untitled,3.1.0,60.01585557485937,
227,G,N,90,L,N,227GN090LN,HLN,0,158,158,234,,,1.369,583.5096535207413,583.8596602744656,583.8763300531427,584.1596431253056,584.1929866554383,None,up,3.016782009668532,584.1929866554383,None,584.1929866554383,585.5429156089158,0.055265653078095056,None,,,,,,,,,20,001,2019_Dec_25_1405,untitled,3.1.0,60.01585557485937,
493,_5,M,180,L,N,493_5M180LN,HLN,0,159,159,188,,,1.068,587.276254768989,587.6262313958105,587.6428826348529,587.9262317930879,587.9595445341838,None,None,,587.9595445341838,None,587.9595445341838,589.0095449314649,0.05794694751602947,None,,,,,,,,,20,001,2019_Dec_25_1405,untitled,3.1.0,60.01585557485937,
421,_4,N,180,L,N,421_4N180LN,HLN,0,160,160,268,,,1.335,591.4761537279883,591.8261502187015,591.8428047683956,592.12609830773,592.1594444863804,591.4761537279883,up,2.6835019777827256,592.1594444863804,None,592.1594444863804,593.4760818869108,0.05726396067257156,None,,,,,,,,,20,001,2019_Dec_25_1405,untitled,3.1.0,60.01585557485937,
239,G,M,270,L,N,239GM270LN,HLN,0,161,161,142,,,0.853,594.9260434171738,595.2593856892563,595.2760438806617,595.5593281501824,595.5927028004116,None,down,2.100177252134017,595.5927028004116,None,595.5927028004116,596.4093521192772,0.058417721771547804,None,,,,,,,,,20,001,2019_Dec_25_1405,untitled,3.1.0,60.01585557485937,
451,_5,N,90,R,N,451_5N090RN,HRN,0,162,162,274,,,1.291,597.7593426508247,598.1093119942161,598.1259774690479,598.4093160332086,598.4426459896786,None,up,2.5836273189452186,598.4426459896786,None,598.4426459896786,599.6925777903125,0.05553811947174836,None,,,,,,,,,20,001,2019_Dec_25_1405,untitled,3.1.0,60.01585557485937,
399,_4,M,270,R,N,399_4M270RN,HRN,0,163,163,166,,,1.347,601.1092828605069,601.4425761349885,601.4592363127849,601.7425699109699,601.7759081440636,None,down,2.383486020455166,601.7759081440636,None,601.7759081440636,603.0925577939961,0.05881003364993376,None,,,,,,,,,20,001,2019_Dec_25_1405,untitled,3.1.0,60.01585557485937,
002,R,N,45,R,N,002RN045RN,HRN,0,164,164,193,,,1.094,604.2425119746185,604.5758549088314,604.5925203836632,604.875828820921,604.9091581152607,None,up,2.0835087977211515,604.9091581152607,None,604.9091581152607,605.9924904553991,0.05952513377997093,None,,,,,,,,,20,001,2019_Dec_25_1405,untitled,3.1.0,60.01585557485937,
_,_4,N,0,_,_,__4N000__,N,0,165,165,80,,,1.264,607.0591291801902,607.409099185712,607.4257590324414,607.7090959412781,607.7424547003939,None,up,2.050167585039162,607.7424547003939,None,607.7424547003939,608.9924225871,0.055489121870778035,None,,,,,,,,,20,001,2019_Dec_25_1405,untitled,3.1.0,60.01585557485937,
_,R,N,135,_,_,_RN135__,N,0,166,166,67,,,1.193,609.85907263431,610.2090621726602,610.225731289207,610.5090410507219,610.5423806080726,None,up,2.5334848948332365,610.5423806080726,None,610.5423806080726,611.6923556457805,0.056171777647250565,None,,,,,,,,,20,001,2019_Dec_25_1405,untitled,3.1.0,60.01585557485937,
208,G,M,315,R,N,208GM315RN,HRN,0,167,167,135,,,0.84,613.1423294254455,613.4922967824459,613.5089897356629,613.7923177057455,613.8256513039305,None,down,2.2002925951383077,613.8256513039305,None,613.8256513039305,614.6422867180736,0.0579621764991316,None,,,,,,,,,20,001,2019_Dec_25_1405,untitled,3.1.0,60.01585557485937,
229,G,N,180,L,N,229GN180LN,HLN,0,168,168,236,,,0.937,616.1089362355815,616.4422732106286,616.4589184905017,616.7422017668287,616.7755641676558,None,down,2.7834925093266065,616.7755641676558,None,616.7755641676558,617.6922205713126,0.059256971235299716,None,,,,,,,,,20,001,2019_Dec_25_1405,untitled,3.1.0,60.01585557485937,
_,_5,M,135,_,_,__5M135__,N,0,169,169,43,,,1.2570000000000001,619.6421751492126,619.9755349677362,619.9921792544155,620.2754585579605,620.3088004327692,None,up,3.116834781409125,620.3088004327692,None,620.3088004327692,621.5254439911077,0.057480477102217264,None,,,,,,,,,20,001,2019_Dec_25_1405,untitled,3.1.0,60.01585557485937,
424,_4,N,315,L,N,424_4N315LN,HLN,0,170,170,271,,,0.8200000000000001,623.4920888737033,623.8420340493612,623.8586981999324,624.1420543105305,624.1754077726073,None,up,1.6001633474115806,624.1754077726073,None,624.1754077726073,624.9587102506957,0.05680311836840701,None,,,,,,,,,20,001,2019_Dec_25_1405,untitled,3.1.0,60.01585557485937,
268,_2,M,135,R,N,268_2M135RN,HRN,0,171,171,147,,,0.867,625.8420476230203,626.1920331885922,626.2086744956905,626.492034248,626.525369501509,None,down,2.9501234209856193,626.525369501509,None,626.525369501509,627.3753497700418,0.05834819814481307,None,,,,,,,,,20,001,2019_Dec_25_1405,untitled,3.1.0,60.01585557485937,
207,G,M,270,R,N,207GM270RN,HRN,0,172,172,134,,,0.935,629.5586342382012,629.8919394310178,629.9085966292296,630.191944794271,630.2252641566665,None,down,2.3001639433277887,630.2252641566665,None,630.2252641566665,631.1419182428654,0.05900469979678746,None,,,,,,,,,20,001,2019_Dec_25_1405,untitled,3.1.0,60.01585557485937,
175,F,M,270,L,N,175FM270LN,HLN,0,173,173,126,,,0.757,632.6085714020846,632.9418822230073,632.9585420697367,633.2418789785734,633.2752056243953,None,down,2.6834529801817553,633.2752056243953,None,633.2752056243953,633.9918683844953,0.058680587284470676,None,,,,,,,,,20,001,2019_Dec_25_1405,untitled,3.1.0,60.01585557485937,
236,G,M,135,L,N,236GM135LN,HLN,0,174,174,139,,,1.231,636.025157619988,636.3751365642602,636.3918156127547,636.6751641088595,636.708476849959,None,down,2.8502196284389356,636.708476849959,None,636.708476849959,637.9251323266326,0.0569544150166621,None,,,,,,,,,20,001,2019_Dec_25_1405,untitled,3.1.0,60.01585557485937,
045,R,M,180,L,N,045RM180LN,HLN,0,175,175,108,,,0.738,639.641802370159,639.975057572181,639.9917170878471,640.2750450579297,640.3083856084777,None,down,2.0836346023716033,640.3083856084777,None,640.3083856084777,641.025033470658,0.05994856575853191,None,,,,,,,,,20,001,2019_Dec_25_1405,untitled,3.1.0,60.01585557485937,
263,_2,N,270,R,N,263_2N270RN,HRN,0,176,176,246,,,1.024,642.4750168512037,642.8083131052699,642.8249845392711,643.1083356838935,643.1416768965719,None,up,2.300135471748945,643.1416768965719,None,643.1416768965719,644.1249773220552,0.059951545343210455,None,,,,,,,,,20,001,2019_Dec_25_1405,untitled,3.1.0,60.01585557485937,
038,R,N,225,L,N,038RN225LN,HLN,0,177,177,205,,,0.9460000000000001,645.5249477248544,645.8582615253617,645.8749200478342,646.1582556324065,646.1915769811931,None,up,2.4835434271044505,646.1915769811931,None,646.1915769811931,647.1082217975782,0.058695154137240024,None,,,,,,,,,20,001,2019_Dec_25_1405,untitled,3.1.0,60.01585557485937,
_,_4,N,90,_,_,__4N090__,N,0,178,178,82,,,1.08,648.7581653841225,649.0915126221807,649.1081628680295,649.3915315590893,649.424808876247,None,down,2.8834568867459893,649.424808876247,None,649.424808876247,650.4748139084331,0.06381838310699095,None,,,,,,,,,20,001,2019_Dec_25_1405,untitled,3.1.0,60.01585557485937,
036,R,N,135,L,N,036RN135LN,HLN,0,179,179,203,,,1.0090000000000001,652.3747763656756,652.7247877543086,652.7414717687752,653.0247537208379,653.0581071829147,None,up,2.083532634391304,653.0581071829147,None,653.0581071829147,654.0413966832602,0.05818134144647047,None,,,,,,,,,20,001,2019_Dec_25_1405,untitled,3.1.0,60.01585557485937,
168,F,N,315,L,N,168FN315LN,HLN,0,180,180,223,,,1.047,655.2247033327658,655.5580346797069,655.5747051205144,655.8580284556883,655.8913557636406,None,up,1.9003150413336698,655.8913557636406,None,655.8913557636406,656.9080209074091,0.06593123915081378,None,,,,,,,,,20,001,2019_Dec_25_1405,untitled,3.1.0,60.01585557485937,
170,F,M,45,L,N,170FM045LN,HLN,0,181,181,121,,,0.8300000000000001,657.874661486163,658.2079971369494,658.2246639360419,658.5079909129308,658.5413059714847,None,down,1.9835149555256066,658.5413059714847,None,658.5413059714847,659.3579490001175,0.05790986825013533,None,,,,,,,,,20,001,2019_Dec_25_1405,untitled,3.1.0,60.01585557485937,
482,_5,N,45,L,N,482_5N045LN,HLN,0,182,182,281,,,1.11,660.591284187416,660.9412363154333,660.9579173503153,661.2412463135915,661.2745782564525,None,up,2.033498799559311,661.2745782564525,None,661.2745782564525,662.357872193068,0.05547323075734312,None,,,,,,,,,20,001,2019_Dec_25_1405,untitled,3.1.0,60.01585557485937,
_,_4,M,315,_,_,__4M315__,N,0,183,183,39,,,0.85,663.3745303844735,663.7245411109761,663.7411920189516,664.0245425014473,664.057877092826,None,up,1.9501588449311384,664.057877092826,None,664.057877092826,664.8744956226619,0.056722669600276276,None,,,,,,,,,20,001,2019_Dec_25_1405,untitled,3.1.0,60.01585557485937,
398,_4,M,225,R,N,398_4M225RN,HRN,0,184,184,165,,,1.178,666.0911497750749,666.424483108407,666.4411535492145,666.7244494060033,666.7578088272494,None,down,2.06680955426782,666.7578088272494,None,666.7578088272494,667.9077822096333,0.05945759654787253,None,,,,,,,,,20,001,2019_Dec_25_1405,untitled,3.1.0,60.01585557485937,
003,R,N,90,R,N,003RN090RN,HRN,0,185,185,194,,,0.889,668.9077491031458,669.2410602551317,669.2577191086675,669.541079192044,669.574424708564,None,up,1.7168729862969485,669.574424708564,None,669.574424708564,670.4243947140858,0.05876368456665659,None,,,,,,,,,20,001,2019_Dec_25_1405,untitled,3.1.0,60.01585557485937,
204,G,M,135,R,N,204GM135RN,HRN,0,186,186,131,,,1.163,671.3576904384499,671.7076687205918,671.7243358507512,672.0077035486174,672.0410123169386,None,down,2.150301798741566,672.0410123169386,None,672.0410123169386,673.1909923206185,0.057402345792070264,None,,,,,,,,,20,001,2019_Dec_25_1405,untitled,3.1.0,60.01585557485937,
_,F,N,225,_,_,_FN225__,N,0,187,187,53,,,0.771,674.2576482607838,674.60765170386,674.6242993011874,674.9076074073782,674.9409227969954,None,up,1.8003291447021184,674.9409227969954,None,674.9409227969954,675.6909509375109,0.05694249668158591,None,,,,,,,,,20,001,2019_Dec_25_1405,untitled,3.1.0,60.01585557485937,
491,_5,M,90,L,N,491_5M090LN,HLN,0,188,188,186,,,0.875,676.8242403054282,677.1575498020902,677.1742245467394,677.4575412606173,677.4909006818598,None,down,2.1168092894149595,677.4909006818598,None,677.4909006818598,678.3408835989139,0.05977707415513578,None,,,,,,,,,20,001,2019_Dec_25_1405,untitled,3.1.0,60.01585557485937,
131,F,N,90,R,N,131FN090RN,HRN,0,189,189,210,,,1.041,679.6908413550373,680.0241544934106,680.0408116916224,680.3241783962949,680.3575136498039,None,up,2.2168352449007216,680.3575136498039,None,680.3575136498039,681.3741493287998,0.05842897797629121,None,,,,,,,,,20,001,2019_Dec_25_1405,untitled,3.1.0,60.01585557485937,
_,G,N,135,_,_,_GN135__,N,0,190,190,59,,,1.185,682.6407840145985,682.9907805053117,683.0074459801435,683.2907471339713,683.3240856981283,None,up,2.050171557821159,683.3240856981283,None,683.3240856981283,684.4740802686647,0.05588673078818829,None,,,,,,,,,20,001,2019_Dec_25_1405,untitled,3.1.0,60.01585557485937,
130,F,N,45,R,N,130FN045RN,HRN,0,191,191,209,,,1.37,685.4407347521446,685.7907256147555,685.8073831440306,686.0907061481412,686.1240427259072,None,up,2.0002516093081795,686.1240427259072,None,686.1240427259072,687.4739931986041,0.05826410766894696,None,,,,,,,,,20,001,2019_Dec_25_1405,untitled,3.1.0,60.01585557485937,
_,R,N,270,_,_,_RN270__,N,0,192,192,70,,,1.364,688.2073121637222,688.5406491387694,688.5573218970276,688.8406535088252,688.8739894244645,None,up,2.4168861626822036,688.8739894244645,None,688.8739894244645,690.2239478427146,0.05893583830038551,None,,,,,,,,,20,001,2019_Dec_25_1405,untitled,3.1.0,60.01585557485937,
_,_5,M,180,_,_,__5M180__,N,0,193,193,44,,,0.991,691.3739331434335,691.7072542273672,691.7239422146122,692.0072364160769,692.0405289622176,None,up,3.133720414389245,692.0405289622176,None,692.0405289622176,692.990546773508,0.056925943434180226,None,,,,,,,,,20,001,2019_Dec_25_1405,untitled,3.1.0,60.01585557485937,
197,G,N,180,R,N,197GN180RN,HRN,0,194,194,228,,,0.808,695.2571758312042,695.5904985704619,695.6071653695544,695.890493339637,695.9238140262933,None,down,0.03348621909390204,695.9238140262933,None,695.9238140262933,None,0.0660692932033271,None,,,,,,,,,20,001,2019_Dec_25_1405,untitled,3.1.0,60.01585557485937,
395,_4,M,90,R,N,395_4M090RN,HRN,0,195,195,162,,,1.3900000000000001,696.040483937395,696.3737871438243,696.3904804281083,696.6738077360606,696.7071307401675,None,down,2.6501442118606064,696.7071307401675,None,696.7071307401675,698.0571030631436,0.058611725788068725,None,,,,,,,,,20,001,2019_Dec_25_1405,untitled,3.1.0,60.01585557485937,
162,F,N,45,L,N,162FN045LN,HLN,0,196,196,217,,,1.359,699.4404199094461,699.7737068936985,699.7903985226549,700.0737248374135,700.1070554560138,None,up,2.066827100708906,700.1070554560138,None,700.1070554560138,701.4236905390935,0.05968702450991259,None,,,,,,,,,20,001,2019_Dec_25_1405,untitled,3.1.0,60.01585557485937,
266,_2,M,45,R,N,266_2M045RN,HRN,0,197,197,145,,,1.033,702.2570129472842,702.5903244303372,702.6070081137368,702.8903344284954,702.9236408793622,None,down,2.6502223431707534,702.9236408793622,None,702.9236408793622,703.940308009518,0.05846539511185256,None,,,,,,,,,20,001,2019_Dec_25_1405,untitled,3.1.0,60.01585557485937,
295,_2,N,270,L,N,295_2N270LN,HLN,0,198,198,254,,,1.354,705.6403023152016,705.9902690100753,706.0069361402348,706.2902442464219,706.323597046372,None,up,2.3668086272846267,706.323597046372,None,706.323597046372,707.6402178936587,0.05705009276425699,None,,,,,,,,,20,001,2019_Dec_25_1405,untitled,3.1.0,60.01585557485937,
043,R,M,90,L,N,043RM090LN,HLN,0,199,199,106,,,1.063,708.7568755553621,709.1068482094015,709.1235232851177,709.4068317223719,709.4401921368117,None,down,1.9501456023317587,709.4401921368117,None,709.4401921368117,710.4901590965383,0.05826013489058823,None,,,,,,,,,20,001,2019_Dec_25_1405,untitled,3.1.0,60.01585557485937,
_,_4,N,315,_,_,__4N315__,N,0,200,200,87,,,0.922,711.4734780616564,711.8067882204487,711.8234586612525,712.1067975564765,712.1401311546615,None,up,1.8334799950716842,712.1401311546615,None,712.1401311546615,713.0234287992025,0.058100230555282906,None,,,,,,,,,20,001,2019_Dec_25_1405,untitled,3.1.0,60.01585557485937,
262,_2,N,225,R,N,262_2N225RN,HRN,0,201,201,245,,,1.084,714.0567388917807,714.3900828191909,714.4067376999483,714.6900259422437,714.7233449735759,None,up,2.433549320059683,714.7233449735759,None,714.7233449735759,715.7733596066428,0.05888684069941519,None,,,,,,,,,20,001,2019_Dec_25_1405,untitled,3.1.0,60.01585557485937,
040,R,N,315,L,N,040RN315LN,HLN,0,202,202,207,,,1.204,717.2233393454699,717.5733437817398,717.5900089255083,717.8733153763751,717.9066486434967,None,up,2.7334811869077384,717.9066486434967,None,717.9066486434967,719.0899605900377,0.05689912717934931,None,,,,,,,,,20,001,2019_Dec_25_1405,untitled,3.1.0,60.01585557485937,
_,_2,M,45,_,_,__2M045__,N,0,203,203,25,,,1.2730000000000001,720.706609312987,721.0565657448496,721.0732378409812,721.3565591897641,721.3899056994815,None,down,2.5667989601934096,721.3899056994815,None,721.3899056994815,722.6398788832266,0.05740267685541767,None,,,,,,,,,20,001,2019_Dec_25_1405,untitled,3.1.0,60.01585557485937,
270,_2,M,225,R,N,270_2M225RN,HRN,0,204,204,149,,,0.86,724.0398708052417,724.3731855989427,724.3898590193348,724.6731889758048,724.7065116488484,None,down,2.3169651547577814,724.7065116488484,None,724.7065116488484,725.5231341514627,0.05884413333478733,None,,,,,,,,,20,001,2019_Dec_25_1405,untitled,3.1.0,60.01585557485937,
264,_2,N,315,R,N,264_2N315RN,HRN,0,205,205,247,,,1.355,727.1064698022492,727.4397898929856,727.4564692725435,727.7397843310973,727.773129185487,None,up,2.200124083115952,727.773129185487,None,727.773129185487,729.0897682413452,0.05795952798143844,None,,,,,,,,,20,001,2019_Dec_25_1405,untitled,3.1.0,60.01585557485937,
_,_4,N,180,_,_,__4N180__,N,0,206,206,84,,,1.05,730.0397198396604,730.3897259312544,730.406365583025,730.689692559914,730.7230215231903,None,up,2.2503777450219786,730.7230215231903,None,730.7230215231903,731.7396956057091,0.05549474997314974,None,,,,,,,,,20,001,2019_Dec_25_1405,untitled,3.1.0,60.01585557485937,
459,_5,M,90,R,N,459_5M090RN,HRN,0,207,207,178,,,0.787,733.0563277092042,733.3896332330878,733.4063053292193,733.6896352856893,733.7229678906806,None,down,2.2168392176790803,733.7229678906806,None,733.7229678906806,734.47292783183,0.058444869093364105,None,,,,,,,,,20,001,2019_Dec_25_1405,untitled,3.1.0,60.01585557485937,
_,R,M,225,_,_,_RM225__,N,0,208,208,21,,,1.075,736.0062657338567,736.3562595760523,736.3729270372751,736.6562761955101,736.6896021792018,None,up,1.7836110305506736,736.6896021792018,None,736.6896021792018,737.7395558963326,0.05650747743129614,None,,,,,,,,,20,001,2019_Dec_25_1405,untitled,3.1.0,60.01585557485937,
485,_5,N,180,L,N,485_5N180LN,HLN,0,209,209,284,,,1.3900000000000001,738.5562138228852,738.8895183535751,738.9061858147979,739.1895303381243,739.2228549975553,None,up,2.933468540228205,739.2228549975553,None,739.2228549975553,740.5727753433493,0.058505453962425236,None,,,,,,,,,20,001,2019_Dec_25_1405,untitled,3.1.0,60.01585557485937,
432,_4,M,315,L,N,432_4M315LN,HLN,0,210,210,175,,,0.799,742.2227662721707,742.5727683909863,742.5894348590118,742.8727204527895,742.9060960962161,None,up,1.6502100937686919,742.9060960962161,None,742.9060960962161,743.6894078441183,0.05577284447281272,None,,,,,,,,,20,001,2019_Dec_25_1405,untitled,3.1.0,60.01585557485937,
298,_2,M,45,L,N,298_2M045LN,HLN,0,211,211,153,,,1.222,744.6227611737704,744.9727182677634,744.9893665272211,745.2727004564731,745.3060337235911,None,down,2.050194401297631,745.3060337235911,None,745.3060337235911,746.4893420284207,0.057939664086006815,None,,,,,,,,,20,001,2019_Dec_25_1405,untitled,3.1.0,60.01585557485937,
426,_4,M,45,L,N,426_4M045LN,HLN,0,212,212,169,,,1.112,747.4393316991955,747.7726743023486,747.7893060085626,748.0726753617564,748.106004656096,None,down,1.9169778676514397,748.106004656096,None,748.106004656096,749.1892876675702,0.05771387784261606,None,,,,,,,,,20,001,2019_Dec_25_1405,untitled,3.1.0,60.01585557485937,
138,F,M,45,R,N,138FM045RN,HRN,0,213,213,113,,,0.9590000000000001,750.1059500303927,750.4392452912653,750.4559213601751,750.7392731669279,750.7725981574258,None,down,1.8668311396977515,750.7725981574258,None,750.7725981574258,751.689249595107,0.05819491510555963,None,,,,,,,,,20,001,2019_Dec_25_1405,untitled,3.1.0,60.01585557485937,
_,_2,M,0,_,_,__2M000__,N,0,214,214,24,,,1.002,752.7059018273467,753.0558552796247,753.0725356523762,753.3558656088499,753.3891919236048,None,up,2.516824054910103,753.3891919236048,None,753.3891919236048,754.372533070069,0.05551494493192877,None,,,,,,,,,20,001,2019_Dec_25_1405,untitled,3.1.0,60.01585557485937,
_,R,M,0,_,_,_RM000__,N,0,215,215,16,,,0.991,755.9724709623006,756.322490958617,756.339141866596,756.6224589115373,756.6557954893069,None,down,2.2003074930580624,756.6557954893069,None,756.6557954893069,757.6057874775361,0.05651343660065322,None,,,,,,,,,20,001,2019_Dec_25_1405,untitled,3.1.0,60.01585557485937,
302,_2,M,225,L,N,302_2M225LN,HLN,0,216,216,157,,,1.389,758.9390744617886,759.2724230241074,759.289100086211,759.5723959429997,759.605730203315,None,down,2.9834954226971604,759.605730203315,None,759.605730203315,760.955725700831,0.05952414058629074,None,,,,,,,,,20,001,2019_Dec_25_1405,untitled,3.1.0,60.01585557485937,
234,G,M,45,L,N,234GM045LN,HLN,0,217,217,137,,,1.081,762.6556547867331,763.005657898746,763.0223141037604,763.3056669037105,763.3389925563388,None,down,2.250117528030387,763.3389925563388,None,763.3389925563388,764.388953225829,0.056868007082812255,None,,,,,,,,,20,001,2019_Dec_25_1405,untitled,3.1.0,60.01585557485937,
143,F,M,270,R,N,143FM270RN,HRN,0,218,218,118,,,0.866,765.6556028095474,766.0056012866517,766.0222591469901,766.3056026771228,766.338913100768,None,up,2.816811209591833,766.338913100768,None,766.338913100768,767.1888857548074,0.056718365754932165,None,,,,,,,,,20,001,2019_Dec_25_1405,untitled,3.1.0,60.01585557485937,
134,F,N,225,R,N,134FN225RN,HRN,0,219,219,213,,,0.705,769.2388652949994,769.5721946555532,769.5888607925153,769.8721606220861,769.9054948823978,None,up,1.4501648040968576,769.9054948823978,None,769.9054948823978,770.5888326520035,0.058833870320086135,None,,,,,,,,,20,001,2019_Dec_25_1405,untitled,3.1.0,60.01585557485937,
_,G,M,225,_,_,_GM225__,N,0,220,220,13,,,1.383,771.4388056371063,771.7721181133529,771.7887855745757,772.0721373813285,772.1054683309958,None,down,2.8503004082667758,772.1054683309958,None,772.1054683309958,773.4554293977671,0.05934768301085569,None,,,,,,,,,20,001,2019_Dec_25_1405,untitled,3.1.0,60.01585557485937,
206,G,M,225,R,N,206GM225RN,HRN,0,221,221,133,,,0.871,775.0387230033157,775.3720659375285,775.3887079067572,775.6720319040614,775.7054005951213,None,down,1.8001033584550896,775.7054005951213,None,775.7054005951213,776.555360337632,0.059958166642900323,None,,,,,,,,,20,001,2019_Dec_25_1405,untitled,3.1.0,60.01585557485937,
_,_5,N,90,_,_,__5N090__,N,0,222,222,90,,,1.351,777.5720089281567,777.9219749609001,777.9386407667989,778.2219945599427,778.255328489191,None,up,2.8834774127681158,778.255328489191,None,778.255328489191,779.571939735597,0.05815187667394639,None,,,,,,,,,20,001,2019_Dec_25_1405,untitled,3.1.0,60.01585557485937,
_,G,M,270,_,_,_GM270__,N,0,223,223,14,,,0.929,781.2052519469944,781.5552404921473,781.5718870962846,781.8552309574807,781.8885592586266,None,down,3.100141828192136,781.8885592586266,None,781.8885592586266,782.8052060613991,0.05741128454610589,None,,,,,,,,,20,001,2019_Dec_25_1405,untitled,3.1.0,60.01585557485937,
009,R,M,0,R,N,009RM000RN,HRN,0,224,224,96,,,1.331,785.0718248560879,785.4051340216829,785.4218180361495,785.7051632216062,785.7385024478936,None,down,2.2334391416698054,785.7385024478936,None,785.7385024478936,787.0551272679586,0.05913745681027649,None,,,,,,,,,20,001,2019_Dec_25_1405,untitled,3.1.0,60.01585557485937,
_,F,M,180,_,_,_FM180__,N,0,225,225,4,,,0.787,788.0550776082273,788.3884046513303,788.4050721125532,788.6884050486078,788.7217502340645,None,up,1.966818029530259,788.7217502340645,None,788.7217502340645,789.4716985879422,0.05739903514404432,None,,,,,,,,,20,001,2019_Dec_25_1405,untitled,3.1.0,60.01585557485937,
195,G,N,90,R,N,195GN090RN,HRN,0,226,226,226,,,1.025,790.7550546985403,791.1050213934141,791.1216832265309,791.405036026481,791.4383507539678,None,None,,791.4383507539678,None,791.4383507539678,792.4216624356559,0.05685244703272474,None,,,,,,,,,20,001,2019_Dec_25_1405,untitled,3.1.0,60.01585557485937,
137,F,M,0,R,N,137FM000RN,HRN,0,227,227,112,,,1.304,794.9549473673069,795.3049259805157,795.3215696050647,795.6049071760317,795.6382629555628,794.9549473673069,up,2.4170513640528952,795.6382629555628,None,795.6382629555628,796.921580000504,0.05828695114541915,None,,,,,,,,,20,001,2019_Dec_25_1405,untitled,3.1.0,60.01585557485937,
_,_4,N,225,_,_,__4N225__,N,0,228,228,85,,,1.12,798.1215696712788,798.4715280895289,798.4881942264947,798.7714874347621,798.8048700305517,None,up,1.8669629035175603,798.8048700305517,None,798.8048700305517,799.8881689331356,0.057735065995075274,None,,,,,,,,,20,001,2019_Dec_25_1405,untitled,3.1.0,60.01585557485937,
400,_4,M,315,R,N,400_4M315RN,HRN,0,229,229,167,,,1.181,800.754829905487,801.08814966516,801.1048095118931,801.3881388062327,801.4214727354847,None,up,1.7168729862969485,801.4214727354847,None,801.4214727354847,802.5714543944887,0.05832998957703239,None,,,,,,,,,20,001,2019_Dec_25_1405,untitled,3.1.0,60.01585557485937,
457,_5,M,0,R,N,457_5M000RN,HRN,0,230,230,176,,,1.077,803.2047675990761,803.5547577995567,803.5714275782339,803.8547317116463,803.88806994474,None,down,2.78349615103798,803.88806994474,None,803.88806994474,804.9380673624328,0.0566044794395566,None,,,,,,,,,20,001,2019_Dec_25_1405,untitled,3.1.0,60.01585557485937,
_,G,N,45,_,_,_GN045__,N,0,231,231,57,,,1.375,806.7380429298464,807.0880049898115,807.1046608637625,807.3880143258393,807.42134560657,None,up,2.183490721577982,807.42134560657,None,807.42134560657,808.7713070044047,0.05755298031363054,None,,,,,,,,,20,001,2019_Dec_25_1405,untitled,3.1.0,60.01585557485937,
041,R,M,0,L,N,041RM000LN,HLN,0,232,232,104,,,1.159,809.6879620838008,810.021258668934,810.0379287786745,810.3212809164943,810.3545986235658,None,down,2.183477147915255,810.3545986235658,None,810.3545986235658,811.4712241719753,0.0596045893507835,None,,,,,,,,,20,001,2019_Dec_25_1405,untitled,3.1.0,60.01585557485937,
303,_2,M,270,L,N,303_2M270LN,HLN,0,233,233,158,,,1.2590000000000001,812.6212571460346,812.9545596903336,812.9712254962324,813.2545220151515,813.2878698491259,None,down,2.2501777818397386,813.2878698491259,None,813.2878698491259,814.5045067861683,0.05812870213048882,None,,,,,,,,,20,001,2019_Dec_25_1405,untitled,3.1.0,60.01585557485937,
_,F,N,135,_,_,_FN135__,N,0,234,234,51,,,0.8260000000000001,815.6044923517402,815.9544891735168,815.9711480270525,816.2544558021764,816.2878086021265,None,None,,816.2878086021265,None,816.2878086021265,817.0711071074329,0.056329364528210135,None,,,,,,,,,20,001,2019_Dec_25_1405,untitled,3.1.0,60.01585557485937,
140,F,M,135,R,N,140FM135RN,HRN,0,235,235,115,,,1.095,819.8044002494898,820.154379855896,820.1710406958191,820.9545120169932,820.9545120169932,819.8044002494898,up,1.9499823873484274,820.9545120169932,None,820.9545120169932,821.5710213616294,0.05841705964121502,None,,,,,,,,,20,001,2019_Dec_25_1405,untitled,3.1.0,60.01585557485937,
037,R,N,180,L,N,037RN180LN,HLN,0,236,236,204,,,1.254,822.9710162632327,823.3209574661087,823.3376322107579,823.6209757408906,823.6543096701389,None,up,2.8668519967868633,823.6543096701389,None,823.6543096701389,824.8709343577793,0.05721728052958497,None,,,,,,,,,20,001,2019_Dec_25_1405,untitled,3.1.0,60.01585557485937,
481,_5,N,0,L,N,481_5N000LN,HLN,0,237,237,280,,,0.928,826.6042549782214,826.9375906290115,826.9542564349067,827.2375731487846,827.2709097265542,None,up,1.8334929066040786,827.2709097265542,None,827.2709097265542,828.1875346790475,0.05868356686551124,None,,,,,,,,,20,001,2019_Dec_25_1405,untitled,3.1.0,60.01585557485937,
196,G,N,135,R,N,196GN135RN,HRN,0,238,238,227,,,0.792,829.1708529820353,829.5208544387206,829.5375788431011,829.8208482146983,829.8541930690917,None,up,1.5669568781377166,829.8541930690917,None,829.8541930690917,830.6041440714907,0.05704016082017915,None,,,,,,,,,20,001,2019_Dec_25_1405,untitled,3.1.0,60.01585557485937,
431,_4,M,270,L,N,431_4M270LN,HLN,0,239,239,174,,,1.37,831.487487734048,831.8374603880875,831.8541189105599,832.137464096013,832.1707957078106,None,down,2.3168694770101865,832.1707957078106,None,832.1707957078106,833.5207438630496,0.058479961968259886,None,,,,,,,,,20,001,2019_Dec_25_1405,untitled,3.1.0,60.01585557485937,
423,_4,N,270,L,N,423_4N270LN,HLN,0,240,240,270,,,1.097,834.5707687591275,834.9040686549088,834.9207251909902,835.2040435601921,835.2373748409227,None,up,1.7335242253429897,835.2373748409227,None,835.2373748409227,836.3207035393498,0.05924008692454663,None,,,,,,,,,20,001,2019_Dec_25_1405,untitled,3.1.0,60.01585557485937,
489,_5,M,0,L,N,489_5M000LN,HLN,0,241,241,184,,,1.082,837.0540347538663,837.3873462369193,837.4040123738814,837.6873218043293,837.7206454705702,None,down,2.150186588165525,837.7206454705702,None,837.7206454705702,838.7706313009912,0.058077056011825334,None,,,,,,,,,20,001,2019_Dec_25_1405,untitled,3.1.0,60.01585557485937,
_,_5,N,180,_,_,__5N180__,N,0,242,242,92,,,0.803,839.9372701582106,840.2872838642943,840.3039476838057,840.5872756538847,840.6205887260476,None,up,2.766807501666335,840.6205887260476,None,840.6205887260476,841.4039047777951,0.05563942532535293,None,,,,,,,,,20,001,2019_Dec_25_1405,untitled,3.1.0,60.01585557485937,
133,F,N,180,R,N,133FN180RN,HRN,0,243,243,212,,,1.278,843.453872399652,843.8038374392017,843.8205181430167,844.103805061055,844.1371747453122,None,up,2.700117461816262,844.1371747453122,None,844.1371747453122,845.3871492533181,0.05821113728961791,None,,,,,,,,,20,001,2019_Dec_25_1405,untitled,3.1.0,60.01585557485937,
006,R,N,225,R,N,006RN225RN,HRN,0,244,244,197,,,0.8150000000000001,846.9204504071422,847.2538049286304,847.2704644442929,847.5537867862731,847.5871213776554,None,up,1.8168274317686155,847.5871213776554,None,847.5871213776554,848.3703748581393,0.059958166642900323,None,,,,,,,,,20,001,2019_Dec_25_1405,untitled,3.1.0,60.01585557485937,
202,G,M,45,R,N,202GM045RN,HRN,0,245,245,129,,,1.039,849.4870901251306,849.8203741297948,849.8370379493063,850.1203364546127,850.1537087873876,None,down,1.966959063163813,850.1537087873876,None,850.1537087873876,851.170372275832,0.05835382624718477,None,,,,,,,,,20,001,2019_Dec_25_1405,untitled,3.1.0,60.01585557485937,
_,F,M,0,_,_,_FM000__,N,0,246,246,0,,,1.214,852.1870125897367,852.5369756428954,852.5536414487942,852.8369730605882,852.8703218877599,None,down,2.2501618907226657,852.8703218877599,None,852.8703218877599,854.0536222470291,0.055499715945188655,None,,,,,,,,,20,001,2019_Dec_25_1405,untitled,3.1.0,60.01585557485937,
_,R,M,270,_,_,_RM270__,N,0,247,247,22,,,1.247,855.1869404175923,855.5369425364079,855.5536093355004,855.8369240629872,855.8702523641332,None,down,2.150173345566145,855.8702523641332,None,855.8702523641332,857.0869085029371,0.05740002833772451,None,,,,,,,,,20,001,2019_Dec_25_1405,untitled,3.1.0,60.01585557485937,
269,_2,M,180,R,N,269_2M180RN,HRN,0,248,248,148,,,0.9,858.103533918922,858.4368500368801,858.4535317338923,858.736881885321,858.7702101864706,None,down,2.533456092191045,858.7702101864706,None,858.7702101864706,859.6534896224402,0.05963736477860948,None,,,,,,,,,20,001,2019_Dec_25_1405,untitled,3.1.0,60.01585557485937,
464,_5,M,315,R,N,464_5M315RN,HRN,0,249,249,183,,,1.055,861.3868168641784,861.7201094765333,861.7367779309498,862.0200976244123,862.0534259255583,None,down,2.5667827380129893,862.0534259255583,None,862.0534259255583,863.0700861033547,0.05810453439698904,None,,,,,,,,,20,001,2019_Dec_25_1405,untitled,3.1.0,60.01585557485937,
166,F,N,225,L,N,166FN225LN,HLN,0,250,250,221,,,0.975,864.6867195973209,865.036731979144,865.0533878530987,865.3366870205355,865.3700706095187,None,up,2.03345675431774,865.3700706095187,None,865.3700706095187,866.3200172418583,0.05711895425702096,None,,,,,,,,,20,001,2019_Dec_25_1405,untitled,3.1.0,60.01585557485937,
461,_5,M,180,R,N,461_5M180RN,HRN,0,251,251,180,,,0.797,867.4699889689182,867.8200046613929,867.8366797371091,868.1199954577896,868.1533121716675,None,down,2.8168049193591287,868.1533121716675,None,868.1533121716675,868.9366477562398,0.057494381831929786,None,,,,,,,,,20,001,2019_Dec_25_1405,untitled,3.1.0,60.01585557485937,
293,_2,N,180,L,N,293_2N180LN,HLN,0,252,252,252,,,0.9580000000000001,871.0532511233032,871.3865950507134,871.4032548974428,871.6865779015534,871.719912492932,None,up,2.5668125338524987,871.719912492932,None,871.719912492932,872.6365496948238,0.05945097524818266,None,,,,,,,,,20,001,2019_Dec_25_1405,untitled,3.1.0,60.01585557485937,
_,F,N,180,_,_,_FN180__,N,0,253,253,52,,,0.762,874.3698653492938,874.7031738527621,874.719847935281,875.0031494201721,875.0364856668784,None,up,2.000311532050546,875.0364856668784,None,875.0364856668784,875.7864972541465,0.0572725683596218,None,,,,,,,,,20,001,2019_Dec_25_1405,untitled,3.1.0,60.01585557485937,
265,_2,M,0,R,N,265_2M000RN,HRN,0,254,254,144,,,0.784,877.1031214120849,877.4531106193681,877.4697764252669,877.7531335290587,877.7864532225212,None,down,2.0001297774324485,877.7864532225212,None,877.7864532225212,878.5364029006596,0.05716861399196205,None,,,,,,,,,20,001,2019_Dec_25_1405,untitled,3.1.0,60.01585557485937,
035,R,N,90,L,N,035RN090LN,HLN,0,255,255,202,,,1.219,879.8530767183256,880.2030864516346,880.2197131918765,880.5029954750062,880.5363588690307,None,up,2.7835875249475066,880.5363588690307,None,880.5363588690307,881.7196671738566,0.05891564334524446,None,,,,,,,,,20,001,2019_Dec_25_1405,untitled,3.1.0,60.01585557485937,
_,R,N,90,_,_,_RN090__,N,0,256,256,66,,,1.284,883.3863331783941,883.7363038460462,883.7529719693994,884.0363035811934,884.0696411521603,None,up,1.866988726578711,884.0696411521603,None,884.0696411521603,885.3196044039578,0.057729768956050975,None,,,,,,,,,20,001,2019_Dec_25_1405,untitled,3.1.0,60.01585557485937,
048,R,M,315,L,N,048RM315LN,HLN,0,257,257,111,,,1.349,886.0195801700102,886.3529244284837,886.3695889101218,886.6529178733981,886.6862405464417,None,down,2.23347820732306,886.6862405464417,None,886.6862405464417,888.0028852304022,0.05822437988535967,None,,,,,,,,,20,001,2019_Dec_25_1405,untitled,3.1.0,60.01585557485937,
_,_5,M,90,_,_,__5M090__,N,0,258,258,42,,,0.736,888.9861879733398,889.3361963823882,889.3528313992538,889.6361739361892,889.6695214391002,None,down,2.2167991588321456,889.6695214391002,None,889.6695214391002,890.3861537412304,0.05571954302286031,None,,,,,,,,,20,001,2019_Dec_25_1405,untitled,3.1.0,60.01585557485937,
425,_4,M,0,L,N,425_4M000LN,HLN,0,259,259,168,,,1.214,891.9528037222299,892.3027614783496,892.3194256289244,892.6027824016492,892.6361156687708,None,up,2.333533627584984,892.6361156687708,None,892.6361156687708,893.8194137105893,0.057729768959688954,None,,,,,,,,,20,001,2019_Dec_25_1405,untitled,3.1.0,60.01585557485937,
428,_4,M,135,L,N,428_4M135LN,HLN,0,260,260,171,,,1.395,895.0527392970034,895.3860305850976,895.40268910757,895.6860491909429,895.7193728571838,None,down,2.3001377891996526,895.7193728571838,None,895.7193728571838,897.1026797715385,0.05896133029818884,None,,,,,,,,,20,001,2019_Dec_25_1405,untitled,3.1.0,60.01585557485937,
_,G,N,90,_,_,_GN090__,N,0,261,261,58,,,0.975,898.1026506378294,898.4359859575525,898.4526454732186,898.7359790714036,898.7693136627822,None,up,2.1334754263771174,898.7693136627822,None,898.7693136627822,899.7192642679038,0.05671141339553287,None,,,,,,,,,20,001,2019_Dec_25_1405,untitled,3.1.0,60.01585557485937,
429,_4,M,180,L,N,429_4M180LN,HLN,0,262,262,172,,,1.397,900.9692632747101,901.3192296385168,901.3358967686763,901.6192151378746,901.6525623097223,None,up,3.033625597407081,901.6525623097223,None,901.6525623097223,903.035857305742,0.05700771645933855,None,,,,,,,,,20,001,2019_Dec_25_1405,untitled,3.1.0,60.01585557485937,
397,_4,M,180,R,N,397_4M180RN,HRN,0,263,263,164,,,0.761,904.7525101338942,905.1024834500677,905.1191535598082,905.4024669630344,905.43579360886,None,up,1.3002155894500902,905.43579360886,None,905.43579360886,906.185793277793,0.05781882540759398,None,,,,,,,,,20,001,2019_Dec_25_1405,untitled,3.1.0,60.01585557485937,
167,F,N,270,L,N,167FN270LN,HLN,0,264,264,222,,,1.217,906.8024780868145,907.1524444506249,907.1691334310635,907.4524120724782,907.4857804324784,None,down,2.1335082018013054,907.4857804324784,None,907.4857804324784,908.6690807917475,0.05728746627937653,None,,,,,,,,,20,001,2019_Dec_25_1405,untitled,3.1.0,60.01585557485937,
230,G,N,225,L,N,230GN225LN,HLN,0,265,265,237,,,1.055,909.7023667165922,910.0357291836335,910.0523946584653,910.3357219664213,910.3690446394648,None,up,1.9501893028973427,910.3690446394648,None,910.3690446394648,911.3856703865131,0.058261459147615824,None,,,,,,,,,20,001,2019_Dec_25_1405,untitled,3.1.0,60.01585557485937,
483,_5,N,90,L,N,483_5N090LN,HLN,0,266,266,282,,,1.2530000000000001,912.3856693933158,912.7356403920348,912.7523237443711,913.0356431067667,913.0689714079126,None,up,2.300225521394168,913.0689714079126,None,913.0689714079126,914.2856318505619,0.05559440050274134,None,,,,,,,,,20,001,2019_Dec_25_1405,untitled,3.1.0,60.01585557485937,
272,_2,M,315,R,N,272_2M315RN,HRN,0,267,267,151,,,0.906,915.4522359459661,915.7855735831436,915.8022489899195,916.0855610688886,916.1188890389712,None,down,2.4168156458617887,916.1188890389712,None,916.1188890389712,917.0022363432436,0.06684762672739453,None,,,,,,,,,20,001,2019_Dec_25_1405,untitled,3.1.0,60.01585557485937,
015,R,M,270,R,N,015RM270RN,HRN,0,268,268,102,,,0.757,918.6188655333644,918.952162780628,918.9688368631469,919.2521890009666,919.2855229302149,None,down,1.816858882935776,919.2855229302149,None,919.2855229302149,920.0021721166559,0.05827536387369037,None,,,,,,,,,20,001,2019_Dec_25_1405,untitled,3.1.0,60.01585557485937,
164,F,N,135,L,N,164FN135LN,HLN,0,269,269,219,,,1.121,921.1854771108374,921.5187760134213,921.5354683045116,921.8187827009351,921.8521086846267,None,up,1.900179966865835,921.8521086846267,None,921.8521086846267,922.9354307617541,0.058436592469661264,None,,,,,,,,,20,001,2019_Dec_25_1405,untitled,3.1.0,60.01585557485937,
289,_2,N,0,L,N,289_2N000LN,HLN,0,270,270,248,,,0.861,923.8187254267104,924.1687298629804,924.1853880543858,924.4687196661798,924.5020499537168,None,up,2.050171888884506,924.5020499537168,None,924.5020499537168,925.3520275737319,0.0569219706558215,None,,,,,,,,,20,001,2019_Dec_25_1405,untitled,3.1.0,60.01585557485937,
199,G,N,270,R,N,199GN270RN,HRN,0,271,271,230,,,0.9480000000000001,926.6186913932397,926.968703112936,926.9853513723974,927.2686429253408,927.301959970282,None,up,1.7168703377792554,927.301959970282,None,927.301959970282,928.2186229952385,0.058254837851563934,None,,,,,,,,,20,001,2019_Dec_25_1405,untitled,3.1.0,60.01585557485937,
042,R,M,45,L,N,042RM045LN,HLN,0,272,272,105,,,1.075,929.1019736101553,929.4352784719122,929.4519532165614,929.7352649644636,929.7686038596876,None,down,1.8001662607821345,929.7686038596876,None,929.7686038596876,930.818536388666,0.05922816858947044,None,,,,,,,,,20,001,2019_Dec_25_1405,untitled,3.1.0,60.01585557485937,
296,_2,N,315,L,N,296_2N315LN,HLN,0,273,273,255,,,1.046,931.6518905790872,931.9852176221866,932.0018864076665,932.285199148766,932.318543341029,None,up,1.9335019777827256,932.318543341029,None,932.318543341029,933.3352088158608,0.057313620407512644,None,,,,,,,,,20,001,2019_Dec_25_1405,untitled,3.1.0,60.01585557485937,
225,G,N,0,L,N,225GN000LN,HLN,0,274,274,232,,,1.139,934.3185152005135,934.6685196367835,934.6851854426786,934.9684935488694,935.0018152287194,None,up,1.8001728820781864,935.0018152287194,None,935.0018152287194,936.1184619652813,0.056931240473204525,None,,,,,,,,,20,001,2019_Dec_25_1405,untitled,3.1.0,60.01585557485937,
_,G,M,180,_,_,_GM180__,N,0,275,275,12,,,0.903,936.8684536886576,937.2184687190056,937.2351004252196,937.5184164769671,937.5517639798782,None,down,2.6001673201899393,937.5517639798782,None,937.5517639798782,938.4351563089695,0.057249062756454805,None,,,,,,,,,20,001,2019_Dec_25_1405,untitled,3.1.0,60.01585557485937,
271,_2,M,270,R,N,271_2M270RN,HRN,0,276,276,150,,,1.095,940.2184048234813,940.5683473506215,940.5850300408274,940.8683487410926,940.9016942576127,None,down,2.5334756250194914,940.9016942576127,None,940.9016942576127,941.9850292462725,0.05754867646828643,None,,,,,,,,,20,001,2019_Dec_25_1405,untitled,3.1.0,60.01585557485937,
_,_4,M,45,_,_,__4M045__,N,0,277,277,33,,,1.281,943.5016480409577,943.8516273162968,943.8682874940896,944.1516386387157,944.184963960277,None,down,2.2003462276479695,944.184963960277,None,944.184963960277,945.4349040375346,0.05620786371946451,None,,,,,,,,,20,001,2019_Dec_25_1405,untitled,3.1.0,60.01585557485937,
004,R,N,135,R,N,004RN135RN,HRN,0,278,278,195,,,0.989,946.4515920247795,946.8015762660907,946.8182417409262,947.1015670624874,947.1349086062291,None,up,2.516796576524939,947.1349086062291,None,947.1349086062291,948.0848803995032,0.05515408421706525,None,,,,,,,,,20,001,2019_Dec_25_1405,untitled,3.1.0,60.01585557485937,
258,_2,N,45,R,N,258_2N045RN,HRN,0,279,279,241,,,0.886,949.7181767197835,950.0681589747037,950.0848280912505,950.3681381838323,950.4014906527154,None,up,1.633501911568601,950.4014906527154,None,950.4014906527154,951.2514921094007,0.05843824779003626,None,,,,,,,,,20,001,2019_Dec_25_1405,untitled,3.1.0,60.01585557485937,
240,G,M,315,L,N,240GM315LN,HLN,0,280,280,143,,,0.982,952.1181262654973,952.4514622473471,952.4681224251435,952.7514199372563,952.7847743925304,None,down,1.9168391514685936,952.7847743925304,None,952.7847743925304,953.7347557866815,0.058995761046389816,None,,,,,,,,,20,001,2019_Dec_25_1405,untitled,3.1.0,60.01585557485937,
232,G,N,315,L,N,232GN315LN,HLN,0,281,281,239,,,1.0210000000000001,954.7847349958101,955.1180570729375,955.1347265205477,955.4180246947908,955.4513609414971,None,up,2.5168313383364875,955.4513609414971,None,955.4513609414971,956.4347438021359,0.05781419049890246,None,,,,,,,,,20,001,2019_Dec_25_1405,untitled,3.1.0,60.01585557485937,
176,F,M,315,L,N,176FM315LN,HLN,0,282,282,127,,,1.343,958.0346555402393,958.3846235593701,958.4013009525406,958.6846282604929,958.7179462986278,None,down,2.5168869572371477,958.7179462986278,None,958.7179462986278,960.0346141571281,0.05511634282083833,None,,,,,,,,,20,001,2019_Dec_25_1405,untitled,3.1.0,60.01585557485937,
260,_2,N,135,R,N,260_2N135RN,HRN,0,283,283,243,,,0.863,961.317942789341,961.6512294425265,961.6678889581926,961.951221232117,961.9845571477563,None,up,2.0167717466574686,961.9845571477563,None,961.9845571477563,962.8345420511978,0.059147719824977685,None,,,,,,,,,20,001,2019_Dec_25_1405,untitled,3.1.0,60.01585557485937,
_,_5,N,135,_,_,__5N135__,N,0,284,284,91,,,1.16,964.0845056340622,964.4177985774804,964.4344948413454,964.7178046028603,964.7511693211454,None,up,2.750239359906118,964.7511693211454,None,964.7511693211454,965.8677836133465,0.058707734602649,None,,,,,,,,,20,001,2019_Dec_25_1405,untitled,3.1.0,60.01585557485937,
034,R,N,45,L,N,034RN045LN,HLN,0,285,285,201,,,1.1380000000000001,967.5844516704856,967.9177767271976,967.9344203517503,968.2177320996525,968.2510776161726,None,up,1.800178510184196,968.2510776161726,None,968.2510776161726,969.3677293187066,0.05674286455541733,None,,,,,,,,,20,001,2019_Dec_25_1405,untitled,3.1.0,60.01585557485937,
_,F,N,90,_,_,_FN090__,N,0,286,286,50,,,1.329,970.1177111101388,970.4676956825169,970.4843489079503,970.7676738984483,970.8010041859852,None,up,1.9835113138105953,970.8010041859852,None,970.8010041859852,972.1176780036512,0.05612410430330783,None,,,,,,,,,20,001,2019_Dec_25_1405,untitled,3.1.0,60.01585557485937,
135,F,N,270,R,N,135FN270RN,HRN,0,287,287,214,,,1.209,972.8509986240933,973.2009692917454,973.2176205307915,973.500985249073,973.5342834233161,None,up,1.8168691459468391,973.5342834233161,None,973.5342834233161,974.717590403885,0.05823033905107877,None,,,,,,,,,20,001,2019_Dec_25_1405,untitled,3.1.0,60.01585557485937,
,,,,,,,,,,,,,,,,,,,,,,,,,,,,,975.3675906025237,None,987.4840761104897,None,990.9839340836588,None,994.3172329862464,None,,,,,,,
