Number,Letter,type,Orientation,human,face_type,image,picture,trials.thisRepN,trials.thisTrialN,trials.thisN,trials.thisIndex,text.started,text.stopped,stimulus_duration,CROSS.started,CROSS.stopped,BLANK.started,BLANK.stopped,TEST.started,TEST.stopped,key_JUDGE.keys,key_JUDGE.started,key_JUDGE.stopped,image_2.started,image_2.stopped,ISI.started,ISI.stopped,key_JUDGE.rt,q1.started,q1.stopped,q2.started,q2.stopped,q3.started,q3.stopped,text_2.started,text_2.stopped,participant,session,date,expName,psychopyVersion,frameRate,
495,_5,M,270,L,N,495_5M270LN,HLN,0,0,0,190,29.14046434782358,None,1.109,109.02542353073295,109.35879771232067,109.3754320788139,109.65877226842349,109.70887504574785,None,None,109.70887504574785,None,109.70887504574785,110.77541017435578,0.06635915833612671,None,,,,,,,,,,21,001,2019_Dec_25_1444,untitled,3.1.0,60.025053664638705,
302,_2,M,225,L,N,302_2M225LN,HLN,0,1,1,157,,,0.797,113.22550974614933,113.55885187243257,113.57553231842758,113.85885948556825,113.8921849831604,113.22550974614933,up,113.8921849831604,None,113.8921849831604,114.65887411080257,0.06780097929004114,None,2.283652728841844,,,,,,,,,21,001,2019_Dec_25_1444,untitled,3.1.0,60.025053664638705,
_,F,M,0,_,_,_FM000__,N,0,2,2,0,,,1.244,116.25891104118637,116.59226485429826,116.60891858753894,116.8923005158249,116.92570247867843,None,down,116.92570247867843,None,116.92570247867843,118.14228882899624,0.06920773975434713,None,3.150230531078705,,,,,,,,,21,001,2019_Dec_25_1444,untitled,3.1.0,60.025053664638705,
293,_2,N,180,L,N,293_2N180LN,HLN,0,3,3,252,,,0.875,120.15892252766935,120.49233577666018,120.50899952718464,120.79230398848449,120.82569192714072,None,up,120.82569192714072,None,120.82569192714072,121.65899698947396,0.0678089931170689,None,2.666918656988855,,,,,,,,,21,001,2019_Dec_25_1444,untitled,3.1.0,60.025053664638705,
_,G,M,315,_,_,_GM315__,N,0,4,4,15,,,1.032,123.57570194442451,123.9091171968721,123.92578595603845,124.20904968038303,124.24251642166928,None,down,124.24251642166928,None,124.24251642166928,125.24244463113791,0.06539783306288882,None,2.7335639757111494,,,,,,,,,21,001,2019_Dec_25_1444,untitled,3.1.0,60.025053664638705,
292,_2,N,135,L,N,292_2N135LN,HLN,0,5,5,251,,,0.808,127.05914871792265,127.39244242733548,127.40919165867672,127.69248777223766,127.72591878521416,None,up,127.72591878521416,None,127.72591878521416,128.49250974347888,0.06620255480811466,None,2.8669120455815573,,,,,,,,,21,001,2019_Dec_25_1444,untitled,3.1.0,60.025053664638705,
013,R,M,180,R,N,013RM180RN,HRN,0,6,6,100,,,0.9450000000000001,130.67592352672727,131.009226919512,131.02590302468525,131.30923653610444,131.37600072658825,None,None,131.37600072658825,None,131.37600072658825,132.25921857177673,0.06630640064395266,None,,,,,,,,,,21,001,2019_Dec_25_1444,untitled,3.1.0,60.025053664638705,
225,G,N,0,L,N,225GN000LN,HLN,0,7,7,232,,,1.016,134.87599271276122,135.20928542044567,135.22605168116934,135.50932074806406,135.55941985238678,134.87599271276122,up,135.55941985238678,None,135.55941985238678,136.52606563858353,0.06661426514256164,None,2.7001887256155896,,,,,,,,,21,001,2019_Dec_25_1444,untitled,3.1.0,60.025053664638705,
290,_2,N,45,L,N,290_2N045LN,HLN,0,8,8,249,,,0.848,138.34270260957055,138.67605909395934,138.69270581510136,138.97611345441328,139.0095033965299,None,up,139.0095033965299,None,139.0095033965299,139.82608827764489,0.06877966785395984,None,1.8001588741135492,,,,,,,,,21,001,2019_Dec_25_1444,untitled,3.1.0,60.025053664638705,
007,R,N,270,R,N,007RN270RN,HRN,0,9,9,198,,,1.381,140.89282041282058,141.22611979869544,141.24282929481342,141.5261230710057,141.55955475179871,None,down,141.55955475179871,None,141.55955475179871,142.9094861668018,0.07024118946355884,None,2.5669010933524987,,,,,,,,,21,001,2019_Dec_25_1444,untitled,3.1.0,60.025053664638705,
194,G,N,45,R,N,194GN045RN,HRN,0,10,10,225,,,0.812,144.25951608508694,144.59285353663654,144.59285353663654,144.909551613051,144.909551613051,None,up,144.909551613051,None,144.909551613051,145.69287310372965,0.07129734501722851,None,2.4002445552760037,,,,,,,,,21,001,2019_Dec_25_1444,untitled,3.1.0,60.025053664638705,
008,R,N,315,R,N,008RN315RN,HRN,0,11,11,199,,,0.881,147.39293527766858,147.7262386704533,147.74292512682223,148.0262743319836,148.05969399203605,None,up,148.05969399203605,None,148.05969399203605,148.9096123845702,0.07232778954858077,None,2.183637168662244,,,,,,,,,21,001,2019_Dec_25_1444,untitled,3.1.0,60.025053664638705,
456,_5,N,315,R,N,456_5N315RN,HRN,0,12,12,279,,,1.339,150.32624387944088,150.6596551249786,150.67625743616372,150.9596573955605,150.9930974240924,None,down,150.9930974240924,None,150.9930974240924,152.2930218937763,0.07104157039066195,None,2.2168207547401835,,,,,,,,,21,001,2019_Dec_25_1444,untitled,3.1.0,60.025053664638705,
134,F,N,225,R,N,134FN225RN,HRN,0,13,13,213,,,0.728,153.29300820348726,153.6263840546235,153.6430915472847,153.9264127040551,153.9931121161062,None,None,153.9931121161062,None,153.9931121161062,154.6597262476862,0.07299627624524874,None,,,,,,,,,,21,001,2019_Dec_25_1444,untitled,3.1.0,60.025053664638705,
462,_5,M,225,R,N,462_5M225RN,HRN,0,14,14,181,,,1.306,157.4930934171789,157.82648362641703,157.8431440378481,158.12648189008905,158.15992826289948,157.4930934171789,None,158.15992826289948,None,158.15992826289948,159.4265092038804,0.07053402804012876,None,,,,,,,,,,21,001,2019_Dec_25_1444,untitled,3.1.0,60.025053664638705,
_,F,N,315,_,_,_FN315__,N,0,15,15,55,,,0.989,161.69319766370245,162.0265421273507,162.04323693145489,162.32658046015422,162.36000279148357,161.69319766370245,up,162.36000279148357,None,162.36000279148357,163.30985693984258,0.06934464262303663,None,2.8502155719324946,,,,,,,,,21,001,2019_Dec_25_1444,untitled,3.1.0,60.025053664638705,
042,R,M,45,L,N,042RM045LN,HLN,0,16,16,105,,,1.183,165.2933087219826,165.6266184590495,165.643376038126,165.92664844411775,165.9600544138848,None,down,165.9600544138848,None,165.9600544138848,167.11003718415668,0.07084690118790604,None,2.4668751819808676,,,,,,,,,21,001,2019_Dec_25_1444,untitled,3.1.0,60.025053664638705,
_,R,M,225,_,_,_RM225__,N,0,17,17,21,,,1.1520000000000001,168.51001027105667,168.84337777445398,168.86010329822602,169.14338739104642,169.17680738501076,None,down,169.17680738501076,None,169.17680738501076,170.2934129017267,0.06982346875884105,None,3.1003691702753713,,,,,,,,,21,001,2019_Dec_25_1444,untitled,3.1.0,60.025053664638705,
168,F,N,315,L,N,168FN315LN,HLN,0,18,18,223,,,1.335,172.36014269954103,172.6934694659867,172.71013688951643,172.9934410169044,173.04349036871645,None,down,173.04349036871645,None,173.04349036871645,174.32683857215306,0.0711748002540844,None,2.6336736315752205,,,,,,,,,21,001,2019_Dec_25_1444,untitled,3.1.0,60.025053664638705,
385,_4,N,0,R,N,385_4N000RN,HRN,0,19,19,256,,,1.164,175.7601314801832,176.09349330712212,176.11020847969849,176.39352562955537,176.42692959586566,None,down,176.42692959586566,None,176.42692959586566,177.56020787866146,0.07323969622302684,None,2.6002215823064034,,,,,,,,,21,001,2019_Dec_25_1444,untitled,3.1.0,60.025053664638705,
_,_2,N,270,_,_,__2N270__,N,0,20,20,78,,,0.848,179.1103156646277,179.44361171140918,179.46028648094216,179.74362166190986,179.7770560139761,None,up,179.7770560139761,None,179.7770560139761,180.59366426875204,0.06921041103123571,None,2.600218911029515,,,,,,,,,21,001,2019_Dec_25_1444,untitled,3.1.0,60.025053664638705,
258,_2,N,45,R,N,258_2N045RN,HRN,0,21,21,241,,,0.887,182.46033823690595,182.79370674203528,182.8103658178261,183.09373472364314,183.12699577671447,None,up,183.12699577671447,None,183.12699577671447,183.97704806693218,0.0703847705226508,None,2.000371975114831,,,,,,,,,21,001,2019_Dec_25_1444,untitled,3.1.0,60.025053664638705,
457,_5,M,0,R,N,457_5M000RN,HRN,0,22,22,176,,,1.1280000000000001,185.21039967624165,185.54375015026017,185.56041557033313,185.84372403854286,185.8938271497791,None,down,185.8938271497791,None,185.8938271497791,186.9771686082422,0.0708779547640006,None,2.1169868412980577,,,,,,,,,21,001,2019_Dec_25_1444,untitled,3.1.0,60.025053664638705,
207,G,M,270,R,N,207GM270RN,HRN,0,23,23,134,,,0.737,188.09379282388545,188.4271112425995,188.44381372661883,188.72711818791504,188.76055754862682,None,down,188.76055754862682,None,188.76055754862682,189.46050452380587,0.07074138580355793,None,2.0668653650463966,,,,,,,,,21,001,2019_Dec_25_1444,untitled,3.1.0,60.025053664638705,
199,G,N,270,R,N,199GN270RN,HRN,0,24,24,230,,,1.342,190.91052028433114,191.24387242789817,191.26054319052128,191.54387603412033,191.5771938517937,None,up,191.5771938517937,None,191.5771938517937,192.87723485587412,0.07093972801158088,None,2.817040667498077,,,,,,,,,21,001,2019_Dec_25_1444,untitled,3.1.0,60.025053664638705,
171,F,M,90,L,N,171FM090LN,HLN,0,25,25,122,,,0.9520000000000001,194.47732454394645,194.8106903777989,194.82729636199292,195.1106255325867,195.14405554383484,None,down,195.14405554383484,None,195.14405554383484,196.060646969574,0.07119383309327532,None,2.2668834629330377,,,,,,,,,21,001,2019_Dec_25_1444,untitled,3.1.0,60.025053664638705,
_,R,N,0,_,_,_RN000__,N,0,26,26,64,,,1.22,197.4940737752877,197.82734945359334,197.8440178788478,198.12735606500064,198.16079242052365,None,up,198.16079242052365,None,198.16079242052365,199.34405260542917,0.07029194369897596,None,2.366846599332348,,,,,,,,,21,001,2019_Dec_25_1444,untitled,3.1.0,60.025053664638705,
226,G,N,45,L,N,226GN045LN,HLN,0,27,27,233,,,1.166,200.61073906179809,200.9440548092316,200.9607542880658,201.24411351051094,201.2774557035773,None,up,201.2774557035773,None,201.2774557035773,202.41079609352892,0.07229306296358118,None,2.2669512465508888,,,,,,,,,21,001,2019_Dec_25_1444,untitled,3.1.0,60.025053664638705,
_,_5,M,225,_,_,__5M225__,N,0,28,28,45,,,1.31,203.6274702620285,203.96074594033053,203.9774914986665,204.26075321955796,204.29418156125394,None,down,204.29418156125394,None,204.29418156125394,205.56082260593757,0.06990728002710966,None,2.516977291488729,,,,,,,,,21,001,2019_Dec_25_1444,untitled,3.1.0,60.025053664638705,
_,_2,N,135,_,_,__2N135__,N,0,29,29,75,,,1.215,206.8942385262053,207.22755828055597,207.2442280414507,207.52756956669327,207.56101393604695,None,up,207.56101393604695,None,207.56101393604695,208.7442607645753,0.07160487561122864,None,2.5668867352469533,,,,,,,,,21,001,2019_Dec_25_1444,untitled,3.1.0,60.025053664638705,
014,R,M,225,R,N,014RM225RN,HRN,0,30,30,101,,,0.791,210.21094561817517,210.54429876346694,210.5609504932545,210.84426831092787,210.91107290445143,None,down,210.91107290445143,None,210.91107290445143,211.62765825304086,0.07140152476495132,None,2.3168526764857234,,,,,,,,,21,001,2019_Dec_25_1444,untitled,3.1.0,60.025053664638705,
035,R,N,90,L,N,035RN090LN,HLN,0,31,31,202,,,1.029,213.31104098270953,213.64436507788196,213.66103784396182,213.9443860473948,213.97772490136413,None,up,213.97772490136413,None,213.97772490136413,214.97769752078966,0.07016305465367623,None,1.9336598745030642,,,,,,,,,21,001,2019_Dec_25_1444,untitled,3.1.0,60.025053664638705,
162,F,N,45,L,N,162FN045LN,HLN,0,32,32,217,,,1.098,215.9944073508159,216.3277554874694,216.34440922071008,216.62776276669683,216.6611987883116,None,up,216.6611987883116,None,216.6611987883116,217.7277596279455,0.06979208127086167,None,2.183440829910978,,,,,,,,,21,001,2019_Dec_25_1444,untitled,3.1.0,60.025053664638705,
268,_2,M,135,R,N,268_2M135RN,HRN,0,33,33,147,,,1.069,218.92777705801927,219.26115491261226,219.2778266769601,219.5611658648413,219.59454612357877,None,down,219.59454612357877,None,219.59454612357877,220.6278185295705,0.07043051611617557,None,2.5004243988951202,,,,,,,,,21,001,2019_Dec_25_1444,untitled,3.1.0,60.025053664638705,
487,_5,N,270,L,N,487_5N270LN,HLN,0,34,34,286,,,1.192,222.1779359989123,222.51123004223336,222.5279021404931,222.81120893915795,222.86128266636297,None,up,222.86128266636297,None,222.86128266636297,223.9945599474304,0.07212744388380088,None,2.1668542124680243,,,,,,,,,21,001,2019_Dec_25_1444,untitled,3.1.0,60.025053664638705,
_,R,M,270,_,_,_RM270__,N,0,35,35,22,,,1.0030000000000001,225.11127698990094,225.44462946737622,225.46130022999932,225.74460235393053,225.7779842822165,None,down,225.7779842822165,None,225.7779842822165,226.74466345935798,0.07177984415829997,None,2.066908439359395,,,,,,,,,21,001,2019_Dec_25_1444,untitled,3.1.0,60.025053664638705,
195,G,N,90,R,N,195GN090RN,HRN,0,36,36,226,,,0.925,227.92800478425488,228.26135859736678,228.27798828913,228.56133181783298,228.59471508175557,None,up,228.59471508175557,None,228.59471508175557,229.47801874166908,0.07066558836231707,None,2.0002390791560174,,,,,,,,,21,001,2019_Dec_25_1444,untitled,3.1.0,60.025053664638705,
387,_4,N,90,R,N,387_4N090RN,HRN,0,37,37,258,,,0.889,230.6780538689418,231.01142170625099,231.0280751055834,231.31142631420153,231.3615093908702,None,up,231.3615093908702,None,231.3615093908702,232.1948378268644,0.07058745355607243,None,2.1668084668744996,,,,,,,,,21,001,2019_Dec_25_1444,untitled,3.1.0,60.025053664638705,
235,G,M,90,L,N,235GM090LN,HLN,0,38,38,138,,,1.147,233.61145963836316,233.9448197957572,233.961437132868,234.24479101276302,234.31152515139547,None,down,234.31152515139547,None,234.31152515139547,235.39481785907992,0.07089264678143081,None,2.0169342171720928,,,,,,,,,21,001,2019_Dec_25_1444,untitled,3.1.0,60.025053664638705,
_,R,M,180,_,_,_RM180__,N,0,39,39,20,,,0.9490000000000001,236.4115430489437,236.7448461078202,236.76151486698654,237.04485104967898,237.07821160776075,None,up,237.07821160776075,None,237.07821160776075,237.9948714849379,0.06867315074487124,None,2.767009680705087,,,,,,,,,21,001,2019_Dec_25_1444,untitled,3.1.0,60.025053664638705,
163,F,N,90,L,N,163FN090LN,HLN,0,40,40,218,,,1.288,239.92828626991104,240.26162806228604,240.2782711104228,240.56159694192684,240.59498421276294,None,up,240.59498421276294,None,240.59498421276294,241.84494447753968,0.07187367271035328,None,2.5002197124085797,,,,,,,,,21,001,2019_Dec_25_1444,untitled,3.1.0,60.025053664638705,
260,_2,N,135,R,N,260_2N135RN,HRN,0,41,41,243,,,0.734,243.17832299994916,243.5116701348743,243.52836360333822,243.81168709747362,243.8450516624689,None,up,243.8450516624689,None,243.8450516624689,244.54502000785578,0.07202593541296665,None,3.2003550125155016,,,,,,,,,21,001,2019_Dec_25_1444,untitled,3.1.0,60.025053664638705,
172,F,M,135,L,N,172FM135LN,HLN,0,42,42,123,,,1.289,247.1284382654885,247.46177070839622,247.47844714748135,247.7617546139627,247.82854618502097,None,down,247.82854618502097,None,247.82854618502097,249.04520165458962,0.07183160012209555,None,3.383374782624742,,,,,,,,,21,001,2019_Dec_25_1444,untitled,3.1.0,60.025053664638705,
164,F,N,135,L,N,164FN135LN,HLN,0,43,43,219,,,1.2610000000000001,251.29526276001707,251.62851038992812,251.64517414045258,251.92855239573692,251.99525848597477,None,up,251.99525848597477,None,251.99525848597477,253.19521380889273,0.07100550816903706,None,3.183562372945744,,,,,,,,,21,001,2019_Dec_25_1444,untitled,3.1.0,60.025053664638705,
_,_5,N,0,_,_,__5N000__,N,0,44,44,88,,,1.374,255.26200337649425,255.59526269323396,255.61193045067193,255.89531137722952,255.9287370476559,None,up,255.9287370476559,None,255.9287370476559,257.2619733246429,0.07126094889099477,None,2.3168262976359983,,,,,,,,,21,001,2019_Dec_25_1444,untitled,3.1.0,60.025053664638705,
419,_4,N,90,L,N,419_4N090LN,HLN,0,45,45,266,,,1.35,258.32866539069073,258.66203957227845,258.6787016532544,258.96204117504385,258.99546283855307,None,up,258.99546283855307,None,258.99546283855307,260.31213286657294,0.0714516111802368,None,2.2168114052801684,,,,,,,,,21,001,2019_Dec_25_1444,untitled,3.1.0,60.025053664638705,
485,_5,N,180,L,N,485_5N180LN,HLN,0,46,46,284,,,0.876,261.29544140156577,261.62872843279183,261.6454773302212,261.9287417223859,261.96220078375336,None,up,261.96220078375336,None,261.96220078375336,262.7955278841109,0.07073337197653018,None,2.53349712704221,,,,,,,,,21,001,2019_Dec_25_1444,untitled,3.1.0,60.025053664638705,
206,G,M,225,R,N,206GM225RN,HRN,0,47,47,133,,,0.762,264.5788660702601,264.91216979695673,264.9288228623809,265.2121159707567,265.2788531145743,None,down,265.2788531145743,None,265.2788531145743,265.9788294737882,0.07315588495475822,None,2.066926804378454,,,,,,,,,21,001,2019_Dec_25_1444,untitled,3.1.0,60.025053664638705,
289,_2,N,0,L,N,289_2N000LN,HLN,0,48,48,248,,,1.372,267.42893171685864,267.7621997152419,267.7788671387716,268.062305497755,268.09559426530905,None,down,268.09559426530905,None,268.09559426530905,269.42890600582905,0.07156781166486326,None,2.4503246267559007,,,,,,,,,21,001,2019_Dec_25_1444,untitled,3.1.0,60.025053664638705,
239,G,M,270,L,N,239GM270LN,HLN,0,49,49,142,,,0.859,270.6290199357318,270.9622735760131,270.97894200126757,271.26230255934934,271.3123826308329,None,down,271.3123826308329,None,271.3123826308329,272.11230109015014,0.07147298138443148,None,3.0336360333676566,,,,,,,,,21,001,2019_Dec_25_1444,untitled,3.1.0,60.025053664638705,
142,F,M,225,R,N,142FM225RN,HRN,0,50,50,117,,,1.025,274.42904491215813,274.76236166132,274.7790304204864,275.062461099551,275.0957886005999,None,down,275.0957886005999,None,275.0957886005999,276.07905673254936,0.07217151992881554,None,2.9502131010012818,,,,,,,,,21,001,2019_Dec_25_1444,untitled,3.1.0,60.025053664638705,
196,G,N,135,R,N,196GN135RN,HRN,0,51,51,227,,,0.85,278.1291825496264,278.4625463800221,278.47913733829046,278.7625406367806,278.7959102104178,None,None,278.7959102104178,None,278.7959102104178,279.61256320905886,0.07088763813953847,None,,,,,,,,,,21,001,2019_Dec_25_1444,untitled,3.1.0,60.025053664638705,
137,F,M,0,R,N,137FM000RN,HRN,0,52,52,112,,,1.374,282.329246059202,282.66253809906993,282.6792048547795,282.9626088210862,282.99600644311795,282.329246059202,down,282.99600644311795,None,282.99600644311795,284.32924472356535,0.07042550747428322,None,2.966823759925319,,,,,,,,,21,001,2019_Dec_25_1444,untitled,3.1.0,60.025053664638705,
130,F,N,45,R,N,130FN045RN,HRN,0,53,53,209,,,0.77,286.0459683106601,286.3792867293705,286.39595482072036,286.6792923390494,286.7293517081489,None,up,286.7293517081489,None,286.7293517081489,287.44597345286456,0.07128265300343628,None,2.0835147574616713,,,,,,,,,21,001,2019_Dec_25_1444,untitled,3.1.0,60.025053664638705,
202,G,M,45,R,N,202GM045RN,HRN,0,54,54,129,,,1.108,288.8960823741254,289.22935137424065,289.2461152975957,289.5293543126427,289.59615656880123,None,None,289.59615656880123,None,289.59615656880123,290.62938055792256,0.0716015365178464,None,,,,,,,,,,21,001,2019_Dec_25_1444,untitled,3.1.0,60.025053664638705,
492,_5,M,135,L,N,492_5M135LN,HLN,0,55,55,187,,,0.834,293.09619730575287,293.42944126265866,293.4460903211693,293.7295433721665,293.7628815583157,293.09619730575287,down,293.7628815583157,None,293.7628815583157,294.5629269032179,0.07120184692030307,None,2.8168767179631686,,,,,,,,,21,001,2019_Dec_25_1444,untitled,3.1.0,60.025053664638705,
229,G,N,180,L,N,229GN180LN,HLN,0,56,56,236,,,1.057,296.6628997229891,296.9961934324019,297.0129520132068,297.2962684952472,297.3296617764536,None,down,297.3296617764536,None,297.3296617764536,298.3462200115937,0.07316723787153023,None,2.55013883954598,,,,,,,,,21,001,2019_Dec_25_1444,untitled,3.1.0,60.025053664638705,
300,_2,M,135,L,N,300_2M135LN,HLN,0,57,57,155,,,0.788,299.96299281694155,300.2962641544218,300.3129375883218,300.59635057018386,300.6629918819963,None,None,300.6629918819963,None,300.6629918819963,301.3796229761756,0.07088296340589295,None,,,,,,,,,,21,001,2019_Dec_25_1444,untitled,3.1.0,60.025053664638705,
047,R,M,270,L,N,047RM270LN,HLN,0,58,58,110,,,1.006,304.16311108766604,304.49634168819466,304.51302948019656,304.79638102272656,304.8297606136475,304.16311108766604,down,304.8297606136475,None,304.8297606136475,305.79641140848616,0.07046290533253341,None,2.083649322965357,,,,,,,,,21,001,2019_Dec_25_1444,untitled,3.1.0,60.025053664638705,
_,_2,N,90,_,_,__2N090__,N,0,59,59,74,,,0.8270000000000001,306.9964982917227,307.3297525998205,307.346426701537,307.62985303977985,307.6632292916074,None,up,307.6632292916074,None,307.6632292916074,308.44656814557675,0.07078546185221057,None,1.9335830753334449,,,,,,,,,21,001,2019_Dec_25_1444,untitled,3.1.0,60.025053664638705,
231,G,N,270,L,N,231GN270LN,HLN,0,60,60,238,,,0.8180000000000001,309.67981123431673,310.0131416737677,310.0298197824013,310.3131529599086,310.34662370810474,None,up,310.34662370810474,None,310.34662370810474,311.12983834776605,0.07040179990508477,None,2.05024268537818,,,,,,,,,21,001,2019_Dec_25_1444,untitled,3.1.0,60.025053664638705,
012,R,M,135,R,N,012RM135RN,HRN,0,61,61,99,,,0.9550000000000001,312.479919020283,312.8132154009727,312.829873808947,313.1133378789564,313.1465481777923,None,None,313.1465481777923,None,313.1465481777923,314.06333560837083,0.07175413313234458,None,,,,,,,,,,21,001,2019_Dec_25_1444,untitled,3.1.0,60.025053664638705,
015,R,M,270,R,N,015RM270RN,HRN,0,62,62,102,,,0.853,316.67998019249353,317.0133079606712,317.02993598288595,317.3134210891876,317.3634550811694,316.67998019249353,down,317.3634550811694,None,317.3634550811694,None,0.07254616632053512,None,0.00011352920773788355,,,,,,,,,21,001,2019_Dec_25_1444,untitled,3.1.0,60.025053664638705,
_,F,N,225,_,_,_FN225__,N,0,63,63,53,,,0.996,317.44672040827936,317.7799673703703,317.7966608388342,318.07997431568947,318.11338963492017,None,up,318.11338963492017,None,318.11338963492017,319.08002774119814,0.06938704912317917,None,2.4169073040684452,,,,,,,,,21,001,2019_Dec_25_1444,untitled,3.1.0,60.025053664638705,
297,_2,M,0,L,N,297_2M000LN,HLN,0,64,64,152,,,0.789,320.6134914772956,320.94683994785737,320.9634238940271,321.24677710610194,321.29722714924355,None,down,321.29722714924355,None,321.29722714924355,322.0302084529867,0.07106294059485663,None,3.0164587301260326,,,,,,,,,21,001,2019_Dec_25_1444,untitled,3.1.0,60.025053664638705,
257,_2,N,0,R,N,257_2N000RN,HRN,0,65,65,240,,,0.9520000000000001,324.39688776369076,324.7301414039721,324.74681483786844,325.03015068665263,325.0969322404271,None,down,325.0969322404271,None,325.0969322404271,325.98017178972805,0.074011694843648,None,2.466869171610597,,,,,,,,,21,001,2019_Dec_25_1444,untitled,3.1.0,60.025053664638705,
259,_2,N,90,R,N,259_2N090RN,HRN,0,66,66,242,,,0.835,327.64690245570455,327.9801991703025,327.99688796403643,328.2802565359452,328.3136788672746,None,up,328.3136788672746,None,328.3136788672746,329.11358897885293,0.07150336714403238,None,1.9001774394746462,,,,,,,,,21,001,2019_Dec_25_1444,untitled,3.1.0,60.025053664638705,
460,_5,M,135,R,N,460_5M135RN,HRN,0,67,67,179,,,1.305,330.29701912366363,330.63027443348983,330.6469448622047,330.9302880569958,330.9636753278355,None,None,330.9636753278355,None,330.9636753278355,332.23040719588244,0.07176782341775834,None,,,,,,,,,,21,001,2019_Dec_25_1444,untitled,3.1.0,60.025053664638705,
_,_2,N,180,_,_,__2N180__,N,0,68,68,76,,,1.0170000000000001,334.4971193632773,334.8303750070154,334.8470367540831,335.1303836218758,335.1638837541068,334.4971193632773,down,335.1638837541068,None,335.1638837541068,None,0.07069430457340786,None,0.05004868399555562,,,,,,,,,21,001,2019_Dec_25_1444,untitled,3.1.0,60.025053664638705,
267,_2,M,90,R,N,267_2M090RN,HRN,0,69,69,146,,,0.838,335.29706720662216,335.6304871338034,335.6470563879557,335.9304419892469,336.01400215839385,None,down,336.01400215839385,None,336.01400215839385,336.7637894580803,0.07060080992960138,None,3.0500450109939266,,,,,,,,,21,001,2019_Dec_25_1444,untitled,3.1.0,60.025053664638705,
010,R,M,45,R,N,010RM045RN,HRN,0,70,70,97,,,1.374,339.14723369386775,339.48059017825653,339.49718380779814,339.7806214989614,339.8306157557199,None,down,339.8306157557199,None,339.8306157557199,341.1471792666307,0.07040947982022772,None,2.43347555649234,,,,,,,,,21,001,2019_Dec_25_1444,untitled,3.1.0,60.025053664638705,
004,R,N,135,R,N,004RN135RN,HRN,0,71,71,195,,,0.835,342.3473118954571,342.68053314652207,342.6972209385276,342.9805541160349,343.0139443920598,None,up,343.0139443920598,None,343.0139443920598,343.8139162768857,0.07161856590028037,None,1.7002037515412667,,,,,,,,,21,001,2019_Dec_25_1444,untitled,3.1.0,60.025053664638705,
_,R,N,90,_,_,_RN090__,N,0,72,72,66,,,1.195,344.7973012771399,345.13060066301114,345.14723269213937,345.43063832799817,345.46405030813185,None,up,345.46405030813185,None,345.46405030813185,346.63063839477763,0.06969491362542612,None,2.05026873031602,,,,,,,,,21,001,2019_Dec_25_1444,untitled,3.1.0,60.025053664638705,
496,_5,M,315,L,N,496_5M315LN,HLN,0,73,73,191,,,1.3900000000000001,347.5974481305093,347.93066470684425,347.94733446773535,348.23077115717024,348.2641434020843,None,None,348.2641434020843,None,348.2641434020843,349.6140384209575,0.07130636057263473,None,,,,,,,,,,21,001,2019_Dec_25_1444,untitled,3.1.0,60.025053664638705,
451,_5,N,90,R,N,451_5N090RN,HRN,0,74,74,274,,,1.298,351.7974642249428,352.1307632769094,352.14743036652726,352.4308520300365,352.4641444705958,351.7974642249428,up,352.4641444705958,None,352.4641444705958,353.73080221074997,0.07140419603820192,None,2.600227926584921,,,,,,,,,21,001,2019_Dec_25_1444,untitled,3.1.0,60.025053664638705,
_,_5,N,90,_,_,__5N090__,N,0,75,75,90,,,0.934,355.14752219162256,355.4808790099196,355.4975046947693,355.7808321958182,355.8142428403153,None,up,355.8142428403153,None,355.8142428403153,356.71429706720664,0.06988023336452898,None,1.933663881416578,,,,,,,,,21,001,2019_Dec_25_1444,untitled,3.1.0,60.025053664638705,
_,R,N,135,_,_,_RN135__,N,0,76,76,67,,,0.879,357.8309059230196,358.1642213365485,358.1809044538204,358.4642606710804,358.49756680192513,None,up,358.49756680192513,None,358.49756680192513,359.3475873707466,0.07100650989741553,None,1.866929742780485,,,,,,,,,21,001,2019_Dec_25_1444,untitled,3.1.0,60.025053664638705,
166,F,N,225,L,N,166FN225LN,HLN,0,77,77,221,,,1.07,360.44769141692814,360.78094405547745,360.79762149629096,361.08102045395935,361.11440305006545,None,up,361.11440305006545,None,361.11440305006545,362.1476577588546,0.07169536506989971,None,2.550318148914812,,,,,,,,,21,001,2019_Dec_25_1444,untitled,3.1.0,60.025053664638705,
041,R,M,0,L,N,041RM000LN,HLN,0,78,78,104,,,0.97,363.7477130542575,364.0810291356029,364.09770323731937,364.38110219498776,364.4144066562876,None,down,364.4144066562876,None,364.4144066562876,365.34782177517263,0.07049128763537738,None,1.9668581525984337,,,,,,,,,21,001,2019_Dec_25_1444,untitled,3.1.0,60.025053664638705,
269,_2,M,180,R,N,269_2M180RN,HRN,0,79,79,148,,,1.0050000000000001,366.464517447439,366.79776173825303,366.8144067898502,367.0977693513887,367.14785109242075,None,down,367.14785109242075,None,367.14785109242075,368.0978818788717,0.07113873803609749,None,2.500417386800109,,,,,,,,,21,001,2019_Dec_25_1444,untitled,3.1.0,60.025053664638705,
200,G,N,315,R,N,200GN315RN,HRN,0,80,80,231,,,0.875,369.7311825336001,370.0644989488537,370.0811650367468,370.3645292678302,370.3978834816371,None,up,370.3978834816371,None,370.3978834816371,371.23119321870035,0.071422894969146,None,1.9669296092179138,,,,,,,,,21,001,2019_Dec_25_1444,untitled,3.1.0,60.025053664638705,
_,_2,M,90,_,_,__2M090__,N,0,81,81,26,,,0.885,372.4478840826705,372.78122754459037,372.7978932985716,373.08133199146323,373.1146624976973,None,down,373.1146624976973,None,373.1146624976973,373.9645585182989,0.07054237577904132,None,2.6335093481320655,,,,,,,,,21,001,2019_Dec_25_1444,untitled,3.1.0,60.025053664638705,
429,_4,M,180,L,N,429_4M180LN,HLN,0,82,82,172,,,1.335,375.83139676989595,376.1646337147031,376.1813021399612,376.464673049235,376.49802225439635,None,up,376.49802225439635,None,376.49802225439635,377.79801250424134,0.0711116913735168,None,2.750238077427639,,,,,,,,,21,001,2019_Dec_25_1444,untitled,3.1.0,60.025053664638705,
_,G,N,225,_,_,_GN225__,N,0,83,83,61,,,1.357,379.33141814010014,379.66472153288487,379.6813856173212,379.9648069469222,379.99819521948666,None,up,379.99819521948666,None,379.99819521948666,381.31484487903435,0.07088663640752202,None,2.7834720838363864,,,,,,,,,21,001,2019_Dec_25_1444,untitled,3.1.0,60.025053664638705,
397,_4,M,180,R,N,397_4M180RN,HRN,0,84,84,164,,,1.121,382.8647913867426,383.1981291722004,383.2147969296384,383.49813444796746,383.5481661025842,None,up,383.5481661025842,None,383.5481661025842,384.614813090855,0.07011063087702496,None,2.28362601608751,,,,,,,,,21,001,2019_Dec_25_1444,untitled,3.1.0,60.025053664638705,
_,R,N,45,_,_,_RN045__,N,0,85,85,65,,,1.192,385.9149001744372,386.24820289940544,386.2649618141186,386.54818713888017,386.58160245811086,None,up,386.58160245811086,None,386.58160245811086,387.7315645259987,0.06954999692970887,None,2.0335301840786997,,,,,,,,,21,001,2019_Dec_25_1444,untitled,3.1.0,60.025053664638705,
_,_4,M,45,_,_,__4M045__,N,0,86,86,33,,,1.371,388.6983114867544,389.0315961806118,389.04827161796493,389.3317019631213,389.38163344490385,None,down,389.38163344490385,None,389.38163344490385,390.6983251770398,0.06945717010239605,None,2.2836891249717155,,,,,,,,,21,001,2019_Dec_25_1444,untitled,3.1.0,60.025053664638705,
227,G,N,90,L,N,227GN090LN,HLN,0,87,87,234,,,0.705,391.74834514482427,392.0816635635383,392.0984515283708,392.38177134950456,392.448377934732,None,up,392.448377934732,None,392.448377934732,393.0816896084725,0.07036373422670295,None,2.133597500218457,,,,,,,,,21,001,2019_Dec_25_1444,untitled,3.1.0,60.025053664638705,
264,_2,N,315,R,N,264_2N315RN,HRN,0,88,88,247,,,1.248,394.6650951775482,394.9983989042448,395.01506532604253,395.2984038461036,395.33178944739484,None,up,395.33178944739484,None,395.33178944739484,396.5484359014117,0.07083988908925676,None,2.7836761025027954,,,,,,,,,21,001,2019_Dec_25_1444,untitled,3.1.0,60.025053664638705,
_,F,N,180,_,_,_FN180__,N,0,89,89,52,,,1.105,398.1984296906958,398.5318095487419,398.54847897572836,398.83181983315444,398.86528089797866,None,up,398.86528089797866,None,398.86528089797866,399.93191152468717,0.07541044148092624,None,2.550144182096119,,,,,,,,,21,001,2019_Dec_25_1444,untitled,3.1.0,60.025053664638705,
204,G,M,135,R,N,204GM135RN,HRN,0,90,90,131,,,1.075,401.4985698658784,401.831842205087,401.84855370466175,402.131980042901,402.16536263900707,None,down,402.16536263900707,None,402.16536263900707,403.1986654307584,0.06970392917719437,None,2.466946304692101,,,,,,,,,21,001,2019_Dec_25_1444,untitled,3.1.0,60.025053664638705,
_,R,M,0,_,_,_RM000__,N,0,91,91,16,,,0.8220000000000001,404.71528176614083,405.04862589588083,405.0652919837703,405.34872733756856,405.3820211137645,None,down,405.3820211137645,None,405.3820211137645,406.1654133932425,0.07200857212228584,None,1.950208760179521,,,,,,,,,21,001,2019_Dec_25_1444,untitled,3.1.0,60.025053664638705,
_,R,M,135,_,_,_RM135__,N,0,92,92,19,,,1.2710000000000001,407.41537031892585,407.748686066363,407.7654543305398,408.04878951150386,408.08213838275697,None,down,408.08213838275697,None,408.08213838275697,409.31538915141937,0.07097078158767545,None,2.583588551446155,,,,,,,,,21,001,2019_Dec_25_1444,untitled,3.1.0,60.025053664638705,
136,F,N,315,R,N,136FN315RN,HRN,0,93,93,215,,,0.902,410.7488239709601,411.0820979797172,411.09876273197006,411.382102921576,411.4488417349421,None,up,411.4488417349421,None,411.4488417349421,412.2821244253428,0.07060748812000384,None,2.0501889259612653,,,,,,,,,21,001,2019_Dec_25_1444,untitled,3.1.0,60.025053664638705,
_,F,N,0,_,_,_FN000__,N,0,94,94,48,,,1.1480000000000001,413.58220349509793,413.91550121142427,413.9321559463933,414.2155215131206,414.24892314206227,None,up,414.24892314206227,None,414.24892314206227,415.3654942661087,0.07026556485288893,None,1.8668015215553169,,,,,,,,,21,001,2019_Dec_25_1444,untitled,3.1.0,60.025053664638705,
176,F,M,315,L,N,176FM315LN,HLN,0,95,95,127,,,1.204,416.19895860324687,416.5322890426978,416.5488846756962,416.83224022513605,416.8822545164621,None,down,416.8822545164621,None,416.8822545164621,418.03229271569944,0.07126796098964405,None,2.483573992994934,,,,,,,,,21,001,2019_Dec_25_1444,untitled,3.1.0,60.025053664638705,
390,_4,N,225,R,N,390_4N225RN,HRN,0,96,96,261,,,0.907,419.4490484248854,419.7823164232723,419.7989818433416,420.08236410553945,420.1324348275557,None,up,420.1324348275557,None,420.1324348275557,420.9824019708685,0.0707266937897657,None,2.3335802037108806,,,,,,,,,21,001,2019_Dec_25_1444,untitled,3.1.0,60.025053664638705,
481,_5,N,0,L,N,481_5N000LN,HLN,0,97,97,280,,,1.0070000000000001,422.54909537254935,422.88235669274945,422.8990271214607,423.1824631430791,423.2158313810796,None,up,423.2158313810796,None,423.2158313810796,424.1823890151827,0.07067193264083471,None,2.133531052240869,,,,,,,,,21,001,2019_Dec_25_1444,untitled,3.1.0,60.025053664638705,
_,_4,N,135,_,_,__4N135__,N,0,98,98,83,,,1.3780000000000001,425.4324404372346,425.76576119331366,425.78242961857177,426.0657698081777,426.0991470617337,None,up,426.0991470617337,None,426.0991470617337,427.44912555796327,0.07108464470729814,None,3.3170313180344237,,,,,,,,,21,001,2019_Dec_25_1444,untitled,3.1.0,60.025053664638705,
_,_5,M,90,_,_,__5M090__,N,0,99,99,42,,,1.107,429.4992042938102,429.83250835441504,429.8491534060122,430.1325286561114,430.1659903887521,None,down,430.1659903887521,None,430.1659903887521,431.23255089447775,0.06954799347295193,None,2.5335251754368073,,,,,,,,,21,001,2019_Dec_25_1444,untitled,3.1.0,60.025053664638705,
170,F,M,45,L,N,170FM045LN,HLN,0,100,100,121,,,1.321,432.7826282946844,433.11592534319425,433.132595104089,433.4159386327883,433.4493616319378,None,down,433.4493616319378,None,433.4493616319378,434.73272452738456,0.07275886663046549,None,2.566882060513308,,,,,,,,,21,001,2019_Dec_25_1444,untitled,3.1.0,60.025053664638705,
_,_2,M,225,_,_,__2M225__,N,0,101,101,29,,,1.133,436.0994031702721,436.4326668278336,436.44933825827684,436.73267310533265,436.76614084834364,None,up,436.76614084834364,None,436.76614084834364,437.8660418775871,0.07331682930453098,None,3.3501628142439586,,,,,,,,,21,001,2019_Dec_25_1444,untitled,3.1.0,60.025053664638705,
270,_2,M,225,R,N,270_2M225RN,HRN,0,102,102,149,,,0.9450000000000001,440.19943909892754,440.5327645297366,440.5494272785327,440.8327751480574,440.8662355450615,None,None,440.8662355450615,None,440.8662355450615,441.78279792068133,0.06959240342621342,None,,,,,,,,,,21,001,2019_Dec_25_1444,untitled,3.1.0,60.025053664638705,
296,_2,N,315,L,N,296_2N315LN,HLN,0,103,103,255,,,0.833,444.3995977726918,444.73284039396094,444.7495238451411,445.0329678805865,445.06632676911977,444.3995977726918,up,445.06632676911977,None,445.06632676911977,445.86622118695595,0.07130135193074238,None,2.28347275165288,,,,,,,,,21,001,2019_Dec_25_1444,untitled,3.1.0,60.025053664638705,
_,_4,N,180,_,_,__4N180__,N,0,104,104,84,,,1.057,447.4329686819692,447.7662600540134,447.7829368270068,448.06632777084815,448.0996482597984,None,up,448.0996482597984,None,448.0996482597984,449.1163841347625,0.0705781040887814,None,2.3003077977227804,,,,,,,,,21,001,2019_Dec_25_1444,untitled,3.1.0,60.025053664638705,
_,_5,M,315,_,_,__5M315__,N,0,105,105,47,,,1.029,450.48306010637316,450.8163194231129,450.83300120474814,451.11636076110153,451.14972499218857,None,down,451.14972499218857,None,451.14972499218857,452.14969226906396,0.06949523578077788,None,2.6668882712328923,,,,,,,,,21,001,2019_Dec_25_1444,untitled,3.1.0,60.025053664638705,
131,F,N,90,R,N,131FN090RN,HRN,0,106,106,210,,,1.194,453.89974235547925,454.2330741305668,454.24983337919184,454.5331812487166,454.5998048633264,None,up,454.5998048633264,None,454.5998048633264,455.7331128640617,0.07166965404394432,None,2.6168659660797857,,,,,,,,,21,001,2019_Dec_25_1444,untitled,3.1.0,60.025053664638705,
043,R,M,90,L,N,043RM090LN,HLN,0,107,107,106,,,1.327,457.2998476705143,457.6331343678321,457.64982650065576,457.93317904491414,457.96655162373645,None,down,457.96655162373645,None,457.96655162373645,459.2498544154878,0.0723177722611581,None,2.333590554902912,,,,,,,,,21,001,2019_Dec_25_1444,untitled,3.1.0,60.025053664638705,
_,_5,M,135,_,_,__5M135__,N,0,108,108,43,,,1.31,460.3832883000832,460.7165850146812,460.73322338808794,461.01658828699146,461.05002764770325,None,down,461.05002764770325,None,461.05002764770325,462.3167141040685,0.07064822507163626,None,2.616816213572747,,,,,,,,,21,001,2019_Dec_25_1444,untitled,3.1.0,60.025053664638705,
_,G,M,270,_,_,_GM270__,N,0,109,109,14,,,0.892,463.75000066782013,464.08329537896134,464.0999618007627,464.3833991580141,464.4167226521495,None,down,464.4167226521495,None,464.4167226521495,465.26666141315945,0.07018208749286714,None,2.3168483356603247,,,,,,,,,21,001,2019_Dec_25_1444,untitled,3.1.0,60.025053664638705,
175,F,M,270,L,N,175FM270LN,HLN,0,110,110,126,,,1.313,466.81671477188866,467.15003586187595,467.16670261758554,467.45004147155487,467.48350420592396,None,down,467.48350420592396,None,467.48350420592396,468.76674088360596,0.07140786904346896,None,3.4169069701601984,,,,,,,,,21,001,2019_Dec_25_1444,untitled,3.1.0,60.025053664638705,
011,R,M,90,R,N,011RM090RN,HRN,0,111,111,98,,,0.835,470.9834517821437,471.31677721295273,471.33346166586125,471.61680185547084,471.65019647231384,None,down,471.65019647231384,None,471.65019647231384,472.4501623467695,0.07033368237898685,None,2.016877452566405,,,,,,,,,21,001,2019_Dec_25_1444,untitled,3.1.0,60.025053664638705,
161,F,N,0,L,N,161FN000LN,HLN,0,112,112,216,,,0.935,473.75027447356115,474.08352577647383,474.100220580578,474.3836278859817,474.45035234124225,None,up,474.45035234124225,None,474.45035234124225,475.31698022989076,0.0700431811674207,None,1.6667650586496165,,,,,,,,,21,001,2019_Dec_25_1444,untitled,3.1.0,60.025053664638705,
_,_4,N,90,_,_,__4N090__,N,0,113,113,82,,,1.194,476.2002848915363,476.5335819400425,476.55024969748047,476.83372378477,476.86700988105076,None,up,476.86700988105076,None,476.86700988105076,478.03370949344753,0.07125293506396702,None,1.950186054338701,,,,,,,,,21,001,2019_Dec_25_1444,untitled,3.1.0,60.025053664638705,
421,_4,N,180,L,N,421_4N180LN,HLN,0,114,114,268,,,1.217,478.9003550792986,479.2336384375194,479.2503061949574,479.5337165055462,479.56703198585456,None,up,479.56703198585456,None,479.56703198585456,480.7503405876305,0.07272681132599246,None,2.1336609430145472,,,,,,,,,21,001,2019_Dec_25_1444,untitled,3.1.0,60.025053664638705,
016,R,M,315,R,N,016RM315RN,HRN,0,115,115,103,,,1.124,481.7837475591223,482.1170365938051,482.1336973391444,482.4171413745862,482.450509946495,None,down,482.450509946495,None,482.450509946495,483.5337442200289,0.07114575013474678,None,2.7335352595000586,,,,,,,,,21,001,2019_Dec_25_1444,untitled,3.1.0,60.025053664638705,
_,G,N,315,_,_,_GN315__,N,0,116,116,63,,,1.033,485.2671298881032,485.6004589919139,485.61712174071,485.9005437381311,485.9338598862596,None,up,485.9338598862596,None,485.9338598862596,486.9339163169534,0.07183961394548533,None,2.0502223169060017,,,,,,,,,21,001,2019_Dec_25_1444,untitled,3.1.0,60.025053664638705,
_,_5,M,0,_,_,__5M000__,N,0,117,117,40,,,1.26,488.06720094403136,488.4005136862834,488.41716341261053,488.7005226350557,488.7339165840822,None,down,488.7339165840822,None,488.7339165840822,489.95064417809044,0.0697636989680177,None,3.2170147561264457,,,,,,,,,21,001,2019_Dec_25_1444,untitled,3.1.0,60.025053664638705,
001,R,N,0,R,N,001RN000RN,HRN,0,118,118,192,,,1.312,492.03401201539964,492.3672733355961,492.38394476603935,492.667377782469,492.70066321092963,None,up,492.70066321092963,None,492.70066321092963,493.98407085024155,0.07180555518425535,None,2.1003291011438705,,,,,,,,,21,001,2019_Dec_25_1444,untitled,3.1.0,60.025053664638705,
038,R,N,225,L,N,038RN225LN,HLN,0,119,119,205,,,1.2510000000000001,494.8840229008456,495.2173396500111,495.23400807526923,495.5173415866848,495.56739093850047,None,up,495.56739093850047,None,495.56739093850047,496.76737464372127,0.07122355103274458,None,2.7335696521731734,,,,,,,,,21,001,2019_Dec_25_1444,untitled,3.1.0,60.025053664638705,
_,_4,N,270,_,_,__4N270__,N,0,120,120,86,,,1.045,498.38410036783534,498.71739608070493,498.7340745232468,499.01746880618157,499.05081233488454,None,up,499.05081233488454,None,499.05081233488454,500.0674093035195,0.07007456865540007,None,2.1335467459866777,,,,,,,,,21,001,2019_Dec_25_1444,untitled,3.1.0,60.025053664638705,
424,_4,N,315,L,N,424_4N315LN,HLN,0,121,121,271,,,0.763,501.2675766589309,501.6008172767433,501.61747401516914,501.9009193862512,501.9342448838397,None,up,501.9342448838397,None,501.9342448838397,502.6676285484573,0.07018442486150889,None,1.500287162118184,,,,,,,,,21,001,2019_Dec_25_1444,untitled,3.1.0,60.025053664638705,
135,F,N,270,R,N,135FN270RN,HRN,0,122,122,214,,,0.87,503.51755261744984,503.85086936661537,503.86753879360185,504.1509691387546,504.1842368700163,None,up,504.1842368700163,None,504.1842368700163,505.0175619669135,0.07243363883753773,None,2.683698274089693,,,,,,,,,21,001,2019_Dec_25_1444,untitled,3.1.0,60.025053664638705,
_,_2,N,225,_,_,__2N225__,N,0,123,123,77,,,0.902,506.9509620598765,507.28428148031526,507.3009438952031,507.5842874239024,507.61775249564016,None,up,507.61775249564016,None,507.61775249564016,508.4843099294012,0.06929121711073094,None,1.8169010933524987,,,,,,,,,21,001,2019_Dec_25_1444,untitled,3.1.0,60.025053664638705,
133,F,N,180,R,N,133FN180RN,HRN,0,124,124,212,,,1.0090000000000001,509.5177589734849,509.85099992520554,509.8676713556488,510.15101455043987,510.1844746135357,None,up,510.1844746135357,None,510.1844746135357,511.15104493619947,0.07010395268298453,None,1.7668066637634183,,,,,,,,,21,001,2019_Dec_25_1444,untitled,3.1.0,60.025053664638705,
394,_4,M,45,R,N,394_4M045RN,HRN,0,125,125,161,,,0.747,512.0344597879557,512.367728788071,512.3843828552199,512.6678272245736,512.7010689108974,None,down,512.7010689108974,None,512.7010689108974,513.4178482608695,0.07231710444466444,None,1.7002214487365563,,,,,,,,,21,001,2019_Dec_25_1444,untitled,3.1.0,60.025053664638705,
_,G,N,270,_,_,_GN270__,N,0,126,126,62,,,0.796,514.4844618581956,514.8177739326275,514.8344533768941,515.1177959038687,515.1679297347691,None,up,515.1679297347691,None,515.1679297347691,515.9179434250582,0.06882474563099095,None,2.100267995716422,,,,,,,,,21,001,2019_Dec_25_1444,untitled,3.1.0,60.025053664638705,
230,G,N,225,L,N,230GN225LN,HLN,0,127,127,237,,,0.883,517.3513191426282,517.6845554196188,517.7012545645448,517.9847039425367,518.0513505968993,None,up,518.0513505968993,None,518.0513505968993,518.8678843898706,0.07127330353978323,None,2.333554826593172,,,,,,,,,21,001,2019_Dec_25_1444,untitled,3.1.0,60.025053664638705,
_,_2,M,135,_,_,__2M135__,N,0,128,128,27,,,0.866,520.4678719016556,520.8012601074406,520.8179238579651,521.1012683883928,521.1346489810421,None,down,521.1346489810421,None,521.1346489810421,521.9679470312803,0.07166264194529504,None,2.4669997302007687,,,,,,,,,21,001,2019_Dec_25_1444,untitled,3.1.0,60.025053664638705,
261,_2,N,180,R,N,261_2N180RN,HRN,0,129,129,244,,,1.246,523.6846552585412,524.0179933779109,524.0346638066221,524.3179999893182,524.3513648882217,None,up,524.3513648882217,None,524.3513648882217,525.5680293733458,0.07086593402345898,None,2.333535793757619,,,,,,,,,21,001,2019_Dec_25_1444,untitled,3.1.0,60.025053664638705,
_,G,M,225,_,_,_GM225__,N,0,130,130,13,,,0.804,526.76805815634,527.1013979452582,527.1180663705127,527.4014032210252,527.4348512633806,None,down,527.4348512633806,None,527.4348512633806,528.2015203564551,0.0701643902939395,None,2.4168271658018057,,,,,,,,,21,001,2019_Dec_25_1444,untitled,3.1.0,60.025053664638705,
494,_5,M,225,L,N,494_5M225LN,HLN,0,131,131,189,,,0.96,529.9348532668373,530.2681379606947,530.2848250848801,530.5682377328376,530.6016123151167,None,down,530.6016123151167,None,530.6016123151167,531.5182471490843,0.07083688390048337,None,2.733617401219817,,,,,,,,,21,001,2019_Dec_25_1444,untitled,3.1.0,60.025053664638705,
143,F,M,270,R,N,143FM270RN,HRN,0,132,132,118,,,1.161,533.4183040472526,533.751552678892,533.7682127564112,534.0515572868389,534.0849392151285,None,down,534.0849392151285,None,534.0849392151285,535.2183460530578,0.071094328082836,None,2.5837391446038964,,,,,,,,,21,001,2019_Dec_25_1444,untitled,3.1.0,60.025053664638705,
_,_2,M,180,_,_,__2M180__,N,0,133,133,28,,,1.147,536.7516318154267,537.084948230684,537.1016293444991,537.384963857643,537.4183821820588,None,up,537.4183821820588,None,537.4183821820588,538.534989034415,0.0689723335999588,None,2.8168660328592523,,,,,,,,,21,001,2019_Dec_25_1444,untitled,3.1.0,60.025053664638705,
_,_5,M,45,_,_,__5M045__,N,0,134,134,41,,,0.973,540.3183636166941,540.6517969002525,540.6683821820588,540.95180885421,540.9851022964976,None,down,540.9851022964976,None,540.9851022964976,541.9183795107856,0.07041983101589722,None,1.850201881643443,,,,,,,,,21,001,2019_Dec_25_1444,untitled,3.1.0,60.025053664638705,
486,_5,N,225,L,N,486_5N225LN,HLN,0,135,135,285,,,1.333,542.9184152390953,543.2517620401086,543.2684090951589,543.5518654852531,543.5852410692605,None,up,543.5852410692605,None,543.5852410692605,544.8852303173771,0.07189938373630866,None,2.7335052076523425,,,,,,,,,21,001,2019_Dec_25_1444,untitled,3.1.0,60.025053664638705,
_,_4,M,180,_,_,__4M180__,N,0,136,136,36,,,1.299,546.401933469213,546.7351774261224,546.7518521956554,547.035267848798,547.0686220626012,None,up,547.0686220626012,None,547.0686220626012,548.3352250416065,0.0688354307312693,None,2.833565845608973,,,,,,,,,21,001,2019_Dec_25_1444,untitled,3.1.0,60.025053664638705,
463,_5,M,270,R,N,463_5M270RN,HRN,0,137,137,182,,,1.067,549.9852171613456,550.3185833291063,550.335265110738,550.6186804299687,550.6520550122477,None,down,550.6520550122477,None,550.6520550122477,551.6852729910024,0.07233012691358454,None,2.6835096152572078,,,,,,,,,21,001,2019_Dec_25_1444,untitled,3.1.0,60.025053664638705,
_,_5,N,270,_,_,__5N270__,N,0,138,138,94,,,1.356,553.4187394651599,553.752015811282,553.7686735514362,554.0520164123191,554.0853749669441,None,up,554.0853749669441,None,554.0853749669441,555.4020399863257,0.06944414763347595,None,2.1835740597780386,,,,,,,,,21,001,2019_Dec_25_1444,untitled,3.1.0,60.025053664638705,
234,G,M,45,L,N,234GM045LN,HLN,0,139,139,137,,,1.179,556.3521218609203,556.685406888686,556.7020713070306,556.9855043234602,557.0188081169399,None,down,557.0188081169399,None,557.0188081169399,558.1688546639161,0.07112337820217363,None,3.0668884047954634,,,,,,,,,21,001,2019_Dec_25_1444,untitled,3.1.0,60.025053664638705,
427,_4,M,90,L,N,427_4M090LN,HLN,0,140,140,170,,,0.864,560.1688489874541,560.5021613957979,560.5188291532359,560.8022868789631,560.8356314093944,None,down,560.8356314093944,None,560.8356314093944,561.6688513248191,0.07142890533941681,None,2.1501430468051694,,,,,,,,,21,001,2019_Dec_25_1444,untitled,3.1.0,60.025053664638705,
_,_2,N,0,_,_,__2N000__,N,0,141,141,72,,,1.103,563.0688451141068,563.4022293129747,563.4188823783988,563.702235924382,563.7357019978481,None,up,563.7357019978481,None,563.7357019978481,564.802255825387,0.06845410615278524,None,2.9669342839515593,,,,,,,,,21,001,2019_Dec_25_1444,untitled,3.1.0,60.025053664638705,
039,R,N,270,L,N,039RN270LN,HLN,0,142,142,206,,,0.903,566.7856601923886,567.1189739363654,567.1356219931477,567.4189892294198,567.4523708237975,None,up,567.4523708237975,None,567.4523708237975,568.3190043889081,0.07036072904520552,None,2.2835381979057274,,,,,,,,,21,001,2019_Dec_25_1444,untitled,3.1.0,60.025053664638705,
453,_5,N,180,R,N,453_5N180RN,HRN,0,143,143,276,,,1.223,569.8191359492266,570.1523782365875,570.1690626894961,570.4524776748149,570.485818532241,None,up,570.485818532241,None,570.485818532241,571.6691247966519,0.0713507705295342,None,2.2501799771853257,,,,,,,,,21,001,2019_Dec_25_1444,untitled,3.1.0,60.025053664638705,
262,_2,N,225,R,N,262_2N225RN,HRN,0,144,144,245,,,1.026,572.819107900832,573.152452030572,573.169205602735,573.4524536333374,573.4859460856496,None,up,573.4859460856496,None,573.4859460856496,574.4691467678931,0.07100250298390165,None,1.9167747420215164,,,,,,,,,21,001,2019_Dec_25_1444,untitled,3.1.0,60.025053664638705,
_,R,N,315,_,_,_RN315__,N,0,145,145,71,,,1.02,575.4858522570976,575.81913461359,575.8358437757961,576.119278127866,576.1692309798527,None,up,576.1692309798527,None,576.1692309798527,577.1358971345253,0.07018676222651266,None,1.7168898739982978,,,,,,,,,21,001,2019_Dec_25_1444,untitled,3.1.0,60.025053664638705,
_,R,N,180,_,_,_RN180__,N,0,146,146,68,,,0.9450000000000001,577.9692673091995,578.3025660272542,578.3192301116869,578.6026651315769,578.6359595755894,None,up,578.6359595755894,None,578.6359595755894,579.5526882381091,0.07061783931203536,None,2.0503221558283258,,,,,,,,,21,001,2019_Dec_25_1444,untitled,3.1.0,60.025053664638705,
238,G,M,225,L,N,238GM225LN,HLN,0,147,147,141,,,1.033,580.7693220035653,581.1026290693553,581.1192984963418,581.402657384875,581.4360222837822,None,down,581.4360222837822,None,581.4360222837822,582.436089065668,0.07026623267302057,None,2.916898622424924,,,,,,,,,21,001,2019_Dec_25_1444,untitled,3.1.0,60.025053664638705,
265,_2,M,0,R,N,265_2M000RN,HRN,0,148,148,144,,,1.129,584.4361351451735,584.769381105536,584.7860542055241,585.0693526564501,585.1028497834959,None,down,585.1028497834959,None,585.1028497834959,586.2028392987377,0.07051032047456829,None,2.833496058530727,,,,,,,,,21,001,2019_Dec_25_1444,untitled,3.1.0,60.025053664638705,
_,G,N,90,_,_,_GN090__,N,0,149,149,58,,,1.026,588.0194769375448,588.352795022347,588.3694470860391,588.6528847772024,588.6861722091198,None,up,588.6861722091198,None,588.6861722091198,589.6694917631248,0.07106861705324263,None,2.2002321338404727,,,,,,,,,21,001,2019_Dec_25_1444,untitled,3.1.0,60.025053664638705,
_,_2,M,45,_,_,__2M045__,N,0,150,150,25,,,0.8140000000000001,590.9695397793002,591.3028622049242,591.3195316319106,591.6029015394561,591.636333554161,None,None,591.636333554161,None,591.636333554161,592.4195698979311,0.07061483413053793,None,,,,,,,,,,21,001,2019_Dec_25_1444,untitled,3.1.0,60.025053664638705,
240,G,M,315,L,N,240GM315LN,HLN,0,151,151,143,,,1.0070000000000001,595.1696997887047,595.5029557663511,595.5196231898772,595.8030314970129,595.8363483129579,595.1696997887047,down,595.8363483129579,None,595.8363483129579,596.8030632184091,0.07037141414548387,None,3.30028175278494,,,,,,,,,21,001,2019_Dec_25_1444,untitled,3.1.0,60.025053664638705,
033,R,N,0,L,N,033RN000LN,HLN,0,152,152,200,,,1.2730000000000001,599.2197454675152,599.5531039553607,599.5697219602916,599.8530648211745,599.8864480850971,None,up,599.8864480850971,None,599.8864480850971,601.1198514503703,0.07181457073966158,None,2.0836523281504924,,,,,,,,,21,001,2019_Dec_25_1444,untitled,3.1.0,60.025053664638705,
420,_4,N,135,L,N,420_4N135LN,HLN,0,153,153,267,,,0.847,602.0531757458884,602.3864454138238,602.4031475639313,602.6865518641498,602.7199180986936,None,up,602.7199180986936,None,602.7199180986936,603.536475933146,0.07167265922907973,None,2.0834690118681465,,,,,,,,,21,001,2019_Dec_25_1444,untitled,3.1.0,60.025053664638705,
458,_5,M,45,R,N,458_5M045RN,HRN,0,154,154,177,,,0.864,604.8866113668118,605.2198499811675,605.2365915325936,605.5199457463968,605.5532118081064,None,down,605.5532118081064,None,605.5532118081064,606.3865619482167,0.07267973009220441,None,2.4169179891723616,,,,,,,,,21,001,2019_Dec_25_1444,untitled,3.1.0,60.025053664638705,
299,_2,M,90,L,N,299_2M090LN,HLN,0,155,155,154,,,0.855,608.0533159878541,608.3865866575143,608.4032367177533,608.6865949384701,608.720046653827,None,down,608.720046653827,None,608.720046653827,609.5366245228433,0.07280427831574343,None,2.7501609443497728,,,,,,,,,21,001,2019_Dec_25_1444,untitled,3.1.0,60.025053664638705,
132,F,N,135,R,N,132FN135RN,HRN,0,156,156,211,,,0.8220000000000001,611.5534071451293,611.8866844929798,611.9033328836704,612.1866423536085,612.2367644976803,None,up,612.2367644976803,None,612.2367644976803,613.0033591289539,0.06998107401159359,None,1.9835015346507134,,,,,,,,,21,001,2019_Dec_25_1444,untitled,3.1.0,60.025053664638705,
430,_4,M,225,L,N,430_4M225LN,HLN,0,157,157,173,,,0.848,614.3034906224893,614.6367105379177,614.6533926534612,614.9367251631484,614.9701625204034,None,up,614.9701625204034,None,614.9701625204034,615.7867784550945,0.07096410340091097,None,2.5001823145539674,,,,,,,,,21,001,2019_Dec_25_1444,untitled,3.1.0,60.025053664638705,
203,G,M,90,R,N,203GM090RN,HRN,0,158,158,130,,,1.082,617.5534208354147,617.886802363013,617.903470120451,618.1868039657784,618.2202563489554,None,down,618.2202563489554,None,618.2202563489554,619.2701681300823,0.0740824836466345,None,2.5334927862204495,,,,,,,,,21,001,2019_Dec_25_1444,untitled,3.1.0,60.025053664638705,
271,_2,M,270,R,N,271_2M270RN,HRN,0,159,159,150,,,0.9560000000000001,620.8369667132392,621.170210670145,621.1868821005846,621.4702176154606,621.5036833550184,None,down,621.5036833550184,None,621.5036833550184,622.4203068360621,0.06982714176410809,None,2.6835934265254764,,,,,,,,,21,001,2019_Dec_25_1444,untitled,3.1.0,60.025053664638705,
139,F,M,90,R,N,139FM090RN,HRN,0,160,160,114,,,0.907,624.2702462648922,624.6036217821165,624.6202872021895,624.903727564626,624.9537632261563,None,up,624.9537632261563,None,624.9537632261563,625.8037443936628,0.07117246288908063,None,2.400138038159639,,,,,,,,,21,001,2019_Dec_25_1444,untitled,3.1.0,60.025053664638705,
233,G,M,0,L,N,233GM000LN,HLN,0,161,161,136,,,1.4000000000000001,627.4370216747302,627.7703350848024,627.7870285532663,628.0704715869797,628.103836151975,None,down,628.103836151975,None,628.103836151975,629.4704166254851,0.07315655277125188,None,2.866918389860075,,,,,,,,,21,001,2019_Dec_25_1444,untitled,3.1.0,60.025053664638705,
_,_5,M,270,_,_,__5M270__,N,0,162,162,46,,,1.21,631.0538188554674,631.3871002102314,631.4037786527697,631.6872113352911,631.7206122964162,None,down,631.7206122964162,None,631.7206122964162,632.8872431234704,0.07037976188439643,None,2.950239479847369,,,,,,,,,21,001,2019_Dec_25_1444,untitled,3.1.0,60.025053664638705,
489,_5,M,0,L,N,489_5M000LN,HLN,0,163,163,184,,,1.218,634.7539034013353,635.0872381816116,635.1039443386326,635.3872007169703,635.4539158227672,None,down,635.4539158227672,None,635.4539158227672,636.6038995947674,0.07015337128541432,None,2.7668908089399338,,,,,,,,,21,001,2019_Dec_25_1444,untitled,3.1.0,60.025053664638705,
034,R,N,45,L,N,034RN045LN,HLN,0,164,164,201,,,0.9560000000000001,638.3039100127426,638.63727818396,638.6539449396696,638.9372878005524,638.9707485314684,None,down,638.9707485314684,None,638.9707485314684,639.887309571448,0.07207268273850786,None,2.016908840050746,,,,,,,,,21,001,2019_Dec_25_1444,untitled,3.1.0,60.025053664638705,
_,_4,N,0,_,_,__4N000__,N,0,165,165,80,,,1.205,641.0707049896773,641.4040274153012,641.4206624496146,641.7040260128815,641.7373842335983,None,up,641.7373842335983,None,641.7373842335983,None,0.06921041103123571,None,0.0335131546962657,,,,,,,,,21,001,2019_Dec_25_1444,untitled,3.1.0,60.025053664638705,
_,F,M,180,_,_,_FM180__,N,0,166,166,4,,,0.754,641.85404718274,642.1873402243364,642.2039909523919,642.4875027714515,642.5208292707684,None,None,642.5208292707684,None,642.5208292707684,643.2373962543388,0.07086292883832357,None,,,,,,,,,,21,001,2019_Dec_25_1444,untitled,3.1.0,60.025053664638705,
_,R,M,90,_,_,_RM090__,N,0,167,167,18,,,0.9440000000000001,646.054117370506,646.3874521507787,646.4041255846787,646.6875589350166,646.7208597233112,646.054117370506,down,646.7208597233112,None,646.7208597233112,647.6374835382667,0.07122889358652174,None,2.583541804124252,,,,,,,,,21,001,2019_Dec_25_1444,untitled,3.1.0,60.025053664638705,
_,_2,M,315,_,_,__2M315__,N,0,168,168,31,,,1.307,649.387541638509,649.7208640641329,649.7375314876626,650.0208713433603,650.0709066709787,None,down,650.0709066709787,None,650.0709066709787,651.3209180238991,0.0707293650630163,None,2.400408170899027,,,,,,,,,21,001,2019_Dec_25_1444,untitled,3.1.0,60.025053664638705,
483,_5,N,90,L,N,483_5N090LN,HLN,0,169,169,282,,,0.8200000000000001,652.5542950103263,652.8876030778447,652.9042581467256,653.1876146978939,653.2209882784446,None,down,653.2209882784446,None,653.2209882784446,654.0043211220436,0.07256419743134757,None,2.5335779331289814,,,,,,,,,21,001,2019_Dec_25_1444,untitled,3.1.0,60.025053664638705,
_,F,M,315,_,_,_FM315__,N,0,170,170,7,,,0.775,655.837662914415,656.17100938152,656.1876437480132,656.4711164996697,656.5044072706805,None,down,656.5044072706805,None,656.5044072706805,657.2376894268273,0.07210173285784549,None,2.1335677822826256,,,,,,,,,21,001,2019_Dec_25_1444,untitled,3.1.0,60.025053664638705,
205,G,M,180,R,N,205GM180RN,HRN,0,171,171,132,,,0.9420000000000001,658.7210871156385,659.0545070428198,659.0710779665205,659.3544238325885,659.3878525081964,None,down,659.3878525081964,None,659.3878525081964,660.2877781799543,0.07059947429297608,None,2.6836041116293927,,,,,,,,,21,001,2019_Dec_25_1444,untitled,3.1.0,60.025053664638705,
_,_4,M,225,_,_,__4M225__,N,0,172,172,37,,,1.2790000000000001,662.154579367605,662.4878243262392,662.5044930854056,662.7878289341897,662.8212155372094,None,down,662.8212155372094,None,662.8212155372094,664.07119583655,0.06986120052533806,None,2.600239613413578,,,,,,,,,21,001,2019_Dec_25_1444,untitled,3.1.0,60.025053664638705,
_,R,M,45,_,_,_RM045__,N,0,173,173,17,,,1.364,665.5045832409523,665.8379026613948,665.8545704188327,666.1380051048109,666.1712320991173,None,down,666.1712320991173,None,666.1712320991173,667.5046092858902,0.0694491562753683,None,2.55037424569673,,,,,,,,,21,001,2019_Dec_25_1444,untitled,3.1.0,60.025053664638705,
129,F,N,0,R,N,129FN000RN,HRN,0,174,174,208,,,1.225,668.804713732763,669.1379783920529,669.1547419814997,669.4379809965467,669.488047711653,None,up,669.488047711653,None,669.488047711653,670.6547780437213,0.07215883137178025,None,2.1838835938287957,,,,,,,,,21,001,2019_Dec_25_1444,untitled,3.1.0,60.025053664638705,
263,_2,N,270,R,N,263_2N270RN,HRN,0,175,175,246,,,1.217,671.7546800746895,672.0880465763621,672.1048064928036,672.3881346616727,672.4381703231993,None,up,672.4381703231993,None,672.4381703231993,673.604742382191,0.07114641795124044,None,2.3168640294061333,,,,,,,,,21,001,2019_Dec_25_1444,untitled,3.1.0,60.025053664638705,
_,F,N,135,_,_,_FN135__,N,0,176,176,51,,,0.871,674.8381898235093,675.1714458011556,675.1881148942339,675.4715265404593,675.5048643927003,None,up,675.5048643927003,None,675.5048643927003,676.3381457474643,0.07046323924441822,None,2.8336423108667077,,,,,,,,,21,001,2019_Dec_25_1444,untitled,3.1.0,60.025053664638705,
_,F,M,45,_,_,_FM045__,N,0,177,177,1,,,0.9520000000000001,678.4215746902009,678.7548600518785,678.7715291449531,679.0549468015488,679.0882492593919,None,down,679.0882492593919,None,679.0882492593919,680.0048780829893,0.07114875531988218,None,2.4835596348893887,,,,,,,,,21,001,2019_Dec_25_1444,untitled,3.1.0,60.025053664638705,
003,R,N,90,R,N,003RN090RN,HRN,0,178,178,194,,,1.385,681.6549570191783,681.9882727666154,682.0049371849564,682.2882827171161,682.3216446108381,None,up,682.3216446108381,None,682.3216446108381,683.6717346328223,0.07267973009584239,None,2.4502384781226283,,,,,,,,,21,001,2019_Dec_25_1444,untitled,3.1.0,60.025053664638705,
_,_5,N,315,_,_,__5N315__,N,0,179,179,95,,,0.906,684.855031547766,685.1883533055698,685.2049689731357,685.4884417247922,685.5218139697026,None,up,685.5218139697026,None,685.5218139697026,686.388463228559,0.07106227277472499,None,2.566836314919783,,,,,,,,,21,001,2019_Dec_25_1444,untitled,3.1.0,60.025053664638705,
484,_5,N,135,L,N,484_5N135LN,HLN,0,180,180,283,,,1.291,688.1718448229367,688.5050834372923,688.5218506997408,688.8051000659834,688.8718939744067,None,up,688.8718939744067,None,688.8718939744067,690.0884566171517,0.07142122542063589,None,2.7334821678996377,,,,,,,,,21,001,2019_Dec_25_1444,untitled,3.1.0,60.025053664638705,
304,_2,M,315,L,N,304_2M315LN,HLN,0,181,181,159,,,1.2550000000000001,691.688503230911,692.0218363416352,692.0385044329851,692.3218579789682,692.3553090265086,None,down,692.3553090265086,None,692.3553090265086,693.5718659927952,0.07316924133192515,None,3.150151394540444,,,,,,,,,21,001,2019_Dec_25_1444,untitled,3.1.0,60.025053664638705,
_,_2,N,45,_,_,__2N045__,N,0,182,182,73,,,0.999,695.5885905148352,695.9219072640008,695.9385980611914,696.221931572607,696.2552998106075,None,up,696.2552998106075,None,696.2552998106075,697.2219532767231,0.0704398655834666,None,2.8170166260169935,,,,,,,,,21,001,2019_Dec_25_1444,untitled,3.1.0,60.025053664638705,
046,R,M,225,L,N,046RM225LN,HLN,0,183,183,109,,,1.163,699.1552989424454,699.4886904873238,699.5053382101942,699.788683408442,699.8221451410864,None,down,699.8221451410864,None,699.8221451410864,700.955374005287,0.07169803634678829,None,3.016842725985043,,,,,,,,,21,001,2019_Dec_25_1444,untitled,3.1.0,60.025053664638705,
399,_4,M,270,R,N,399_4M270RN,HRN,0,184,184,166,,,1.037,702.9221319850549,703.2554220214624,703.2720927840855,703.5554309702347,703.6054796542303,None,down,703.6054796542303,None,703.6054796542303,704.5888853568722,0.07212777779204771,None,3.2670517532897065,,,,,,,,,21,001,2019_Dec_25_1444,untitled,3.1.0,60.025053664638705,
173,F,M,180,L,N,173FM180LN,HLN,0,185,185,124,,,1.35,706.9554952144099,707.2888520327106,707.3055508437246,707.5888563067492,707.622323715852,None,up,707.622323715852,None,707.622323715852,708.9388925693129,0.07186298761007492,None,2.8335027367211296,,,,,,,,,21,001,2019_Dec_25_1444,untitled,3.1.0,60.025053664638705,
_,R,M,315,_,_,_RM315__,N,0,186,186,23,,,1.207,710.538912136406,710.8722739633449,710.8889323713192,711.1722815764806,711.2057359631181,None,down,711.2057359631181,None,711.2057359631181,712.3722759668017,0.07023951991868671,None,2.7834854402135534,,,,,,,,,21,001,2019_Dec_25_1444,untitled,3.1.0,60.025053664638705,
208,G,M,315,R,N,208GM315RN,HRN,0,187,187,135,,,0.838,714.072344818931,714.4056812687522,714.4223279898943,714.7057820426198,714.739151616257,None,down,714.739151616257,None,714.739151616257,715.5390386880863,0.07074572662895662,None,1.8668028571992181,,,,,,,,,21,001,2019_Dec_25_1444,untitled,3.1.0,60.025053664638705,
_,G,M,135,_,_,_GM135__,N,0,188,188,11,,,1.149,716.6891309806524,717.0223919669406,717.0390750842125,717.3224152738221,717.3557337593156,None,down,717.3557337593156,None,717.3557337593156,718.4725646649022,0.06995135607212433,None,2.7836226769904897,,,,,,,,,21,001,2019_Dec_25_1444,untitled,3.1.0,60.025053664638705,
392,_4,N,315,R,N,392_4N315RN,HRN,0,189,189,263,,,0.841,720.2224818553623,720.5558229799171,720.5724904034432,720.8559260911497,720.8893000056123,None,up,720.8893000056123,None,720.8893000056123,721.689182402708,0.07125093160721008,None,1.800117803250032,,,,,,,,,21,001,2019_Dec_25_1444,untitled,3.1.0,60.025053664638705,
389,_4,N,180,R,N,389_4N180RN,HRN,0,190,190,260,,,0.81,722.7725428940066,723.105989200034,723.1225460995374,723.4058849535068,723.4393520287013,None,None,723.4393520287013,None,723.4393520287013,724.2059279610439,0.07080583032438881,None,,,,,,,,,,21,001,2019_Dec_25_1444,untitled,3.1.0,60.025053664638705,
198,G,N,225,R,N,198GN225RN,HRN,0,191,191,229,,,0.716,726.9726564899975,727.3060517078811,727.322646673063,727.6060636618386,727.6393711283199,726.9726564899975,up,727.6393711283199,None,727.6393711283199,728.3226703806322,0.07078045320668025,None,2.2669569230092748,,,,,,,,,21,001,2019_Dec_25_1444,untitled,3.1.0,60.025053664638705,
_,R,N,270,_,_,_RN270__,N,0,192,192,70,,,1.369,729.9894027161536,730.3227081123987,730.3393795428383,730.6227153916225,730.6561537506059,None,up,730.6561537506059,None,730.6561537506059,731.9895129062679,0.07003149433876388,None,2.08363596658819,,,,,,,,,21,001,2019_Dec_25_1444,untitled,3.1.0,60.025053664638705,
388,_4,N,135,R,N,388_4N135RN,HRN,0,193,193,259,,,1.371,732.8228456830875,733.156115017111,733.1727757624503,733.4561129468711,733.4894878630621,None,up,733.4894878630621,None,733.4894878630621,734.8228426779024,0.07329078436669079,None,2.7336257489623677,,,,,,,,,21,001,2019_Dec_25_1444,untitled,3.1.0,60.025053664638705,
482,_5,N,45,L,N,482_5N045LN,HLN,0,194,194,281,,,1.045,736.3062119844108,736.6395243927545,736.6561894789156,736.9395436927189,737.0229946734798,None,up,737.0229946734798,None,737.0229946734798,737.9895696708736,0.0701617190206889,None,2.2334698132508493,,,,,,,,,21,001,2019_Dec_25_1444,untitled,3.1.0,60.025053664638705,
491,_5,M,90,L,N,491_5M090LN,HLN,0,195,195,186,,,1.166,739.3396770561485,739.6729266895163,739.6896071355113,739.9730261277473,740.0063269160419,None,down,740.0063269160419,None,740.0063269160419,741.1395881694552,0.07305337475554552,None,2.7505426028365036,,,,,,,,,21,001,2019_Dec_25_1444,untitled,3.1.0,60.025053664638705,
228,G,N,135,L,N,228GN135LN,HLN,0,196,196,235,,,0.9490000000000001,742.8397017654461,743.1730041565061,743.1896899450549,743.4731076016506,743.5064110612184,None,up,743.5064110612184,None,743.5064110612184,744.4231290386379,0.0722129247005796,None,2.0668620259493764,,,,,,,,,21,001,2019_Dec_25_1444,untitled,3.1.0,60.025053664638705,
422,_4,N,225,L,N,422_4N225LN,HLN,0,197,197,269,,,0.973,745.6564743036652,745.989716924938,746.0064040491197,746.289769615847,746.323185268986,None,up,746.323185268986,None,746.323185268986,747.2564354366077,0.07201725376580725,None,1.8834853066509822,,,,,,,,,21,001,2019_Dec_25_1444,untitled,3.1.0,60.025053664638705,
454,_5,N,225,R,N,454_5N225RN,HRN,0,198,198,277,,,1.103,748.2898197022623,748.6231294393292,748.6398078818675,748.9232168568196,748.956492935813,None,up,748.956492935813,None,748.956492935813,750.0232481107414,0.0713233899550687,None,1.70034299177496,,,,,,,,,21,001,2019_Dec_25_1444,untitled,3.1.0,60.025053664638705,
_,_4,M,90,_,_,__4M090__,N,0,199,199,34,,,1.181,750.7399296252479,751.0731896098077,751.089840003955,751.3733164286132,751.439919340839,None,down,751.439919340839,None,751.439919340839,752.5565822899807,0.06987054998899112,None,2.9835596348893887,,,,,,,,,21,001,2019_Dec_25_1444,untitled,3.1.0,60.025053664638705,
_,G,M,90,_,_,_GM090__,N,0,200,200,10,,,0.904,754.5066194207102,754.8399448515192,754.8566059307668,755.1400272603678,755.1900579132562,None,down,755.1900579132562,None,755.1900579132562,756.0400490980464,0.0697146142811107,None,2.116901360481279,,,,,,,,,21,001,2019_Dec_25_1444,untitled,3.1.0,60.025053664638705,
396,_4,M,135,R,N,396_4M135RN,HRN,0,201,201,163,,,0.879,757.3900803519682,757.7233176306872,757.7400074261459,758.0233733267814,758.0567709488132,None,down,758.0567709488132,None,758.0567709488132,758.9067073724545,0.07328944872642751,None,2.1335761300179,,,,,,,,,21,001,2019_Dec_25_1444,untitled,3.1.0,60.025053664638705,
197,G,N,180,R,N,197GN180RN,HRN,0,202,202,228,,,1.339,760.2733863492504,760.6067381589055,760.6234109249854,760.9068452770516,760.9401320411489,None,up,760.9401320411489,None,760.9401320411489,762.2401106041652,0.07051098829106195,None,2.9169073040684452,,,,,,,,,21,001,2019_Dec_25_1444,untitled,3.1.0,60.025053664638705,
237,G,M,180,L,N,237GM180LN,HLN,0,203,203,140,,,0.972,763.9402285409778,764.2734905289944,764.2901609577057,764.5734971404017,764.6069505253072,None,up,764.6069505253072,None,764.6069505253072,765.5402658052699,0.07142356278563966,None,2.2501522627026134,,,,,,,,,21,001,2019_Dec_25_1444,untitled,3.1.0,60.025053664638705,
393,_4,M,0,R,N,393_4M000RN,HRN,0,204,204,160,,,0.8260000000000001,766.9402432329916,767.2735596482489,767.2902297430519,767.5735699326578,767.6236172810168,None,down,767.6236172810168,None,767.6236172810168,768.3903438065172,0.07038276706589386,None,2.116887670195865,,,,,,,,,21,001,2019_Dec_25_1444,untitled,3.1.0,60.025053664638705,
_,G,M,45,_,_,_GM045__,N,0,205,205,9,,,1.353,769.823700491248,770.1569745000052,770.1737023611422,770.4569343640906,770.4904288198595,None,down,770.4904288198595,None,770.4904288198595,771.8070090262408,0.07055639997633989,None,2.6168195526661293,,,,,,,,,21,001,2019_Dec_25_1444,untitled,3.1.0,60.025053664638705,
_,_4,N,315,_,_,__4N315__,N,0,206,206,87,,,1.303,773.1903834749573,773.5237052327648,773.5403719884707,773.8237906467984,773.8571148087503,None,up,773.8571148087503,None,773.8571148087503,775.123747839607,0.07001312931606662,None,2.1334983291162644,,,,,,,,,21,001,2019_Dec_25_1444,untitled,3.1.0,60.025053664638705,
_,G,N,180,_,_,_GN180__,N,0,207,207,60,,,1.24,776.0738126848191,776.4071033890505,776.4237728160333,776.7071079969974,776.7405764078321,None,up,776.7405764078321,None,776.7405764078321,777.9404726287758,0.07072268687261385,None,3.266850739812071,,,,,,,,,21,001,2019_Dec_25_1444,untitled,3.1.0,60.025053664638705,
488,_5,N,315,L,N,488_5N315LN,HLN,0,208,208,287,,,1.044,780.0905041498299,780.4239581357724,780.4405143674558,780.723947383889,780.7573369920938,None,up,780.7573369920938,None,780.7573369920938,781.7738952272339,0.07091501871036598,None,2.1167951772767992,,,,,,,,,21,001,2019_Dec_25_1444,untitled,3.1.0,60.025053664638705,
461,_5,M,180,R,N,461_5M180RN,HRN,0,209,209,180,,,1.061,782.957331048503,783.2905967095248,783.3072617956859,783.5905622500723,783.62399025786,None,down,783.62399025786,None,783.62399025786,784.6573848747066,0.07076910028627026,None,2.350048617216089,,,,,,,,,21,001,2019_Dec_25_1444,untitled,3.1.0,60.025053664638705,
040,R,N,315,L,N,040RN315LN,HLN,0,210,210,207,,,1.28,786.0573499477796,786.3906894027859,786.4073317831062,786.6906950124649,786.7241373783581,None,up,786.7241373783581,None,786.7241373783581,787.9740388750724,0.07174111066342448,None,2.450127954096388,,,,,,,,,21,001,2019_Dec_25_1444,untitled,3.1.0,60.025053664638705,
_,_2,M,270,_,_,__2M270__,N,0,211,211,30,,,1.3800000000000001,789.2574755645073,789.5907398898926,789.6074053099619,789.8908276412913,789.9574769669271,None,None,789.9574769669271,None,789.9574769669271,791.2742114394714,0.06969424580529449,None,,,,,,,,,,21,001,2019_Dec_25_1444,untitled,3.1.0,60.025053664638705,
294,_2,N,225,L,N,294_2N225LN,HLN,0,212,212,253,,,1.2510000000000001,793.4574609392766,793.7908374582294,793.8075072191241,794.0908467409135,794.1242099702686,793.4574609392766,up,794.1242099702686,None,794.1242099702686,795.3409666143998,0.069819795753574,None,2.250256442446698,,,,,,,,,21,001,2019_Dec_25_1444,untitled,3.1.0,60.025053664638705,
_,_4,M,135,_,_,__4M135__,N,0,213,213,35,,,1.066,796.4576479285606,796.7908848733714,796.8075740010099,797.0909896541525,797.1242901085352,None,down,797.1242901085352,None,797.1242901085352,798.1576062566637,0.06991863295115763,None,2.866901694389526,,,,,,,,,21,001,2019_Dec_25_1444,untitled,3.1.0,60.025053664638705,
_,G,N,0,_,_,_GN000__,N,0,214,214,56,,,0.851,800.0743746544067,800.407654005714,800.4243397942591,800.7077584525869,800.7411276923121,None,up,800.7411276923121,None,800.7411276923121,801.5577726771262,0.06939840204358916,None,1.4668227582005784,,,,,,,,,21,001,2019_Dec_25_1444,untitled,3.1.0,60.025053664638705,
_,F,N,45,_,_,_FN045__,N,0,215,215,49,,,1.313,802.2910364682539,802.6243739198035,802.6410403416048,802.9243795294824,802.9577938469847,None,up,802.9577938469847,None,802.9577938469847,804.2410799432655,0.07021447670922498,None,2.1501827820247854,,,,,,,,,21,001,2019_Dec_25_1444,untitled,3.1.0,60.025053664638705,
005,R,N,180,R,N,005RN180RN,HRN,0,216,216,196,,,1.3940000000000001,805.1911220826332,805.5244378300704,805.5411970786954,805.8245409413066,805.8579148557656,None,up,805.8579148557656,None,805.8579148557656,807.2245190368449,0.07204129524689051,None,2.800286093606701,,,,,,,,,21,001,2019_Dec_25_1444,untitled,3.1.0,60.025053664638705,
_,_5,N,45,_,_,__5N045__,N,0,217,217,89,,,0.711,808.7412762820131,809.0745202389189,809.0911879963569,809.3746230162469,809.407854685287,None,up,809.407854685287,None,809.407854685287,810.0913085376669,0.07056274425485753,None,1.7837195107276784,,,,,,,,,21,001,2019_Dec_25_1444,untitled,3.1.0,60.025053664638705,
_,_4,M,270,_,_,__4M270__,N,0,218,218,38,,,1.2670000000000001,811.2745887571364,811.6079118505804,811.6245776045616,811.907997598526,811.9412890373533,None,down,811.9412890373533,None,811.9412890373533,813.1746149356368,0.07006154618647997,None,2.6169554538100783,,,,,,,,,21,001,2019_Dec_25_1444,untitled,3.1.0,60.025053664638705,
_,F,N,270,_,_,_FN270__,N,0,219,219,54,,,0.989,814.641402967256,814.9746556058053,814.9913260345202,815.2746622172126,815.3247790187343,None,up,815.3247790187343,None,815.3247790187343,816.2581373730172,0.07000544940456166,None,2.166896285056282,,,,,,,,,21,001,2019_Dec_25_1444,untitled,3.1.0,60.025053664638705,
417,_4,N,0,L,N,417_4N000LN,HLN,0,220,220,264,,,0.922,817.5747663301772,817.9080526935832,817.924703755547,818.2080653153607,818.258089623967,None,up,818.258089623967,None,818.258089623967,819.124852412031,0.07117914107948309,None,1.866903363934398,,,,,,,,,21,001,2019_Dec_25_1444,untitled,3.1.0,60.025053664638705,
_,_5,M,180,_,_,__5M180__,N,0,221,221,44,,,0.869,820.208205891231,820.5415313220437,820.5582037542117,820.841464807283,820.8748674379531,None,down,820.8748674379531,None,820.8748674379531,821.7081414467102,0.06982947912911186,None,2.5001933335661306,,,,,,,,,21,001,2019_Dec_25_1444,untitled,3.1.0,60.025053664638705,
455,_5,N,270,R,N,455_5N270RN,HRN,0,222,222,278,,,1.034,823.4582082285997,823.7915216386682,823.8081967421131,824.091532256989,824.1249081749047,None,up,824.1249081749047,None,824.1249081749047,825.1248584224013,0.06979475254775025,None,2.3835627736370952,,,,,,,,,21,001,2019_Dec_25_1444,untitled,3.1.0,60.025053664638705,
_,_5,N,180,_,_,__5N180__,N,0,223,223,92,,,0.86,826.5915926945963,826.9249411651581,826.9415595040009,827.2250322556538,827.2583851338204,None,up,827.2583851338204,None,827.2583851338204,828.0750554957485,0.06989859838358825,None,1.9501496582124673,,,,,,,,,21,001,2019_Dec_25_1444,untitled,3.1.0,60.025053664638705,
493,_5,M,180,L,N,493_5M180LN,HLN,0,224,224,188,,,1.274,829.2917293303399,829.6249969948185,829.6416594097027,829.9250977686861,829.9916973418149,None,down,829.9916973418149,None,829.9916973418149,831.191697408598,0.0712051860136853,None,2.350076999518933,,,,,,,,,21,001,2019_Dec_25_1444,untitled,3.1.0,60.025053664638705,
_,F,M,90,_,_,_FM090__,N,0,225,225,2,,,0.9580000000000001,832.4251077859699,832.7583998258342,832.775046213068,833.0585039387988,833.091870173339,None,down,833.091870173339,None,833.091870173339,834.0085267114227,0.06988123508926947,None,2.566806263072067,,,,,,,,,21,001,2019_Dec_25_1444,untitled,3.1.0,60.025053664638705,
174,F,M,225,L,N,174FM225LN,HLN,0,226,226,125,,,1.359,835.7418218900348,836.0751449834788,836.0918073983667,836.3751445827875,836.4086136614387,None,down,836.4086136614387,None,836.4086136614387,837.7251618125156,0.07040313554171007,None,2.5170781321357936,,,,,,,,,21,001,2019_Dec_25_1444,untitled,3.1.0,60.025053664638705,
045,R,M,180,L,N,045RM180LN,HLN,0,227,227,108,,,0.969,839.0086358998087,839.3418841975363,839.3585506193376,839.6418911428518,839.6753568824097,None,up,839.6753568824097,None,839.6753568824097,840.6085786677286,0.07091735607900773,None,2.1668024565042288,,,,,,,,,21,001,2019_Dec_25_1444,untitled,3.1.0,60.025053664638705,
272,_2,M,315,R,N,272_2M315RN,HRN,0,228,228,151,,,0.793,841.9252737389579,842.2586155313329,842.2752619185667,842.5587156373804,842.5920064083912,None,down,842.5920064083912,None,842.5920064083912,843.3419793617286,0.07204296479540062,None,1.9673770478657389,,,,,,,,,21,001,2019_Dec_25_1444,untitled,3.1.0,60.025053664638705,
_,F,M,135,_,_,_FM135__,N,0,229,229,3,,,0.737,844.642098166707,844.9753437931577,844.9920135540524,845.2753550792986,845.3421346296163,None,up,845.3421346296163,None,845.3421346296163,846.0087904998763,0.0691048956468876,None,2.8835353930626297,,,,,,,,,21,001,2019_Dec_25_1444,untitled,3.1.0,60.025053664638705,
459,_5,M,90,R,N,459_5M090RN,HRN,0,230,230,178,,,0.882,848.308835176962,848.6420968310667,848.6587629189562,848.9421992744828,848.9755735228537,None,down,848.9755735228537,None,848.9755735228537,849.8255393305262,0.07135878435656196,None,2.750160276529641,,,,,,,,,21,001,2019_Dec_25_1444,untitled,3.1.0,60.025053664638705,
303,_2,M,270,L,N,303_2M270LN,HLN,0,231,231,158,,,1.234,851.8088966162977,852.1421773032416,852.1588430572228,852.4421855841974,852.5088586174024,None,down,852.5088586174024,None,852.5088586174024,853.6756430427995,0.07131404049141565,None,3.2336143960383197,,,,,,,,,21,001,2019_Dec_25_1444,untitled,3.1.0,60.025053664638705,
_,_4,M,315,_,_,__4M315__,N,0,232,232,39,,,0.924,855.8256198027011,856.1589075017437,856.1756059788495,856.4589191217929,856.492408235008,None,down,856.492408235008,None,856.492408235008,857.3757092236483,0.06915865506744012,None,2.6336061818656162,,,,,,,,,21,001,2019_Dec_25_1444,untitled,3.1.0,60.025053664638705,
140,F,M,135,R,N,140FM135RN,HRN,0,233,233,115,,,0.733,859.2089665369349,859.5423467288929,859.5591373650022,859.8423536742084,859.8757529657851,None,down,859.8757529657851,None,859.8757529657851,860.5757039478813,0.07068228383650421,None,2.30018592077613,,,,,,,,,21,001,2019_Dec_25_1444,untitled,3.1.0,60.025053664638705,
428,_4,M,135,L,N,428_4M135LN,HLN,0,234,234,171,,,0.715,862.2590966948337,862.5924151135441,862.6090832048903,862.892490510294,862.9258911375109,None,down,862.9258911375109,None,862.9258911375109,863.6092010749235,0.07125460460883914,None,1.950241149395879,,,,,,,,,21,001,2019_Dec_25_1444,untitled,3.1.0,60.025053664638705,
138,F,M,45,R,N,138FM045RN,HRN,0,235,235,113,,,1.3960000000000001,864.9592353340304,865.2924792909398,865.3091487179227,865.5924885736204,865.6258434552437,None,down,865.6258434552437,None,865.6258434552437,866.9925998990257,0.07100250298390165,None,2.600256642792374,,,,,,,,,21,001,2019_Dec_25_1444,untitled,3.1.0,60.025053664638705,
395,_4,M,90,R,N,395_4M090RN,HRN,0,236,236,162,,,1.292,868.3092465533882,868.6425766589309,868.6592217105244,868.9425785956046,868.9759558491605,None,down,868.9759558491605,None,868.9759558491605,870.2260176224045,0.07253548121661879,None,3.033623678718868,,,,,,,,,21,001,2019_Dec_25_1444,untitled,3.1.0,60.025053664638705,
431,_4,M,270,L,N,431_4M270LN,HLN,0,237,237,174,,,1.153,872.0926895871016,872.4259809591495,872.4426697528834,872.7259815601865,872.7593745074846,None,None,872.7593745074846,None,872.7593745074846,873.8761182627095,0.07339796929591103,None,,,,,,,,,,21,001,2019_Dec_25_1444,untitled,3.1.0,60.025053664638705,
_,_2,M,0,_,_,__2M000__,N,0,238,238,24,,,0.872,876.2928075239179,876.6260715153912,876.6427419441025,876.9261455765045,876.9595088058632,876.2928075239179,up,876.9595088058632,None,876.9595088058632,877.7928599476982,0.06936100418533897,None,2.483625415050483,,,,,,,,,21,001,2019_Dec_25_1444,untitled,3.1.0,60.025053664638705,
432,_4,M,315,L,N,432_4M315LN,HLN,0,239,239,175,,,1.104,879.5261995362671,879.8594762163011,879.8761706864934,880.1594918432602,880.1928734376379,None,None,880.1928734376379,None,880.1928734376379,881.2595137477219,0.07093638891456067,None,,,,,,,,,,21,001,2019_Dec_25_1444,untitled,3.1.0,60.025053664638705,
_,_5,N,135,_,_,__5N135__,N,0,240,240,91,,,0.937,883.7263061201593,884.0595764559148,884.0762044781295,884.3595874081439,884.3929543105041,883.7263061201593,up,884.3929543105041,None,884.3929543105041,885.292940419873,0.06963280646596104,None,3.0669114445445302,,,,,,,,,21,001,2019_Dec_25_1444,untitled,3.1.0,60.025053664638705,
_,_4,N,45,_,_,__4N045__,N,0,241,241,81,,,1.145,887.5430536151725,887.8763306291148,887.8930938846497,888.1763392439789,888.2098009766196,None,up,888.2098009766196,None,888.2098009766196,889.3263647546592,0.07163960219622822,None,1.916916987440345,,,,,,,,,21,001,2019_Dec_25_1444,untitled,3.1.0,60.025053664638705,
141,F,M,180,R,N,141FM180RN,HRN,0,242,242,116,,,1.185,890.2097689213151,890.5430602933629,890.5597273829808,890.8430842680573,890.876453173878,None,down,890.876453173878,None,890.876453173878,892.026426260778,0.07032566855559708,None,3.1170175609622675,,,,,,,,,21,001,2019_Dec_25_1444,untitled,3.1.0,60.025053664638705,
048,R,M,315,L,N,048RM315LN,HLN,0,243,243,111,,,0.71,894.0765500743983,894.4098157354165,894.4264814893977,894.7098243502805,894.7432844133764,None,up,894.7432844133764,None,894.7432844133764,895.4098381073491,0.07091535261861281,None,2.3834866422839696,,,,,,,,,21,001,2019_Dec_25_1444,untitled,3.1.0,60.025053664638705,
301,_2,M,180,L,N,301_2M180LN,HLN,0,244,244,156,,,0.931,897.2098747706041,897.5432987046988,897.5599073601661,897.8433186724833,897.8932725261984,None,None,897.8932725261984,None,897.8932725261984,898.7766766928544,0.07121453547733836,None,,,,,,,,,,21,001,2019_Dec_25_1444,untitled,3.1.0,60.025053664638705,
_,_4,M,0,_,_,__4M000__,N,0,245,245,32,,,1.063,901.4100811934222,901.7433188060495,901.7600122745134,902.0433250835449,902.0767878179176,901.4100811934222,down,902.0767878179176,None,902.0767878179176,903.1101386926275,0.07058378054716741,None,2.1334716163655685,,,,,,,,,21,001,2019_Dec_25_1444,untitled,3.1.0,60.025053664638705,
201,G,M,0,R,N,201GM000RN,HRN,0,246,246,128,,,1.287,904.2933968740763,904.6267900884995,904.6433833841329,904.9267252432874,904.9601579258087,None,up,904.9601579258087,None,904.9601579258087,906.2101672752724,0.07041315282549476,None,2.7168434605846414,,,,,,,,,21,001,2019_Dec_25_1444,untitled,3.1.0,60.025053664638705,
036,R,N,135,L,N,036RN135LN,HLN,0,247,247,203,,,1.296,907.7601561894808,908.0934622535424,908.1101296770721,908.3935466658477,908.4269422844227,None,up,908.4269422844227,None,908.4269422844227,909.6935202202221,0.07432590362805058,None,2.4503192842021235,,,,,,,,,21,001,2019_Dec_25_1444,untitled,3.1.0,60.025053664638705,
400,_4,M,315,R,N,400_4M315RN,HRN,0,248,248,167,,,1.157,910.9602671141947,911.2935528097842,911.3102012004747,911.5935550803661,911.6269313321936,None,down,911.6269313321936,None,911.6269313321936,912.7435912761503,0.0704916215436242,None,2.450224120013445,,,,,,,,,21,001,2019_Dec_25_1444,untitled,3.1.0,60.025053664638705,
398,_4,M,225,R,N,398_4M225RN,HRN,0,249,249,165,,,1.291,914.1602668470696,914.4936303435534,914.510279402064,914.7936399601458,914.8270819921308,None,None,914.8270819921308,None,914.8270819921308,916.0769774784785,0.07123657350166468,None,,,,,,,,,,21,001,2019_Dec_25_1444,untitled,3.1.0,60.025053664638705,
006,R,N,225,R,N,006RN225RN,HRN,0,250,250,197,,,0.8310000000000001,918.360384116062,918.6937082112345,918.7103749669441,918.9937942930883,919.0271718805525,918.360384116062,up,919.0271718805525,None,919.0271718805525,919.827140426285,0.07134609579588869,None,2.466946304692101,,,,,,,,,21,001,2019_Dec_25_1444,untitled,3.1.0,60.025053664638705,
167,F,N,270,L,N,167FN270LN,HLN,0,251,251,222,,,0.912,921.577197524799,921.9105423223555,921.9271185886064,922.2104928369772,922.2605906056597,None,up,922.2605906056597,None,922.2605906056597,923.1271253335763,0.07130836402939167,None,2.0335515542828944,,,,,,,,,21,001,2019_Dec_25_1444,untitled,3.1.0,60.025053664638705,
423,_4,N,270,L,N,423_4N270LN,HLN,0,252,252,270,,,1.182,924.3772174925834,924.7105105341761,924.7271909801711,925.0105178134036,925.0606376201104,None,up,925.0606376201104,None,925.0606376201104,926.1938805085047,0.07243397274578456,None,2.333577866345877,,,,,,,,,21,001,2019_Dec_25_1444,untitled,3.1.0,60.025053664638705,
425,_4,M,0,L,N,425_4M000LN,HLN,0,253,253,168,,,1.348,927.4773325577735,927.8106496408473,927.8272499485793,928.1106702764519,928.1440218189782,None,up,928.1440218189782,None,928.1440218189782,929.4606197225621,0.07154410409202683,None,2.116922396777227,,,,,,,,,21,001,2019_Dec_25_1444,untitled,3.1.0,60.025053664638705,
_,G,M,180,_,_,_GM180__,N,0,254,254,12,,,1.057,930.3439788114447,930.6773165969025,930.6939836865204,930.977321538765,931.0106493737221,None,down,931.0106493737221,None,931.0106493737221,932.027467390406,0.06985418842668878,None,2.417060902411322,,,,,,,,,21,001,2019_Dec_25_1444,untitled,3.1.0,60.025053664638705,
144,F,M,315,R,N,144FM315RN,HRN,0,255,255,119,,,1.067,933.5108129893451,933.8440556106143,933.860725371509,934.1441426941965,934.1774608457818,None,down,934.1774608457818,None,934.1774608457818,935.2108143917649,0.07091301525724703,None,2.2168675020657247,,,,,,,,,21,001,2019_Dec_25_1444,untitled,3.1.0,60.025053664638705,
_,F,M,225,_,_,_FM225__,N,0,256,256,5,,,1.217,936.4774677910973,936.8107905506331,936.8274569724308,937.110826546068,937.1442602303177,None,down,937.1442602303177,None,937.1442602303177,938.3274967076541,0.06987388908237335,None,2.38358748293831,,,,,,,,,21,001,2019_Dec_25_1444,untitled,3.1.0,60.025053664638705,
_,G,N,45,_,_,_GN045__,N,0,257,257,57,,,0.9500000000000001,939.610910023428,939.944191378192,939.9608885196612,940.244293153788,940.277563556323,None,up,940.277563556323,None,940.277563556323,941.1942241013166,0.07077243938329048,None,2.3002396801930445,,,,,,,,,21,001,2019_Dec_25_1444,untitled,3.1.0,60.025053664638705,
266,_2,M,45,R,N,266_2M045RN,HRN,0,258,258,145,,,0.871,942.6609423458613,942.9942627680321,943.0109338645634,943.294356529801,943.3276603232807,None,down,943.3276603232807,None,943.3276603232807,944.1609834167248,0.0738961621755152,None,2.9503496699617244,,,,,,,,,21,001,2019_Dec_25_1444,untitled,3.1.0,60.025053664638705,
490,_5,M,45,L,N,490_5M045LN,HLN,0,259,259,185,,,0.899,946.3610108640787,946.6943960646786,946.7110187443432,946.9944524285929,947.0278210005017,None,down,947.0278210005017,None,947.0278210005017,947.8943781003509,0.07268340309747146,None,2.4834691454307176,,,,,,,,,21,001,2019_Dec_25_1444,untitled,3.1.0,60.025053664638705,
291,_2,N,90,L,N,291_2N090LN,HLN,0,260,260,250,,,0.797,949.5944422777466,949.9278541911008,949.9444635143846,950.2277900137051,950.2611565821571,None,up,950.2611565821571,None,950.2611565821571,951.0277836026435,0.07079681477262056,None,1.6169801631076552,,,,,,,,,21,001,2019_Dec_25_1444,untitled,3.1.0,60.025053664638705,
232,G,N,315,L,N,232GN315LN,HLN,0,261,261,239,,,1.283,951.9612157509109,952.294497105675,952.3111444946371,952.5944943676186,952.66115805136,None,up,952.66115805136,None,952.66115805136,953.8779480864323,0.0710969993560866,None,2.716944301231706,,,,,,,,,21,001,2019_Dec_25_1444,untitled,3.1.0,60.025053664638705,
_,G,N,135,_,_,_GN135__,N,0,262,262,59,,,1.383,955.4612768563384,955.7946356780922,955.8112293076338,956.0945621512328,956.1280349028857,None,up,956.1280349028857,None,956.1280349028857,957.4780290928647,0.07191274011347559,None,2.4834694793426024,,,,,,,,,21,001,2019_Dec_25_1444,untitled,3.1.0,60.025053664638705,
391,_4,N,270,R,N,391_4N270RN,HRN,0,263,263,262,,,1.205,958.6947546834162,959.0279575694622,959.044664060395,959.3279381359316,959.3946862987614,None,up,959.3946862987614,None,959.3946862987614,960.5280176731612,0.07159385659906548,None,2.116891677109379,,,,,,,,,21,001,2019_Dec_25_1444,untitled,3.1.0,60.025053664638705,
295,_2,N,270,L,N,295_2N270LN,HLN,0,264,264,254,,,0.795,961.5946930437349,961.9280365056511,961.9447055987293,962.2280414475135,962.261513197438,None,up,962.261513197438,None,962.261513197438,963.028139216196,0.07168401214585174,None,1.4334371569093491,,,,,,,,,21,001,2019_Dec_25_1444,untitled,3.1.0,60.025053664638705,
_,R,N,225,_,_,_RN225__,N,0,265,265,69,,,1.1320000000000001,963.7781302006406,964.1114175657749,964.1280829858479,964.4114492203917,964.4448177923005,None,up,964.4448177923005,None,964.4448177923005,965.544789276435,0.07069463848165469,None,2.033546211729117,,,,,,,,,21,001,2019_Dec_25_1444,untitled,3.1.0,60.025053664638705,
_,_5,N,225,_,_,__5N225__,N,0,266,266,93,,,1.046,966.5614830788072,966.8948449057461,966.9114722601407,967.194923641593,967.2615519309329,None,up,967.2615519309329,None,967.2615519309329,968.2449365972789,0.06983816077627125,None,1.7668230253257207,,,,,,,,,21,001,2019_Dec_25_1444,untitled,3.1.0,60.025053664638705,
044,R,M,135,L,N,044RM135LN,HLN,0,267,267,107,,,0.8310000000000001,969.1115461209083,969.4448585292521,969.461543983889,969.7449759985902,969.7783292106651,None,down,969.7783292106651,None,969.7783292106651,970.5782580211744,0.07229974115398363,None,2.116936754882772,,,,,,,,,21,001,2019_Dec_25_1444,untitled,3.1.0,60.025053664638705,
450,_5,N,45,R,N,450_5N045RN,HRN,0,268,268,273,,,1.245,971.9783406303686,972.3116052896621,972.3283234674236,972.6117047278931,972.6450793101722,None,up,972.6450793101722,None,972.6450793101722,973.8616462937389,0.07050764919767971,None,2.8834903152928746,,,,,,,,,21,001,2019_Dec_25_1444,untitled,3.1.0,60.025053664638705,
452,_5,N,135,R,N,452_5N135RN,HRN,0,269,269,275,,,1.343,975.6116449581023,975.9450268196088,975.9616895684048,976.245033431016,976.2784978349337,None,up,976.2784978349337,None,976.2784978349337,977.578395257955,0.07190973493197816,None,2.3669187237719598,,,,,,,,,21,001,2019_Dec_25_1444,untitled,3.1.0,60.025053664638705,
464,_5,M,315,R,N,464_5M315RN,HRN,0,270,270,183,,,1.246,978.7285042459953,979.0617615592782,979.0784319879931,979.3618599957808,979.3951397477795,None,down,979.3951397477795,None,979.3951397477795,980.6117975547168,0.07042083274427569,None,2.4503443274115853,,,,,,,,,21,001,2019_Dec_25_1444,untitled,3.1.0,60.025053664638705,
426,_4,M,45,L,N,426_4M045LN,HLN,0,271,271,169,,,0.926,981.9284912903095,982.2618260705822,982.2785061826689,982.5619568963011,982.5952276327444,None,down,982.5952276327444,None,982.5952276327444,983.4785339639348,0.0726366557792062,None,2.283667754767521,,,,,,,,,21,001,2019_Dec_25_1444,untitled,3.1.0,60.025053664638705,
449,_5,N,0,R,N,449_5N000RN,HRN,0,272,272,272,,,0.834,984.9619540246786,985.2952407219927,985.3119295157267,985.5953478401425,985.6286339364196,None,up,985.6286339364196,None,985.6286339364196,986.4286021482403,0.07203394924363238,None,2.1003197516765795,,,,,,,,,21,001,2019_Dec_25_1444,untitled,3.1.0,60.025053664638705,
_,_4,N,225,_,_,__4N225__,N,0,273,273,85,,,1.087,987.8120116574464,988.1453137145982,988.1619577644633,988.4454104815522,988.4787777178244,None,up,988.4787777178244,None,988.4787777178244,989.5287662981209,0.07121620502584847,None,2.216808066183148,,,,,,,,,21,001,2019_Dec_25_1444,untitled,3.1.0,60.025053664638705,
193,G,N,0,R,N,193GN000RN,HRN,0,274,274,224,,,0.726,990.7787182151624,991.1120356321444,991.1287063947675,991.4120489217421,991.4454388638551,None,up,991.4454388638551,None,991.4454388638551,992.1288205917954,0.07037709060750785,None,1.6668602228382952,,,,,,,,,21,001,2019_Dec_25_1444,untitled,3.1.0,60.025053664638705,
169,F,M,0,L,N,169FM000LN,HLN,0,275,275,120,,,0.749,993.1954919554555,993.5288531145743,993.545429046917,993.8288674059004,993.8621307963367,None,down,993.8621307963367,None,993.8621307963367,994.5787845963569,0.07234281547061983,None,1.8168960847142444,,,,,,,,,21,001,2019_Dec_25_1444,untitled,3.1.0,60.025053664638705,
386,_4,N,45,R,N,386_4N045RN,HRN,0,276,276,257,,,0.8130000000000001,995.7622150750794,996.0954957620233,996.1121538360858,996.3955357643754,996.428960766978,None,up,996.428960766978,None,996.428960766978,997.2121830865544,0.07008158075404936,None,1.8501043800897605,,,,,,,,,21,001,2019_Dec_25_1444,untitled,3.1.0,60.025053664638705,
_,G,M,0,_,_,_GM000__,N,0,277,277,8,,,0.848,998.3623007562383,998.6956278565958,998.7122198165926,998.9955656826605,999.0289783306143,None,down,999.0289783306143,None,999.0289783306143,999.8455809089282,0.0696281317359535,None,3.0501976076047868,,,,,,,,,21,001,2019_Dec_25_1444,untitled,3.1.0,60.025053664638705,
_,_2,N,315,_,_,__2N315__,N,0,278,278,79,,,1.327,1002.1623350821283,1002.4956327984582,1002.5123235956453,1002.7956330655834,1002.8290417066273,None,up,1002.8290417066273,None,1002.8290417066273,1004.1123401575533,0.07068028037974727,None,2.8002112978938385,,,,,,,,,21,001,2019_Dec_25_1444,untitled,3.1.0,60.025053664638705,
037,R,N,180,L,N,037RN180LN,HLN,0,279,279,204,,,0.793,1005.7123570533695,1006.0457208837652,1006.0623829647448,1006.3457251578075,1006.379095733173,None,up,1006.379095733173,None,1006.379095733173,1007.1290513232198,0.07209138166581397,None,1.583545477129519,,,,,,,,,21,001,2019_Dec_25_1444,untitled,3.1.0,60.025053664638705,
_,F,M,270,_,_,_FM270__,N,0,280,280,6,,,1.201,1008.0457916725682,1008.3791017435433,1008.3957728400746,1008.6791113601357,1008.7125814405154,None,down,1008.7125814405154,None,1008.7125814405154,1009.879202584194,0.06938170656940201,None,2.1668104703312565,,,,,,,,,21,001,2019_Dec_25_1444,untitled,3.1.0,60.025053664638705,
_,F,N,90,_,_,_FN090__,N,0,281,281,50,,,0.836,1010.9625927934358,1011.2958377520699,1011.3125308866256,1011.5958443634772,1011.6458947170213,None,up,1011.6458947170213,None,1011.6458947170213,1012.4292619532935,0.0693312862458697,None,2.116876651183702,,,,,,,,,21,001,2019_Dec_25_1444,untitled,3.1.0,60.025053664638705,
236,G,M,135,L,N,236GM135LN,HLN,0,282,282,139,,,1.149,1013.8459699134255,1014.1792429204543,1014.1959100100721,1014.479281587166,1014.5127119323224,None,down,1014.5127119323224,None,1014.5127119323224,1015.6292974144744,0.07180555518425535,None,2.4501399748369295,,,,,,,,,21,001,2019_Dec_25_1444,untitled,3.1.0,60.025053664638705,
298,_2,M,45,L,N,298_2M045LN,HLN,0,283,283,153,,,0.757,1017.0459743210304,1017.3793167812219,1017.3959751891962,1017.6793220569889,1017.712704653095,None,down,1017.712704653095,None,1017.712704653095,1018.4294292419218,0.07117880716759828,None,3.150410174355784,,,,,,,,,21,001,2019_Dec_25_1444,untitled,3.1.0,60.025053664638705,
418,_4,N,45,L,N,418_4N045LN,HLN,0,284,284,265,,,1.2790000000000001,1020.9460856464357,1021.2794007260527,1021.2960651443973,1021.5795038372889,1021.6294536840905,None,up,1021.6294536840905,None,1021.6294536840905,1022.8628647292826,0.07036673941183835,None,2.8002336698227737,,,,,,,,,21,001,2019_Dec_25_1444,untitled,3.1.0,60.025053664638705,
002,R,N,45,R,N,002RN045RN,HRN,0,285,285,193,,,1.1520000000000001,1024.5128421570043,1024.846151226251,1024.8628089664053,1025.146159173295,1025.2129564208117,None,up,1025.2129564208117,None,1025.2129564208117,1026.2961853517954,0.07145495027361903,None,2.0669087732712796,,,,,,,,,21,001,2019_Dec_25_1444,untitled,3.1.0,60.025053664638705,
165,F,N,180,L,N,165FN180LN,HLN,0,286,286,220,,,1.302,1027.3629037966857,1027.6962111963876,1027.7128909745625,1027.9962628855683,1028.0462674935188,None,up,1028.0462674935188,None,1028.0462674935188,1029.29634796569,0.06962011791256373,None,2.7337810168501164,,,,,,,,,21,001,2019_Dec_25_1444,untitled,3.1.0,60.025053664638705,
009,R,M,0,R,N,009RM000RN,HRN,0,287,287,96,,,0.841,1030.863058062845,1031.196276308725,1031.2129637668222,1031.4963096328866,1031.5297716994392,None,down,1031.5297716994392,None,1031.5297716994392,1032.3296550982632,0.07067727519461187,None,1.900128688699624,,,,,,,,,21,001,2019_Dec_25_1444,untitled,3.1.0,60.025053664638705,
,,,,,,,,,,,,,,,,,,,,,,,,,,,,,1033.4463511044414,None,1046.3801114856833,None,1048.4134075992479,None,1050.6634586873915,None,,,,,,,
