Number,Letter,type,Orientation,human,face_type,image,picture,trials.thisRepN,trials.thisTrialN,trials.thisN,trials.thisIndex,text.started,text.stopped,stimulus_duration,CROSS.started,CROSS.stopped,BLANK.started,BLANK.stopped,TEST.started,TEST.stopped,key_JUDGE.keys,key_JUDGE.rt,key_JUDGE.started,key_JUDGE.stopped,image_2.started,image_2.stopped,ISI.started,ISI.stopped,q1.started,q1.stopped,q2.started,q2.stopped,q3.started,q3.stopped,text_2.started,text_2.stopped,participant,session,date,expName,psychopyVersion,frameRate,
165,F,N,180,L,N,165FN180LN,HLN,0,0,0,220,46.51924519997556,None,1.124,105.84091699996497,105.96597989997827,105.96597989997827,106.18219939997653,106.18219939997653,None,up,2.78186149999965,106.18219939997653,None,106.18219939997653,107.29580919997534,0.2108310000039637,None,,,,,,,,,22,001,2019_Dec_25_1121,untitled,3.1.0,60.13974070136788,
269,_2,M,180,R,N,269_2M180RN,HRN,0,1,1,148,,,1.08,109.06661079998594,109.41097299999092,109.42759469995508,109.7111053999979,109.72706009994727,None,down,2.731341600010637,109.72706009994727,None,109.72706009994727,110.79283999995096,0.060866700019687414,None,,,,,,,,,22,001,2019_Dec_25_1121,untitled,3.1.0,60.13974070136788,
_,_2,M,90,_,_,__2M090__,N,0,2,2,26,,,0.885,112.52949159999844,112.87463559996104,112.8924674000009,113.17554589995416,113.19154649996199,None,down,2.4807548000244424,113.19154649996199,None,113.19154649996199,114.05719129997306,0.06307309999829158,None,,,,,,,,,22,001,2019_Dec_25_1121,untitled,3.1.0,60.13974070136788,
174,F,M,225,L,N,174FM225LN,HLN,0,3,3,125,,,0.975,115.74779209995177,116.08890939998673,116.10499029996572,116.38810039998498,116.40447349997703,None,None,,116.40447349997703,None,116.40447349997703,117.35415159998229,0.06836660002591088,None,,,,,,,,,22,001,2019_Dec_25_1121,untitled,3.1.0,60.13974070136788,
200,G,N,315,R,N,200GN315RN,HRN,0,4,4,231,,,1.2530000000000001,119.93930869997712,120.28569859999698,120.30120779998833,120.5843977999757,120.60138699994422,119.93930869997712,None,,120.60138699994422,None,120.60138699994422,121.83350139996037,0.06371049996232614,None,,,,,,,,,22,001,2019_Dec_25_1121,untitled,3.1.0,60.13974070136788,
138,F,M,45,R,N,138FM045RN,HRN,0,5,5,113,,,0.76,124.13654519995907,124.48129579995293,124.48129579995293,124.78050879994407,124.79725939995842,124.13654519995907,down,2.3317598000285216,124.79725939995842,None,124.79725939995842,125.5464278999716,0.06520810001529753,None,,,,,,,,,22,001,2019_Dec_25_1121,untitled,3.1.0,60.13974070136788,
193,G,N,0,R,N,193GN000RN,HRN,0,6,6,224,,,1.149,127.20294209994609,127.54592809994938,127.56160319998162,127.8450562999933,127.86282319994643,None,up,2.1660054000094533,127.86282319994643,None,127.86282319994643,128.9936218999792,0.06626769999274984,None,,,,,,,,,22,001,2019_Dec_25_1121,untitled,3.1.0,60.13974070136788,
298,_2,M,45,L,N,298_2M045LN,HLN,0,7,7,153,,,0.891,130.09979939996265,130.44288209994556,130.4599017999717,130.74218339996878,130.75871859997278,None,down,2.082712500006892,130.75871859997278,None,130.75871859997278,131.6422831999953,0.0637103000190109,None,,,,,,,,,22,001,2019_Dec_25_1121,untitled,3.1.0,60.13974070136788,
_,G,M,315,_,_,_GM315__,N,0,8,8,15,,,1.112,132.92397619999247,133.25672229996417,133.2731872999575,133.55667929997435,133.57470629998716,None,down,2.5468210999970324,133.57470629998716,None,133.57470629998716,134.67216309998184,0.07457050000084564,None,,,,,,,,,22,001,2019_Dec_25_1121,untitled,3.1.0,60.13974070136788,
003,R,N,90,R,N,003RN090RN,HRN,0,9,9,194,,,0.879,136.201331499964,136.53797009994742,136.55493859999115,136.83690169994952,136.8547631999827,None,up,2.0638676999951713,136.8547631999827,None,136.8547631999827,137.7203087999951,0.07216480001807213,None,,,,,,,,,22,001,2019_Dec_25_1121,untitled,3.1.0,60.13974070136788,
423,_4,N,270,L,N,423_4N270LN,HLN,0,10,10,270,,,0.874,138.99020289996406,139.33474569994723,139.35131779999938,139.63504109997302,139.6514534999733,None,up,2.182071899995208,139.6514534999733,None,139.6514534999733,140.50096699997084,0.06507089996011928,None,,,,,,,,,22,001,2019_Dec_25_1121,untitled,3.1.0,60.13974070136788,
_,G,N,270,_,_,_GN270__,N,0,11,11,62,,,0.836,141.9074571999954,142.2487764999969,142.2659343999694,142.5487424999592,142.56514979997883,None,up,2.2150130000081845,142.56514979997883,None,142.56514979997883,143.38199639995582,0.06705520005198196,None,,,,,,,,,22,001,2019_Dec_25_1121,untitled,3.1.0,60.13974070136788,
014,R,M,225,R,N,014RM225RN,HRN,0,12,12,101,,,1.385,144.84964989998844,145.1961799999699,145.21269829996163,145.49623119999887,145.5131407000008,None,down,2.6139887000317685,145.5131407000008,None,145.5131407000008,146.87801609997405,0.0627416999777779,None,,,,,,,,,22,001,2019_Dec_25_1121,untitled,3.1.0,60.13974070136788,
_,_2,N,180,_,_,__2N180__,N,0,13,13,76,,,0.717,148.2112634999794,148.542819699971,148.55987399996957,148.84332389995689,148.8611109999474,None,up,2.4801766999880783,148.8611109999474,None,148.8611109999474,149.55892329994822,0.07624309998936951,None,,,,,,,,,22,001,2019_Dec_25_1121,untitled,3.1.0,60.13974070136788,
_,_5,M,270,_,_,__5M270__,N,0,14,14,46,,,1.04,151.41705069999443,151.75697249994846,151.7738361999509,152.0571957999491,152.07421869999962,None,up,2.41421519999858,152.07421869999962,None,152.07421869999962,153.08953779999865,0.06830709998030216,None,,,,,,,,,22,001,2019_Dec_25_1121,untitled,3.1.0,60.13974070136788,
195,G,N,90,R,N,195GN090RN,HRN,0,15,15,226,,,1.304,154.55789679998998,154.90463389997603,154.9227478999528,155.2039709999808,155.22076399996877,None,up,2.5006768999737687,155.22076399996877,None,155.22076399996877,156.502559799992,0.06245379999745637,None,,,,,,,,,22,001,2019_Dec_25_1121,untitled,3.1.0,60.13974070136788,
_,G,M,135,_,_,_GM135__,N,0,16,16,11,,,0.866,157.78858349996153,158.13533679995453,158.15179459995124,158.4352293999982,158.4516530999681,None,down,1.848855399992317,158.4516530999681,None,158.4516530999681,159.30085519998102,0.060573199996724725,None,,,,,,,,,22,001,2019_Dec_25_1121,untitled,3.1.0,60.13974070136788,
387,_4,N,90,R,N,387_4N090RN,HRN,0,17,17,258,,,1.062,160.37002239999129,160.7165639999439,160.73328849999234,161.0157682999852,161.03237199998694,None,down,2.40068419999443,161.03237199998694,None,161.03237199998694,162.08131049998337,0.06236609996994957,None,,,,,,,,,22,001,2019_Dec_25_1121,untitled,3.1.0,60.13974070136788,
236,G,M,135,L,N,236GM135LN,HLN,0,18,18,139,,,1.164,163.514966799994,163.84629699995276,163.86319059995003,164.14663169998676,164.16322019998915,None,down,2.849625500035472,164.16322019998915,None,164.16322019998915,165.31211790000089,0.07377829996403307,None,,,,,,,,,22,001,2019_Dec_25_1121,untitled,3.1.0,60.13974070136788,
491,_5,M,90,L,N,491_5M090LN,HLN,0,19,19,186,,,0.967,167.12199999997392,167.41096559999278,167.4436343999696,167.72704410000006,167.74356709996937,None,None,,167.74356709996937,None,167.74356709996937,168.69242219999433,0.10067220003111288,None,,,,,,,,,22,001,2019_Dec_25_1121,untitled,3.1.0,60.13974070136788,
429,_4,M,180,L,N,429_4M180LN,HLN,0,20,20,172,,,1.262,171.27853679994587,171.62339179997798,171.6410034999717,171.92296789999818,171.9399790999596,171.27853679994587,up,2.5145561000099406,171.9399790999596,None,171.9399790999596,173.18873779999558,0.06424999999580905,None,,,,,,,,,22,001,2019_Dec_25_1121,untitled,3.1.0,60.13974070136788,
141,F,M,180,R,N,141FM180RN,HRN,0,21,21,116,,,0.744,174.52585079998244,174.8709842999815,174.88731499999994,175.17048269999214,175.18688279995695,None,up,2.399811499984935,175.18688279995695,None,175.18688279995695,175.9191438999842,0.06367659999523312,None,,,,,,,,,22,001,2019_Dec_25_1121,untitled,3.1.0,60.13974070136788,
_,_4,M,135,_,_,__4M135__,N,0,22,22,35,,,0.966,177.66892609995557,178.00090689997887,178.01762239995878,178.30061759997625,178.3175251999637,None,down,2.699567199975718,178.3175251999637,None,178.3175251999637,179.2664960999973,0.0746752999839373,None,,,,,,,,,22,001,2019_Dec_25_1121,untitled,3.1.0,60.13974070136788,
_,_5,N,180,_,_,__5N180__,N,0,23,23,92,,,0.798,181.1184306999785,181.43149019998964,181.44832859997405,181.7308619999676,181.74736189999385,None,up,2.532847900001798,181.74736189999385,None,181.74736189999385,182.53137539996533,0.09369499998865649,None,,,,,,,,,22,001,2019_Dec_25_1121,untitled,3.1.0,60.13974070136788,
428,_4,M,135,L,N,428_4M135LN,HLN,0,24,24,171,,,1.327,184.35338169999886,184.69607249996625,184.71180779999122,184.99520669999765,185.01161639997736,None,down,2.983696300012525,185.01161639997736,None,185.01161639997736,186.32689479994588,0.06508240004768595,None,,,,,,,,,22,001,2019_Dec_25_1121,untitled,3.1.0,60.13974070136788,
194,G,N,45,R,N,194GN045RN,HRN,0,25,25,225,,,1.341,188.0645330999978,188.40825169999152,188.42504289996577,188.70852909999667,188.724987900001,None,up,2.7316370000480674,188.724987900001,None,188.724987900001,190.05718849995174,0.06256089999806136,None,,,,,,,,,22,001,2019_Dec_25_1121,untitled,3.1.0,60.13974070136788,
_,F,M,45,_,_,_FM045__,N,0,26,26,1,,,1.044,191.52905749995261,191.8729821999441,191.88967019994743,192.17244929994922,192.1886616999982,None,up,3.284071000001859,192.1886616999982,None,192.1886616999982,193.22109469998395,0.06498450000071898,None,,,,,,,,,22,001,2019_Dec_25_1121,untitled,3.1.0,60.13974070136788,
400,_4,M,315,R,N,400_4M315RN,HRN,0,27,27,167,,,1.0230000000000001,195.5685109999613,195.88515429996187,195.90173559996765,196.18561709998176,196.20215689996257,None,down,2.681206999986898,196.20215689996257,None,196.20215689996257,197.21853719995124,0.08520900004077703,None,,,,,,,,,22,001,2019_Dec_25_1121,untitled,3.1.0,60.13974070136788,
261,_2,N,180,R,N,261_2N180RN,HRN,0,28,28,244,,,1.087,198.96077029994922,199.2994192999904,199.31565819995012,199.59900039999047,199.61568909999914,None,None,,199.61568909999914,None,199.61568909999914,200.68131629994605,0.07038879999890924,None,,,,,,,,,22,001,2019_Dec_25_1121,untitled,3.1.0,60.13974070136788,
485,_5,N,180,L,N,485_5N180LN,HLN,0,29,29,284,,,0.743,203.1636316999793,203.49509959999705,203.51287219999358,203.7952167999465,203.81219819997204,203.1636316999793,up,2.4833412999869324,203.81219819997204,None,203.81219819997204,204.54560029995628,0.07592400000430644,None,,,,,,,,,22,001,2019_Dec_25_1121,untitled,3.1.0,60.13974070136788,
427,_4,M,90,L,N,427_4M090LN,HLN,0,30,30,170,,,0.875,206.37016109999968,206.70934389997274,206.72655639995355,207.00913859996945,207.02566059998935,None,down,2.881349500035867,207.02566059998935,None,207.02566059998935,207.89421259996016,0.06736180000007153,None,,,,,,,,,22,001,2019_Dec_25_1121,untitled,3.1.0,60.13974070136788,
399,_4,M,270,R,N,399_4M270RN,HRN,0,31,31,166,,,0.869,209.98916759999702,210.32367209997028,210.34016179997707,210.62329459999455,210.64219869999215,None,down,2.214641999977175,210.64219869999215,None,210.64219869999215,211.48869449994527,0.07374459999846295,None,,,,,,,,,22,001,2019_Dec_25_1121,untitled,3.1.0,60.13974070136788,
289,_2,N,0,L,N,289_2N000LN,HLN,0,32,32,248,,,1.355,212.94377879996318,213.2705989999813,213.2868526999955,213.5940818999661,213.5940818999661,None,up,2.4076839000335895,213.5940818999661,None,213.5940818999661,214.91902259999188,0.07906829996500164,None,,,,,,,,,22,001,2019_Dec_25_1121,untitled,3.1.0,60.13974070136788,
393,_4,M,0,R,N,393_4M000RN,HRN,0,33,33,160,,,0.839,216.07212709996384,216.41723659995478,216.43476089998148,216.71804929996142,216.73454659996787,None,down,2.0146015000063926,216.73454659996787,None,216.73454659996787,217.55037589999847,0.06275720003759488,None,,,,,,,,,22,001,2019_Dec_25_1121,untitled,3.1.0,60.13974070136788,
_,_4,M,180,_,_,__4M180__,N,0,34,34,36,,,0.872,218.81829789996846,219.16553119994933,219.18288679997204,219.46536289999494,219.48238709999714,None,up,1.814849200018216,219.48238709999714,None,219.48238709999714,220.33106959995348,0.06251289998181164,None,,,,,,,,,22,001,2019_Dec_25_1121,untitled,3.1.0,60.13974070136788,
_,_2,M,0,_,_,__2M000__,N,0,35,35,24,,,1.387,221.3654009999591,221.7128077999805,221.72979789995588,222.0134304999956,222.02927269996144,None,down,2.398603599984199,222.02927269996144,None,222.02927269996144,223.39550409995718,0.061121299979276955,None,,,,,,,,,22,001,2019_Dec_25_1121,untitled,3.1.0,60.13974070136788,
048,R,M,315,L,N,048RM315LN,HLN,0,36,36,111,,,1.158,224.50711029995,224.84334189997753,224.859980899957,225.14373739995062,225.16029579995666,None,up,2.8501366000273265,225.16029579995666,None,225.16029579995666,226.2930033999728,0.07170039997436106,None,,,,,,,,,22,001,2019_Dec_25_1121,untitled,3.1.0,60.13974070136788,
_,F,N,270,_,_,_FN270__,N,0,37,37,54,,,1.31,228.0805546999909,228.42402949999087,228.4408341999515,228.72437059995718,228.74144929996692,None,None,,228.74144929996692,None,228.74144929996692,230.0390339999576,0.06344800000078976,None,,,,,,,,,22,001,2019_Dec_25_1121,untitled,3.1.0,60.13974070136788,
131,F,N,90,R,N,131FN090RN,HRN,0,38,38,210,,,1.245,232.27773019997403,232.620323799958,232.63707459997386,232.91973719996167,232.93688529997598,232.27773019997403,up,2.415187700011302,232.93688529997598,None,232.93688529997598,234.16868499998236,0.0671056000282988,None,,,,,,,,,22,001,2019_Dec_25_1121,untitled,3.1.0,60.13974070136788,
_,G,N,45,_,_,_GN045__,N,0,39,39,57,,,1.322,235.42342359997565,235.76720589998877,235.78373359999387,236.06690109998453,236.0835007999558,None,up,2.1171762999729253,236.0835007999558,None,236.0835007999558,237.38261989998864,0.06390529999043792,None,,,,,,,,,22,001,2019_Dec_25_1121,untitled,3.1.0,60.13974070136788,
260,_2,N,135,R,N,260_2N135RN,HRN,0,40,40,243,,,1.241,238.27641169994604,238.614764799946,238.63186749996385,238.91438679996645,238.93136989994673,None,up,2.999364199989941,238.93136989994673,None,238.93136989994673,240.1636145999655,0.06874760001664981,None,,,,,,,,,22,001,2019_Dec_25_1121,untitled,3.1.0,60.13974070136788,
495,_5,M,270,L,N,495_5M270LN,HLN,0,41,41,190,,,1.199,242.00007229996845,242.34586529998342,242.3622722,242.64484599995194,242.66134229995077,None,down,2.550232299952768,242.66134229995077,None,242.66134229995077,243.84364279999863,0.06177120003849268,None,,,,,,,,,22,001,2019_Dec_25_1121,untitled,3.1.0,60.13974070136788,
037,R,N,180,L,N,037RN180LN,HLN,0,42,42,204,,,0.999,245.28381649998482,245.62576619995525,245.6422031999682,245.9252883999725,245.94212299998617,None,None,,245.94212299998617,None,245.94212299998617,246.92549319996033,0.06568939995486289,None,,,,,,,,,22,001,2019_Dec_25_1121,untitled,3.1.0,60.13974070136788,
202,G,M,45,R,N,202GM045RN,HRN,0,43,43,129,,,1.084,249.4764972999692,249.82196229998954,249.8386791999801,250.12245209998218,250.1387142999447,249.4764972999692,down,2.6662728000083007,250.1387142999447,None,250.1387142999447,251.20414190000156,0.06423989997711033,None,,,,,,,,,22,001,2019_Dec_25_1121,untitled,3.1.0,60.13974070136788,
297,_2,M,0,L,N,297_2M000LN,HLN,0,44,44,152,,,1.107,252.90957689995412,253.21906009997474,253.2354486999684,253.51959659997374,253.53546269994695,None,down,2.132260899990797,253.53546269994695,None,253.53546269994695,254.61732869996922,0.09657199995126575,None,,,,,,,,,22,001,2019_Dec_25_1121,untitled,3.1.0,60.13974070136788,
_,F,M,225,_,_,_FM225__,N,0,45,45,5,,,0.9460000000000001,255.75000349996844,256.08297940000193,256.099423299951,256.38306379999267,256.3993856999441,None,down,2.732535699964501,256.3993856999441,None,256.3993856999441,257.33159259997774,0.0739801999880001,None,,,,,,,,,22,001,2019_Dec_25_1121,untitled,3.1.0,60.13974070136788,
_,_2,M,225,_,_,__2M225__,N,0,46,46,29,,,1.206,259.2079354999587,259.5321211999981,259.56407109997235,259.8460622999701,259.8627565999632,None,down,3.1998148999991827,259.8627565999632,None,259.8627565999632,261.0458922999678,0.06905180000467226,None,,,,,,,,,22,001,2019_Dec_25_1121,untitled,3.1.0,60.13974070136788,
_,_4,M,270,_,_,__4M270__,N,0,47,47,38,,,1.072,263.1318174999906,263.4766402999521,263.49329959996976,263.77703359996667,263.79351009998936,None,down,2.5643379999673925,263.79351009998936,None,263.79351009998936,264.8424689999665,0.06267700000898913,None,,,,,,,,,22,001,2019_Dec_25_1121,untitled,3.1.0,60.13974070136788,
482,_5,N,45,L,N,482_5N045LN,HLN,0,48,48,281,,,1.346,266.42714359995443,266.7737152999616,266.79073169996263,267.07411749998573,267.0905086999992,None,up,2.7483630999922752,267.0905086999992,None,267.0905086999992,268.4223029999994,0.06264229997759685,None,,,,,,,,,22,001,2019_Dec_25_1121,untitled,3.1.0,60.13974070136788,
425,_4,M,0,L,N,425_4M000LN,HLN,0,49,49,168,,,1.327,269.9113721999456,270.2539954999811,270.27093339996645,270.55368349998025,270.5704107999918,None,down,2.400559199973941,270.5704107999918,None,270.5704107999918,271.886357099982,0.06577400001697242,None,,,,,,,,,22,001,2019_Dec_25_1121,untitled,3.1.0,60.13974070136788,
449,_5,N,0,R,N,449_5N000RN,HRN,0,50,50,272,,,0.712,273.0422959999996,273.3850432999898,273.40115629998036,273.684900799999,273.70151579997037,None,up,1.684741600009147,273.70151579997037,None,273.70151579997037,274.40076899999985,0.0642608999623917,None,,,,,,,,,22,001,2019_Dec_25_1121,untitled,3.1.0,60.13974070136788,
494,_5,M,225,L,N,494_5M225LN,HLN,0,51,51,189,,,1.221,275.45514339994406,275.79917499999283,275.8159248000011,276.09903929999564,276.1154350999859,None,down,2.3681328000384383,276.1154350999859,None,276.1154350999859,277.3144101999933,0.06222560000605881,None,,,,,,,,,22,001,2019_Dec_25_1121,untitled,3.1.0,60.13974070136788,
395,_4,M,90,R,N,395_4M090RN,HRN,0,52,52,162,,,0.78,278.55292079999344,278.89723559998674,278.91316070000175,279.19635629997356,279.2144468999468,None,down,2.2498239999986254,279.2144468999468,None,279.2144468999468,279.9796906999545,0.06253460003063083,None,,,,,,,,,22,001,2019_Dec_25_1121,untitled,3.1.0,60.13974070136788,
038,R,N,225,L,N,038RN225LN,HLN,0,53,53,205,,,0.993,281.5322432999965,281.8773965999717,281.8942259999458,282.17732779996004,282.19320270000026,None,up,2.3827525000087917,282.19320270000026,None,282.19320270000026,283.1759811999509,0.06115890003275126,None,,,,,,,,,22,001,2019_Dec_25_1121,untitled,3.1.0,60.13974070136788,
_,_4,N,225,_,_,__4N225__,N,0,54,54,85,,,0.88,284.64911159995245,284.99142619996564,285.00775389996124,285.29065999999875,285.3075086999452,None,up,2.7982922000228427,285.3075086999452,None,285.3075086999452,286.1733825999545,0.06642550003016368,None,,,,,,,,,22,001,2019_Dec_25_1121,untitled,3.1.0,60.13974070136788,
_,_4,N,90,_,_,__4N090__,N,0,55,55,82,,,1.082,288.1751579999691,288.5218248000019,288.5384898999473,288.82159799995134,288.8383521999931,None,up,2.1645537999575026,288.8383521999931,None,288.8383521999931,289.90416169998934,0.06248530000448227,None,,,,,,,,,22,001,2019_Dec_25_1121,untitled,3.1.0,60.13974070136788,
463,_5,M,270,R,N,463_5M270RN,HRN,0,56,56,182,,,1.1420000000000001,291.0741500000004,291.41884539998136,291.43638779997127,291.71900419995654,291.7355177999707,None,down,2.899831799964886,291.7355177999707,None,291.7355177999707,292.85083279997343,0.06427680002525449,None,,,,,,,,,22,001,2019_Dec_25_1121,untitled,3.1.0,60.13974070136788,
291,_2,N,90,L,N,291_2N090LN,HLN,0,57,57,250,,,1.172,294.70696489996044,295.0499806999578,295.0657976999646,295.34961929998826,295.3664942999603,None,up,2.0662378999986686,295.3664942999603,None,295.3664942999603,296.5144556000014,0.0649320000084117,None,,,,,,,,,22,001,2019_Dec_25_1121,untitled,3.1.0,60.13974070136788,
043,R,M,90,L,N,043RM090LN,HLN,0,58,58,106,,,1.03,297.5039791999734,297.84720359998755,297.8634296999662,298.14672639995115,298.1629330999567,None,down,2.24834060005378,298.1629330999567,None,298.1629330999567,299.1796982999658,0.0641436000005342,None,,,,,,,,,22,001,2019_Dec_25_1121,untitled,3.1.0,60.13974070136788,
_,_4,N,270,_,_,__4N270__,N,0,59,59,86,,,1.059,300.4924604999833,300.82705169997644,300.8439375999733,301.1270808999543,301.1437712999759,None,up,2.1193291999516077,301.1437712999759,None,301.1437712999759,302.192444299988,0.07335159997455776,None,,,,,,,,,22,001,2019_Dec_25_1121,untitled,3.1.0,60.13974070136788,
_,F,M,0,_,_,_FM000__,N,0,60,60,0,,,1.225,303.3615950999665,303.67495139996754,303.6916418999899,303.9746817999985,303.9918363999459,None,down,2.3171935999998823,303.9918363999459,None,303.9918363999459,305.2067943000002,0.08830239996314049,None,,,,,,,,,22,001,2019_Dec_25_1121,untitled,3.1.0,60.13974070136788,
162,F,N,45,L,N,162FN045LN,HLN,0,61,61,217,,,0.75,306.38235179998446,306.7221317999647,306.7389639999601,307.02200579998316,307.03865589998895,None,up,1.7508948000031523,307.03865589998895,None,307.03865589998895,307.7713854999747,0.06652150000445545,None,,,,,,,,,22,001,2019_Dec_25_1121,untitled,3.1.0,60.13974070136788,
233,G,M,0,L,N,233GM000LN,HLN,0,62,62,136,,,1.256,308.8599474999937,309.2034190999693,309.22208149998914,309.50325049995445,309.51968689996284,None,down,2.1012850999832153,309.51968689996284,None,309.51968689996284,310.75229919998674,0.06348340003751218,None,,,,,,,,,22,001,2019_Dec_25_1121,untitled,3.1.0,60.13974070136788,
483,_5,N,90,L,N,483_5N090LN,HLN,0,63,63,282,,,0.732,311.69088660000125,312.03435529995477,312.0510282999603,312.33410479995655,312.3509798999876,None,up,1.6320851999917068,312.3509798999876,None,312.3509798999876,313.0672217999818,0.06351910001831129,None,,,,,,,,,22,001,2019_Dec_25_1121,untitled,3.1.0,60.13974070136788,
036,R,N,135,L,N,036RN135LN,HLN,0,64,64,203,,,0.9440000000000001,314.0555404999759,314.3990979999653,314.41583589999937,314.6988999999594,314.7152977999649,None,down,2.2156977999839,314.7152977999649,None,314.7152977999649,315.64759469998535,0.06577910005580634,None,,,,,,,,,22,001,2019_Dec_25_1121,untitled,3.1.0,60.13974070136788,
_,R,M,180,_,_,_RM180__,N,0,65,65,20,,,1.087,317.0105054999585,317.34621499996865,317.3628307999461,317.6457376999897,317.66226579999784,None,down,2.6484076000051573,317.66226579999784,None,317.66226579999784,318.72807359998114,0.07166769995819777,None,,,,,,,,,22,001,2019_Dec_25_1121,untitled,3.1.0,60.13974070136788,
453,_5,N,180,R,N,453_5N180RN,HRN,0,66,66,276,,,1.317,320.3805861999863,320.7270276999916,320.7431925999699,321.0278943000012,321.04384129995015,None,down,2.6643390000099316,321.04384129995015,None,321.04384129995015,322.3418720999616,0.06357669999124482,None,,,,,,,,,22,001,2019_Dec_25_1121,untitled,3.1.0,60.13974070136788,
303,_2,M,270,L,N,303_2M270LN,HLN,0,67,67,158,,,1.133,323.777877799992,324.1250565999653,324.1405771999853,324.42361059994437,324.44011789996875,None,down,3.383930300013162,324.44011789996875,None,324.44011789996875,325.55585529998643,0.06318170001031831,None,,,,,,,,,22,001,2019_Dec_25_1121,untitled,3.1.0,60.13974070136788,
_,G,M,0,_,_,_GM000__,N,0,68,68,8,,,1.281,327.8924282999942,328.23705159995006,328.2537160999491,328.5370666999952,328.5530972999986,None,up,2.0834313000086695,328.5530972999986,None,328.5530972999986,329.81909249996534,0.06196069996803999,None,,,,,,,,,22,001,2019_Dec_25_1121,untitled,3.1.0,60.13974070136788,
_,R,N,135,_,_,_RN135__,N,0,69,69,67,,,0.866,330.709710599971,331.0507723999908,331.06781359994784,331.35070159996394,331.36721529997885,None,up,1.948986799980048,331.36721529997885,None,331.36721529997885,332.21647309995024,0.06609219999518245,None,,,,,,,,,22,001,2019_Dec_25_1121,untitled,3.1.0,60.13974070136788,
290,_2,N,45,L,N,290_2N045LN,HLN,0,70,70,249,,,1.029,333.38449279998895,333.7332148999558,333.7490762999514,334.03285550000146,334.0487527999794,None,up,2.0492089000181295,334.0487527999794,None,334.0487527999794,335.064936699986,0.0609548999927938,None,,,,,,,,,22,001,2019_Dec_25_1121,untitled,3.1.0,60.13974070136788,
386,_4,N,45,R,N,386_4N045RN,HRN,0,71,71,257,,,1.344,336.1892714999849,336.5135287999874,336.5298372999532,336.8129265999887,336.8297161999508,None,up,2.51473639998585,336.8297161999508,None,336.8297161999508,338.1616393000004,0.08227319997968152,None,,,,,,,,,22,001,2019_Dec_25_1121,untitled,3.1.0,60.13974070136788,
_,_5,M,90,_,_,__5M090__,N,0,72,72,42,,,0.798,339.4120008999598,339.76034909999,339.7764965999522,340.0599669999792,340.0769700999954,None,down,2.2663213000050746,340.0769700999954,None,340.0769700999954,340.8595161999692,0.060693500039633363,None,,,,,,,,,22,001,2019_Dec_25_1121,untitled,3.1.0,60.13974070136788,
272,_2,M,315,R,N,272_2M315RN,HRN,0,73,73,151,,,0.861,342.41200239997124,342.75742529996205,342.77522099995986,343.0573783,343.07382329995744,None,down,2.2988779000006616,343.07382329995744,None,343.07382329995744,343.9230185999768,0.06145819998346269,None,,,,,,,,,22,001,2019_Dec_25_1121,untitled,3.1.0,60.13974070136788,
012,R,M,135,R,N,012RM135RN,HRN,0,74,74,99,,,0.8310000000000001,345.44142189994454,345.7897320999764,345.805470399966,346.0877338999999,346.1047098999843,None,down,2.181894799985457,346.1047098999843,None,346.1047098999843,346.9207652999903,0.06055309996008873,None,,,,,,,,,22,001,2019_Dec_25_1121,untitled,3.1.0,60.13974070136788,
_,_4,N,0,_,_,__4N000__,N,0,75,75,80,,,1.348,348.3639856999507,348.70225370000117,348.71898009994766,349.0036855999497,349.01941859995713,None,up,2.5311688000219874,349.01941859995713,None,349.01941859995713,350.3506178999669,0.07008780003525317,None,,,,,,,,,22,001,2019_Dec_25_1121,untitled,3.1.0,60.13974070136788,
458,_5,M,45,R,N,458_5M045RN,HRN,0,76,76,177,,,0.8190000000000001,351.6479994999827,351.96626009995816,351.9828399999533,352.26588929997524,352.282642999955,None,down,2.134092599968426,352.282642999955,None,352.282642999955,353.0816949,0.08929040003567934,None,,,,,,,,,22,001,2019_Dec_25_1121,untitled,3.1.0,60.13974070136788,
205,G,M,180,R,N,205GM180RN,HRN,0,77,77,132,,,0.903,354.4899804999586,354.83035559998825,354.84701519994996,355.12981699995,355.14709819998825,None,down,2.714314400043804,355.14709819998825,None,355.14709819998825,356.0289548999863,0.0667738999472931,None,,,,,,,,,22,001,2019_Dec_25_1121,untitled,3.1.0,60.13974070136788,
143,F,M,270,R,N,143FM270RN,HRN,0,78,78,118,,,1.191,357.9291254999698,358.2770751999924,358.2941014999524,358.5772620999487,358.59426240000175,None,down,2.3316312999813817,358.59426240000175,None,358.59426240000175,359.75913469999796,0.0609744000248611,None,,,,,,,,,22,001,2019_Dec_25_1121,untitled,3.1.0,60.13974070136788,
033,R,N,0,L,N,033RN000LN,HLN,0,79,79,200,,,0.787,361.01454779994674,361.3413719999953,361.3589433999732,361.6415918999701,361.65811139997095,None,up,1.6157385000260547,361.65811139997095,None,361.65811139997095,362.4235903999652,0.08020570001099259,None,,,,,,,,,22,001,2019_Dec_25_1121,untitled,3.1.0,60.13974070136788,
464,_5,M,315,R,N,464_5M315RN,HRN,0,80,80,183,,,1.223,363.35957249999046,363.68911089998437,363.7063378999592,363.98949709994486,364.0062328999629,None,down,2.6150632000062615,364.0062328999629,None,364.0062328999629,365.20442339999136,0.0779329999932088,None,,,,,,,,,22,001,2019_Dec_25_1121,untitled,3.1.0,60.13974070136788,
208,G,M,315,R,N,208GM315RN,HRN,0,81,81,135,,,0.796,366.71554989996366,367.0363339999458,367.05272699997295,367.33600129996194,367.35321659996407,None,down,1.6316379000199959,367.35321659996407,None,367.35321659996407,368.1357244999963,0.08599709998816252,None,,,,,,,,,22,001,2019_Dec_25_1121,untitled,3.1.0,60.13974070136788,
262,_2,N,225,R,N,262_2N225RN,HRN,0,82,82,245,,,0.8240000000000001,369.05567909998354,369.40131229994586,369.41784159996314,369.7010727999732,369.7175776999793,None,up,1.9986909999861382,369.7175776999793,None,369.7175776999793,370.51658679998945,0.0639282000483945,None,,,,,,,,,22,001,2019_Dec_25_1121,untitled,3.1.0,60.13974070136788,
016,R,M,315,R,N,016RM315RN,HRN,0,83,83,103,,,1.1260000000000001,371.78800079994835,372.1320135999704,372.14865309995366,372.43222779995995,372.44841059995815,None,None,,372.44841059995815,None,372.44841059995815,373.5639941999689,0.06474870000965893,None,,,,,,,,,22,001,2019_Dec_25_1121,untitled,3.1.0,60.13974070136788,
292,_2,N,135,L,N,292_2N135LN,HLN,0,84,84,251,,,0.721,375.97996249998687,376.3290384999709,376.3448518999503,376.6279100999818,376.6446287999861,375.97996249998687,down,3.2642963999533094,376.6446287999861,None,376.6446287999861,377.3445822999929,0.05967190000228584,None,,,,,,,,,22,001,2019_Dec_25_1121,untitled,3.1.0,60.13974070136788,
487,_5,N,270,L,N,487_5N270LN,HLN,0,85,85,286,,,0.924,379.9765574999619,380.32503539999016,380.3423029999831,380.6257595999632,380.64147529995535,None,up,1.8486006999737583,380.64147529995535,None,380.64147529995535,381.5409337999881,0.060451700002886355,None,,,,,,,,,22,001,2019_Dec_25_1121,untitled,3.1.0,60.13974070136788,
431,_4,M,270,L,N,431_4M270LN,HLN,0,86,86,174,,,1.288,382.5724885999807,382.9062890999485,382.92242649995023,383.20573329995386,383.22226149996277,None,down,2.4485848999465816,383.22226149996277,None,383.22226149996277,384.4879543999559,0.07468570000492036,None,,,,,,,,,22,001,2019_Dec_25_1121,untitled,3.1.0,60.13974070136788,
175,F,M,270,L,N,175FM270LN,HLN,0,87,87,126,,,0.9430000000000001,385.73945029999595,386.08753530000104,386.1034332999843,386.3863678999478,386.4027950000018,None,down,3.4312063999823295,386.4027950000018,None,386.4027950000018,387.33568819996435,0.061681199993472546,None,,,,,,,,,22,001,2019_Dec_25_1121,untitled,3.1.0,60.13974070136788,
_,G,M,45,_,_,_GM045__,N,0,88,88,9,,,1.083,389.9129463999998,390.25066009996226,390.26604009995935,390.5494370999513,390.5657477999921,None,down,2.0319757999968715,390.5657477999921,None,390.5657477999921,391.6313570999773,0.07018979999702424,None,,,,,,,,,22,001,2019_Dec_25_1121,untitled,3.1.0,60.13974070136788,
_,G,M,270,_,_,_GM270__,N,0,89,89,14,,,1.043,392.6729871999705,393.0136351999827,393.03046949999407,393.3135377999861,393.33010049996665,None,down,2.00031560001662,393.33010049996665,None,393.33010049996665,394.3621101999888,0.06788499996764585,None,,,,,,,,,22,001,2019_Dec_25_1121,untitled,3.1.0,60.13974070136788,
492,_5,M,135,L,N,492_5M135LN,HLN,0,90,90,187,,,1.135,395.3970780999516,395.74473269999726,395.76190879999194,396.0456092999666,396.06112009997014,None,down,2.8336770000169054,396.06112009997014,None,396.06112009997014,397.17679069994483,0.059439499978907406,None,,,,,,,,,22,001,2019_Dec_25_1121,untitled,3.1.0,60.13974070136788,
_,G,N,135,_,_,_GN135__,N,0,91,91,59,,,1.2730000000000001,398.9602993999724,399.30825309996726,399.3252549999743,399.6102269999683,399.62536799994996,None,down,2.25022040004842,399.62536799994996,None,399.62536799994996,400.8741533999564,0.05862289998913184,None,,,,,,,,,22,001,2019_Dec_25_1121,untitled,3.1.0,60.13974070136788,
142,F,M,225,R,N,142FM225RN,HRN,0,92,92,117,,,1.1420000000000001,401.94533879996743,402.28924859996187,402.3053130999906,402.58934349997435,402.60585229995195,None,down,3.3478316999971867,402.60585229995195,None,402.60585229995195,403.73751159996027,0.06285129999741912,None,,,,,,,,,22,001,2019_Dec_25_1121,untitled,3.1.0,60.13974070136788,
035,R,N,90,L,N,035RN090LN,HLN,0,93,93,202,,,1.055,406.0199035999831,406.3690316999564,406.3855825999635,406.6688105999492,406.6854435999994,None,up,2.3814810999901965,406.6854435999994,None,406.6854435999994,407.7179109999561,0.05915719998301938,None,,,,,,,,,22,001,2019_Dec_25_1121,untitled,3.1.0,60.13974070136788,
010,R,M,45,R,N,010RM045RN,HRN,0,94,94,97,,,1.226,409.1437583999941,409.4826839999878,409.4990385999554,409.7821986999479,409.7989621000015,None,down,2.464914600015618,409.7989621000015,None,409.7989621000015,411.0157522999798,0.0692269999999553,None,,,,,,,,,22,001,2019_Dec_25_1121,untitled,3.1.0,60.13974070136788,
_,R,N,225,_,_,_RN225__,N,0,95,95,69,,,0.9410000000000001,412.33146449999185,412.6804970999947,412.6974885999807,412.97987069998635,412.9971743999631,None,up,1.9840156999998726,412.9971743999631,None,412.9971743999631,413.91204899997683,0.06049239996355027,None,,,,,,,,,22,001,2019_Dec_25_1121,untitled,3.1.0,60.13974070136788,
486,_5,N,225,L,N,486_5N225LN,HLN,0,96,96,285,,,0.8140000000000001,415.04973019997124,415.39434769999934,415.41104119998636,415.6939660999924,415.7109989999444,None,up,2.1980678000254557,415.7109989999444,None,415.7109989999444,416.51015429996187,0.06179439998231828,None,,,,,,,,,22,001,2019_Dec_25_1121,untitled,3.1.0,60.13974070136788,
_,F,N,90,_,_,_FN090__,N,0,97,97,50,,,1.221,417.9772361999494,418.32517819997156,418.34178039996186,418.6268224999658,418.6414502999978,None,up,2.4496314999996684,418.6414502999978,None,418.6414502999978,419.84075429994846,0.06099520000861958,None,,,,,,,,,22,001,2019_Dec_25_1121,untitled,3.1.0,60.13974070136788,
455,_5,N,270,R,N,455_5N270RN,HRN,0,98,98,278,,,1.1400000000000001,421.1628093999461,421.50606229994446,421.5223243999644,421.8056573999929,421.8220092999982,None,up,2.115769999974873,421.8220092999982,None,421.8220092999982,422.9375314999488,0.06495120003819466,None,,,,,,,,,22,001,2019_Dec_25_1121,untitled,3.1.0,60.13974070136788,
_,_5,N,270,_,_,__5N270__,N,0,99,99,94,,,1.226,424.0141212999588,424.35294079995947,424.3697273999569,424.6529356999672,424.66950389998965,None,up,1.8822248000069521,424.66950389998965,None,424.66950389998965,425.8858977999771,0.06871050002519041,None,,,,,,,,,22,001,2019_Dec_25_1121,untitled,3.1.0,60.13974070136788,
041,R,M,0,L,N,041RM000LN,HLN,0,100,100,104,,,1.1280000000000001,426.6210204999661,426.9675077999709,426.9841901999898,427.26742920000106,427.28372869995655,None,down,1.9989667999907397,427.28372869995655,None,427.28372869995655,428.3999999999651,0.06143910001264885,None,,,,,,,,,22,001,2019_Dec_25_1121,untitled,3.1.0,60.13974070136788,
232,G,N,315,L,N,232GN315LN,HLN,0,101,101,239,,,1.1500000000000001,429.352930699999,429.69882719998714,429.71545339998556,429.9992741999449,430.01536279998254,None,up,1.9505128000164405,430.01536279998254,None,430.01536279998254,431.14729949994944,0.06326030002674088,None,,,,,,,,,22,001,2019_Dec_25_1121,untitled,3.1.0,60.13974070136788,
456,_5,N,315,R,N,456_5N315RN,HRN,0,102,102,279,,,1.027,432.03367829998024,432.37953119998565,432.39625789999263,432.6793702999712,432.6957877999521,None,up,1.8017963000456803,432.6957877999521,None,432.6957877999521,433.7118170999456,0.06096410000463948,None,,,,,,,,,22,001,2019_Dec_25_1121,untitled,3.1.0,60.13974070136788,
_,G,N,90,_,_,_GN090__,N,0,103,103,58,,,0.961,434.56527079996886,434.9106778999558,434.92761569999857,435.2104124999605,435.22700629994506,None,up,1.9661144000128843,435.22700629994506,None,435.22700629994506,436.1764836999937,0.060007199994288385,None,,,,,,,,,22,001,2019_Dec_25_1121,untitled,3.1.0,60.13974070136788,
166,F,N,225,L,N,166FN225LN,HLN,0,104,104,221,,,1.171,437.26170649996493,437.6091319999541,437.62517009995645,437.9086103999871,437.92472029995406,None,up,1.882347500009928,437.92472029995406,None,437.92472029995406,439.07349029998295,0.06103119999170303,None,,,,,,,,,22,001,2019_Dec_25_1121,untitled,3.1.0,60.13974070136788,
_,_4,M,225,_,_,__4M225__,N,0,105,105,37,,,0.75,439.88496779999696,440.2224544999772,440.2391202999861,440.5229528999771,440.5390362999751,None,down,2.3514398999977857,440.5390362999751,None,440.5390362999751,441.2717233999865,0.070301300031133,None,,,,,,,,,22,001,2019_Dec_25_1121,untitled,3.1.0,60.13974070136788,
046,R,M,225,L,N,046RM225LN,HLN,0,106,106,109,,,1.361,442.95920829998795,443.30332079995424,443.3199168999563,443.6030420999741,443.6395634999499,None,down,2.878517000004649,443.6395634999499,None,443.6395634999499,444.96894959994825,0.061885599978268147,None,,,,,,,,,22,001,2019_Dec_25_1121,untitled,3.1.0,60.13974070136788,
259,_2,N,90,R,N,259_2N090RN,HRN,0,107,107,242,,,1.276,446.6100386999897,446.9338475999539,446.9499594999943,447.2333860999788,447.250751799962,None,up,2.0977366999723017,447.250751799962,None,447.250751799962,448.515362599981,0.08138150000013411,None,,,,,,,,,22,001,2019_Dec_25_1121,untitled,3.1.0,60.13974070136788,
_,_5,M,180,_,_,__5M180__,N,0,108,108,44,,,0.972,449.41577129997313,449.7660010999534,449.78104929998517,450.0644460999756,450.08099979994586,None,None,,450.08099979994586,None,450.08099979994586,451.029791799956,0.060133099963422865,None,,,,,,,,,22,001,2019_Dec_25_1121,untitled,3.1.0,60.13974070136788,
_,_2,N,225,_,_,__2N225__,N,0,109,109,77,,,1.068,453.61558199999854,453.96076999994693,453.9774853999843,454.26024699996924,454.2769374999916,453.61558199999854,up,1.751467699999921,454.2769374999916,None,454.2769374999916,455.3261720999726,0.06375160004245117,None,,,,,,,,,22,001,2019_Dec_25_1121,untitled,3.1.0,60.13974070136788,
_,R,N,0,_,_,_RN000__,N,0,110,110,64,,,0.771,456.0976117999526,456.4426434999914,456.45844249997754,456.7419277000008,456.7584313999978,None,up,1.5015732999891043,456.7584313999978,None,456.7584313999978,457.5080698999809,0.060888600011821836,None,,,,,,,,,22,001,2019_Dec_25_1121,untitled,3.1.0,60.13974070136788,
417,_4,N,0,L,N,417_4N000LN,HLN,0,111,111,264,,,1.256,458.3263249999727,458.67388849996496,458.6908436999656,458.97329569997964,458.98958899994614,None,up,1.9171076000202447,458.98958899994614,None,458.98958899994614,460.2218249999569,0.059604400012176484,None,,,,,,,,,22,001,2019_Dec_25_1121,untitled,3.1.0,60.13974070136788,
454,_5,N,225,R,N,454_5N225RN,HRN,0,112,112,277,,,0.9500000000000001,460.9865867999615,461.32141889998456,461.33784029999515,461.6212365999818,461.6370928999968,None,up,1.6851904999930412,461.6370928999968,None,461.6370928999968,462.5699282999849,0.07266270002583042,None,,,,,,,,,22,001,2019_Dec_25_1121,untitled,3.1.0,60.13974070136788,
460,_5,M,135,R,N,460_5M135RN,HRN,0,113,113,179,,,0.744,463.39090659999056,463.73637889995007,463.752480199968,464.0352638999466,464.052102799993,None,up,1.981766199984122,464.052102799993,None,464.052102799993,464.78439309995156,0.0615867999731563,None,,,,,,,,,22,001,2019_Dec_25_1121,untitled,3.1.0,60.13974070136788,
_,F,N,135,_,_,_FN135__,N,0,114,114,51,,,0.756,466.1016439999803,466.45006699999794,466.4685109999846,466.75020579999546,466.75020579999546,None,up,1.748468599980697,466.75020579999546,None,466.75020579999546,467.49958509998396,0.06053110002540052,None,,,,,,,,,22,001,2019_Dec_25_1121,untitled,3.1.0,60.13974070136788,
_,_2,M,315,_,_,__2M315__,N,0,115,115,31,,,0.706,468.5728285999503,468.914524599968,468.93221719999565,469.2143324999488,469.2310565999942,None,down,3.1808854999835603,469.2310565999942,None,469.2310565999942,469.91330219997326,0.06613819999620318,None,,,,,,,,,22,001,2019_Dec_25_1121,untitled,3.1.0,60.13974070136788,
234,G,M,45,L,N,234GM045LN,HLN,0,116,116,137,,,1.254,472.4810707999859,472.8290385999717,472.8441964999656,473.1272968999692,473.1444727999624,None,down,2.398191299987957,473.1444727999624,None,473.1444727999624,474.3765813999926,0.06168769998475909,None,,,,,,,,,22,001,2019_Dec_25_1121,untitled,3.1.0,60.13974070136788,
133,F,N,180,R,N,133FN180RN,HRN,0,117,117,212,,,0.886,475.6135919999797,475.95798369997647,475.97483849996934,476.25772339996183,476.27471239998704,None,up,2.065487399988342,476.27471239998704,None,476.27471239998704,477.1402994999662,0.06368090002797544,None,,,,,,,,,22,001,2019_Dec_25_1121,untitled,3.1.0,60.13974070136788,
_,R,N,270,_,_,_RN270__,N,0,118,118,70,,,1.1500000000000001,478.41002049995586,478.7561226999969,478.7724478999735,479.05542259995127,479.07225099997595,None,up,2.1010295000160113,479.07225099997595,None,479.07225099997595,480.2045111999614,0.06324930000118911,None,,,,,,,,,22,001,2019_Dec_25_1121,untitled,3.1.0,60.13974070136788,
493,_5,M,180,L,N,493_5M180LN,HLN,0,119,119,188,,,1.172,481.2422379999771,481.58664549997775,481.6028839999926,481.88659249997,481.90469179995125,None,down,2.714931800030172,481.90469179995125,None,481.90469179995125,483.052146299975,0.06225750001613051,None,,,,,,,,,22,001,2019_Dec_25_1121,untitled,3.1.0,60.13974070136788,
011,R,M,90,R,N,011RM090RN,HRN,0,120,120,98,,,1.096,484.68891430000076,485.03331679996336,485.050138599996,485.3332474999479,485.3499570999993,None,down,2.617596600030083,485.3499570999993,None,485.3499570999993,486.4321284999605,0.06265700003132224,None,,,,,,,,,22,001,2019_Dec_25_1121,untitled,3.1.0,60.13974070136788,
_,_5,N,135,_,_,__5N135__,N,0,121,121,91,,,1.264,488.0356022999622,488.38097389996983,488.39770569995744,488.68084799998906,488.6973507999792,None,up,2.2820043000392616,488.6973507999792,None,488.6973507999792,489.94655939994846,0.06086229998618364,None,,,,,,,,,22,001,2019_Dec_25_1121,untitled,3.1.0,60.13974070136788,
134,F,N,225,R,N,134FN225RN,HRN,0,122,122,213,,,1.3800000000000001,491.0541329999687,491.39474659995176,491.4115646999562,491.6950995999505,491.71447179996176,None,up,2.195062999962829,491.71447179996176,None,491.71447179996176,493.0770947999554,0.06756560003850609,None,,,,,,,,,22,001,2019_Dec_25_1121,untitled,3.1.0,60.13974070136788,
039,R,N,270,L,N,039RN270LN,HLN,0,123,123,206,,,1.06,493.97738119994756,494.32592159998603,494.34237629995914,494.6252255999716,494.6422042999766,None,up,1.8153213000041433,494.6422042999766,None,494.6422042999766,495.69098409998696,0.060330000007525086,None,,,,,,,,,22,001,2019_Dec_25_1121,untitled,3.1.0,60.13974070136788,
_,_2,M,45,_,_,__2M045__,N,0,124,124,25,,,0.8130000000000001,496.5254544999916,496.87392279994674,496.8908673999831,497.17384219996165,497.18965999997454,None,down,2.265276800026186,497.18965999997454,None,497.18965999997454,497.9890491999686,0.06136539997532964,None,,,,,,,,,22,001,2019_Dec_25_1121,untitled,3.1.0,60.13974070136788,
013,R,M,180,R,N,013RM180RN,HRN,0,125,125,100,,,0.71,499.5280772999977,499.8707860999857,499.887204699975,500.1702578999684,500.18680799996946,None,up,2.298581499955617,500.18680799996946,None,500.18680799996946,500.8861758999992,0.06542689999332651,None,,,,,,,,,22,001,2019_Dec_25_1121,untitled,3.1.0,60.13974070136788,
015,R,M,270,R,N,015RM270RN,HRN,0,126,126,102,,,1.0050000000000001,502.5533804000006,502.9017868999508,502.91776189999655,503.20123069995316,503.21948519995203,None,down,1.8817961000022478,503.21948519995203,None,503.21948519995203,504.2006246999954,0.06056979997083545,None,,,,,,,,,22,001,2019_Dec_25_1121,untitled,3.1.0,60.13974070136788,
171,F,M,90,L,N,171FM090LN,HLN,0,127,127,122,,,1.008,505.1974899999914,505.51616479997756,505.5327753999736,505.8155722999945,505.8321295999922,None,down,1.866851200000383,505.8321295999922,None,505.8321295999922,506.83259279996855,0.08732319995760918,None,,,,,,,,,22,001,2019_Dec_25_1121,untitled,3.1.0,60.13974070136788,
_,F,N,315,_,_,_FN315__,N,0,128,128,55,,,1.297,507.78272069996456,508.11345879995497,508.1303847999661,508.41321989998687,508.42986719997134,None,up,2.067267000034917,508.42986719997134,None,508.42986719997134,509.71204569999827,0.07573390001198277,None,,,,,,,,,22,001,2019_Dec_25_1121,untitled,3.1.0,60.13974070136788,
300,_2,M,135,L,N,300_2M135LN,HLN,0,129,129,155,,,0.9480000000000001,510.5665456999559,510.9110231999657,510.9282155999681,511.21116499998607,511.2276004999876,None,down,2.3492348000290804,511.2276004999876,None,511.2276004999876,512.1593205999816,0.06324019999010488,None,,,,,,,,,22,001,2019_Dec_25_1121,untitled,3.1.0,60.13974070136788,
397,_4,M,180,R,N,397_4M180RN,HRN,0,130,130,164,,,0.741,513.6558843999519,513.9919210999506,514.0086022999603,514.2917038999731,514.308096599998,None,up,1.549343399994541,514.308096599998,None,514.308096599998,515.0409115999937,0.07153760001529008,None,,,,,,,,,22,001,2019_Dec_25_1121,untitled,3.1.0,60.13974070136788,
_,F,N,0,_,_,_FN000__,N,0,131,131,48,,,1.197,515.9392670999514,516.2729657999589,516.2894249999663,516.5726846999605,516.5892668999732,None,down,2.551095000002533,516.5892668999732,None,516.5892668999732,517.7720074999961,0.07449809997342527,None,,,,,,,,,22,001,2019_Dec_25_1121,untitled,3.1.0,60.13974070136788,
389,_4,N,180,R,N,389_4N180RN,HRN,0,132,132,260,,,0.999,519.2102147999685,519.5536376999808,519.5704480999848,519.853844599973,519.8699513999745,None,up,2.881613200006541,519.8699513999745,None,519.8699513999745,520.8774643999641,0.06321430002572015,None,,,,,,,,,22,001,2019_Dec_25_1121,untitled,3.1.0,60.13974070136788,
_,_5,M,135,_,_,__5M135__,N,0,133,133,43,,,1.309,522.8220367999747,523.167174000002,523.1844616999733,523.4671537999529,523.4833170999773,None,down,3.0496109000523575,523.4833170999773,None,523.4833170999773,524.7822452999535,0.06353970000054687,None,,,,,,,,,22,001,2019_Dec_25_1121,untitled,3.1.0,60.13974070136788,
_,_5,M,225,_,_,__5M225__,N,0,134,134,45,,,1.357,526.6081767999567,526.9487640999723,526.9641686999821,527.247159099963,527.2631437999662,None,down,3.248362700047437,527.2631437999662,None,527.2631437999662,528.5951812999556,0.06882310000946745,None,,,,,,,,,22,001,2019_Dec_25_1121,untitled,3.1.0,60.13974070136788,
267,_2,M,90,R,N,267_2M090RN,HRN,0,135,135,146,,,0.9540000000000001,530.5823614999535,530.9267764999531,530.9435342999641,531.2271055000019,531.2435231999843,None,down,2.3983922000043094,531.2435231999843,None,531.2435231999843,532.1757069999585,0.06351040001027286,None,,,,,,,,,22,001,2019_Dec_25_1121,untitled,3.1.0,60.13974070136788,
034,R,N,45,L,N,034RN045LN,HLN,0,136,136,201,,,0.9520000000000001,533.7158387999516,534.0577220999985,534.0744639999466,534.3568526999443,534.3739161999547,None,up,1.771353200019803,534.3739161999547,None,534.3739161999547,535.3070086999796,0.06611459999112412,None,,,,,,,,,22,001,2019_Dec_25_1121,untitled,3.1.0,60.13974070136788,
396,_4,M,135,R,N,396_4M135RN,HRN,0,137,137,163,,,1.249,536.2385862999945,536.5553142999997,536.5723945999634,536.8550135999685,536.8716367000015,None,down,2.983998799987603,536.8716367000015,None,536.8716367000015,538.1043017999618,0.0843435000278987,None,,,,,,,,,22,001,2019_Dec_25_1121,untitled,3.1.0,60.13974070136788,
295,_2,N,270,L,N,295_2N270LN,HLN,0,138,138,254,,,1.031,539.9228126999806,540.2691511999583,540.2852934999974,540.5684525999823,540.5852111999993,None,up,1.8667809999897145,540.5852111999993,None,540.5852111999993,541.6010856999783,0.06041879998520017,None,,,,,,,,,22,001,2019_Dec_25_1121,untitled,3.1.0,60.13974070136788,
271,_2,M,270,R,N,271_2M270RN,HRN,0,139,139,150,,,1.004,542.5221141999937,542.86636429996,542.8846831999836,543.1674394999864,543.1843991999631,None,down,1.9835401000455022,543.1843991999631,None,543.1843991999631,544.165537199995,0.06341719999909401,None,,,,,,,,,22,001,2019_Dec_25_1121,untitled,3.1.0,60.13974070136788,
_,R,M,135,_,_,_RM135__,N,0,140,140,19,,,0.846,545.2367848999565,545.5811625999631,545.5976964999572,545.8805874999962,545.8971760999993,None,down,2.7148928999667987,545.8971760999993,None,545.8971760999993,546.7302783999476,0.0615636000293307,None,,,,,,,,,22,001,2019_Dec_25_1121,untitled,3.1.0,60.13974070136788,
204,G,M,135,R,N,204GM135RN,HRN,0,141,141,131,,,0.727,548.68122269999,549.0276994999731,549.0458035999909,549.3275450999499,549.3456495999708,None,down,1.7320588000002317,549.3456495999708,None,549.3456495999708,550.0607410999946,0.062134700012393296,None,,,,,,,,,22,001,2019_Dec_25_1121,untitled,3.1.0,60.13974070136788,
228,G,N,135,L,N,228GN135LN,HLN,0,142,142,235,,,0.961,551.1760246999911,551.4920418999973,551.509719899972,551.7924530999735,551.8085825999733,None,up,1.6685863000457175,551.8085825999733,None,551.8085825999733,552.7578509999439,0.08954760001506656,None,,,,,,,,,22,001,2019_Dec_25_1121,untitled,3.1.0,60.13974070136788,
304,_2,M,315,L,N,304_2M315LN,HLN,0,143,143,159,,,1.131,553.5479497999768,553.8901175999781,553.9072922999621,554.1900587999844,554.2066133999615,None,None,,554.2066133999615,None,554.2066133999615,555.3224893999868,0.061911199998576194,None,,,,,,,,,22,001,2019_Dec_25_1121,untitled,3.1.0,60.13974070136788,
_,F,M,270,_,_,_FM270__,N,0,144,144,6,,,0.962,557.738003299979,558.0868194999639,558.1035326999845,558.386548599985,558.4026672999607,557.738003299979,down,2.186042700021062,558.4026672999607,None,558.4026672999607,559.3524094999884,0.060510699986480176,None,,,,,,,,,22,001,2019_Dec_25_1121,untitled,3.1.0,60.13974070136788,
_,F,N,45,_,_,_FN045__,N,0,145,145,49,,,1.221,560.6569911999977,561.0002135999966,561.0173815999879,561.3004708999651,561.3173349999706,None,up,2.065408899972681,561.3173349999706,None,561.3173349999706,562.5159821999841,0.0614647000329569,None,,,,,,,,,22,001,2019_Dec_25_1121,untitled,3.1.0,60.13974070136788,
461,_5,M,180,R,N,461_5M180RN,HRN,0,146,146,180,,,1.317,563.4642625999986,563.797726699966,563.8146399999969,564.0981509999838,564.1145184999914,None,down,3.2838281000149436,564.1145184999914,None,564.1145184999914,565.4136549999821,0.0737315000151284,None,,,,,,,,,22,001,2019_Dec_25_1121,untitled,3.1.0,60.13974070136788,
201,G,M,0,R,N,201GM000RN,HRN,0,147,147,128,,,0.897,567.465231899987,567.8122902999748,567.8283444999834,568.1118869999773,568.1285325999488,None,down,1.7157119000330567,568.1285325999488,None,568.1285325999488,569.011309399968,0.05935190001036972,None,,,,,,,,,22,001,2019_Dec_25_1121,untitled,3.1.0,60.13974070136788,
172,F,M,135,L,N,172FM135LN,HLN,0,148,148,123,,,0.98,569.9127192999586,570.2604254999897,570.2767240999965,570.5592892999994,570.5760458000004,None,down,2.9667908999836072,570.5760458000004,None,570.5760458000004,571.5415431999718,0.061570400022901595,None,,,,,,,,,22,001,2019_Dec_25_1121,untitled,3.1.0,60.13974070136788,
_,_2,N,0,_,_,__2N000__,N,0,149,149,72,,,1.045,573.6109832999646,573.9561285999953,573.9729168999474,574.2560154999956,574.2725441999501,None,up,2.4318621000275016,574.2725441999501,None,574.2725441999501,575.3049606999848,0.06121810001786798,None,,,,,,,,,22,001,2019_Dec_25_1121,untitled,3.1.0,60.13974070136788,
_,_4,M,0,_,_,__4M000__,N,0,150,150,32,,,1.031,576.7805776999448,577.1198860000004,577.1365605999599,577.4196875999914,577.4364807999809,None,down,2.0005810000002384,577.4364807999809,None,577.4364807999809,578.4520511999726,0.06734409998171031,None,,,,,,,,,22,001,2019_Dec_25_1121,untitled,3.1.0,60.13974070136788,
_,_5,N,225,_,_,__5N225__,N,0,151,151,93,,,1.3920000000000001,579.5053954999894,579.8512935999897,579.8676938999561,580.1509686999489,580.167730599991,None,up,2.5648069999879226,580.167730599991,None,580.167730599991,581.5494544999674,0.06127780000679195,None,,,,,,,,,22,001,2019_Dec_25_1121,untitled,3.1.0,60.13974070136788,
_,_2,N,90,_,_,__2N090__,N,0,152,152,74,,,0.849,582.7987354999641,583.1482077999972,583.1645298999501,583.4481220999733,583.4646784999641,None,up,1.6837033999618143,583.4646784999641,None,583.4646784999641,584.2972257999936,0.05893679999280721,None,,,,,,,,,22,001,2019_Dec_25_1121,untitled,3.1.0,60.13974070136788,
_,R,N,45,_,_,_RN045__,N,0,153,153,65,,,0.918,585.2173317999695,585.5628955999855,585.5793984999764,585.8631711999769,585.879117399978,None,up,1.715086699987296,585.879117399978,None,585.879117399978,586.7782969999826,0.06165290001081303,None,,,,,,,,,22,001,2019_Dec_25_1121,untitled,3.1.0,60.13974070136788,
294,_2,N,225,L,N,294_2N225LN,HLN,0,154,154,253,,,1.322,587.6680625999579,588.0127779999748,588.0275813999469,588.3106387999724,588.3289523999556,None,up,2.0136954999761656,588.3289523999556,None,588.3289523999556,589.6255276000011,0.06723069999134168,None,,,,,,,,,22,001,2019_Dec_25_1121,untitled,3.1.0,60.13974070136788,
008,R,N,315,R,N,008RN315RN,HRN,0,155,155,199,,,0.721,590.4118968999828,590.7583645999548,590.7755555999465,591.0579573999858,591.0743984999717,None,up,1.50056970003061,591.0743984999717,None,591.0743984999717,591.7734372999985,0.06244559999322519,None,,,,,,,,,22,001,2019_Dec_25_1121,untitled,3.1.0,60.13974070136788,
_,R,N,315,_,_,_RN315__,N,0,156,156,71,,,0.931,592.6602452999796,592.9892811999889,593.0059680999839,593.2891258999589,593.3056590999477,None,up,1.4859941999893636,593.3056590999477,None,593.3056590999477,594.2215633000014,0.07764339999994263,None,,,,,,,,,22,001,2019_Dec_25_1121,untitled,3.1.0,60.13974070136788,
426,_4,M,45,L,N,426_4M045LN,HLN,0,157,157,169,,,1.198,594.8616084999521,595.2039730999968,595.2219916999456,595.5040812999941,595.5208971999818,None,down,1.9990207999944687,595.5208971999818,None,595.5208971999818,596.703855699976,0.06319720001192763,None,,,,,,,,,22,001,2019_Dec_25_1121,untitled,3.1.0,60.13974070136788,
450,_5,N,45,R,N,450_5N045RN,HRN,0,158,158,273,,,0.9,597.6039456999861,597.9348458999884,597.9535624999553,598.2351716999547,598.2532429999555,None,up,1.8663950999616645,598.2532429999555,None,598.2532429999555,599.1343170999899,0.07578969997121021,None,,,,,,,,,22,001,2019_Dec_25_1121,untitled,3.1.0,60.13974070136788,
264,_2,N,315,R,N,264_2N315RN,HRN,0,159,159,247,,,1.363,600.1897480999469,600.5335371999536,600.5497572999448,600.8331466999953,600.849914499966,None,up,2.317181900027208,600.849914499966,None,600.849914499966,602.1980165999848,0.06349890003912151,None,,,,,,,,,22,001,2019_Dec_25_1121,untitled,3.1.0,60.13974070136788,
451,_5,N,90,R,N,451_5N090RN,HRN,0,160,160,274,,,1.057,603.237473599962,603.5806512999698,603.5972188999876,603.8803114999901,603.897077499947,None,up,1.7829204999725334,603.897077499947,None,603.897077499947,604.9455559999915,0.0638634999631904,None,,,,,,,,,22,001,2019_Dec_25_1121,untitled,3.1.0,60.13974070136788,
240,G,M,315,L,N,240GM315LN,HLN,0,161,161,143,,,1.2610000000000001,605.7526178999688,606.0946589999949,606.1116000999464,606.3949414999806,606.41125439998,None,down,2.4153153999941424,606.41125439998,None,606.41125439998,607.6602477999986,0.06593480001902208,None,,,,,,,,,22,001,2019_Dec_25_1121,untitled,3.1.0,60.13974070136788,
_,F,M,180,_,_,_FM180__,N,0,162,162,4,,,1.336,608.9052214999683,609.242568799993,609.2586203999817,609.5416888999753,609.5580741000012,None,down,3.149574199982453,609.5580741000012,None,609.5580741000012,610.873781399976,0.07088960002874956,None,,,,,,,,,22,001,2019_Dec_25_1121,untitled,3.1.0,60.13974070136788,
462,_5,M,225,R,N,462_5M225RN,HRN,0,163,163,181,,,0.797,612.8148202999728,613.1222646999522,613.1393486000015,613.4219064999488,613.4385392999975,None,down,3.4165187999606133,613.4385392999975,None,613.4385392999975,614.221153099963,0.09813520003808662,None,,,,,,,,,22,001,2019_Dec_25_1121,untitled,3.1.0,60.13974070136788,
490,_5,M,45,L,N,490_5M045LN,HLN,0,164,164,185,,,0.798,616.9216678999946,617.2693667999702,617.2853227999876,617.5684141999809,617.5848540999577,None,down,1.7321771999704652,617.5848540999577,None,617.5848540999577,618.3676649999688,0.060100400005467236,None,,,,,,,,,22,001,2019_Dec_25_1121,untitled,3.1.0,60.13974070136788,
004,R,N,135,R,N,004RN135RN,HRN,0,165,165,195,,,1.1520000000000001,619.3841050999472,619.7340840999968,619.749712299963,620.0335772999679,620.0496082999744,None,up,2.383898300002329,620.0496082999744,None,620.0496082999744,621.1821671999642,0.060319999989587814,None,,,,,,,,,22,001,2019_Dec_25_1121,untitled,3.1.0,60.13974070136788,
481,_5,N,0,L,N,481_5N000LN,HLN,0,166,166,280,,,1.338,622.5094133999664,622.8475940999924,622.8631386999623,623.1464083999745,623.1632319999626,None,up,2.2657129000290297,623.1632319999626,None,623.1632319999626,624.4794224999496,0.06909489998361096,None,,,,,,,,,22,001,2019_Dec_25_1121,untitled,3.1.0,60.13974070136788,
420,_4,N,135,L,N,420_4N135LN,HLN,0,167,167,267,,,1.099,625.4984881999553,625.844268099987,625.8611686999793,626.1441589999595,626.1606870999676,None,up,1.9176922000478953,626.1606870999676,None,626.1606870999676,627.2429486999754,0.06254890002310276,None,,,,,,,,,22,001,2019_Dec_25_1121,untitled,3.1.0,60.13974070136788,
040,R,N,315,L,N,040RN315LN,HLN,0,168,168,207,,,0.923,628.1808611999732,628.492372699955,628.5088654999854,628.7930556999636,628.8082894999534,None,up,1.7007088999962434,628.8082894999534,None,628.8082894999534,629.7240858000005,0.09404629998607561,None,,,,,,,,,22,001,2019_Dec_25_1121,untitled,3.1.0,60.13974070136788,
301,_2,M,180,L,N,301_2M180LN,HLN,0,169,169,156,,,1.296,630.5814528999617,630.9233464999706,630.9398144999868,631.2230088999495,631.2393914999557,None,up,2.765500499983318,631.2393914999557,None,631.2393914999557,632.5217233999865,0.06591830000979826,None,,,,,,,,,22,001,2019_Dec_25_1121,untitled,3.1.0,60.13974070136788,
_,R,N,180,_,_,_RN180__,N,0,170,170,68,,,1.0110000000000001,634.0749222000013,634.4204030999681,634.4379407999804,634.7202794999466,634.7368734999909,None,down,2.714245099981781,634.7368734999909,None,634.7368734999909,635.7361201999593,0.0635422999621369,None,,,,,,,,,22,001,2019_Dec_25_1121,untitled,3.1.0,60.13974070136788,
001,R,N,0,R,N,001RN000RN,HRN,0,171,171,192,,,1.222,637.5289515999611,637.8667267999845,637.8842454999685,638.1667665999848,638.1847731999587,None,up,1.914413999998942,638.1847731999587,None,638.1847731999587,639.3821016000002,0.06975909997709095,None,,,,,,,,,22,001,2019_Dec_25_1121,untitled,3.1.0,60.13974070136788,
045,R,M,180,L,N,045RM180LN,HLN,0,172,172,108,,,0.9430000000000001,640.1816213999991,640.5152076999657,640.5318886999739,640.8162670999882,640.8311839999515,None,down,2.1672601000173017,640.8311839999515,None,640.8311839999515,641.764592099993,0.07478819997049868,None,,,,,,,,,22,001,2019_Dec_25_1121,untitled,3.1.0,60.13974070136788,
_,F,M,90,_,_,_FM090__,N,0,173,173,2,,,1.212,643.0739384999615,643.4122375999577,643.429125399969,643.7139419999439,643.731139999989,None,down,2.4814787000068463,643.731139999989,None,643.731139999989,644.9276023999555,0.06846479995874688,None,,,,,,,,,22,001,2019_Dec_25_1121,untitled,3.1.0,60.13974070136788,
418,_4,N,45,L,N,418_4N045LN,HLN,0,174,174,265,,,1.2630000000000001,646.2813671999611,646.6279773999704,646.6427315999754,646.9262489999528,646.9429227999644,None,up,2.300315500004217,646.9429227999644,None,646.9429227999644,648.191271299962,0.062075399968307465,None,,,,,,,,,22,001,2019_Dec_25_1121,untitled,3.1.0,60.13974070136788,
207,G,M,270,R,N,207GM270RN,HRN,0,175,175,134,,,1.076,649.3126511999872,649.6571692999569,649.6736177999992,649.9570406999555,649.9736815999495,None,down,2.4981505000032485,649.9736815999495,None,649.9736815999495,651.039175199985,0.06295550003414974,None,,,,,,,,,22,001,2019_Dec_25_1121,untitled,3.1.0,60.13974070136788,
_,_2,M,180,_,_,__2M180__,N,0,176,176,28,,,0.71,652.5386186999967,652.8875832999474,652.9036125999992,653.1872664999682,653.203720199992,None,down,2.431872899993323,653.203720199992,None,653.203720199992,653.9028349999571,0.05982849997235462,None,,,,,,,,,22,001,2019_Dec_25_1121,untitled,3.1.0,60.13974070136788,
129,F,N,0,R,N,129FN000RN,HRN,0,177,177,208,,,1.131,655.7170611999463,656.0515178999631,656.068266599963,656.3513864999986,656.3674306999892,None,up,2.0993803999735974,656.3674306999892,None,656.3674306999892,657.4835153999738,0.07397769996896386,None,,,,,,,,,22,001,2019_Dec_25_1121,untitled,3.1.0,60.13974070136788,
170,F,M,45,L,N,170FM045LN,HLN,0,178,178,121,,,1.172,658.545544099994,658.8823072999949,658.8991945999442,659.1820367999608,659.1987449000007,None,down,2.664514900010545,659.1987449000007,None,659.1987449000007,660.3476794999442,0.07143969996832311,None,,,,,,,,,22,001,2019_Dec_25_1121,untitled,3.1.0,60.13974070136788,
_,R,M,225,_,_,_RM225__,N,0,179,179,21,,,1.108,661.9305068999529,662.2788195999456,662.2965874999645,662.5789328999817,662.5957093999605,None,down,3.0149969999911264,662.5957093999605,None,662.5957093999605,663.6782188999932,0.06017949996748939,None,,,,,,,,,22,001,2019_Dec_25_1121,untitled,3.1.0,60.13974070136788,
197,G,N,180,R,N,197GN180RN,HRN,0,180,180,228,,,0.9570000000000001,665.6793079999625,666.0262055999483,666.0426120999618,666.3278164999792,666.3428354999633,None,up,3.0473588000168093,666.3428354999633,None,666.3428354999633,667.2747452999465,0.06128660001559183,None,,,,,,,,,22,001,2019_Dec_25_1121,untitled,3.1.0,60.13974070136788,
229,G,N,180,L,N,229GN180LN,HLN,0,181,181,236,,,0.888,669.4731165999547,669.8057744999533,669.8225886999862,670.1055398999597,670.1223612999893,None,up,2.7990319000091404,670.1223612999893,None,670.1223612999893,670.9878549999557,0.07519109995337203,None,,,,,,,,,22,001,2019_Dec_25_1121,untitled,3.1.0,60.13974070136788,
452,_5,N,135,R,N,452_5N135RN,HRN,0,182,182,275,,,0.9470000000000001,672.991870799975,673.3366368999705,673.353526299994,673.6375691999565,673.6534186999779,None,up,2.782254100020509,673.6534186999779,None,673.6534186999779,674.6070245999726,0.06254120002267882,None,,,,,,,,,22,001,2019_Dec_25_1121,untitled,3.1.0,60.13974070136788,
_,R,M,270,_,_,_RM270__,N,0,183,183,22,,,0.727,676.5296917999513,676.8498330999864,676.8669651999953,677.1495626999531,677.1666467999457,None,down,1.9148106999928132,677.1666467999457,None,677.1666467999457,677.8820322999964,0.0834624000126496,None,,,,,,,,,22,001,2019_Dec_25_1121,untitled,3.1.0,60.13974070136788,
263,_2,N,270,R,N,263_2N270RN,HRN,0,184,184,246,,,0.9430000000000001,679.1515335000004,679.4980834999587,679.5143173999968,679.7977518999833,679.8141402999754,None,up,2.2653361999546178,679.8141402999754,None,679.8141402999754,680.7299450999708,0.06283870001789182,None,,,,,,,,,22,001,2019_Dec_25_1121,untitled,3.1.0,60.13974070136788,
227,G,N,90,L,N,227GN090LN,HLN,0,185,185,234,,,0.866,682.1492981999763,682.4950813999749,682.5118225999759,682.7958292999538,682.8112487999606,None,up,1.9166274999734014,682.8112487999606,None,682.8112487999606,683.6615669999737,0.06328629999188706,None,,,,,,,,,22,001,2019_Dec_25_1121,untitled,3.1.0,60.13974070136788,
296,_2,N,315,L,N,296_2N315LN,HLN,0,186,186,255,,,0.924,684.8142877999926,685.1426979999524,685.159588999988,685.4421939999447,685.4588239999721,None,up,2.851215999980923,685.4588239999721,None,685.4588239999721,686.3580753999995,0.07850659999530762,None,,,,,,,,,22,001,2019_Dec_25_1121,untitled,3.1.0,60.13974070136788,
199,G,N,270,R,N,199GN270RN,HRN,0,187,187,230,,,1.283,688.3843005999806,688.7230866999598,688.7396753999637,689.0224031999824,689.0399246999878,None,up,2.500357700046152,689.0399246999878,None,689.0399246999878,690.305468699953,0.06695780000882223,None,,,,,,,,,22,001,2019_Dec_25_1121,untitled,3.1.0,60.13974070136788,
_,G,N,225,_,_,_GN225__,N,0,188,188,61,,,1.047,691.6095509000006,691.9538142999518,691.9706649999716,692.2532909999718,692.2696495999699,None,up,2.3981602000421844,692.2696495999699,None,692.2696495999699,693.3018200999941,0.0617492999881506,None,,,,,,,,,22,001,2019_Dec_25_1121,untitled,3.1.0,60.13974070136788,
_,_4,M,315,_,_,__4M315__,N,0,189,189,39,,,0.844,694.7342820999911,695.0843336999533,695.1012857999885,695.385722099978,695.4006493999623,None,down,1.9488625000230968,695.4006493999623,None,695.4006493999623,696.2339240000001,0.05934219999471679,None,,,,,,,,,22,001,2019_Dec_25_1121,untitled,3.1.0,60.13974070136788,
_,F,N,225,_,_,_FN225__,N,0,190,190,53,,,0.743,697.4196097999811,697.7658750999835,697.7816709999461,698.0644212999614,698.081548999995,None,up,1.7169355999794789,698.081548999995,None,698.081548999995,698.8140369999455,0.06147319998126477,None,,,,,,,,,22,001,2019_Dec_25_1121,untitled,3.1.0,60.13974070136788,
144,F,M,315,R,N,144FM315RN,HRN,0,191,191,119,,,0.854,699.8713325999561,700.2125708999811,700.2296891000005,700.5125455999514,700.5291485999478,None,down,1.734485799970571,700.5291485999478,None,700.5291485999478,701.3617806999828,0.06558009999571368,None,,,,,,,,,22,001,2019_Dec_25_1121,untitled,3.1.0,60.13974070136788,
226,G,N,45,L,N,226GN045LN,HLN,0,192,192,233,,,1.187,702.3314988999628,702.677194799995,702.6943345999462,702.9770384999574,702.9946915999753,None,up,2.165438099997118,702.9946915999753,None,702.9946915999753,704.1594165999559,0.060165799979586154,None,,,,,,,,,22,001,2019_Dec_25_1121,untitled,3.1.0,60.13974070136788,
_,_2,N,135,_,_,__2N135__,N,0,193,193,75,,,0.904,705.2480271999957,705.5748470999533,705.5911387999658,705.8749819999794,705.8913063999498,None,up,1.9817906999960542,705.8913063999498,None,705.8913063999498,706.7736028999789,0.080191700020805,None,,,,,,,,,22,001,2019_Dec_25_1121,untitled,3.1.0,60.13974070136788,
168,F,N,315,L,N,168FN315LN,HLN,0,194,194,223,,,1.247,707.9403381999582,708.2893481999636,708.3060027999454,708.5893797999597,708.6054994000006,None,down,2.1320863000000827,708.6054994000006,None,708.6054994000006,709.8381073999917,0.05982379999477416,None,,,,,,,,,22,001,2019_Dec_25_1121,untitled,3.1.0,60.13974070136788,
299,_2,M,90,L,N,299_2M090LN,HLN,0,195,195,154,,,1.362,710.818489999976,711.1531238999451,711.169657099992,711.4540078999707,711.4700514999568,None,None,,711.4700514999568,None,711.4700514999568,712.8184477999457,0.07336320000467822,None,,,,,,,,,22,001,2019_Dec_25_1121,untitled,3.1.0,60.13974070136788,
_,_4,N,45,_,_,__4N045__,N,0,196,196,81,,,1.329,715.0166737999534,715.3492646999657,715.3664642999647,715.6492529999814,715.6659152999637,715.0166737999534,up,2.034522100002505,715.6659152999637,None,715.6659152999637,716.9816163999494,0.07629250001627952,None,,,,,,,,,22,001,2019_Dec_25_1121,untitled,3.1.0,60.13974070136788,
238,G,M,225,L,N,238GM225LN,HLN,0,197,197,141,,,1.287,717.7673967999872,718.1140504999785,718.1307537999819,718.4138316999888,718.4305022999761,None,down,2.5655031999922357,718.4305022999761,None,718.4305022999761,719.6958760999842,0.06029399996623397,None,,,,,,,,,22,001,2019_Dec_25_1121,untitled,3.1.0,60.13974070136788,
203,G,M,90,R,N,203GM090RN,HRN,0,198,198,130,,,0.866,721.0655184999923,721.4115470999968,721.4278440999915,721.7107876999653,721.7273728,None,down,1.9840270999702625,721.7273728,None,721.7273728,722.5765566999908,0.06249240000033751,None,,,,,,,,,22,001,2019_Dec_25_1121,untitled,3.1.0,60.13974070136788,
_,_5,M,45,_,_,__5M045__,N,0,199,199,41,,,1.137,723.7879709999543,724.1255199000007,724.1426387999672,724.4251393999439,724.4417932999786,None,down,2.681010600004811,724.4417932999786,None,724.4417932999786,725.5588542999467,0.06850930000655353,None,,,,,,,,,22,001,2019_Dec_25_1121,untitled,3.1.0,60.13974070136788,
_,_4,N,315,_,_,__4N315__,N,0,200,200,87,,,1.205,727.1916883999947,727.5393576999777,727.5559530999744,727.8397346999845,727.8556319999625,None,up,2.6323335000197403,727.8556319999625,None,727.8556319999625,729.037843899976,0.06227230001240969,None,,,,,,,,,22,001,2019_Dec_25_1121,untitled,3.1.0,60.13974070136788,
239,G,M,270,L,N,239GM270LN,HLN,0,201,201,142,,,0.853,730.5620254999958,730.9029196999618,730.919400099956,731.2025197999901,731.2193755999906,None,down,1.998489800025709,731.2193755999906,None,731.2193755999906,732.0515454999986,0.06730220001190901,None,,,,,,,,,22,001,2019_Dec_25_1121,untitled,3.1.0,60.13974070136788,
398,_4,M,225,R,N,398_4M225RN,HRN,0,202,202,165,,,0.781,733.2856993999449,733.6338029999752,733.6507355999784,733.9332367999596,733.9500241999631,None,down,2.0367106000194326,733.9500241999631,None,733.9500241999631,734.7162571999943,0.061138000048231333,None,,,,,,,,,22,001,2019_Dec_25_1121,untitled,3.1.0,60.13974070136788,
_,_2,N,45,_,_,__2N045__,N,0,203,203,73,,,0.981,736.0806593999732,736.3987238999689,736.4149608999724,736.6981487000012,736.7147799999802,None,up,2.0316211000317708,736.7147799999802,None,736.7147799999802,737.6807233999716,0.08528960001422092,None,,,,,,,,,22,001,2019_Dec_25_1121,untitled,3.1.0,60.13974070136788,
_,_4,M,90,_,_,__4M090__,N,0,204,204,34,,,0.704,738.8127040999825,739.162574899965,739.1796233999776,739.4621858999599,739.4784448999562,None,down,1.7851971999625675,739.4784448999562,None,739.4784448999562,740.1614084999892,0.05945120000978932,None,,,,,,,,,22,001,2019_Dec_25_1121,untitled,3.1.0,60.13974070136788,
293,_2,N,180,L,N,293_2N180LN,HLN,0,205,205,252,,,0.773,741.3326510999468,741.6769808999961,741.693604799977,741.9762435999583,741.9934198999545,None,up,2.9640772999846376,741.9934198999545,None,741.9934198999545,742.742455999949,0.06227289995877072,None,,,,,,,,,22,001,2019_Dec_25_1121,untitled,3.1.0,60.13974070136788,
198,G,N,225,R,N,198GN225RN,HRN,0,206,206,229,,,1.303,745.024545399996,745.3741766999592,745.3900295999483,745.6729773999541,745.6899824999855,None,up,2.1322264000191353,745.6899824999855,None,745.6899824999855,746.9719142999966,0.060151000041514635,None,,,,,,,,,22,001,2019_Dec_25_1121,untitled,3.1.0,60.13974070136788,
_,G,N,0,_,_,_GN000__,N,0,207,207,56,,,1.305,747.9049864999834,748.2371754999622,748.2539354999899,748.5375052999589,748.5540049999836,None,up,2.282458800007589,748.5540049999836,None,748.5540049999836,749.8363658000017,0.07468489999882877,None,,,,,,,,,22,001,2019_Dec_25_1121,untitled,3.1.0,60.13974070136788,
140,F,M,135,R,N,140FM135RN,HRN,0,208,208,115,,,1.322,750.9164458999876,751.2513589999871,751.2678628999856,751.5514757999917,751.5684983999818,None,down,2.264623199997004,751.5684983999818,None,751.5684983999818,752.8675197999692,0.07255440001608804,None,,,,,,,,,22,001,2019_Dec_25_1121,untitled,3.1.0,60.13974070136788,
_,_5,M,0,_,_,__5M000__,N,0,209,209,40,,,0.981,753.9047454999527,754.2491770999623,754.2658642999595,754.5486905999715,754.5660103999544,None,down,2.1334787999512628,754.5660103999544,None,754.5660103999544,755.5311385999667,0.06416520004859194,None,,,,,,,,,22,001,2019_Dec_25_1121,untitled,3.1.0,60.13974070136788,
390,_4,N,225,R,N,390_4N225RN,HRN,0,210,210,261,,,0.8310000000000001,756.7678873999976,757.1135819999618,757.1302591999993,757.4130306000006,757.4319845999707,None,up,1.748114300018642,757.4319845999707,None,757.4319845999707,758.2456847999711,0.06202130002202466,None,,,,,,,,,22,001,2019_Dec_25_1121,untitled,3.1.0,60.13974070136788,
169,F,M,0,L,N,169FM000LN,HLN,0,211,211,120,,,0.745,759.2494824999594,759.5942893999745,759.6117334999726,759.8941012999858,759.9111995999701,None,down,2.2146761000039987,759.9111995999701,None,759.9111995999701,760.6439033999923,0.06202289997600019,None,,,,,,,,,22,001,2019_Dec_25_1121,untitled,3.1.0,60.13974070136788,
_,_5,M,315,_,_,__5M315__,N,0,212,212,47,,,0.805,762.2067879999522,762.5417313999496,762.5584462999832,762.841546599986,762.8581835999503,None,down,2.298849499959033,762.8581835999503,None,762.8581835999503,763.6407431999687,0.07334389997413382,None,,,,,,,,,22,001,2019_Dec_25_1121,untitled,3.1.0,60.13974070136788,
_,_4,M,45,_,_,__4M045__,N,0,213,213,33,,,1.276,765.2252871999517,765.5727165999706,765.5896076999488,765.8732530999696,765.8887766999542,None,down,2.167374500015285,765.8887766999542,None,765.8887766999542,767.137700399966,0.061495800036937,None,,,,,,,,,22,001,2019_Dec_25_1121,untitled,3.1.0,60.13974070136788,
005,R,N,180,R,N,005RN180RN,HRN,0,214,214,196,,,0.8180000000000001,768.12720789999,768.470415799995,768.4869540999644,768.7700464999652,768.7863182000001,None,up,1.9487521999981254,768.7863182000001,None,768.7863182000001,769.5856021999498,0.06463939999230206,None,,,,,,,,,22,001,2019_Dec_25_1121,untitled,3.1.0,60.13974070136788,
268,_2,M,135,R,N,268_2M135RN,HRN,0,215,215,147,,,0.984,770.8022023999947,771.1506678999867,771.1674448999693,771.4504455999704,771.4670748999924,None,down,2.3484177000354975,771.4670748999924,None,771.4670748999924,772.4331059999531,0.05986440001288429,None,,,,,,,,,22,001,2019_Dec_25_1121,untitled,3.1.0,60.13974070136788,
_,_2,N,315,_,_,__2N315__,N,0,216,216,79,,,1.151,773.8839578999905,774.2319628999685,774.2482289999607,774.532228899945,774.5476526999846,None,up,2.2153011999907903,774.5476526999846,None,774.5476526999846,775.6799908999819,0.06166730000404641,None,,,,,,,,,22,001,2019_Dec_25_1121,untitled,3.1.0,60.13974070136788,
_,_5,N,0,_,_,__5N000__,N,0,217,217,88,,,0.8160000000000001,776.8391382999835,777.1792775999638,777.1958391999942,777.4787888999563,777.4958371999674,None,up,1.6154479999677278,777.4958371999674,None,777.4958371999674,778.2949161999859,0.0677929999656044,None,,,,,,,,,22,001,2019_Dec_25_1121,untitled,3.1.0,60.13974070136788,
_,_5,N,315,_,_,__5N315__,N,0,218,218,95,,,1.107,779.1924290999887,779.5272206999944,779.543765099952,779.8267913999734,779.8435897000018,None,up,1.899063799995929,779.8435897000018,None,779.8435897000018,780.926094800001,0.0731482999981381,None,,,,,,,,,22,001,2019_Dec_25_1121,untitled,3.1.0,60.13974070136788,
_,R,M,0,_,_,_RM000__,N,0,219,219,16,,,0.729,781.8267943999963,782.1592606999911,782.1746212999569,782.457756799995,782.4741178999539,None,down,1.5663251000223681,782.4741178999539,None,782.4741178999539,783.1909130999702,0.0758534999913536,None,,,,,,,,,22,001,2019_Dec_25_1121,untitled,3.1.0,60.13974070136788,
_,G,M,225,_,_,_GM225__,N,0,220,220,13,,,1.347,784.1106166999671,784.4560883999802,784.4728227999876,784.756206399994,784.7725788999815,None,down,2.481545199989341,784.7725788999815,None,784.7725788999815,786.1045538999606,0.06285699998261407,None,,,,,,,,,22,001,2019_Dec_25_1121,untitled,3.1.0,60.13974070136788,
419,_4,N,90,L,N,419_4N090LN,HLN,0,221,221,266,,,1.228,787.3251680999529,787.6698642999982,787.6870175999939,787.9690456999815,787.9861933999928,None,up,2.0324904000153765,787.9861933999928,None,787.9861933999928,789.2026041999925,0.06377110001631081,None,,,,,,,,,22,001,2019_Dec_25_1121,untitled,3.1.0,60.13974070136788,
258,_2,N,45,R,N,258_2N045RN,HRN,0,222,222,241,,,1.107,790.0895604999969,790.4347260999493,790.4511116999784,790.7340000999975,790.750600099971,None,up,2.032076200004667,790.750600099971,None,790.750600099971,791.8329292999697,0.06382019998272881,None,,,,,,,,,22,001,2019_Dec_25_1121,untitled,3.1.0,60.13974070136788,
237,G,M,180,L,N,237GM180LN,HLN,0,223,223,140,,,0.973,792.8612982999766,793.1983770999941,793.2149960999959,793.4979998999625,793.5146843999973,None,down,2.6152488000225276,793.5146843999973,None,793.5146843999973,794.463661799964,0.0712482999661006,None,,,,,,,,,22,001,2019_Dec_25_1121,untitled,3.1.0,60.13974070136788,
385,_4,N,0,R,N,385_4N000RN,HRN,0,224,224,256,,,1.258,796.2004926999798,796.5468217000016,796.5624177999562,796.845122699975,796.8618019999703,None,up,2.0490680999937467,796.8618019999703,None,796.8618019999703,798.094932499982,0.06390189996454865,None,,,,,,,,,22,001,2019_Dec_25_1121,untitled,3.1.0,60.13974070136788,
_,F,M,315,_,_,_FM315__,N,0,225,225,7,,,0.897,798.9872425999492,799.326752599969,799.3433658999857,799.6264021999668,799.6440440999577,None,down,1.9805543000111356,799.6440440999577,None,799.6440440999577,800.5254515999695,0.06924410001374781,None,,,,,,,,,22,001,2019_Dec_25_1121,untitled,3.1.0,60.13974070136788,
_,G,M,90,_,_,_GM090__,N,0,226,226,10,,,1.076,801.6918151999707,802.0410865999875,802.0576292999904,802.3407063999912,802.3594196999911,None,down,2.1133250999846496,802.3594196999911,None,802.3594196999911,803.4069844999467,0.06026180001208559,None,,,,,,,,,22,001,2019_Dec_25_1121,untitled,3.1.0,60.13974070136788,
459,_5,M,90,R,N,459_5M090RN,HRN,0,227,227,178,,,0.741,804.5407263999805,804.8880880999495,804.9054337999551,805.1877744999947,805.2048467999557,None,down,2.117677600006573,805.2048467999557,None,805.2048467999557,805.920835799945,0.06087639997713268,None,,,,,,,,,22,001,2019_Dec_25_1121,untitled,3.1.0,60.13974070136788,
_,R,N,90,_,_,_RN090__,N,0,228,228,66,,,1.281,807.397602699988,807.7359712999896,807.7525215999922,808.0353517999756,808.0520729999989,None,up,2.1828679000027478,808.0520729999989,None,808.0520729999989,809.3176612999523,0.06815730000380427,None,,,,,,,,,22,001,2019_Dec_25_1121,untitled,3.1.0,60.13974070136788,
_,_4,N,180,_,_,__4N180__,N,0,229,229,84,,,1.223,810.3011345999548,810.6499151999597,810.6667564999661,810.9495406999486,810.9670362999896,None,None,,810.9670362999896,None,810.9670362999896,812.1655262999702,0.058599799987860024,None,,,,,,,,,22,001,2019_Dec_25_1121,untitled,3.1.0,60.13974070136788,
047,R,M,270,L,N,047RM270LN,HLN,0,230,230,110,,,1.197,814.5002823999966,814.8458268999821,814.8625451999833,815.146039699961,815.1626324999961,814.5002823999966,up,2.631645799963735,815.1626324999961,None,815.1626324999961,816.345128099958,0.06204049999359995,None,,,,,,,,,22,001,2019_Dec_25_1121,untitled,3.1.0,60.13974070136788,
044,R,M,135,L,N,044RM135LN,HLN,0,231,231,107,,,0.966,817.874531599984,818.2102263999986,818.2269311999553,818.5104359999532,818.526878399949,None,down,2.2334559999872,818.526878399949,None,818.526878399949,819.4754110999638,0.07216430001426488,None,,,,,,,,,22,001,2019_Dec_25_1121,untitled,3.1.0,60.13974070136788,
_,F,N,180,_,_,_FN180__,N,0,232,232,52,,,1.119,820.8281693999888,821.1741561999661,821.1908457999816,821.473931799992,821.4904120999854,None,down,2.5818406000034884,821.4904120999854,None,821.4904120999854,822.5901770999772,0.06023149995598942,None,,,,,,,,,22,001,2019_Dec_25_1121,untitled,3.1.0,60.13974070136788,
302,_2,M,225,L,N,302_2M225LN,HLN,0,233,233,157,,,0.723,824.150996899989,824.4877504999749,824.5043412999948,824.7876404999988,824.8042102999752,None,down,2.4319335999898612,824.8042102999752,None,824.8042102999752,825.5037642999669,0.07086399995023385,None,,,,,,,,,22,001,2019_Dec_25_1121,untitled,3.1.0,60.13974070136788,
161,F,N,0,L,N,161FN000LN,HLN,0,234,234,216,,,0.971,827.312947999977,827.6520316999522,827.668479999993,827.9512843999546,827.9684330999735,None,down,1.8153599000070244,827.9684330999735,None,827.9684330999735,828.9173431999516,0.06964919995516539,None,,,,,,,,,22,001,2019_Dec_25_1121,untitled,3.1.0,60.13974070136788,
457,_5,M,0,R,N,457_5M000RN,HRN,0,235,235,176,,,1.367,829.8526915999828,830.1998202999821,830.2164585999562,830.4998097999487,830.5162230999558,None,down,2.5159595999866724,830.5162230999558,None,830.5162230999558,831.8646461999742,0.062194099999032915,None,,,,,,,,,22,001,2019_Dec_25_1121,untitled,3.1.0,60.13974070136788,
137,F,M,0,R,N,137FM000RN,HRN,0,236,236,112,,,1.095,833.1005325999577,833.4469630999956,833.4636105999816,833.7466400999692,833.7632090999978,None,down,2.03195080003934,833.7632090999978,None,833.7632090999978,834.845709199959,0.06153570004971698,None,,,,,,,,,22,001,2019_Dec_25_1121,untitled,3.1.0,60.13974070136788,
_,R,M,315,_,_,_RM315__,N,0,237,237,23,,,1.212,835.8756770999753,836.211347799981,836.2279104999616,836.5112083999556,836.5277868999983,None,down,2.5650433999835514,836.5277868999983,None,836.5277868999983,837.7267627999536,0.07125799998175353,None,,,,,,,,,22,001,2019_Dec_25_1121,untitled,3.1.0,60.13974070136788,
391,_4,N,270,R,N,391_4N270RN,HRN,0,238,238,262,,,1.083,839.1758911999641,839.5080668999581,839.5247072999482,839.8076717999647,839.824383899977,None,up,1.9154656999744475,839.824383899977,None,839.824383899977,840.8903526999638,0.07533490000059828,None,,,,,,,,,22,001,2019_Dec_25_1121,untitled,3.1.0,60.13974070136788,
176,F,M,315,L,N,176FM315LN,HLN,0,239,239,127,,,1.17,841.809575399966,842.1567732999683,842.1724977999693,842.455738699995,842.4721129999962,None,down,1.9663177000475116,842.4721129999962,None,842.4721129999962,843.6221658999566,0.0615442999987863,None,,,,,,,,,22,001,2019_Dec_25_1121,untitled,3.1.0,60.13974070136788,
496,_5,M,315,L,N,496_5M315LN,HLN,0,240,240,191,,,1.104,844.511423799966,844.8537522999686,844.8703520999989,845.1526656999486,845.1704370999942,None,down,2.331879300007131,845.1704370999942,None,845.1704370999942,846.2523266999633,0.06594639999093488,None,,,,,,,,,22,001,2019_Dec_25_1121,untitled,3.1.0,60.13974070136788,
394,_4,M,45,R,N,394_4M045RN,HRN,0,241,241,161,,,1.21,847.5727838999592,847.9179273999762,847.9341777999653,848.2174300999613,848.2338760999846,None,down,2.266027799982112,848.2338760999846,None,848.2338760999846,849.432668399997,0.0636798000195995,None,,,,,,,,,22,001,2019_Dec_25_1121,untitled,3.1.0,60.13974070136788,
430,_4,M,225,L,N,430_4M225LN,HLN,0,242,242,173,,,1.099,850.5699039999745,850.9149591999594,850.9315473999595,851.2149146999582,851.2312632999965,None,down,2.5834442999912426,851.2312632999965,None,851.2312632999965,852.3144093999872,0.06348189996788278,None,,,,,,,,,22,001,2019_Dec_25_1121,untitled,3.1.0,60.13974070136788,
132,F,N,135,R,N,132FN135RN,HRN,0,243,243,211,,,0.892,853.8887825999991,854.2285010999767,854.2452333999681,854.5284033999778,854.545131299994,None,up,1.951612600008957,854.545131299994,None,854.545131299994,855.4273014999926,0.06666389998281375,None,,,,,,,,,22,001,2019_Dec_25_1121,untitled,3.1.0,60.13974070136788,
_,R,M,90,_,_,_RM090__,N,0,244,244,18,,,0.765,856.5639717999729,856.9104896999779,856.9260222999728,857.2095850999467,857.2263104000012,None,down,1.9667679000413045,857.2263104000012,None,857.2263104000012,857.9756149999448,0.060500299965497106,None,,,,,,,,,22,001,2019_Dec_25_1121,untitled,3.1.0,60.13974070136788,
488,_5,N,315,L,N,488_5N315LN,HLN,0,245,245,287,,,1.175,859.2806029999629,859.6078511999804,859.6238651999738,859.9091112999595,859.9244003999629,None,up,2.0160519999917597,859.9244003999629,None,859.9244003999629,861.0896902999957,0.07871049997629598,None,,,,,,,,,22,001,2019_Dec_25_1121,untitled,3.1.0,60.13974070136788,
007,R,N,270,R,N,007RN270RN,HRN,0,246,246,198,,,1.133,862.0085581999738,862.3548719999962,862.3715285999933,862.6548995999619,862.6715359999798,None,up,1.934756800008472,862.6715359999798,None,862.6715359999798,863.7871542999637,0.06127599999308586,None,,,,,,,,,22,001,2019_Dec_25_1121,untitled,3.1.0,60.13974070136788,
489,_5,M,0,L,N,489_5M000LN,HLN,0,247,247,184,,,1.2,864.6742903999984,865.0194525999832,865.0365241999971,865.3191008999711,865.3357060999842,None,down,2.31702519999817,865.3357060999842,None,865.3357060999842,866.5179723999463,0.060388099984265864,None,,,,,,,,,22,001,2019_Dec_25_1121,untitled,3.1.0,60.13974070136788,
484,_5,N,135,L,N,484_5N135LN,HLN,0,248,248,283,,,0.808,867.7208516999963,868.0666052000015,868.0834138999926,868.3665472999564,868.3829381999676,None,up,2.18185110000195,868.3829381999676,None,868.3829381999676,869.1824049999705,0.06147960002999753,None,,,,,,,,,22,001,2019_Dec_25_1121,untitled,3.1.0,60.13974070136788,
_,_4,N,135,_,_,__4N135__,N,0,249,249,83,,,1.037,870.647002499958,870.9807038999861,870.9972873999504,871.2805094999494,871.2970276999986,None,up,1.832080300024245,871.2970276999986,None,871.2970276999986,872.3124618000002,0.0744202000205405,None,,,,,,,,,22,001,2019_Dec_25_1121,untitled,3.1.0,60.13974070136788,
421,_4,N,180,L,N,421_4N180LN,HLN,0,250,250,268,,,1.228,873.2030576999532,873.5451978999772,873.5628676999477,873.8449400999816,873.8618115999852,None,up,3.3308787000132725,873.8618115999852,None,873.8618115999852,875.0775149999536,0.0665830000070855,None,,,,,,,,,22,001,2019_Dec_25_1121,untitled,3.1.0,60.13974070136788,
432,_4,M,315,L,N,432_4M315LN,HLN,0,251,251,175,,,1.104,877.2641308999737,877.6090666999808,877.6250762999989,877.9086738999467,877.9246477999841,None,down,2.5840031999978237,877.9246477999841,None,877.9246477999841,879.0069756999728,0.06408350000856444,None,,,,,,,,,22,001,2019_Dec_25_1121,untitled,3.1.0,60.13974070136788,
_,G,N,180,_,_,_GN180__,N,0,252,252,60,,,1.026,880.5784634999582,880.922422899981,880.9388118999777,881.2226959999534,881.2390445999918,None,up,2.4308473000419326,881.2390445999918,None,881.2390445999918,882.2547323999461,0.0631825000164099,None,,,,,,,,,22,001,2019_Dec_25_1121,untitled,3.1.0,60.13974070136788,
388,_4,N,135,R,N,388_4N135RN,HRN,0,253,253,259,,,1.11,883.7412644999567,884.0862362999469,884.1027878999594,884.3861596999923,884.402357599989,None,up,2.115835500007961,884.402357599989,None,884.402357599989,885.5013634999632,0.06373310001799837,None,,,,,,,,,22,001,2019_Dec_25_1121,untitled,3.1.0,60.13974070136788,
135,F,N,270,R,N,135FN270RN,HRN,0,254,254,214,,,1.039,886.603226999985,886.9343388999696,886.9498752999934,887.2348932999885,887.2496067999746,None,up,3.2166520000318997,887.2496067999746,None,887.2496067999746,888.2663281999994,0.07738570001674816,None,,,,,,,,,22,001,2019_Dec_25_1121,untitled,3.1.0,60.13974070136788,
_,_2,N,270,_,_,__2N270__,N,0,255,255,78,,,0.856,890.5370880999835,890.8802193999873,890.8967986999778,891.1802715999656,891.1965072999592,None,up,1.8164430999895558,891.1965072999592,None,891.1965072999592,892.0290787999984,0.06409249996067956,None,,,,,,,,,22,001,2019_Dec_25_1121,untitled,3.1.0,60.13974070136788,
_,_2,M,135,_,_,__2M135__,N,0,256,256,27,,,1.228,893.0813264999888,893.4279162999592,893.4447858999483,893.727576699981,893.7442533999565,None,down,2.864780600008089,893.7442533999565,None,893.7442533999565,894.9594050999731,0.06099600001471117,None,,,,,,,,,22,001,2019_Dec_25_1121,untitled,3.1.0,60.13974070136788,
_,R,M,45,_,_,_RM045__,N,0,257,257,17,,,0.858,896.7036216999986,897.0247172999661,897.0415340999607,897.3245786999469,897.3408024999662,None,down,1.865728400007356,897.3408024999662,None,897.3408024999662,898.1735363999614,0.08725129999220371,None,,,,,,,,,22,001,2019_Dec_25_1121,untitled,3.1.0,60.13974070136788,
_,_2,M,270,_,_,__2M270__,N,0,258,258,30,,,0.794,899.273514200002,899.6223455999861,899.6394929999951,899.9219843999599,899.9399342999677,None,down,2.2475090999505483,899.9399342999677,None,899.9399342999677,900.7216225999873,0.05993409996153787,None,,,,,,,,,22,001,2019_Dec_25_1121,untitled,3.1.0,60.13974070136788,
225,G,N,0,L,N,225GN000LN,HLN,0,259,259,232,,,0.869,902.2666037999443,902.6036151999724,902.6198696999927,902.9026983999647,902.9203074999969,None,up,1.8003898999886587,902.9203074999969,None,902.9203074999969,903.7688149999594,0.07140180002897978,None,,,,,,,,,22,001,2019_Dec_25_1121,untitled,3.1.0,60.13974070136788,
006,R,N,225,R,N,006RN225RN,HRN,0,260,260,197,,,1.365,904.7911125999526,905.1351705999696,905.1513349999441,905.4340202999883,905.4510410999646,None,up,2.2354318000143394,905.4510410999646,None,905.4510410999646,906.7994644999853,0.06277520000003278,None,,,,,,,,,22,001,2019_Dec_25_1121,untitled,3.1.0,60.13974070136788,
231,G,N,270,L,N,231GN270LN,HLN,0,261,261,238,,,0.781,907.772881599958,908.0982411999721,908.1153082999517,908.39830229996,908.4147851999733,None,up,1.6498117999872193,908.4147851999733,None,908.4147851999733,909.1812841999927,0.07752759999129921,None,,,,,,,,,22,001,2019_Dec_25_1121,untitled,3.1.0,60.13974070136788,
270,_2,M,225,R,N,270_2M225RN,HRN,0,262,262,149,,,1.0150000000000001,910.1354014999815,910.4800156999845,910.4964288999909,910.780483599985,910.7964916999917,None,down,2.1672312000300735,910.7964916999917,None,910.7964916999917,911.7958494999912,0.06375480000860989,None,,,,,,,,,22,001,2019_Dec_25_1121,untitled,3.1.0,60.13974070136788,
042,R,M,45,L,N,042RM045LN,HLN,0,263,263,105,,,1.1500000000000001,913.0319933999563,913.3785762999905,913.3939602999599,913.677074999956,913.6938049999881,None,down,2.5145324000041,913.6938049999881,None,913.6938049999881,914.8269827999757,0.06033929996192455,None,,,,,,,,,22,001,2019_Dec_25_1121,untitled,3.1.0,60.13974070136788,
167,F,N,270,L,N,167FN270LN,HLN,0,264,264,222,,,0.8210000000000001,916.2882428999874,916.6239902999951,916.6407587999711,916.9239930999465,916.9406529999687,None,up,1.749516899988521,916.9406529999687,None,916.9406529999687,917.7396678999648,0.07213030004641041,None,,,,,,,,,22,001,2019_Dec_25_1121,untitled,3.1.0,60.13974070136788,
422,_4,N,225,L,N,422_4N225LN,HLN,0,265,265,269,,,0.794,918.7584211999783,919.1054726999719,919.1219186999951,919.4052785999957,919.4218451999477,None,up,1.715603899967391,919.4218451999477,None,919.4218451999477,920.2043180999462,0.06087520002620295,None,,,,,,,,,22,001,2019_Dec_25_1121,untitled,3.1.0,60.13974070136788,
009,R,M,0,R,N,009RM000RN,HRN,0,266,266,96,,,1.151,921.2123715999769,921.5534151999746,921.5702230999595,921.8531463999534,921.8694587999489,None,down,1.9492110999999568,921.8694587999489,None,921.8694587999489,923.0023041999666,0.06703450001077726,None,,,,,,,,,22,001,2019_Dec_25_1121,untitled,3.1.0,60.13974070136788,
196,G,N,135,R,N,196GN135RN,HRN,0,267,267,227,,,0.991,923.9157873999793,924.2353390999488,924.25104069995,924.5340699999942,924.5506981999497,None,up,2.699148999992758,924.5506981999497,None,924.5506981999497,925.5335354999988,0.08633159997407347,None,,,,,,,,,22,001,2019_Dec_25_1121,untitled,3.1.0,60.13974070136788,
265,_2,M,0,R,N,265_2M000RN,HRN,0,268,268,144,,,0.907,927.3351156999706,927.6647602999583,927.6813520999858,927.9640936999931,927.980651299993,None,down,1.6496644000289962,927.980651299993,None,927.980651299993,928.8802223999519,0.07598159997723997,None,,,,,,,,,22,001,2019_Dec_25_1121,untitled,3.1.0,60.13974070136788,
257,_2,N,0,R,N,257_2N000RN,HRN,0,269,269,240,,,0.936,929.6980128999567,930.046014499967,930.0639803999802,930.345835199987,930.3624354999629,None,up,1.6485787999699824,930.3624354999629,None,930.3624354999629,931.2782774999505,0.05949799995869398,None,,,,,,,,,22,001,2019_Dec_25_1121,untitled,3.1.0,60.13974070136788,
424,_4,N,315,L,N,424_4N315LN,HLN,0,270,270,271,,,1.2570000000000001,932.092077499954,932.4270513999509,932.4435553999501,932.7267842000001,932.7436007999931,None,up,2.0816542000393383,932.7436007999931,None,932.7436007999931,933.9756421999773,0.07363160001114011,None,,,,,,,,,22,001,2019_Dec_25_1121,untitled,3.1.0,60.13974070136788,
002,R,N,45,R,N,002RN045RN,HRN,0,271,271,193,,,1.399,934.8940417999984,935.2417767999577,935.2601599999471,935.5413521999726,935.557944399945,None,up,2.181687999982387,935.557944399945,None,935.557944399945,936.9402332999744,0.062131899991072714,None,,,,,,,,,22,001,2019_Dec_25_1121,untitled,3.1.0,60.13974070136788,
_,_5,N,90,_,_,__5N090__,N,0,272,272,90,,,1.199,937.8091992999543,938.1556153999991,938.1735221999697,938.4553479999886,938.4719980999944,None,up,2.2819238000083715,938.4719980999944,None,938.4719980999944,939.6550724999979,0.06018150004092604,None,,,,,,,,,22,001,2019_Dec_25_1121,untitled,3.1.0,60.13974070136788,
266,_2,M,45,R,N,266_2M045RN,HRN,0,273,273,145,,,1.03,940.8228717999882,941.1707419999875,941.1869517999585,941.4695169999613,941.4870685999631,None,down,1.7978211999870837,941.4870685999631,None,941.4870685999631,942.5026316999574,0.06151019997196272,None,,,,,,,,,22,001,2019_Dec_25_1121,untitled,3.1.0,60.13974070136788,
_,G,M,180,_,_,_GM180__,N,0,274,274,12,,,0.858,943.3553757999907,943.7008145999862,943.7174876999925,944.0006216999609,944.017728799954,None,down,2.6976666999980807,944.017728799954,None,944.017728799954,944.8493971999851,0.0624431999749504,None,,,,,,,,,22,001,2019_Dec_25_1121,untitled,3.1.0,60.13974070136788,
_,F,M,135,_,_,_FM135__,N,0,275,275,3,,,1.381,946.7980098999687,947.1309799999581,947.1475162999704,947.4306076999637,947.447417999967,None,down,2.4992282000021078,947.447417999967,None,947.447417999967,948.8133394999895,0.07413560000713915,None,,,,,,,,,22,001,2019_Dec_25_1121,untitled,3.1.0,60.13974070136788,
130,F,N,45,R,N,130FN045RN,HRN,0,276,276,209,,,1.188,950.0162904999452,950.3611169999931,950.3782707999926,950.6611542999744,950.6777823999873,None,up,2.06784209999023,950.6777823999873,None,950.6777823999873,951.8440672999714,0.0630074999644421,None,,,,,,,,,22,001,2019_Dec_25_1121,untitled,3.1.0,60.13974070136788,
139,F,M,90,R,N,139FM090RN,HRN,0,277,277,114,,,0.873,952.8135329999495,953.1588342999457,953.1765810999786,953.4588259999873,953.4755495999707,None,down,1.9991353999939747,953.4755495999707,None,953.4755495999707,954.3250209999969,0.06054109998513013,None,,,,,,,,,22,001,2019_Dec_25_1121,untitled,3.1.0,60.13974070136788,
206,G,M,225,R,N,206GM225RN,HRN,0,278,278,133,,,0.877,955.5447777999798,955.890176899964,955.9071581999888,956.1903821000014,956.2065374999656,None,down,2.264976200007368,956.2065374999656,None,956.2065374999656,957.0723345999722,0.0597008999902755,None,,,,,,,,,22,001,2019_Dec_25_1121,untitled,3.1.0,60.13974070136788,
392,_4,N,315,R,N,392_4N315RN,HRN,0,279,279,263,,,0.9420000000000001,958.5430346999783,958.8872695999453,958.9040769999847,959.1872414999525,959.2041244999855,None,up,1.965108600037638,959.2041244999855,None,959.2041244999855,960.1196716999984,0.06411730003310367,None,,,,,,,,,22,001,2019_Dec_25_1121,untitled,3.1.0,60.13974070136788,
136,F,N,315,R,N,136FN315RN,HRN,0,280,280,215,,,1.065,961.2408785999869,961.5850091999746,961.6017374999938,961.8850050999899,961.9016459999839,None,up,2.2654731000075117,961.9016459999839,None,961.9016459999839,962.9504271999467,0.06509629997890443,None,,,,,,,,,22,001,2019_Dec_25_1121,untitled,3.1.0,60.13974070136788,
_,_5,N,45,_,_,__5N045__,N,0,281,281,89,,,1.307,964.2458188000019,964.5829234999837,964.5995863999706,964.8825985000003,964.8985160999582,None,up,2.203849099983927,964.8985160999582,None,964.8985160999582,966.1817449999508,0.07089199998881668,None,,,,,,,,,22,001,2019_Dec_25_1121,untitled,3.1.0,60.13974070136788,
164,F,N,135,L,N,164FN135LN,HLN,0,282,282,219,,,1.155,967.1953800999909,967.513256599952,967.5298351999954,967.8134102999466,967.8302313999739,None,up,2.047668999992311,967.8302313999739,None,967.8302313999739,968.9788082999876,0.08516350004356354,None,,,,,,,,,22,001,2019_Dec_25_1121,untitled,3.1.0,60.13974070136788,
235,G,M,90,L,N,235GM090LN,HLN,0,283,283,138,,,1.3940000000000001,969.9472441999824,970.2949122999562,970.2949122999562,970.593757900002,970.6111303999787,None,down,2.247772100032307,970.6111303999787,None,970.6111303999787,971.9933726999443,0.062222100037615746,None,,,,,,,,,22,001,2019_Dec_25_1121,untitled,3.1.0,60.13974070136788,
173,F,M,180,L,N,173FM180LN,HLN,0,284,284,124,,,1.108,972.9277483999613,973.2753101999988,973.2927361999755,973.5756784999976,973.5913216999616,None,down,2.784701699973084,973.5913216999616,None,973.5913216999616,974.6736644999473,0.062420600035693496,None,,,,,,,,,22,001,2019_Dec_25_1121,untitled,3.1.0,60.13974070136788,
230,G,N,225,L,N,230GN225LN,HLN,0,285,285,237,,,0.71,976.4695078999503,976.7885357999476,976.8047167999903,977.0894928999478,977.104992699984,None,up,2.0325614999746904,977.104992699984,None,977.104992699984,977.8045591999544,0.08190130000002682,None,,,,,,,,,22,001,2019_Dec_25_1121,untitled,3.1.0,60.13974070136788,
_,G,N,315,_,_,_GN315__,N,0,286,286,63,,,0.737,979.2154996999889,979.552383399976,979.569148599985,979.8529387000017,979.8700598999858,None,up,1.5338194000069052,979.8700598999858,None,979.8700598999858,980.5852081999765,0.07039220002479851,None,,,,,,,,,22,001,2019_Dec_25_1121,untitled,3.1.0,60.13974070136788,
163,F,N,90,L,N,163FN090LN,HLN,0,287,287,218,,,0.811,981.4740726999589,981.8178114999901,981.8344718999579,982.1171988999704,982.1336946999654,None,up,1.599122299987357,982.1336946999654,None,982.1336946999654,982.9347598999739,0.06349309999495745,None,,,,,,,,,22,001,2019_Dec_25_1121,untitled,3.1.0,60.13974070136788,
,,,,,,,,,,,,,,,,,,,,,,,,,,,,,983.7497103999485,None,1035.4543437999673,None,1038.967848100001,None,1040.9330718999845,None,,,,,,,
