Number,Letter,type,Orientation,human,face_type,image,picture,trials.thisRepN,trials.thisTrialN,trials.thisN,trials.thisIndex,text.started,text.stopped,stimulus_duration,CROSS.started,CROSS.stopped,BLANK.started,BLANK.stopped,TEST.started,TEST.stopped,key_JUDGE.keys,key_JUDGE.started,key_JUDGE.stopped,image_2.started,image_2.stopped,ISI.started,ISI.stopped,key_JUDGE.rt,q1.started,q1.stopped,q2.started,q2.stopped,q3.started,q3.stopped,text_2.started,text_2.stopped,participant,session,date,expName,psychopyVersion,frameRate,
482,_5,N,45,L,N,482_5N045LN,HLN,0,0,0,281,101.09782310004812,None,0.748,147.20632860000478,147.54315990000032,147.55990490003023,147.84297860000515,147.8600117000169,None,None,147.8600117000169,None,147.8600117000169,148.59229270002106,0.06525729998247698,None,,,,,,,,,,23,001,2019_Dec_25_1215,untitled,3.1.0,59.512084238260485,
461,_5,M,180,R,N,461_5M180RN,HRN,0,1,1,180,,,0.8260000000000001,151.4277970000403,151.77272410003934,151.7892519000452,152.07301300001564,152.08881280000787,151.4277970000403,up,152.08881280000787,None,152.08881280000787,152.90527760004625,0.0609606999787502,None,3.215362599992659,,,,,,,,,23,001,2019_Dec_25_1215,untitled,3.1.0,59.512084238260485,
_,_4,M,270,_,_,__4M270__,N,0,2,2,38,,,1.346,155.38146340003004,155.71968640002888,155.73606600001222,156.01969120005378,156.03589950001333,None,down,156.03589950001333,None,156.03589950001333,157.3687075000489,0.06532430002698675,None,2.7817277999711223,,,,,,,,,23,001,2019_Dec_25_1215,untitled,3.1.0,59.512084238260485,
001,R,N,0,R,N,001RN000RN,HRN,0,3,3,192,,,1.2670000000000001,158.88866039999994,159.233094300027,159.2508517000242,159.5341149000451,159.5494607000146,None,up,159.5494607000146,None,159.5494607000146,160.7981736000511,0.06373789999634027,None,2.4481665999628603,,,,,,,,,23,001,2019_Dec_25_1215,untitled,3.1.0,59.512084238260485,
167,F,N,270,L,N,167FN270LN,HLN,0,4,4,222,,,1.118,162.06813990004594,162.41449750005268,162.43013320001774,162.71319400001084,162.7298649000004,None,up,162.7298649000004,None,162.7298649000004,163.82894249999663,0.06325980002293363,None,2.8499817000119947,,,,,,,,,23,001,2019_Dec_25_1215,untitled,3.1.0,59.512084238260485,
_,_4,M,0,_,_,__4M000__,N,0,5,5,32,,,1.311,165.6487984000123,165.9941254000296,166.01062790001743,166.29380280000623,166.31022030004533,None,down,166.31022030004533,None,166.31022030004533,167.60896189999767,0.06199160002870485,None,2.8476675000274554,,,,,,,,,23,001,2019_Dec_25_1215,untitled,3.1.0,59.512084238260485,
_,_2,N,270,_,_,__2N270__,N,0,6,6,78,,,1.073,169.2278634000104,169.574119900004,169.5909772000159,169.8740577000426,169.89058480004314,None,up,169.89058480004314,None,169.89058480004314,170.94067130004987,0.06254859996261075,None,2.183799199992791,,,,,,,,,23,001,2019_Dec_25_1215,untitled,3.1.0,59.512084238260485,
_,G,N,90,_,_,_GN090__,N,0,7,7,58,,,0.855,172.15814450004837,172.48789250000846,172.50459720002254,172.78787630004808,172.804456700047,None,down,172.804456700047,None,172.804456700047,173.6368212000234,0.0758468999993056,None,3.2148325000307523,,,,,,,,,23,001,2019_Dec_25_1215,untitled,3.1.0,59.512084238260485,
141,F,M,180,R,N,141FM180RN,HRN,0,8,8,116,,,1.2610000000000001,176.0975119000068,176.43479080003453,176.45158600003924,176.73463730001822,176.75219650001964,None,up,176.75219650001964,None,176.75219650001964,178.00099100003717,0.06931789999362081,None,2.7469665000098757,,,,,,,,,23,001,2019_Dec_25_1215,untitled,3.1.0,59.512084238260485,
265,_2,M,0,R,N,265_2M000RN,HRN,0,9,9,144,,,0.921,179.5732581000193,179.9152084000525,179.9318809999968,180.21497040003305,180.2325569000095,None,down,180.2325569000095,None,180.2325569000095,181.1303126999992,0.06725520000327379,None,2.581212699995376,,,,,,,,,23,001,2019_Dec_25_1215,untitled,3.1.0,59.512084238260485,
_,_4,N,225,_,_,__4N225__,N,0,10,10,85,,,0.779,182.883029300021,183.22971060004784,183.2454169000266,183.52881630003685,183.54661840002518,None,up,183.54661840002518,None,183.54661840002518,184.31132580002304,0.06199169997125864,None,2.2151237000362016,,,,,,,,,23,001,2019_Dec_25_1215,untitled,3.1.0,59.512084238260485,
_,R,N,315,_,_,_RN315__,N,0,11,11,71,,,0.857,185.8335513000493,186.1765458000009,186.19301640003687,186.47548280004412,186.49253520002821,None,up,186.49253520002821,None,186.49253520002821,187.32506080000894,0.06439069996122271,None,1.9487510000471957,,,,,,,,,23,001,2019_Dec_25_1215,untitled,3.1.0,59.512084238260485,
_,F,N,135,_,_,_FN135__,N,0,12,12,51,,,0.868,188.50967570004286,188.8573965000105,188.87403750000522,189.1573757000151,189.17644470004598,None,up,189.17644470004598,None,189.17644470004598,190.02275709999958,0.061084399989340454,None,2.080143900006078,,,,,,,,,23,001,2019_Dec_25_1215,untitled,3.1.0,59.512084238260485,
291,_2,N,90,L,N,291_2N090LN,HLN,0,13,13,250,,,0.774,191.34124070004327,191.67325110000093,191.68834350001998,191.97161450004205,191.98798230005195,None,up,191.98798230005195,None,191.98798230005195,192.75390020001214,0.07486990001052618,None,1.7662120999884792,,,,,,,,,23,001,2019_Dec_25_1215,untitled,3.1.0,59.512084238260485,
133,F,N,180,R,N,133FN180RN,HRN,0,14,14,212,,,1.077,193.8267954000039,194.1696088000317,194.1861546,194.46917580004083,194.485841500049,None,up,194.485841500049,None,194.485841500049,195.55150510004023,0.06283949996577576,None,2.1187556000077166,,,,,,,,,23,001,2019_Dec_25_1215,untitled,3.1.0,59.512084238260485,
_,R,N,270,_,_,_RN270__,N,0,15,15,70,,,1.171,196.67366570001468,197.0169114000164,197.03424720000476,197.3161069000489,197.33283440000378,None,up,197.33283440000378,None,197.33283440000378,198.48190360004082,0.06230420002248138,None,2.0686370999901555,,,,,,,,,23,001,2019_Dec_25_1215,untitled,3.1.0,59.512084238260485,
193,G,N,0,R,N,193GN000RN,HRN,0,16,16,224,,,1.012,199.4720560000278,199.81469640001887,199.8311997000128,200.1141206000466,200.13059670000803,None,up,200.13059670000803,None,200.13059670000803,201.12942000001203,0.06194619997404516,None,1.85132670000894,,,,,,,,,23,001,2019_Dec_25_1215,untitled,3.1.0,59.512084238260485,
_,_2,N,225,_,_,__2N225__,N,0,17,17,77,,,1.141,202.05705750000197,202.39616990002105,202.4127497000154,202.6951865000301,202.71165950002614,None,up,202.71165950002614,None,202.71165950002614,203.84444410004653,0.06688930001109838,None,2.1517078000470065,,,,,,,,,23,001,2019_Dec_25_1215,untitled,3.1.0,59.512084238260485,
132,F,N,135,R,N,132FN135RN,HRN,0,18,18,211,,,0.985,204.9648976000026,205.2761812999961,205.29298540001037,205.5759183000191,205.5933935000212,None,up,205.5933935000212,None,205.5933935000212,206.55940940004075,0.08949099999153987,None,2.317808900028467,,,,,,,,,23,001,2019_Dec_25_1215,untitled,3.1.0,59.512084238260485,
_,_5,N,135,_,_,__5N135__,N,0,19,19,91,,,0.883,208.00882020004792,208.32377770001767,208.34061569999903,208.62418149999576,208.64122670004144,None,up,208.64122670004144,None,208.64122670004144,209.50589640002,0.0867444000323303,None,2.281180099991616,,,,,,,,,23,001,2019_Dec_25_1215,untitled,3.1.0,59.512084238260485,
_,_2,M,270,_,_,__2M270__,N,0,20,20,30,,,1.305,210.9912512000301,211.33892800001195,211.35437700001057,211.63768370001344,211.65395750000607,None,down,211.65395750000607,None,211.65395750000607,212.93645440001274,0.06195930001558736,None,2.914813899958972,,,,,,,,,23,001,2019_Dec_25_1215,untitled,3.1.0,59.512084238260485,
_,_2,M,180,_,_,__2M180__,N,0,21,21,28,,,1.208,214.64020990004065,214.98435600002995,215.00248620001366,215.28473100002157,215.30248070001835,None,down,215.30248070001835,None,215.30248070001835,216.48292290000245,0.0618922000285238,None,3.1961281000403687,,,,,,,,,23,001,2019_Dec_25_1215,untitled,3.1.0,59.512084238260485,
293,_2,N,180,L,N,293_2N180LN,HLN,0,22,22,252,,,1.361,218.56952800002182,218.91450350004015,218.9312800000189,219.21422680001706,219.23078010004247,None,up,219.23078010004247,None,219.23078010004247,220.5642671000096,0.06387749995337799,None,2.416554900002666,,,,,,,,,23,001,2019_Dec_25_1215,untitled,3.1.0,59.512084238260485,
398,_4,M,225,R,N,398_4M225RN,HRN,0,23,23,165,,,1.349,221.7196501000435,222.06230940000387,222.07933100004448,222.36175880004885,222.3779839000199,None,None,222.3779839000199,None,222.3779839000199,223.71007010003086,0.06482109997887164,None,,,,,,,,,,23,001,2019_Dec_25_1215,untitled,3.1.0,59.512084238260485,
450,_5,N,45,R,N,450_5N045RN,HRN,0,24,24,273,,,1.226,225.91162590001477,226.25829850003356,226.27711370005272,226.56075740000233,226.5753983000177,225.91162590001477,up,226.5753983000177,None,226.5753983000177,227.77336829999695,0.06313899997621775,None,2.000159299990628,,,,,,,,,23,001,2019_Dec_25_1215,untitled,3.1.0,59.512084238260485,
229,G,N,180,L,N,229GN180LN,HLN,0,25,25,236,,,0.737,228.64524030004395,228.98934920004103,229.00566130003426,229.28852170001483,229.3049116000184,None,up,229.3049116000184,None,229.3049116000184,230.02134430001024,0.06199499999638647,None,2.6322496000211686,,,,,,,,,23,001,2019_Dec_25_1215,untitled,3.1.0,59.512084238260485,
269,_2,M,180,R,N,269_2M180RN,HRN,0,26,26,148,,,0.9580000000000001,232.00668560003396,232.35294740000973,232.36965870001586,232.65262790000997,232.6689685000456,None,None,232.6689685000456,None,232.6689685000456,233.60180900001433,0.0628106000367552,None,,,,,,,,,,23,001,2019_Dec_25_1215,untitled,3.1.0,59.512084238260485,
295,_2,N,270,L,N,295_2N270LN,HLN,0,27,27,254,,,0.989,236.20457270002225,236.549101600016,236.56575770000927,236.84970060002524,236.8653454000014,236.20457270002225,up,236.8653454000014,None,236.8653454000014,237.83215349999955,0.0622649000142701,None,1.8351201000041328,,,,,,,,,23,001,2019_Dec_25_1215,untitled,3.1.0,59.512084238260485,
430,_4,M,225,L,N,430_4M225LN,HLN,0,28,28,173,,,1.0190000000000001,238.77653260005172,239.11372459999984,239.13035930000478,239.41358960000798,239.4303773000138,None,down,239.4303773000138,None,239.4303773000138,240.42940930003533,0.06873850000556558,None,3.215117599989753,,,,,,,,,23,001,2019_Dec_25_1215,untitled,3.1.0,59.512084238260485,
226,G,N,45,L,N,226GN045LN,HLN,0,29,29,233,,,1.025,242.71664050000254,243.0613277000375,243.0768536000396,243.35986680001952,243.37636650004424,None,up,243.37636650004424,None,243.37636650004424,244.37560660002055,0.06429280003067106,None,2.0989392999908887,,,,,,,,,23,001,2019_Dec_25_1215,untitled,3.1.0,59.512084238260485,
_,G,N,45,_,_,_GN045__,N,0,30,30,57,,,0.882,245.55029580002883,245.89083849999588,245.9086538000265,246.19087810005294,246.2071068000514,None,up,246.2071068000514,None,246.2071068000514,247.07324759999756,0.06669980002334341,None,1.7339489000150934,,,,,,,,,23,001,2019_Dec_25_1215,untitled,3.1.0,59.512084238260485,
235,G,M,90,L,N,235GM090LN,HLN,0,31,31,138,,,1.178,248.01173130003735,248.3556760000065,248.37220179999713,248.65531120001106,248.67206510005053,None,down,248.67206510005053,None,248.67206510005053,249.8375667000073,0.063392499985639,None,2.2191034000134096,,,,,,,,,23,001,2019_Dec_25_1215,untitled,3.1.0,59.512084238260485,
304,_2,M,315,L,N,304_2M315LN,HLN,0,32,32,159,,,1.233,250.9820387000218,251.30274840001948,251.31960200000321,251.60283420002088,251.6195321000414,None,down,251.6195321000414,None,251.6195321000414,252.83480540005257,0.08278619998600334,None,2.348532299976796,,,,,,,,,23,001,2019_Dec_25_1215,untitled,3.1.0,59.512084238260485,
172,F,M,135,L,N,172FM135LN,HLN,0,33,33,123,,,0.778,254.03956430003745,254.38363700004993,254.4003459000378,254.68368539999938,254.7007522000349,None,down,254.7007522000349,None,254.7007522000349,255.46579090005253,0.0646534999832511,None,2.8809591000317596,,,,,,,,,23,001,2019_Dec_25_1215,untitled,3.1.0,59.512084238260485,
495,_5,M,270,L,N,495_5M270LN,HLN,0,34,34,190,,,0.76,257.66421840002295,257.99721520004096,258.01385780004784,258.2966688000015,258.3132894000155,None,down,258.3132894000155,None,258.3132894000155,259.06345170002896,0.07406600000103936,None,2.449118999997154,,,,,,,,,23,001,2019_Dec_25_1215,untitled,3.1.0,59.512084238260485,
_,_5,M,90,_,_,__5M090__,N,0,35,35,42,,,1.175,260.8370948000229,261.1775086999987,261.1941500999965,261.47751890000654,261.4939908000524,None,down,261.4939908000524,None,261.4939908000524,262.6593147000531,0.06812989996979013,None,2.9146442000055686,,,,,,,,,23,001,2019_Dec_25_1215,untitled,3.1.0,59.512084238260485,
_,G,N,315,_,_,_GN315__,N,0,36,36,63,,,1.243,264.48020109999925,264.8253163000336,264.841307100025,265.1241997000179,265.1408461999963,None,up,265.1408461999963,None,265.1408461999963,266.37318310001865,0.06498239998472854,None,2.21616539999377,,,,,,,,,23,001,2019_Dec_25_1215,untitled,3.1.0,59.512084238260485,
175,F,M,270,L,N,175FM270LN,HLN,0,37,37,126,,,1.319,267.43006850004895,267.77173239999684,267.7884700000286,268.0716266000527,268.0881440000376,None,down,268.0881440000376,None,268.0881440000376,269.3872440000414,0.06602979998569936,None,2.465849399974104,,,,,,,,,23,001,2019_Dec_25_1215,untitled,3.1.0,59.512084238260485,
_,_5,N,180,_,_,__5N180__,N,0,38,38,92,,,1.143,270.6476662000059,270.968941500003,270.98636660003103,271.2689362000092,271.2854409000138,None,up,271.2854409000138,None,271.2854409000138,272.41752540000016,0.08458039996912703,None,2.5996555000310764,,,,,,,,,23,001,2019_Dec_25_1215,untitled,3.1.0,59.512084238260485,
427,_4,M,90,L,N,427_4M090LN,HLN,0,39,39,170,,,1.043,273.96070370002417,274.2997745000175,274.3165224000113,274.59902630001307,274.61556260002544,None,down,274.61556260002544,None,274.61556260002544,275.64764930005185,0.06670460000168532,None,2.531686499947682,,,,,,,,,23,001,2019_Dec_25_1215,untitled,3.1.0,59.512084238260485,
_,_2,M,90,_,_,__2M090__,N,0,40,40,26,,,1.2590000000000001,277.21853150002426,277.56323730002623,277.58001640002476,277.86372930003563,277.8793482000474,None,None,277.8793482000474,None,277.8793482000474,279.111460300046,0.06333390000509098,None,,,,,,,,,,23,001,2019_Dec_25_1215,untitled,3.1.0,59.512084238260485,
173,F,M,180,L,N,173FM180LN,HLN,0,41,41,124,,,1.042,281.41839190002065,281.7596797000151,281.7764679000247,282.0608286000206,282.0760536000016,281.41839190002065,up,282.0760536000016,None,282.0760536000016,283.09274650004227,0.06746190000558272,None,2.3333575000287965,,,,,,,,,23,001,2019_Dec_25_1215,untitled,3.1.0,59.512084238260485,
016,R,M,315,R,N,016RM315RN,HRN,0,42,42,103,,,1.2610000000000001,284.49529130000155,284.8240537000238,284.8417857000022,285.12341290002223,285.1399381000083,None,down,285.1399381000083,None,285.1399381000083,286.38863030000357,0.07694419997278601,None,2.217055300017819,,,,,,,,,23,001,2019_Dec_25_1215,untitled,3.1.0,59.512084238260485,
428,_4,M,135,L,N,428_4M135LN,HLN,0,43,43,171,,,1.059,287.4307164000347,287.77110960002756,287.7881168000167,288.0710098000127,288.0876749000163,None,down,288.0876749000163,None,288.0876749000163,289.1366577000008,0.06638899998506531,None,3.0177120000007562,,,,,,,,,23,001,2019_Dec_25_1215,untitled,3.1.0,59.512084238260485,
_,R,M,225,_,_,_RM225__,N,0,44,44,21,,,1.06,291.17821990000084,291.517776600027,291.53443759999936,291.817621299997,291.834258900024,None,None,291.834258900024,None,291.834258900024,292.88326830003643,0.06519429996842518,None,,,,,,,,,,23,001,2019_Dec_25_1215,untitled,3.1.0,59.512084238260485,
458,_5,M,45,R,N,458_5M045RN,HRN,0,45,45,177,,,1.047,295.3796076000435,295.7140788999968,295.7311593000195,296.01439900003606,296.03165400004946,295.3796076000435,down,296.03165400004946,None,296.03165400004946,297.06276480003726,0.07288759999210015,None,2.9996925000450574,,,,,,,,,23,001,2019_Dec_25_1215,untitled,3.1.0,59.512084238260485,
134,F,N,225,R,N,134FN225RN,HRN,0,46,46,213,,,1.217,299.1001594000263,299.44440320000285,299.46109730005264,299.74351900001056,299.7613695000182,None,up,299.7613695000182,None,299.7613695000182,300.95938480005134,0.06216470000799745,None,2.0510782999917865,,,,,,,,,23,001,2019_Dec_25_1215,untitled,3.1.0,59.512084238260485,
390,_4,N,225,R,N,390_4N225RN,HRN,0,47,47,261,,,1.282,301.91058200004045,302.2255367000471,302.24227530002827,302.5245378999971,302.54156870004954,None,up,302.54156870004954,None,302.54156870004954,303.808288900007,0.08605559996794909,None,2.2158183999708854,,,,,,,,,23,001,2019_Dec_25_1215,untitled,3.1.0,59.512084238260485,
234,G,M,45,L,N,234GM045LN,HLN,0,48,48,137,,,1.109,304.84954820002895,305.17271620000247,305.1904852000298,305.4723043999984,305.48904690000927,None,down,305.48904690000927,None,305.48904690000927,306.58757510001305,0.08224349998636171,None,2.033636200008914,,,,,,,,,23,001,2019_Dec_25_1215,untitled,3.1.0,59.512084238260485,
225,G,N,0,L,N,225GN000LN,HLN,0,49,49,232,,,0.842,307.6148391000461,307.93670020002173,307.95335750002414,308.2374947000062,308.2532605000306,None,up,308.2532605000306,None,308.2532605000306,309.0857997999992,0.08046570001170039,None,1.7334476999822073,,,,,,,,,23,001,2019_Dec_25_1215,untitled,3.1.0,59.512084238260485,
_,G,M,180,_,_,_GM180__,N,0,50,50,12,,,1.236,310.05690490000416,310.4013756000204,310.41866280004615,310.7032691000495,310.7186765000224,None,up,310.7186765000224,None,310.7186765000224,311.9334121000138,0.06362390000140294,None,2.898702799982857,,,,,,,,,23,001,2019_Dec_25_1215,untitled,3.1.0,59.512084238260485,
200,G,N,315,R,N,200GN315RN,HRN,0,51,51,231,,,1.268,313.69466040004045,314.0328720000107,314.04821770003764,314.33135270001367,314.3481429000385,None,up,314.3481429000385,None,314.3481429000385,315.59760700003244,0.06813979998696595,None,2.200876499991864,,,,,,,,,23,001,2019_Dec_25_1215,untitled,3.1.0,59.512084238260485,
_,_2,M,0,_,_,__2M000__,N,0,52,52,24,,,0.712,316.61748280003667,316.9626288000145,316.9791589000379,317.26216800004477,317.27866160002304,None,down,317.27866160002304,None,317.27866160002304,317.9778465999989,0.06176079995930195,None,1.849262599949725,,,,,,,,,23,001,2019_Dec_25_1215,untitled,3.1.0,59.512084238260485,
144,F,M,315,R,N,144FM315RN,HRN,0,53,53,119,,,1.18,319.19677830004366,319.54348430002574,319.56011730001774,319.8433384000091,319.85991850000573,None,down,319.85991850000573,None,319.85991850000573,321.0256747000385,0.061697900004219264,None,2.1994485000032,,,,,,,,,23,001,2019_Dec_25_1215,untitled,3.1.0,59.512084238260485,
_,_5,M,45,_,_,__5M045__,N,0,54,54,41,,,1.066,322.1312029000255,322.47403820004547,322.4909599000239,322.7735873000347,322.79048960004,None,down,322.79048960004,None,322.79048960004,323.83962860004976,0.06229450000682846,None,2.098747399984859,,,,,,,,,23,001,2019_Dec_25_1215,untitled,3.1.0,59.512084238260485,
258,_2,N,45,R,N,258_2N045RN,HRN,0,55,55,241,,,1.374,324.9585080000106,325.3052678000531,325.3217996000312,325.60486449999735,325.6215763000073,None,up,325.6215763000073,None,325.6215763000073,326.9697051999974,0.06266919994959608,None,2.3003873999696225,,,,,,,,,23,001,2019_Dec_25_1215,untitled,3.1.0,59.512084238260485,
_,R,M,0,_,_,_RM000__,N,0,56,56,16,,,1.051,328.0162146000075,328.33564200002,328.3527338000131,328.6353904000134,328.6521474000183,None,down,328.6521474000183,None,328.6521474000183,329.6849722000188,0.08483519998844713,None,2.0659739000257105,,,,,,,,,23,001,2019_Dec_25_1215,untitled,3.1.0,59.512084238260485,
_,G,M,0,_,_,_GM000__,N,0,57,57,8,,,0.853,330.78532820002874,331.1337023000233,331.1503857000498,331.43376130005345,331.4509282000363,None,down,331.4509282000363,None,331.4509282000363,332.2827729000128,0.06020760000683367,None,2.0481273000477813,,,,,,,,,23,001,2019_Dec_25_1215,untitled,3.1.0,59.512084238260485,
462,_5,M,225,R,N,462_5M225RN,HRN,0,58,58,181,,,0.88,333.5960376000148,333.91467940004077,333.9305793000385,334.2138867000467,334.23082820000127,None,down,334.23082820000127,None,334.23082820000127,335.0967403000104,0.08417849999386817,None,2.7827602000324987,,,,,,,,,23,001,2019_Dec_25_1215,untitled,3.1.0,59.512084238260485,
424,_4,N,315,L,N,424_4N315LN,HLN,0,59,59,271,,,1.245,337.0866989000351,337.42785580002237,337.44429250003304,337.72766319999937,337.7442744,None,up,337.7442744,None,337.7442744,338.9765265000169,0.065790000022389,None,2.0988673000247218,,,,,,,,,23,001,2019_Dec_25_1215,untitled,3.1.0,59.512084238260485,
_,_4,M,225,_,_,__4M225__,N,0,60,60,37,,,1.186,339.9229521000525,340.2588591000531,340.2757624000078,340.55882310000015,340.5754254000494,None,up,340.5754254000494,None,340.5754254000494,341.74206370004686,0.07154720003018156,None,2.6814064000500366,,,,,,,,,23,001,2019_Dec_25_1215,untitled,3.1.0,59.512084238260485,
130,F,N,45,R,N,130FN045RN,HRN,0,61,61,209,,,1.012,343.3258938000072,343.67252429999644,343.68892909999704,343.97218110004906,343.98887360002846,None,up,343.98887360002846,None,343.98887360002846,344.9881452000118,0.06234109995421022,None,1.9317463000188582,,,,,,,,,23,001,2019_Dec_25_1215,untitled,3.1.0,59.512084238260485,
298,_2,M,45,L,N,298_2M045LN,HLN,0,62,62,153,,,1.08,345.99029090005206,346.3370063000475,346.3536798999994,346.6375997000141,346.6531037000241,None,down,346.6531037000241,None,346.6531037000241,347.7189161000424,0.06288159999530762,None,1.9515718999900855,,,,,,,,,23,001,2019_Dec_25_1215,untitled,3.1.0,59.512084238260485,
_,R,M,45,_,_,_RM045__,N,0,63,63,17,,,1.185,348.67448410001816,349.0179678000277,349.034603600041,349.3174292000476,349.33411830000114,None,down,349.33411830000114,None,349.33411830000114,350.49985270004254,0.062019400007557124,None,2.1327392000239342,,,,,,,,,23,001,2019_Dec_25_1215,untitled,3.1.0,59.512084238260485,
292,_2,N,135,L,N,292_2N135LN,HLN,0,64,64,251,,,0.8230000000000001,351.54069080000045,351.8830102000502,351.898881000001,352.18178130005253,352.1984439000371,None,up,352.1984439000371,None,352.1984439000371,352.9973103000084,0.06667919998290017,None,2.2661674999981187,,,,,,,,,23,001,2019_Dec_25_1215,untitled,3.1.0,59.512084238260485,
_,_5,M,135,_,_,__5M135__,N,0,65,65,43,,,1.158,354.53310050000437,354.87947189999977,354.89617510000244,355.17865970003186,355.19585260003805,None,down,355.19585260003805,None,355.19585260003805,356.32783330004895,0.06170109997037798,None,2.8987500999937765,,,,,,,,,23,001,2019_Dec_25_1215,untitled,3.1.0,59.512084238260485,
_,_2,M,225,_,_,__2M225__,N,0,66,66,29,,,1.119,358.16193440003553,358.5097020000103,358.52652710000984,358.8091017000261,358.8256581000169,None,down,358.8256581000169,None,358.8256581000169,359.9253789000213,0.06028249999508262,None,2.631601800036151,,,,,,,,,23,001,2019_Dec_25_1215,untitled,3.1.0,59.512084238260485,
231,G,N,270,L,N,231GN270LN,HLN,0,67,67,238,,,1.0,361.5279044000199,361.8730495000491,361.8907094000024,362.1727053000359,362.1892418000498,None,up,362.1892418000498,None,362.1892418000498,363.1727074000519,0.06312260002596304,None,2.0654976000078022,,,,,,,,,23,001,2019_Dec_25_1215,untitled,3.1.0,59.512084238260485,
_,F,M,135,_,_,_FM135__,N,0,68,68,3,,,1.397,364.324234300002,364.67061180004384,364.68817280000076,364.9705324000097,364.98686590004945,None,up,364.98686590004945,None,364.98686590004945,366.36958370002685,0.06275350000942126,None,2.4001050000078976,,,,,,,,,23,001,2019_Dec_25_1215,untitled,3.1.0,59.512084238260485,
_,_4,N,90,_,_,__4N090__,N,0,69,69,82,,,1.295,367.45815060002496,367.8017888000468,367.8180225000251,368.1012718999991,368.1179565000348,None,up,368.1179565000348,None,368.1179565000348,369.40025880001485,0.06407730001956224,None,2.0672076999908313,,,,,,,,,23,001,2019_Dec_25_1215,untitled,3.1.0,59.512084238260485,
394,_4,M,45,R,N,394_4M045RN,HRN,0,70,70,161,,,0.771,370.2534321999992,370.59876190003706,370.6156387000228,370.8989941000473,370.91495270002633,None,down,370.91495270002633,None,370.91495270002633,371.66464170004474,0.06103350000921637,None,1.9164459999883547,,,,,,,,,23,001,2019_Dec_25_1215,untitled,3.1.0,59.512084238260485,
171,F,M,90,L,N,171FM090LN,HLN,0,71,71,122,,,0.9550000000000001,372.90313640004024,373.2465954000363,373.2631642000051,373.5462636000011,373.56367480003973,None,down,373.56367480003973,None,373.56367480003973,374.4953749999986,0.06424269999843091,None,3.1141491000307724,,,,,,,,,23,001,2019_Dec_25_1215,untitled,3.1.0,59.512084238260485,
395,_4,M,90,R,N,395_4M090RN,HRN,0,72,72,162,,,1.221,376.7538328000228,377.0931674000458,377.11047450004844,377.3933292000438,377.4103180000093,None,down,377.4103180000093,None,377.4103180000093,378.6089474000037,0.06973839999409392,None,2.6331353000132367,,,,,,,,,23,001,2019_Dec_25_1215,untitled,3.1.0,59.512084238260485,
_,_5,M,225,_,_,__5M225__,N,0,73,73,45,,,1.117,380.12306440004613,380.456978400005,380.47359609999694,380.75703780003823,380.77373519999674,None,down,380.77373519999674,None,380.77373519999674,381.87189470004523,0.07068310002796352,None,3.065618099994026,,,,,,,,,23,001,2019_Dec_25_1215,untitled,3.1.0,59.512084238260485,
_,_4,M,180,_,_,__4M180__,N,0,74,74,36,,,1.294,383.9117733000312,384.2539852000191,384.2703059000196,384.5535677000298,384.5697099000099,None,up,384.5697099000099,None,384.5697099000099,385.8523760000244,0.06576670001959428,None,3.333034899958875,,,,,,,,,23,001,2019_Dec_25_1215,untitled,3.1.0,59.512084238260485,
489,_5,M,0,L,N,489_5M000LN,HLN,0,75,75,184,,,1.157,387.97165770002175,388.3167964000022,388.33360210002866,388.61645210004644,388.63315550005063,None,down,388.63315550005063,None,388.63315550005063,389.765671000001,0.062108099984470755,None,2.5828459999756888,,,,,,,,,23,001,2019_Dec_25_1215,untitled,3.1.0,59.512084238260485,
196,G,N,135,R,N,196GN135RN,HRN,0,76,76,227,,,1.087,391.28761710005347,391.63070660002995,391.6472681000014,391.93032000004314,391.9467414999963,None,up,391.9467414999963,None,391.9467414999963,393.012807000021,0.06284400000004098,None,2.132100499991793,,,,,,,,,23,001,2019_Dec_25_1215,untitled,3.1.0,59.512084238260485,
_,R,M,135,_,_,_RM135__,N,0,77,77,19,,,0.967,394.1495415000245,394.49479820003035,394.5117557000485,394.794294500025,394.8120112000033,None,up,394.8120112000033,None,394.8120112000033,395.7604153000284,0.06327340001007542,None,1.8816446000128053,,,,,,,,,23,001,2019_Dec_25_1215,untitled,3.1.0,59.512084238260485,
011,R,M,90,R,N,011RM090RN,HRN,0,78,78,98,,,0.8,396.76681810000446,397.1095308000222,397.125216800021,397.4085651000496,397.42558219999773,None,down,397.42558219999773,None,397.42558219999773,398.208531900018,0.06518830003915355,None,2.015434800006915,,,,,,,,,23,001,2019_Dec_25_1215,untitled,3.1.0,59.512084238260485,
459,_5,M,90,R,N,459_5M090RN,HRN,0,79,79,178,,,1.3780000000000001,399.5116994000273,399.85674860002473,399.87359680002555,400.15670890000183,400.17360190005274,None,down,400.17360190005274,None,400.17360190005274,401.5390571000171,0.06368770002154633,None,2.417467800027225,,,,,,,,,23,001,2019_Dec_25_1215,untitled,3.1.0,59.512084238260485,
267,_2,M,90,R,N,267_2M090RN,HRN,0,80,80,146,,,0.8280000000000001,402.6818181000417,403.00399670004845,403.020721900044,403.30386330001056,403.3204313000315,None,down,403.3204313000315,None,403.3204313000315,404.1363285999978,0.08237369998823851,None,1.8493931000120938,,,,,,,,,23,001,2019_Dec_25_1215,untitled,3.1.0,59.512084238260485,
198,G,N,225,R,N,198GN225RN,HRN,0,81,81,229,,,0.727,405.24253119999776,405.5853954000049,405.6018740000436,405.88507469999604,405.9015166000463,None,up,405.9015166000463,None,405.9015166000463,406.6176869000192,0.06515669997315854,None,1.5347109000431374,,,,,,,,,23,001,2019_Dec_25_1215,untitled,3.1.0,59.512084238260485,
396,_4,M,135,R,N,396_4M135RN,HRN,0,82,82,163,,,0.788,407.5127239000285,407.84978410002077,407.86646889999975,408.1496822000481,408.16610220004804,None,down,408.16610220004804,None,408.16610220004804,408.9320416999981,0.06899999995948747,None,2.48225249996176,,,,,,,,,23,001,2019_Dec_25_1215,untitled,3.1.0,59.512084238260485,
033,R,N,0,L,N,033RN000LN,HLN,0,83,83,200,,,1.181,410.7235088000307,411.064108200022,411.0802052000072,411.36345450003864,411.379673700023,None,up,411.379673700023,None,411.379673700023,412.54559500003234,0.06584190001012757,None,2.2653580000041984,,,,,,,,,23,001,2019_Dec_25_1215,untitled,3.1.0,59.512084238260485,
296,_2,N,315,L,N,296_2N315LN,HLN,0,84,84,255,,,0.808,413.71512300003087,414.0623838000465,414.07831579999765,414.3616365000489,414.3772902000346,None,down,414.3772902000346,None,414.3772902000346,415.1603485000087,0.0634740999666974,None,2.8349734999937937,,,,,,,,,23,001,2019_Dec_25_1215,untitled,3.1.0,59.512084238260485,
041,R,M,0,L,N,041RM000LN,HLN,0,85,85,104,,,1.16,417.30287780001527,417.6244468000368,417.64248950005276,417.9244757000124,417.94190550001804,None,down,417.94190550001804,None,417.94190550001804,419.09098100004485,0.08254140004282817,None,1.9987318000057712,,,,,,,,,23,001,2019_Dec_25_1215,untitled,3.1.0,59.512084238260485,
042,R,M,45,L,N,042RM045LN,HLN,0,86,86,105,,,1.086,420.01027680002153,420.3583663000027,420.37260510004126,420.6558903999976,420.67204000003403,None,down,420.67204000003403,None,420.67204000003403,421.73838700004853,0.06266160000814125,None,2.2013767999596894,,,,,,,,,23,001,2019_Dec_25_1215,untitled,3.1.0,59.512084238260485,
166,F,N,225,L,N,166FN225LN,HLN,0,87,87,221,,,1.047,422.9431654000073,423.28649349999614,423.3027501000324,423.5860800000373,423.60275479999837,None,up,423.60275479999837,None,423.60275479999837,424.6350220000022,0.06089870003052056,None,1.800732399977278,,,,,,,,,23,001,2019_Dec_25_1215,untitled,3.1.0,59.512084238260485,
004,R,N,135,R,N,004RN135RN,HRN,0,88,88,195,,,1.365,425.47860270005185,425.8176134999958,425.83436330000404,426.1173805000144,426.1338885000441,None,up,426.1338885000441,None,426.1338885000441,427.4825487000053,0.06820939999306574,None,2.1656791000277735,,,,,,,,,23,001,2019_Dec_25_1215,untitled,3.1.0,59.512084238260485,
_,_5,M,180,_,_,__5M180__,N,0,89,89,44,,,0.772,428.3706485000439,428.7145781000145,428.73143420001725,429.0145585000282,429.03097310004523,None,down,429.03097310004523,None,429.03097310004523,429.780448000005,0.064305100007914,None,2.0990513000288047,,,,,,,,,23,001,2019_Dec_25_1215,untitled,3.1.0,59.512084238260485,
483,_5,N,90,L,N,483_5N090LN,HLN,0,90,90,282,,,1.043,431.20172410004307,431.54585710004903,431.5622967000236,431.84620540001197,431.86206250003306,None,up,431.86206250003306,None,431.86206250003306,432.8942867000005,0.06390120001742616,None,1.8150867000222206,,,,,,,,,23,001,2019_Dec_25_1215,untitled,3.1.0,59.512084238260485,
496,_5,M,315,L,N,496_5M315LN,HLN,0,91,91,191,,,0.86,433.74736290000146,434.0936678000144,434.1099543000455,434.39333270001225,434.4100422000047,None,down,434.4100422000047,None,434.4100422000047,435.25919370003976,0.06330300000263378,None,2.100656499969773,,,,,,,,,23,001,2019_Dec_25_1215,untitled,3.1.0,59.512084238260485,
494,_5,M,225,L,N,494_5M225LN,HLN,0,92,92,189,,,1.208,436.6000591000193,436.92485360003775,436.9414929000195,437.2249463000335,437.2413843999966,None,down,437.2413843999966,None,437.2413843999966,438.44046460004756,0.0809374000527896,None,2.9141356999753043,,,,,,,,,23,001,2019_Dec_25_1215,untitled,3.1.0,59.512084238260485,
272,_2,M,315,R,N,272_2M315RN,HRN,0,93,93,151,,,1.2690000000000001,440.2243419000297,440.57124740001746,440.5882189000258,440.8710449000355,440.887832300039,None,down,440.887832300039,None,440.887832300039,442.1370955000166,0.061856399988755584,None,3.1649305000319146,,,,,,,,,23,001,2019_Dec_25_1215,untitled,3.1.0,59.512084238260485,
008,R,N,315,R,N,008RN315RN,HRN,0,94,94,199,,,1.32,444.14405270002317,444.4678199000191,444.48465220001526,444.7673835000023,444.78416520002065,None,up,444.78416520002065,None,444.78416520002065,446.0831171000027,0.07919750001747161,None,2.0154512000153773,,,,,,,,,23,001,2019_Dec_25_1215,untitled,3.1.0,59.512084238260485,
290,_2,N,45,L,N,290_2N045LN,HLN,0,95,95,249,,,1.288,446.8679484000313,447.21544340002583,447.2318284000503,447.515162900032,447.53155880002305,None,up,447.53155880002305,None,447.53155880002305,448.79754160001175,0.06082399998558685,None,2.184086599969305,,,,,,,,,23,001,2019_Dec_25_1215,untitled,3.1.0,59.512084238260485,
492,_5,M,135,L,N,492_5M135LN,HLN,0,96,96,187,,,0.76,449.7845547000179,450.12938870000653,450.14667440002086,450.4293150000158,450.44621840002947,None,down,450.44621840002947,None,450.44621840002947,451.1954238000326,0.062317099946085364,None,2.3824508999823593,,,,,,,,,23,001,2019_Dec_25_1215,untitled,3.1.0,59.512084238260485,
169,F,M,0,L,N,169FM000LN,HLN,0,97,97,120,,,0.723,452.89712930005044,453.2437906000414,453.2603891000035,453.5435335000511,453.5600770000019,None,down,453.5600770000019,None,453.5600770000019,454.2597614999977,0.06175279995659366,None,1.8489565000054426,,,,,,,,,23,001,2019_Dec_25_1215,untitled,3.1.0,59.512084238260485,
035,R,N,90,L,N,035RN090LN,HLN,0,98,98,202,,,1.347,455.4848883000086,455.8248421000317,455.84136520000175,456.12465340003837,456.14119560003746,None,up,456.14119560003746,None,456.14119560003746,457.472942900029,0.06895230000372976,None,2.0979580000275746,,,,,,,,,23,001,2019_Dec_25_1215,untitled,3.1.0,59.512084238260485,
_,_5,M,315,_,_,__5M315__,N,0,99,99,47,,,0.734,458.3086559000076,458.65566960000433,458.67213390005054,458.95581170002697,458.97282429999905,None,down,458.97282429999905,None,458.97282429999905,459.68833610002184,0.06292339996434748,None,2.7143397000036202,,,,,,,,,23,001,2019_Dec_25_1215,untitled,3.1.0,59.512084238260485,
_,R,N,225,_,_,_RN225__,N,0,100,100,69,,,1.166,461.75669650000054,462.10248709999723,462.12047370005166,462.4030674000387,462.4198978000204,None,up,462.4198978000204,None,462.4198978000204,463.56760380003834,0.060545300017111,None,2.047636099974625,,,,,,,,,23,001,2019_Dec_25_1215,untitled,3.1.0,59.512084238260485,
_,_4,N,315,_,_,__4N315__,N,0,101,101,87,,,1.21,464.5525100000086,464.88393940002425,464.90051420003874,465.1837391000008,465.2001173000317,None,up,465.2001173000317,None,465.2001173000317,466.3989433000097,0.075928800040856,None,2.0327298000338487,,,,,,,,,23,001,2019_Dec_25_1215,untitled,3.1.0,59.512084238260485,
257,_2,N,0,R,N,257_2N000RN,HRN,0,102,102,240,,,1.245,467.32755720004207,467.64798020001035,467.664685500029,467.94742330000736,467.96488290000707,None,up,467.96488290000707,None,467.96488290000707,469.1969337000046,0.08484970004064962,None,2.064385299978312,,,,,,,,,23,001,2019_Dec_25_1215,untitled,3.1.0,59.512084238260485,
419,_4,N,90,L,N,419_4N090LN,HLN,0,103,103,266,,,0.915,470.10010370000964,470.4454349000007,470.46206900000107,470.74521160003496,470.76170000003185,None,up,470.76170000003185,None,470.76170000003185,471.6612297000247,0.06398469995474443,None,1.7993187999818474,,,,,,,,,23,001,2019_Dec_25_1215,untitled,3.1.0,59.512084238260485,
455,_5,N,270,R,N,455_5N270RN,HRN,0,104,104,278,,,0.927,472.6378245000378,472.97675150004216,472.99288520001573,473.2758745000465,473.2924669000204,None,up,473.2924669000204,None,473.2924669000204,474.2088892000029,0.06949770002393052,None,1.782515900034923,,,,,,,,,23,001,2019_Dec_25_1215,untitled,3.1.0,59.512084238260485,
012,R,M,135,R,N,012RM135RN,HRN,0,105,105,99,,,1.355,475.14694679999957,475.4912866000086,475.5076475000242,475.79090110003017,475.8074852999998,None,up,475.8074852999998,None,475.8074852999998,477.1397192000295,0.06282639998244122,None,2.3823329000151716,,,,,,,,,23,001,2019_Dec_25_1215,untitled,3.1.0,59.512084238260485,
_,F,M,270,_,_,_FM270__,N,0,106,106,6,,,0.847,478.2584203000297,478.6051728000166,478.62145040003816,478.90474180004094,478.9212134000263,None,down,478.9212134000263,None,478.9212134000263,479.75385310000274,0.06202549999579787,None,2.032333299983293,,,,,,,,,23,001,2019_Dec_25_1215,untitled,3.1.0,59.512084238260485,
208,G,M,315,R,N,208GM315RN,HRN,0,107,107,135,,,0.922,481.0223201000481,481.3694848000305,481.3862963000429,481.67046410002513,481.67046410002513,None,down,481.67046410002513,None,481.67046410002513,482.58456020004814,0.06071749998955056,None,2.146402099984698,,,,,,,,,23,001,2019_Dec_25_1215,untitled,3.1.0,59.512084238260485,
164,F,N,135,L,N,164FN135LN,HLN,0,108,108,219,,,0.734,483.89037810004083,484.23398469999665,484.25014350004494,484.5329455000465,484.54981710005086,None,up,484.54981710005086,None,484.54981710005086,485.2661966000451,0.06569580000359565,None,1.6508940000203438,,,,,,,,,23,001,2019_Dec_25_1215,untitled,3.1.0,59.512084238260485,
_,G,M,315,_,_,_GM315__,N,0,109,109,15,,,1.209,486.26828560000286,486.61452709999867,486.6311034000246,486.91451720002806,486.93082270002924,None,down,486.93082270002924,None,486.93082270002924,488.1298315000022,0.05957230000058189,None,2.2820994000067003,,,,,,,,,23,001,2019_Dec_25_1215,untitled,3.1.0,59.512084238260485,
_,G,M,225,_,_,_GM225__,N,0,110,110,13,,,0.8180000000000001,489.2785861000302,489.62847950001014,489.6452839000267,489.92813760001445,489.9453759000171,None,down,489.9453759000171,None,489.9453759000171,490.74408510001376,0.05858750001061708,None,2.550069999997504,,,,,,,,,23,001,2019_Dec_25_1215,untitled,3.1.0,59.512084238260485,
429,_4,M,180,L,N,429_4M180LN,HLN,0,111,111,172,,,0.743,492.5648876000196,492.9114147000364,492.9261396000511,493.20919800002594,493.22531760000857,None,None,493.22531760000857,None,493.22531760000857,493.95802800002275,0.06250280002132058,None,,,,,,,,,,23,001,2019_Dec_25_1215,untitled,3.1.0,59.512084238260485,
391,_4,N,270,R,N,391_4N270RN,HRN,0,112,112,262,,,0.773,496.7595964000211,497.1056320000207,497.1217119000503,497.40538340003695,497.42183190002106,496.7595964000211,up,497.42183190002106,None,497.42183190002106,498.1713749000337,0.06369690003339201,None,1.417771799955517,,,,,,,,,23,001,2019_Dec_25_1215,untitled,3.1.0,59.512084238260485,
454,_5,N,225,R,N,454_5N225RN,HRN,0,113,113,277,,,1.046,498.9081631000154,499.25362770003267,499.2704834000324,499.55384130001767,499.57004590000724,None,up,499.57004590000724,None,499.57004590000724,500.602222800022,0.06180009996751323,None,1.916478700004518,,,,,,,,,23,001,2019_Dec_25_1215,untitled,3.1.0,59.512084238260485,
138,F,M,45,R,N,138FM045RN,HRN,0,114,114,113,,,1.181,501.5551806000294,501.90141839999706,501.91811610001605,502.2008756000432,502.2178707999992,None,down,502.2178707999992,None,502.2178707999992,503.3828948000446,0.061583800008520484,None,2.281767399981618,,,,,,,,,23,001,2019_Dec_25_1215,untitled,3.1.0,59.512084238260485,
392,_4,N,315,R,N,392_4N315RN,HRN,0,115,115,263,,,0.732,504.5695936999982,504.91576300002635,504.932734800037,505.2148707000306,505.2317958000349,None,up,505.2317958000349,None,505.2317958000349,505.94772140000714,0.06299299997044727,None,1.3994691999978386,,,,,,,,,23,001,2019_Dec_25_1215,untitled,3.1.0,59.512084238260485,
_,R,M,315,_,_,_RM315__,N,0,116,116,23,,,1.318,506.7023685000022,507.04684690001886,507.06415240000933,507.3468703000108,507.36311200005,None,down,507.36311200005,None,507.36311200005,508.66181740001775,0.06424790003802627,None,2.1019525999436155,,,,,,,,,23,001,2019_Dec_25_1215,untitled,3.1.0,59.512084238260485,
_,_2,N,135,_,_,__2N135__,N,0,117,117,75,,,1.1500000000000001,509.5427196000237,509.8779196999967,509.8938743000035,510.17742710001767,510.1939373000059,None,up,510.1939373000059,None,510.1939373000059,511.3264617000241,0.06947019998915493,None,2.117637299990747,,,,,,,,,23,001,2019_Dec_25_1215,untitled,3.1.0,59.512084238260485,
_,_4,N,180,_,_,__4N180__,N,0,118,118,84,,,0.991,512.3820873000077,512.7252914000419,512.7419672000105,513.0249692000216,513.0418572000344,None,up,513.0418572000344,None,513.0418572000344,514.0238673000131,0.06362710002576932,None,1.7823342000483535,,,,,,,,,23,001,2019_Dec_25_1215,untitled,3.1.0,59.512084238260485,
228,G,N,135,L,N,228GN135LN,HLN,0,119,119,235,,,0.9550000000000001,514.8923991000047,515.2394161000266,515.2558581000194,515.5388716000016,515.5558934000437,None,up,515.5558934000437,None,515.5558934000437,516.4883969000075,0.06006230000639334,None,2.7665968999499455,,,,,,,,,23,001,2019_Dec_25_1215,untitled,3.1.0,59.512084238260485,
_,F,M,45,_,_,_FM045__,N,0,120,120,1,,,0.989,518.3935950000305,518.7363553000032,518.7527625000221,519.0369023000239,519.0531973000034,None,down,519.0531973000034,None,519.0531973000034,520.0186704000225,0.06404949998250231,None,2.031825400015805,,,,,,,,,23,001,2019_Dec_25_1215,untitled,3.1.0,59.512084238260485,
238,G,M,225,L,N,238GM225LN,HLN,0,121,121,141,,,0.933,521.15648960002,521.5008048000163,521.5171518000425,521.8008789000451,521.8173373000463,None,down,521.8173373000463,None,521.8173373000463,522.732915200002,0.06419790000654757,None,2.9481099999975413,,,,,,,,,23,001,2019_Dec_25_1215,untitled,3.1.0,59.512084238260485,
432,_4,M,315,L,N,432_4M315LN,HLN,0,122,122,175,,,1.0210000000000001,524.8323792000301,525.1813607000513,525.1978723000502,525.4810495999991,525.4973853999982,None,up,525.4973853999982,None,525.4973853999982,526.496657300042,0.059149299981072545,None,2.817241400014609,,,,,,,,,23,001,2019_Dec_25_1215,untitled,3.1.0,59.512084238260485,
_,G,N,270,_,_,_GN270__,N,0,123,123,62,,,1.2730000000000001,528.3817484000465,528.7278457000502,528.7442556000315,529.0284031000338,529.0443161000148,None,up,529.0443161000148,None,529.0443161000148,530.293278600031,0.06020469998475164,None,1.9675440999562852,,,,,,,,,23,001,2019_Dec_25_1215,untitled,3.1.0,59.512084238260485,
170,F,M,45,L,N,170FM045LN,HLN,0,124,124,121,,,1.1320000000000001,531.0907287000446,531.4253548000124,531.4422030000133,531.7252102000057,531.7421202000114,None,down,531.7421202000114,None,531.7421202000114,532.8580837000045,0.0705368000199087,None,1.9151354999630712,,,,,,,,,23,001,2019_Dec_25_1215,untitled,3.1.0,59.512084238260485,
207,G,M,270,R,N,207GM270RN,HRN,0,125,125,134,,,0.842,533.7349427000154,534.0733383000479,534.0899088000297,534.3727713000262,534.3892575000064,None,down,534.3892575000064,None,534.3892575000064,535.2057941000094,0.06992030004039407,None,2.2347456999705173,,,,,,,,,23,001,2019_Dec_25_1215,untitled,3.1.0,59.512084238260485,
271,_2,M,270,R,N,271_2M270RN,HRN,0,126,126,150,,,0.9450000000000001,536.6931232000352,537.0375078000361,537.0545871000504,537.337131200009,537.3537088000448,None,down,537.3537088000448,None,537.3537088000448,538.2862344000023,0.06169719999888912,None,2.016276000009384,,,,,,,,,23,001,2019_Dec_25_1215,untitled,3.1.0,59.512084238260485,
_,G,N,135,_,_,_GN135__,N,0,127,127,59,,,0.8250000000000001,539.4385212000343,539.78507610003,539.8017802000395,540.0846345000318,540.1018331000232,None,up,540.1018331000232,None,540.1018331000232,540.917213400011,0.061156900017522275,None,1.6987762000062503,,,,,,,,,23,001,2019_Dec_25_1215,untitled,3.1.0,59.512084238260485,
143,F,M,270,R,N,143FM270RN,HRN,0,128,128,118,,,1.323,541.8707347000018,542.2166606000392,542.234236200049,542.5161163000157,542.5331891000387,None,down,542.5331891000387,None,542.5331891000387,543.8312138000038,0.06284279999090359,None,2.3642437999951653,,,,,,,,,23,001,2019_Dec_25_1215,untitled,3.1.0,59.512084238260485,
139,F,M,90,R,N,139FM090RN,HRN,0,129,129,114,,,1.0010000000000001,544.9682197000366,545.3136078000534,545.3308955000248,545.6134084000369,545.6299367000465,None,up,545.6299367000465,None,545.6299367000465,546.6137651000172,0.06311610003467649,None,2.06638740003109,,,,,,,,,23,001,2019_Dec_25_1215,untitled,3.1.0,59.512084238260485,
_,_5,M,0,_,_,__5M000__,N,0,130,130,40,,,0.794,547.7626040000468,548.1134029999957,548.1276586000458,548.4127575000166,548.4271684000269,None,down,548.4271684000269,None,548.4271684000269,549.2101758000208,0.058876600000075996,None,2.367586400010623,,,,,,,,,23,001,2019_Dec_25_1215,untitled,3.1.0,59.512084238260485,
_,_5,N,225,_,_,__5N225__,N,0,131,131,93,,,0.912,550.8647981000249,551.2081740000285,551.225261500047,551.5082916000392,551.5245439000428,None,up,551.5245439000428,None,551.5245439000428,552.4242024000268,0.06307870004093274,None,1.698688399977982,,,,,,,,,23,001,2019_Dec_25_1215,untitled,3.1.0,59.512084238260485,
_,_4,M,315,_,_,__4M315__,N,0,132,132,39,,,0.91,553.2928305000532,553.6391261000535,553.6564825000241,553.9390903000021,553.9555285000242,None,up,553.9555285000242,None,553.9555285000242,554.8548773000366,0.062356900016311556,None,2.531838599999901,,,,,,,,,23,001,2019_Dec_25_1215,untitled,3.1.0,59.512084238260485,
449,_5,N,0,R,N,449_5N000RN,HRN,0,133,133,272,,,1.3,556.5608773000422,556.9033727000351,556.9207835000125,557.2031745000277,557.2206814000383,None,up,557.2206814000383,None,557.2206814000383,558.5019180000527,0.06547099997987971,None,2.0507476000348106,,,,,,,,,23,001,2019_Dec_25_1215,untitled,3.1.0,59.512084238260485,
047,R,M,270,L,N,047RM270LN,HLN,0,134,134,110,,,1.056,559.360412500042,559.6845986000262,559.7018572000088,559.9837533000391,560.0005290000117,None,down,560.0005290000117,None,560.0005290000117,561.0505107000354,0.07940719998441637,None,2.598571200040169,,,,,,,,,23,001,2019_Dec_25_1215,untitled,3.1.0,59.512084238260485,
385,_4,N,0,R,N,385_4N000RN,HRN,0,135,135,256,,,1.2610000000000001,562.668955400004,563.0160226000007,563.0314130000188,563.314475000021,563.3310168000171,None,up,563.3310168000171,None,563.3310168000171,564.5801395000308,0.06236059998627752,None,1.918295899988152,,,,,,,,,23,001,2019_Dec_25_1215,untitled,3.1.0,59.512084238260485,
488,_5,N,315,L,N,488_5N315LN,HLN,0,136,136,287,,,1.2630000000000001,565.3365264000022,565.6624654000043,565.6789289000444,565.9618948000134,565.978837200033,None,up,565.978837200033,None,565.978837200033,567.2275713999989,0.07921619998523965,None,3.081427099998109,,,,,,,,,23,001,2019_Dec_25_1215,untitled,3.1.0,59.512084238260485,
417,_4,N,0,L,N,417_4N000LN,HLN,0,137,137,264,,,1.054,569.1353835000191,569.475677600014,569.4927384000039,569.7761959000491,569.7920221000095,None,up,569.7920221000095,None,569.7920221000095,570.8240950000472,0.06736070004990324,None,1.7531434999546036,,,,,,,,,23,001,2019_Dec_25_1215,untitled,3.1.0,59.512084238260485,
_,F,M,315,_,_,_FM315__,N,0,138,138,7,,,1.012,571.651244800014,571.9567999000428,571.9733189000399,572.2564860000275,572.2733210000442,None,down,572.2733210000442,None,572.2733210000442,573.2724013000261,0.09550170000875369,None,1.9491738000069745,,,,,,,,,23,001,2019_Dec_25_1215,untitled,3.1.0,59.512084238260485,
140,F,M,135,R,N,140FM135RN,HRN,0,139,139,115,,,1.157,574.29768160003,574.6378674000152,574.6545190000325,574.9376411000267,574.9555322000524,None,up,574.9555322000524,None,574.9555322000524,576.0867817000253,0.06758740002987906,None,2.297587300010491,,,,,,,,,23,001,2019_Dec_25_1215,untitled,3.1.0,59.512084238260485,
_,F,M,90,_,_,_FM090__,N,0,140,140,2,,,1.379,577.3257085000514,577.6684774000314,577.6849682000466,577.9691557000042,577.9850863000029,None,down,577.9850863000029,None,577.9850863000029,579.3507988000056,0.06511630001477897,None,2.6500162999727763,,,,,,,,,23,001,2019_Dec_25_1215,untitled,3.1.0,59.512084238260485,
303,_2,M,270,L,N,303_2M270LN,HLN,0,141,141,158,,,1.1420000000000001,580.7053399000433,581.0488345000194,581.0652568000369,581.3485859000357,581.3657846000278,None,down,581.3657846000278,None,581.3657846000278,582.4974591000355,0.06328939995728433,None,2.631571600039024,,,,,,,,,23,001,2019_Dec_25_1215,untitled,3.1.0,59.512084238260485,
005,R,N,180,R,N,005RN180RN,HRN,0,142,142,196,,,1.047,584.0706943999976,584.4129587000352,584.4291970000486,584.7121454000007,584.7296074000187,None,up,584.7296074000187,None,584.7296074000187,585.7617045000079,0.06641949998447672,None,1.817103400011547,,,,,,,,,23,001,2019_Dec_25_1215,untitled,3.1.0,59.512084238260485,
037,R,N,180,L,N,037RN180LN,HLN,0,143,143,204,,,1.205,586.6168309000204,586.9604622000479,586.9773845000309,587.2603824000107,587.2768382000504,None,up,587.2768382000504,None,587.2768382000504,588.4592002000427,0.06317330000456423,None,1.8823918999987654,,,,,,,,,23,001,2019_Dec_25_1215,untitled,3.1.0,59.512084238260485,
_,_5,N,90,_,_,__5N090__,N,0,144,144,90,,,0.902,589.2267784000142,589.575232000032,589.5918310999987,589.8745845000376,589.8911967000458,None,up,589.8911967000458,None,589.8911967000458,590.7736266000429,0.06040389998815954,None,1.65089219994843,,,,,,,,,23,001,2019_Dec_25_1215,untitled,3.1.0,59.512084238260485,
237,G,M,180,L,N,237GM180LN,HLN,0,145,145,140,,,0.769,591.6162510000286,591.9559314000071,591.9729165000026,592.2559083000524,592.272658300004,None,up,592.272658300004,None,592.272658300004,593.0219982000417,0.06672360002994537,None,2.067373800033238,,,,,,,,,23,001,2019_Dec_25_1215,untitled,3.1.0,59.512084238260485,
_,_5,N,0,_,_,__5N000__,N,0,146,146,88,,,1.1280000000000001,594.4205546000157,594.7531710000476,594.7698797000339,595.0550928000011,595.0704208000097,None,up,595.0704208000097,None,595.0704208000097,596.185694200045,0.07327729999087751,None,1.9991682000108995,,,,,,,,,23,001,2019_Dec_25_1215,untitled,3.1.0,59.512084238260485,
203,G,M,90,R,N,203GM090RN,HRN,0,147,147,130,,,0.706,597.1392265000031,597.4856608000118,597.501408000011,597.7843739000382,597.8008002000279,None,down,597.8008002000279,None,597.8008002000279,598.4846057000104,0.06002129998523742,None,2.0654523000121117,,,,,,,,,23,001,2019_Dec_25_1215,untitled,3.1.0,59.512084238260485,
010,R,M,45,R,N,010RM045RN,HRN,0,148,148,97,,,1.3760000000000001,599.9341972999973,600.2832132000476,600.2988092000014,600.5820453000488,600.5985373000149,None,down,600.5985373000149,None,600.5985373000149,601.9639929000405,0.059699300036299974,None,2.350965400051791,,,,,,,,,23,001,2019_Dec_25_1215,untitled,3.1.0,59.512084238260485,
038,R,N,225,L,N,038RN225LN,HLN,0,149,149,205,,,0.853,603.0183425000287,603.3643541000201,603.379563800001,603.662747800001,603.6792394000222,None,up,603.6792394000222,None,603.6792394000222,604.5130915000336,0.062371800013352185,None,1.6825435999780893,,,,,,,,,23,001,2019_Dec_25_1215,untitled,3.1.0,59.512084238260485,
202,G,M,45,R,N,202GM045RN,HRN,0,150,150,129,,,1.3920000000000001,605.4319429000025,605.777596800006,605.7940116000245,606.0770757000428,606.0936947000446,None,down,606.0936947000446,None,606.0936947000446,607.4760019000387,0.06283779995283112,None,3.081690799968783,,,,,,,,,23,001,2019_Dec_25_1215,untitled,3.1.0,59.512084238260485,
_,G,M,135,_,_,_GM135__,N,0,151,151,11,,,0.8280000000000001,609.2504675000091,609.5906434000353,609.607275300019,609.8905046000145,609.9069524000515,None,down,609.9069524000515,None,609.9069524000515,610.7229096000083,0.0677438999991864,None,3.4503941999864765,,,,,,,,,23,001,2019_Dec_25_1215,untitled,3.1.0,59.512084238260485,
044,R,M,135,L,N,044RM135LN,HLN,0,152,152,107,,,1.247,613.4274068000377,613.7706152000464,613.7872921000235,614.0713654000429,614.0890075000352,None,up,614.0890075000352,None,614.0890075000352,615.31906540005,0.06338760000653565,None,1.9800475999945775,,,,,,,,,23,001,2019_Dec_25_1215,untitled,3.1.0,59.512084238260485,
_,F,N,270,_,_,_FN270__,N,0,153,153,54,,,1.164,616.1406547000515,616.4848669000203,616.5016445000074,616.78457660001,616.8010580000118,None,up,616.8010580000118,None,616.8010580000118,617.9497560000164,0.06453259999398142,None,2.0169614999904297,,,,,,,,,23,001,2019_Dec_25_1215,untitled,3.1.0,59.512084238260485,
_,R,N,90,_,_,_RN090__,N,0,154,154,66,,,0.877,618.8849136000499,619.2323148000287,619.2507552000461,619.532181000046,619.5487123000203,None,up,619.5487123000203,None,619.5487123000203,620.4146025000373,0.06009259994607419,None,1.8158025000011548,,,,,,,,,23,001,2019_Dec_25_1215,untitled,3.1.0,59.512084238260485,
_,_4,M,45,_,_,__4M045__,N,0,155,155,33,,,1.366,621.4333367000218,621.7799819000065,621.7977586000343,622.0799817000516,622.096517900005,None,down,622.096517900005,None,622.096517900005,623.4450142999995,0.062170299992430955,None,2.3158441999694332,,,,,,,,,23,001,2019_Dec_25_1215,untitled,3.1.0,59.512084238260485,
006,R,N,225,R,N,006RN225RN,HRN,0,156,156,197,,,0.967,624.4942277000519,624.8273188000312,624.8439654000103,625.1271824000287,625.1437499000458,None,up,625.1437499000458,None,625.1437499000458,626.0935966999969,0.07388579996768385,None,1.6336020000162534,,,,,,,,,23,001,2019_Dec_25_1215,untitled,3.1.0,59.512084238260485,
_,R,M,180,_,_,_RM180__,N,0,157,157,20,,,0.9420000000000001,626.8499719999963,627.1918862000457,627.209096800012,627.491834000044,627.5083453000407,None,up,627.5083453000407,None,627.5083453000407,628.4411830000463,0.06604750000406057,None,2.0828247999888845,,,,,,,,,23,001,2019_Dec_25_1215,untitled,3.1.0,59.512084238260485,
_,_4,N,45,_,_,__4N045__,N,0,158,158,81,,,1.181,629.6626025000005,630.0062413000269,630.022917000053,630.3060315000475,630.3228643000475,None,up,630.3228643000475,None,630.3228643000475,631.4884586000117,0.0645543999853544,None,1.9484758999897167,,,,,,,,,23,001,2019_Dec_25_1215,untitled,3.1.0,59.512084238260485,
457,_5,M,0,R,N,457_5M000RN,HRN,0,159,159,176,,,0.735,632.3430445000413,632.6882278000121,632.7041001000325,632.9870183000457,633.0038471000153,None,down,633.0038471000153,None,633.0038471000153,633.7209065000061,0.06291190005140379,None,1.731539000000339,,,,,,,,,23,001,2019_Dec_25_1215,untitled,3.1.0,59.512084238260485,
135,F,N,270,R,N,135FN270RN,HRN,0,160,160,214,,,1.351,634.8056264000479,635.1518952000188,635.1685130000114,635.4512648000382,635.4686489000451,None,up,635.4686489000451,None,635.4686489000451,636.8004608000047,0.0636038999655284,None,1.998375799972564,,,,,,,,,23,001,2019_Dec_25_1215,untitled,3.1.0,59.512084238260485,
199,G,N,270,R,N,199GN270RN,HRN,0,161,161,230,,,0.8,637.5462693000445,637.8827088000253,637.8992001000443,638.1823700000532,638.1986720000277,None,up,638.1986720000277,None,638.1986720000277,638.9817015000153,0.07188649999443442,None,1.8160783000057563,,,,,,,,,23,001,2019_Dec_25_1215,untitled,3.1.0,59.512084238260485,
289,_2,N,0,L,N,289_2N000LN,HLN,0,162,162,248,,,1.073,640.0984481000341,640.4304407000309,640.4470769000473,640.7298854000401,640.7465691000107,None,up,640.7465691000107,None,640.7465691000107,641.7955083000124,0.07629029999952763,None,1.9159065000130795,,,,,,,,,23,001,2019_Dec_25_1215,untitled,3.1.0,59.512084238260485,
_,F,N,315,_,_,_FN315__,N,0,163,163,55,,,0.9400000000000001,642.7448704999988,643.0782373000402,643.0961031000479,643.3779807000537,643.3947138000512,None,up,643.3947138000512,None,643.3947138000512,644.3111514000339,0.07364649994997308,None,1.584472599963192,,,,,,,,,23,001,2019_Dec_25_1215,untitled,3.1.0,59.512084238260485,
013,R,M,180,R,N,013RM180RN,HRN,0,164,164,100,,,0.992,645.0475690000458,645.3928191000014,645.4103040000191,645.6935548000038,645.7094535000506,None,up,645.7094535000506,None,645.7094535000506,646.6917239000322,0.06122590001905337,None,3.214774899999611,,,,,,,,,23,001,2019_Dec_25_1215,untitled,3.1.0,59.512084238260485,
263,_2,N,270,R,N,263_2N270RN,HRN,0,165,165,246,,,1.068,648.9955134000047,649.3395234000054,649.3562191000092,649.6391550000408,649.6551147000282,None,up,649.6551147000282,None,649.6551147000282,650.7044509000261,0.06347860000096262,None,2.68464990000939,,,,,,,,,23,001,2019_Dec_25_1215,untitled,3.1.0,59.512084238260485,
176,F,M,315,L,N,176FM315LN,HLN,0,166,166,127,,,0.983,652.4089983000304,652.7533079000423,652.7699139000033,653.05313200003,653.069696600025,None,down,653.069696600025,None,653.069696600025,654.0355281000375,0.06248110003070906,None,3.049719800008461,,,,,,,,,23,001,2019_Dec_25_1215,untitled,3.1.0,59.512084238260485,
294,_2,N,225,L,N,294_2N225LN,HLN,0,167,167,253,,,1.106,656.1871019999962,656.5331473000115,656.5496211000136,656.8332702000043,656.8499209000147,None,up,656.8499209000147,None,656.8499209000147,657.9316438000533,0.06090769998263568,None,1.8008971000090241,,,,,,,,,23,001,2019_Dec_25_1215,untitled,3.1.0,59.512084238260485,
204,G,M,135,R,N,204GM135RN,HRN,0,168,168,131,,,1.1380000000000001,658.722730700043,659.0644366000197,659.0810866000247,659.3646210000152,659.3814676000038,None,down,659.3814676000038,None,659.3814676000038,660.4959498000098,0.06410709995543584,None,3.1807351000024937,,,,,,,,,23,001,2019_Dec_25_1215,untitled,3.1.0,59.512084238260485,
205,G,M,180,R,N,205GM180RN,HRN,0,169,169,132,,,1.252,662.6296635000035,662.9775962000131,662.9942474000272,663.2776941000484,663.2938849000493,None,None,663.2938849000493,None,663.2938849000493,664.5261860000319,0.06101800000760704,None,,,,,,,,,,23,001,2019_Dec_25_1215,untitled,3.1.0,59.512084238260485,
142,F,M,225,R,N,142FM225RN,HRN,0,170,170,117,,,1.117,666.8269577000174,667.1740472000092,667.190716400044,667.4734495000448,667.4901143000461,666.8269577000174,up,667.4901143000461,None,667.4901143000461,668.5892222000402,0.06078579998575151,None,2.1657846000161953,,,,,,,,,23,001,2019_Dec_25_1215,untitled,3.1.0,59.512084238260485,
481,_5,N,0,L,N,481_5N000LN,HLN,0,171,171,280,,,1.318,669.7405899000005,670.0712097000214,670.087747600046,670.3709397000493,670.3873814000399,None,up,670.3873814000399,None,670.3873814000399,671.6882418000023,0.0765240000328049,None,2.0489148999913596,,,,,,,,,23,001,2019_Dec_25_1215,untitled,3.1.0,59.512084238260485,
230,G,N,225,L,N,230GN225LN,HLN,0,172,172,237,,,0.969,672.5064221000066,672.8526071000379,672.8687697999994,673.1526316000381,673.1692418000312,None,up,673.1692418000312,None,673.1692418000312,674.117812200042,0.06296860001748428,None,2.6141443999949843,,,,,,,,,23,001,2019_Dec_25_1215,untitled,3.1.0,59.512084238260485,
425,_4,M,0,L,N,425_4M000LN,HLN,0,173,173,168,,,0.9510000000000001,675.8539676000364,676.2002197999973,676.2161887999973,676.4993047000025,676.5158433000324,None,up,676.5158433000324,None,676.5158433000324,677.4483719000127,0.06348940002499148,None,2.315725399996154,,,,,,,,,23,001,2019_Dec_25_1215,untitled,3.1.0,59.512084238260485,
045,R,M,180,L,N,045RM180LN,HLN,0,174,174,108,,,1.343,678.9038540000329,679.2476583000389,679.2631587000214,679.5465355000342,679.5639048000448,None,down,679.5639048000448,None,679.5639048000448,680.8957259000163,0.06467029999475926,None,3.2492020000354387,,,,,,,,,23,001,2019_Dec_25_1215,untitled,3.1.0,59.512084238260485,
460,_5,M,135,R,N,460_5M135RN,HRN,0,175,175,179,,,1.395,682.8837382000056,683.2269229000085,683.2432162000332,683.5265525000286,683.5430616000085,None,down,683.5430616000085,None,683.5430616000085,684.9250188000151,0.06410139997024089,None,3.283862099982798,,,,,,,,,23,001,2019_Dec_25_1215,untitled,3.1.0,59.512084238260485,
388,_4,N,135,R,N,388_4N135RN,HRN,0,176,176,259,,,1.283,686.8952823000145,687.2409103999962,687.2562418000307,687.5392556000152,687.5560984000331,None,up,687.5560984000331,None,687.5560984000331,688.8217045000056,0.06145010003820062,None,3.1324495000299066,,,,,,,,,23,001,2019_Dec_25_1215,untitled,3.1.0,59.512084238260485,
418,_4,N,45,L,N,418_4N045LN,HLN,0,177,177,265,,,0.806,690.7714971000096,691.1031576000387,691.1197554000537,691.4026540000341,691.419251400046,None,up,691.419251400046,None,691.419251400046,692.2028464000323,0.07495490001747385,None,1.4849592000246048,,,,,,,,,23,001,2019_Dec_25_1215,untitled,3.1.0,59.512084238260485,
232,G,N,315,L,N,232GN315LN,HLN,0,178,178,239,,,0.87,692.9738434000174,693.3180841000285,693.3346493000281,693.6178516000509,693.6343824000214,None,up,693.6343824000214,None,693.6343824000214,694.4834560000454,0.06169110001064837,None,2.133789599989541,,,,,,,,,23,001,2019_Dec_25_1215,untitled,3.1.0,59.512084238260485,
_,_4,M,135,_,_,__4M135__,N,0,179,179,35,,,0.993,695.8373275000486,696.1820768000325,696.1990290000103,696.4818672999972,696.498383600032,None,down,696.498383600032,None,696.498383600032,697.4811863000505,0.06185579998418689,None,2.5171436999808066,,,,,,,,,23,001,2019_Dec_25_1215,untitled,3.1.0,59.512084238260485,
_,_5,M,270,_,_,__5M270__,N,0,180,180,46,,,1.283,699.0842538000434,699.4292970000533,699.4458058000309,699.7288443000289,699.7457834000234,None,down,699.7457834000234,None,699.7457834000234,701.011232800025,0.062128700024913996,None,2.7665007000323385,,,,,,,,,23,001,2019_Dec_25_1215,untitled,3.1.0,59.512084238260485,
_,_2,M,135,_,_,__2M135__,N,0,181,181,27,,,1.372,702.5808152000536,702.9261070000357,702.9426407000283,703.2258331000339,703.2424061000347,None,down,703.2424061000347,None,703.2424061000347,704.5922247000271,0.061920100008137524,None,2.7316857000114396,,,,,,,,,23,001,2019_Dec_25_1215,untitled,3.1.0,59.512084238260485,
_,_2,M,45,_,_,__2M045__,N,0,182,182,25,,,0.719,706.0637320000096,706.3902983000153,706.4060694000218,706.689618400007,706.7061448000022,None,down,706.7061448000022,None,706.7061448000022,707.4054060000344,0.0812531000119634,None,2.2817407000111416,,,,,,,,,23,001,2019_Dec_25_1215,untitled,3.1.0,59.512084238260485,
400,_4,M,315,R,N,400_4M315RN,HRN,0,183,183,167,,,0.878,709.0562553000054,709.4039169000462,709.4204359000432,709.7044313000515,709.7208147000056,None,down,709.7208147000056,None,709.7208147000056,710.5859573000344,0.06145420001121238,None,3.0469702999689616,,,,,,,,,23,001,2019_Dec_25_1215,untitled,3.1.0,59.512084238260485,
233,G,M,0,L,N,233GM000LN,HLN,0,184,184,136,,,1.043,712.8372888000449,713.1841855000239,713.2009876000229,713.4836247000494,713.4999362000381,None,down,713.4999362000381,None,713.4999362000381,714.5334908000077,0.0625986999948509,None,2.3160002999939024,,,,,,,,,23,001,2019_Dec_25_1215,untitled,3.1.0,59.512084238260485,
136,F,N,315,R,N,136FN315RN,HRN,0,185,185,215,,,0.714,715.8897365000448,716.2306833000039,716.2475561000174,716.530875299999,716.5472147000255,None,up,716.5472147000255,None,716.5472147000255,717.2467714000377,0.06616819999180734,None,1.4189138000365347,,,,,,,,,23,001,2019_Dec_25_1215,untitled,3.1.0,59.512084238260485,
_,_4,N,135,_,_,__4N135__,N,0,186,186,83,,,0.835,718.03216230002,718.3795438000234,718.3960354000446,718.6789959000307,718.696404300048,None,up,718.696404300048,None,718.696404300048,719.5116251000436,0.05934129998786375,None,2.0339057000237517,,,,,,,,,23,001,2019_Dec_25_1215,untitled,3.1.0,59.512084238260485,
227,G,N,90,L,N,227GN090LN,HLN,0,187,187,234,,,0.809,720.8118616000284,721.1437672000029,721.1602215000312,721.4433154000435,721.4598827000009,None,up,721.4598827000009,None,721.4598827000009,722.2592156000319,0.0735652000294067,None,1.6491626999923028,,,,,,,,,23,001,2019_Dec_25_1215,untitled,3.1.0,59.512084238260485,
_,G,N,0,_,_,_GN000__,N,0,188,188,56,,,0.8280000000000001,723.2064491000492,723.5250023000408,723.5413756000344,723.8246887000278,723.8410352000501,None,up,723.8410352000501,None,723.8410352000501,724.6580570000224,0.08854829997289926,None,1.5841738999588415,,,,,,,,,23,001,2019_Dec_25_1215,untitled,3.1.0,59.512084238260485,
451,_5,N,90,R,N,451_5N090RN,HRN,0,189,189,274,,,0.962,725.4965147000039,725.8398129999987,725.8562986000325,726.141226900043,726.1558809000417,None,up,726.1558809000417,None,726.1558809000417,727.1049669000204,0.06463199999416247,None,2.0489672999829054,,,,,,,,,23,001,2019_Dec_25_1215,untitled,3.1.0,59.512084238260485,
393,_4,M,0,R,N,393_4M000RN,HRN,0,190,190,160,,,1.362,728.2934116999968,728.6208777000429,728.6371003999957,728.9199383000378,728.9371434000204,None,down,728.9371434000204,None,728.9371434000204,730.2850171000464,0.07984660001238808,None,2.5146341999643482,,,,,,,,,23,001,2019_Dec_25_1215,untitled,3.1.0,59.512084238260485,
302,_2,M,225,L,N,302_2M225LN,HLN,0,191,191,157,,,0.764,731.5339270000113,731.8672012000461,731.8840831000125,732.1669856000226,732.1838018000126,None,down,732.1838018000126,None,732.1838018000126,732.9334729000111,0.0747313000028953,None,2.0986907999613322,,,,,,,,,23,001,2019_Dec_25_1215,untitled,3.1.0,59.512084238260485,
_,_5,N,315,_,_,__5N315__,N,0,192,192,95,,,1.242,734.3505033000256,734.699563000002,734.7152372000273,734.9977182000293,735.0153387000319,None,None,735.0153387000319,None,735.0153387000319,736.2465900000534,0.06137529999250546,None,,,,,,,,,,23,001,2019_Dec_25_1215,untitled,3.1.0,59.512084238260485,
_,F,N,0,_,_,_FN000__,N,0,193,193,48,,,1.348,738.566732700041,738.8948751999997,738.9115323000005,739.1941717000445,739.2111102000345,738.566732700041,up,739.2111102000345,None,739.2111102000345,740.5432833000086,0.0798501999815926,None,2.0174594999989495,,,,,,,,,23,001,2019_Dec_25_1215,untitled,3.1.0,59.512084238260485,
015,R,M,270,R,N,015RM270RN,HRN,0,194,194,102,,,1.049,741.2952197000268,741.6424386000144,741.6589757000329,741.9422083999962,741.9588121999986,None,down,741.9588121999986,None,741.9588121999986,742.9909885000088,0.05972679995466024,None,1.817808200023137,,,,,,,,,23,001,2019_Dec_25_1215,untitled,3.1.0,59.512084238260485,
_,_4,N,270,_,_,__4N270__,N,0,195,195,86,,,1.067,743.8430603000452,744.190163900028,744.2069838000461,744.4895507000037,744.506338200008,None,down,744.506338200008,None,744.506338200008,745.5571203000145,0.059238300018478185,None,1.9325501999701373,,,,,,,,,23,001,2019_Dec_25_1215,untitled,3.1.0,59.512084238260485,
386,_4,N,45,R,N,386_4N045RN,HRN,0,196,196,257,,,1.165,746.5266187000088,746.8542263000272,746.870963399997,747.1540454000351,747.1721563000465,None,up,747.1721563000465,None,747.1721563000465,748.3199615000049,0.08002140000462532,None,2.2492974000051618,,,,,,,,,23,001,2019_Dec_25_1215,untitled,3.1.0,59.512084238260485,
_,F,M,225,_,_,_FM225__,N,0,197,197,5,,,0.753,749.4871119000018,749.8352535000304,749.851806599996,750.1349004000076,750.1519708000124,None,up,750.1519708000124,None,750.1519708000124,750.884537200036,0.05829539999831468,None,1.7501428999821655,,,,,,,,,23,001,2019_Dec_25_1215,untitled,3.1.0,59.512084238260485,
039,R,N,270,L,N,039RN270LN,HLN,0,198,198,206,,,0.994,751.970237200032,752.3162327000173,752.3338367000106,752.6162718000123,752.632762400026,None,up,752.632762400026,None,752.632762400026,753.615250300034,0.06025490001775324,None,1.9490976000088267,,,,,,,,,23,001,2019_Dec_25_1215,untitled,3.1.0,59.512084238260485,
_,G,N,225,_,_,_GN225__,N,0,199,199,61,,,1.084,754.6652913000435,754.9970039000036,755.0140012000338,755.2972453000257,755.3136005999986,None,up,755.3136005999986,None,755.3136005999986,756.3795269000111,0.07489019999047741,None,2.2650399999693036,,,,,,,,,23,001,2019_Dec_25_1215,untitled,3.1.0,59.512084238260485,
236,G,M,135,L,N,236GM135LN,HLN,0,200,200,139,,,0.729,757.6458880000282,757.9954752000049,758.0117253000499,758.2947676000185,758.3113055000431,None,down,758.3113055000431,None,758.3113055000431,759.0271597000537,0.06058119999943301,None,2.2814800000051036,,,,,,,,,23,001,2019_Dec_25_1215,untitled,3.1.0,59.512084238260485,
268,_2,M,135,R,N,268_2M135RN,HRN,0,201,201,147,,,1.076,760.6609704000293,761.0085642000195,761.0251855000388,761.3088310000021,761.325234500051,None,down,761.325234500051,None,761.325234500051,762.3909808000317,0.06152240000665188,None,2.000095000024885,,,,,,,,,23,001,2019_Dec_25_1215,untitled,3.1.0,59.512084238260485,
131,F,N,90,R,N,131FN090RN,HRN,0,202,202,210,,,1.213,763.3953435000149,763.7399673000327,763.7566857000347,764.0399046000093,764.0564543000073,None,up,764.0564543000073,None,764.0564543000073,765.2547976000351,0.06288760004099458,None,2.515747800003737,,,,,,,,,23,001,2019_Dec_25_1215,untitled,3.1.0,59.512084238260485,
420,_4,N,135,L,N,420_4N135LN,HLN,0,203,203,267,,,0.932,766.6458562000189,766.987638999999,767.0035586000304,767.2877558000037,767.3033911000239,None,up,767.3033911000239,None,767.3033911000239,768.2191476000007,0.06665360002079979,None,1.6175913999904878,,,,,,,,,23,001,2019_Dec_25_1215,untitled,3.1.0,59.512084238260485,
195,G,N,90,R,N,195GN090RN,HRN,0,204,204,226,,,1.098,768.9889581000316,769.335000400024,769.351412900025,769.6346475000028,769.6517591000302,None,up,769.6517591000302,None,769.6517591000302,770.7335578000057,0.061229399987496436,None,1.8834003999945708,,,,,,,,,23,001,2019_Dec_25_1215,untitled,3.1.0,59.512084238260485,
_,_2,N,0,_,_,__2N000__,N,0,205,205,72,,,1.123,771.6066680000513,771.9495345000178,771.966067500005,772.2491981000057,772.2672443000483,None,up,772.2672443000483,None,772.2672443000483,773.3643036000431,0.06481290003284812,None,1.9184763000230305,,,,,,,,,23,001,2019_Dec_25_1215,untitled,3.1.0,59.512084238260485,
163,F,N,90,L,N,163FN090LN,HLN,0,206,206,218,,,0.98,774.2533021999989,774.5971197000472,774.6137121000211,774.8967322999961,774.9134177000378,None,up,774.9134177000378,None,774.9134177000378,775.8791903000092,0.06086460000369698,None,1.850187600008212,,,,,,,,,23,001,2019_Dec_25_1215,untitled,3.1.0,59.512084238260485,
174,F,M,225,L,N,174FM225LN,HLN,0,207,207,125,,,1.0230000000000001,776.837144100049,777.1776961000287,777.194887300022,777.477533199999,777.4940856000176,None,up,777.4940856000176,None,777.4940856000176,778.4938858000096,0.06565669999690726,None,1.8188434999901801,,,,,,,,,23,001,2019_Dec_25_1215,untitled,3.1.0,59.512084238260485,
485,_5,N,180,L,N,485_5N180LN,HLN,0,208,208,284,,,0.8300000000000001,779.3795912000351,779.7260860000388,779.7425828000414,780.0255028000101,780.0429776000092,None,up,780.0429776000092,None,780.0429776000092,780.8585818000138,0.06028059998061508,None,1.766164199972991,,,,,,,,,23,001,2019_Dec_25_1215,untitled,3.1.0,59.512084238260485,
046,R,M,225,L,N,046RM225LN,HLN,0,209,209,109,,,0.798,781.8782027999987,782.2236506000045,782.2403658000403,782.523568500008,782.5400465000421,None,down,782.5400465000421,None,782.5400465000421,783.3231942999992,0.06234919995767996,None,2.3170758999767713,,,,,,,,,23,001,2019_Dec_25_1215,untitled,3.1.0,59.512084238260485,
_,R,N,180,_,_,_RN180__,N,0,210,210,68,,,1.042,784.9250747000333,785.2714662000071,785.2881976000499,785.5707170999958,785.587561900029,None,up,785.587561900029,None,785.587561900029,786.6197224000352,0.06126909999875352,None,2.2150273000006564,,,,,,,,,23,001,2019_Dec_25_1215,untitled,3.1.0,59.512084238260485,
421,_4,N,180,L,N,421_4N180LN,HLN,0,211,211,268,,,1.3820000000000001,787.8698398999986,788.219185599999,788.2360738000134,788.5199284999981,788.5349076000275,None,up,788.5349076000275,None,788.5349076000275,789.9006325000082,0.059756800008472055,None,3.263507600000594,,,,,,,,,23,001,2019_Dec_25_1215,untitled,3.1.0,59.512084238260485,
387,_4,N,90,R,N,387_4N090RN,HRN,0,212,212,258,,,1.086,791.8694988000207,792.214622200001,792.231438900053,792.5145824000356,792.5314176000538,None,up,792.5314176000538,None,792.5314176000538,793.5969201000407,0.06430829997407272,None,2.2012097999686375,,,,,,,,,23,001,2019_Dec_25_1215,untitled,3.1.0,59.512084238260485,
002,R,N,45,R,N,002RN045RN,HRN,0,213,213,193,,,1.121,794.8008720000507,795.1460407000268,795.1626888000173,795.4454516000114,795.4619429000304,None,up,795.4619429000304,None,795.4619429000304,796.5613009000081,0.06171879998873919,None,1.949202099989634,,,,,,,,,23,001,2019_Dec_25_1215,untitled,3.1.0,59.512084238260485,
490,_5,M,45,L,N,490_5M045LN,HLN,0,214,214,185,,,1.2690000000000001,797.5020193000091,797.82676060003,797.8432457000017,798.1263659000397,798.1444688000483,None,down,798.1444688000483,None,798.1444688000483,799.3920295000426,0.08274529996560887,None,2.4496725000208244,,,,,,,,,23,001,2019_Dec_25_1215,untitled,3.1.0,59.512084238260485,
487,_5,N,270,L,N,487_5N270LN,HLN,0,215,215,286,,,1.1500000000000001,800.6625069000293,801.0074244000134,801.0241809000145,801.3069155000267,801.323491200048,None,up,801.323491200048,None,801.323491200048,802.4562901000027,0.0620092999888584,None,2.3981515999767,,,,,,,,,23,001,2019_Dec_25_1215,untitled,3.1.0,59.512084238260485,
262,_2,N,225,R,N,262_2N225RN,HRN,0,216,216,245,,,0.902,803.7922989000217,804.1378836000222,804.1557010000106,804.4378767000162,804.4543284000247,None,up,804.4543284000247,None,804.4543284000247,805.3372536000097,0.06296929996460676,None,1.7486898999777623,,,,,,,,,23,001,2019_Dec_25_1215,untitled,3.1.0,59.512084238260485,
_,R,M,270,_,_,_RM270__,N,0,217,217,22,,,0.726,806.2687427000492,806.6189812000375,806.6365494000493,806.918759800028,806.9352491000318,None,down,806.9352491000318,None,806.9352491000318,807.6347428000299,0.058652899984735996,None,1.6327041000477038,,,,,,,,,23,001,2019_Dec_25_1215,untitled,3.1.0,59.512084238260485,
456,_5,N,315,R,N,456_5N315RN,HRN,0,218,218,279,,,0.893,808.6479548000498,808.9837207000237,809.0003688000143,809.2835182000417,809.3003038000315,None,up,809.3003038000315,None,809.3003038000315,810.1824071000447,0.07181659998605028,None,1.8674252000055276,,,,,,,,,23,001,2019_Dec_25_1215,untitled,3.1.0,59.512084238260485,
239,G,M,270,L,N,239GM270LN,HLN,0,219,219,142,,,1.081,811.2487781000091,811.581669700041,811.5981882000342,811.8835558000137,811.9021984999999,None,down,811.9021984999999,None,811.9021984999999,812.9637071000179,0.07261279999511316,None,2.3942122000153176,,,,,,,,,23,001,2019_Dec_25_1215,untitled,3.1.0,59.512084238260485,
003,R,N,90,R,N,003RN090RN,HRN,0,220,220,194,,,0.865,814.3647270000074,814.7121684000012,814.7289775999961,815.0120873000124,815.0286451000138,None,up,815.0286451000138,None,815.0286451000138,815.8775276000379,0.0611042000236921,None,1.7986208999645896,,,,,,,,,23,001,2019_Dec_25_1215,untitled,3.1.0,59.512084238260485,
426,_4,M,45,L,N,426_4M045LN,HLN,0,221,221,169,,,0.747,816.9039133000188,817.2435589000233,817.2602500000503,817.5438053000253,817.5604813000537,None,down,817.5604813000537,None,817.5604813000537,818.2923309000325,0.0683576000155881,None,1.766834200010635,,,,,,,,,23,001,2019_Dec_25_1215,untitled,3.1.0,59.512084238260485,
_,G,M,45,_,_,_GM045__,N,0,222,222,9,,,1.188,819.3965080000344,819.7410894000204,819.7579841000261,820.0413681000355,820.0580477000331,None,down,820.0580477000331,None,820.0580477000331,821.2228815000271,0.06113089999416843,None,2.5323999999673106,,,,,,,,,23,001,2019_Dec_25_1215,untitled,3.1.0,59.512084238260485,
389,_4,N,180,R,N,389_4N180RN,HRN,0,223,223,260,,,0.856,822.6753506000387,823.0044517000206,823.0214247000404,823.3045750000165,823.3218839000328,None,up,823.3218839000328,None,823.3218839000328,824.1538007000345,0.07654730003559962,None,2.714689000044018,,,,,,,,,23,001,2019_Dec_25_1215,untitled,3.1.0,59.512084238260485,
014,R,M,225,R,N,014RM225RN,HRN,0,224,224,101,,,1.2530000000000001,826.1053719000192,826.4538293000078,826.4685638000374,826.7517301000189,826.7692147000344,None,down,826.7692147000344,None,826.7692147000344,828.0004969000001,0.06210400001145899,None,2.932337899983395,,,,,,,,,23,001,2019_Dec_25_1215,untitled,3.1.0,59.512084238260485,
043,R,M,90,L,N,043RM090LN,HLN,0,225,225,106,,,0.862,829.788358400052,830.1152097000158,830.1317488000495,830.4154888000339,830.4319314000313,None,down,830.4319314000313,None,830.4319314000313,831.2808271000395,0.0784548000083305,None,1.968790800019633,,,,,,,,,23,001,2019_Dec_25_1215,untitled,3.1.0,59.512084238260485,
_,G,N,180,_,_,_GN180__,N,0,226,226,60,,,1.004,832.4687570000533,832.8149235000019,832.8296828000457,833.1128862000187,833.129732500005,None,up,833.129732500005,None,833.129732500005,834.1118187000393,0.059669399983249605,None,2.133394100004807,,,,,,,,,23,001,2019_Dec_25_1215,untitled,3.1.0,59.512084238260485,
009,R,M,0,R,N,009RM000RN,HRN,0,227,227,96,,,1.204,835.3311456000083,835.6770634000422,835.6941716000438,835.9770331000327,835.9934253000538,None,down,835.9934253000538,None,835.9934253000538,837.175655900035,0.061522900010459125,None,2.0657223999733105,,,,,,,,,23,001,2019_Dec_25_1215,untitled,3.1.0,59.512084238260485,
491,_5,M,90,L,N,491_5M090LN,HLN,0,228,228,186,,,1.218,838.1418663000222,838.4745434000506,838.4912358000292,838.7745969000389,838.7911256000516,None,down,838.7911256000516,None,838.7911256000516,839.9900338000152,0.07547949999570847,None,2.3314174999832176,,,,,,,,,23,001,2019_Dec_25_1215,untitled,3.1.0,59.512084238260485,
_,F,N,180,_,_,_FN180__,N,0,229,229,52,,,1.399,841.1875895000412,841.5388267000089,841.5556078000227,841.838356000022,841.8548786000465,None,up,841.8548786000465,None,841.8548786000465,843.237043000001,0.058325399993918836,None,3.197425700025633,,,,,,,,,23,001,2019_Dec_25_1215,untitled,3.1.0,59.512084238260485,
_,_2,N,315,_,_,__2N315__,N,0,230,230,79,,,1.09,845.1404871999985,845.4694886000361,845.4853036000277,845.7684311000048,845.7852809000178,None,down,845.7852809000178,None,845.7852809000178,846.8503621999989,0.07780989998718724,None,2.4817512999870814,,,,,,,,,23,001,2019_Dec_25_1215,untitled,3.1.0,59.512084238260485,
_,F,N,45,_,_,_FN045__,N,0,231,231,49,,,1.186,848.3529164000065,848.6827301000012,848.6999916000059,848.9822243000381,848.9997719000094,None,up,848.9997719000094,None,848.9997719000094,850.164691300015,0.07755940000060946,None,2.33188319997862,,,,,,,,,23,001,2019_Dec_25_1215,untitled,3.1.0,59.512084238260485,
206,G,M,225,R,N,206GM225RN,HRN,0,232,232,133,,,1.383,851.3998093000264,851.7466870000353,851.7631141000311,852.0462965000188,852.0627833000035,None,down,852.0627833000035,None,852.0627833000035,853.4282001000247,0.06183209997834638,None,3.2476573000312783,,,,,,,,,23,001,2019_Dec_25_1215,untitled,3.1.0,59.512084238260485,
007,R,N,270,R,N,007RN270RN,HRN,0,233,233,198,,,1.282,855.3786290000426,855.7266555000097,855.7430202999967,856.0261939000338,856.0427138000377,None,up,856.0427138000377,None,856.0427138000377,857.3084267000086,0.06136360001983121,None,2.249969800002873,,,,,,,,,23,001,2019_Dec_25_1215,untitled,3.1.0,59.512084238260485,
266,_2,M,45,R,N,266_2M045RN,HRN,0,234,234,145,,,1.322,858.3648713000002,858.7077496999991,858.7239585000207,859.0069916000357,859.0239596000174,None,down,859.0239596000174,None,859.0239596000174,860.3225130000501,0.06511970004066825,None,2.7999253000016324,,,,,,,,,23,001,2019_Dec_25_1215,untitled,3.1.0,59.512084238260485,
463,_5,M,270,R,N,463_5M270RN,HRN,0,235,235,182,,,1.052,861.8941190000041,862.2379794000299,862.254692400049,862.5376841000398,862.5543699000264,None,down,862.5543699000264,None,862.5543699000264,863.5860481000273,0.06307139998534694,None,2.731144800025504,,,,,,,,,23,001,2019_Dec_25_1215,untitled,3.1.0,59.512084238260485,
261,_2,N,180,R,N,261_2N180RN,HRN,0,236,236,244,,,0.9460000000000001,865.3761006999994,865.7019837000407,865.7175159000326,866.0009281000239,866.0176638000412,None,up,866.0176638000412,None,866.0176638000412,866.9500679000048,0.08085059997392818,None,1.9654863000032492,,,,,,,,,23,001,2019_Dec_25_1215,untitled,3.1.0,59.512084238260485,
162,F,N,45,L,N,162FN045LN,HLN,0,237,237,217,,,1.111,868.0569291000138,868.3983336000238,868.4151135000284,868.6987126000458,868.7149081000243,None,up,868.7149081000243,None,868.7149081000243,869.8140414000372,0.06681859999662265,None,2.2676275999983773,,,,,,,,,23,001,2019_Dec_25_1215,untitled,3.1.0,59.512084238260485,
_,F,M,0,_,_,_FM000__,N,0,238,238,0,,,0.903,871.0488852999988,871.3954357000184,871.4132016000221,871.6963430000469,871.7125628000358,None,down,871.7125628000358,None,871.7125628000358,872.5952296000323,0.059839900000952184,None,1.9825893000233918,,,,,,,,,23,001,2019_Dec_25_1215,untitled,3.1.0,59.512084238260485,
034,R,N,45,L,N,034RN045LN,HLN,0,239,239,201,,,0.86,873.7677863000426,874.1102147000493,874.1273618999985,874.4102232000441,874.4268682000111,None,up,874.4268682000111,None,874.4268682000111,875.2763563000481,0.06520840001758188,None,1.699584899994079,,,,,,,,,23,001,2019_Dec_25_1215,untitled,3.1.0,59.512084238260485,
_,_4,M,90,_,_,__4M090__,N,0,240,240,34,,,0.987,876.1993238000432,876.541633100016,876.5591557000298,876.8410366000026,876.8581702000229,None,down,876.8581702000229,None,876.8581702000229,877.82355500001,0.0660745000350289,None,2.58094469999196,,,,,,,,,23,001,2019_Dec_25_1215,untitled,3.1.0,59.512084238260485,
194,G,N,45,R,N,194GN045RN,HRN,0,241,241,225,,,1.334,879.5104435000103,879.8548010000377,879.8720102000516,880.15599140001,880.1717232000083,None,up,880.1717232000083,None,880.1717232000083,881.4867422000389,0.06394129997352138,None,2.3653524999972433,,,,,,,,,23,001,2019_Dec_25_1215,untitled,3.1.0,59.512084238260485,
399,_4,M,270,R,N,399_4M270RN,HRN,0,242,242,166,,,1.025,882.6346212000353,882.9525139000034,882.9693599000457,883.252388700028,883.2688010000275,None,down,883.2688010000275,None,883.2688010000275,884.28469890001,0.08812849997775629,None,2.233460599964019,,,,,,,,,23,001,2019_Dec_25_1215,untitled,3.1.0,59.512084238260485,
_,_4,N,0,_,_,__4N000__,N,0,243,243,80,,,1.199,885.5687550000148,885.9166335000191,885.9336522000376,886.216979400022,886.2339650000213,None,up,886.2339650000213,None,886.2339650000213,887.4151651000138,0.05908009997801855,None,1.86776239995379,,,,,,,,,23,001,2019_Dec_25_1215,untitled,3.1.0,59.512084238260485,
464,_5,M,315,R,N,464_5M315RN,HRN,0,244,244,183,,,1.248,888.2003517000121,888.5143064000295,888.5323181000422,888.8142372000148,888.8308028000174,None,down,888.8308028000174,None,888.8308028000174,890.0638575000339,0.08833409997168928,None,3.166195099998731,,,,,,,,,23,001,2019_Dec_25_1215,untitled,3.1.0,59.512084238260485,
493,_5,M,180,L,N,493_5M180LN,HLN,0,245,245,188,,,1.076,892.0646298000356,892.4112482000492,892.4277973000426,892.7110247000237,892.7277456000447,None,down,892.7277456000447,None,892.7277456000447,893.7948476000456,0.06034989998443052,None,2.548362800036557,,,,,,,,,23,001,2019_Dec_25_1215,untitled,3.1.0,59.512084238260485,
_,R,M,90,_,_,_RM090__,N,0,246,246,18,,,1.055,895.3440858999966,895.6917454000213,895.7081391999964,895.9911895000259,896.0080464000348,None,down,896.0080464000348,None,896.0080464000348,897.0411196000059,0.06056499999249354,None,1.9326225999975577,,,,,,,,,23,001,2019_Dec_25_1215,untitled,3.1.0,59.512084238260485,
_,_2,N,180,_,_,__2N180__,N,0,247,247,76,,,1.397,898.019232300052,898.3565789000131,898.3747074000421,898.6554155000485,898.671937200008,None,up,898.671937200008,None,898.671937200008,900.0541823000531,0.06986510002752766,None,3.2166870000073686,,,,,,,,,23,001,2019_Dec_25_1215,untitled,3.1.0,59.512084238260485,
484,_5,N,135,L,N,484_5N135LN,HLN,0,248,248,283,,,1.153,901.9583312000032,902.3027943000197,902.3194112000056,902.6019548000186,902.6184800000046,None,up,902.6184800000046,None,902.6184800000046,903.7503914000117,0.063175399962347,None,2.465454100049101,,,,,,,,,23,001,2019_Dec_25_1215,untitled,3.1.0,59.512084238260485,
201,G,M,0,R,N,201GM000RN,HRN,0,249,249,128,,,1.2750000000000001,905.1728180000209,905.5008758000331,905.5163047999959,905.7993420000421,905.81580760004,None,down,905.81580760004,None,905.81580760004,907.0813386000227,0.08061459998134524,None,2.6173587000230327,,,,,,,,,23,001,2019_Dec_25_1215,untitled,3.1.0,59.512084238260485,
431,_4,M,270,L,N,431_4M270LN,HLN,0,250,250,174,,,0.74,908.5089439000003,908.8476649000077,908.8635809000116,909.1467848000466,909.1633511999971,None,down,909.1633511999971,None,909.1633511999971,909.8960992000066,0.06862550001824275,None,2.350595100026112,,,,,,,,,23,001,2019_Dec_25_1215,untitled,3.1.0,59.512084238260485,
_,G,M,90,_,_,_GM090__,N,0,251,251,10,,,1.2690000000000001,911.5828103000531,911.9276639000163,911.9445309000439,912.2274514000164,912.2436379000428,None,down,912.2436379000428,None,912.2436379000428,913.4925504000275,0.06242730002850294,None,3.396869499993045,,,,,,,,,23,001,2019_Dec_25_1215,untitled,3.1.0,59.512084238260485,
260,_2,N,135,R,N,260_2N135RN,HRN,0,252,252,243,,,1.107,915.7129106000066,916.0570571999997,916.0758899000357,916.3567963000387,916.3735570000135,None,up,916.3735570000135,None,916.3735570000135,917.4559542000061,0.06573749997187406,None,2.220380400016438,,,,,,,,,23,001,2019_Dec_25_1215,untitled,3.1.0,59.512084238260485,
397,_4,M,180,R,N,397_4M180RN,HRN,0,253,253,164,,,0.764,918.6947474000044,919.0046138000325,919.0213535000221,919.3042871000362,919.3209453000454,None,down,919.3209453000454,None,919.3209453000454,920.0703595000086,0.091274100006558,None,2.817974100005813,,,,,,,,,23,001,2019_Dec_25_1215,untitled,3.1.0,59.512084238260485,
423,_4,N,270,L,N,423_4N270LN,HLN,0,254,254,270,,,1.207,922.2082245000056,922.5516541000106,922.568138200033,922.8515996000497,922.8678404000239,None,up,922.8678404000239,None,922.8678404000239,924.0666532000178,0.06259520002640784,None,2.017672300047707,,,,,,,,,23,001,2019_Dec_25_1215,untitled,3.1.0,59.512084238260485,
_,_5,N,270,_,_,__5N270__,N,0,255,255,94,,,0.89,924.9560750000528,925.2997005000361,925.3155972000095,925.600118900009,925.6153898000484,None,up,925.6153898000484,None,925.6153898000484,926.4814462000504,0.06326450000051409,None,1.9026930999825709,,,,,,,,,23,001,2019_Dec_25_1215,untitled,3.1.0,59.512084238260485,
161,F,N,0,L,N,161FN000LN,HLN,0,256,256,216,,,0.894,927.6022233000258,927.9304987000069,927.9470895000268,928.2303095000098,928.2486384000513,None,up,928.2486384000513,None,928.2486384000513,929.1295069000334,0.07545200001914054,None,2.5316636000061408,,,,,,,,,23,001,2019_Dec_25_1215,untitled,3.1.0,59.512084238260485,
422,_4,N,225,L,N,422_4N225LN,HLN,0,257,257,269,,,0.732,930.8482535000076,931.1942437000107,931.2105198000208,931.4940520000528,931.510501300043,None,up,931.510501300043,None,931.510501300043,932.2260287000099,0.060649999999441206,None,1.6152756999945268,,,,,,,,,23,001,2019_Dec_25_1215,untitled,3.1.0,59.512084238260485,
_,R,N,45,_,_,_RN045__,N,0,258,258,65,,,1.071,933.1923731000279,933.5419393000193,933.558491200034,933.8808074000408,933.8808074000408,None,up,933.8808074000408,None,933.8808074000408,934.9070052000461,0.05993060005130246,None,2.4781637000269257,,,,,,,,,23,001,2019_Dec_25_1215,untitled,3.1.0,59.512084238260485,
_,R,N,135,_,_,_RN135__,N,0,259,259,67,,,0.992,936.4393034999957,936.7735006000148,936.789179400017,937.0728766000248,937.0886476000305,None,up,937.0886476000305,None,937.0886476000305,938.0710439000395,0.07212239998625591,None,1.6990782000357285,,,,,,,,,23,001,2019_Dec_25_1215,untitled,3.1.0,59.512084238260485,
165,F,N,180,L,N,165FN180LN,HLN,0,260,260,220,,,0.989,938.8575372000341,939.2041225000285,939.2206232000026,939.5036654000287,939.5200130000012,None,up,939.5200130000012,None,939.5200130000012,940.4855453000055,0.06175280001480132,None,1.915434600028675,,,,,,,,,23,001,2019_Dec_25_1215,untitled,3.1.0,59.512084238260485,
197,G,N,180,R,N,197GN180RN,HRN,0,261,261,228,,,1.389,941.5077842000173,941.8514489000081,941.8680125999963,942.1511796000414,942.1677988000447,None,up,942.1677988000447,None,942.1677988000447,943.5333031000337,0.06590220000362024,None,2.748369399982039,,,,,,,,,23,001,2019_Dec_25_1215,untitled,3.1.0,59.512084238260485,
040,R,N,315,L,N,040RN315LN,HLN,0,262,262,207,,,0.9430000000000001,945.0026749999961,945.3314658000018,945.3481044000364,945.6314458000124,945.6480208000285,None,up,945.6480208000285,None,945.6480208000285,946.5804458000348,0.07766529999207705,None,1.6155878000427037,,,,,,,,,23,001,2019_Dec_25_1215,untitled,3.1.0,59.512084238260485,
299,_2,M,90,L,N,299_2M090LN,HLN,0,263,263,154,,,0.806,947.3341141000274,947.6796012000414,947.6966136000119,947.9807318000239,947.9959382000379,None,down,947.9959382000379,None,947.9959382000379,948.7785206999979,0.06372360000386834,None,1.7681262999540195,,,,,,,,,23,001,2019_Dec_25_1215,untitled,3.1.0,59.512084238260485,
270,_2,M,225,R,N,270_2M225RN,HRN,0,264,264,149,,,0.871,949.8368667000323,950.177490800037,950.1943197000073,950.4773025000468,950.4937491000164,None,down,950.4937491000164,None,950.4937491000164,951.3432368000504,0.06608020002022386,None,2.316227700037416,,,,,,,,,23,001,2019_Dec_25_1215,untitled,3.1.0,59.512084238260485,
_,_2,N,90,_,_,__2N090__,N,0,265,265,74,,,0.747,952.8776054000482,953.224667500006,953.2417533000116,953.5246606000001,953.5411582000088,None,up,953.5411582000088,None,953.5411582000088,954.2736028000363,0.06111010001040995,None,1.5499301999807358,,,,,,,,,23,001,2019_Dec_25_1215,untitled,3.1.0,59.512084238260485,
452,_5,N,135,R,N,452_5N135RN,HRN,0,266,266,275,,,1.288,955.1628285000334,955.5057345000096,955.5226699000341,955.8067513999995,955.8223163000075,None,up,955.8223163000075,None,955.8223163000075,957.0877860000473,0.06422000000020489,None,2.5663372999988496,,,,,,,,,23,001,2019_Dec_25_1215,untitled,3.1.0,59.512084238260485,
036,R,N,135,L,N,036RN135LN,HLN,0,267,267,203,,,1.332,958.466385900043,958.8031518000062,958.8196888000239,959.1035964000039,959.1193919000216,None,up,959.1193919000216,None,959.1193919000216,960.434967200039,0.06887529999949038,None,2.301298599981237,,,,,,,,,23,001,2019_Dec_25_1215,untitled,3.1.0,59.512084238260485,
486,_5,N,225,L,N,486_5N225LN,HLN,0,268,268,285,,,1.26,961.5046993000433,961.8343386000488,961.85121480003,962.1342544000363,962.1512681000168,None,up,962.1512681000168,None,962.1512681000168,963.3993622999988,0.07260180002776906,None,2.081859500030987,,,,,,,,,23,001,2019_Dec_25_1215,untitled,3.1.0,59.512084238260485,
_,F,N,225,_,_,_FN225__,N,0,269,269,53,,,0.871,964.3301007000264,964.6477078000316,964.6645549000241,964.9494091000524,964.964578300016,None,up,964.964578300016,None,964.964578300016,965.8135070000426,0.08875310001894832,None,1.7175862999865785,,,,,,,,,23,001,2019_Dec_25_1215,untitled,3.1.0,59.512084238260485,
048,R,M,315,L,N,048RM315LN,HLN,0,270,270,111,,,1.2650000000000001,966.752361699997,967.0958909000037,967.1134838000289,967.3958014000091,967.4125254999963,None,down,967.4125254999963,None,967.4125254999963,968.6613025999977,0.06362500000977889,None,2.08461790002184,,,,,,,,,23,001,2019_Dec_25_1215,untitled,3.1.0,59.512084238260485,
_,F,N,90,_,_,_FN090__,N,0,271,271,50,,,1.067,969.5646752000321,969.9099944000482,969.9266437000479,970.2100943000405,970.2265790000092,None,up,970.2265790000092,None,970.2265790000092,971.2756985000451,0.06033189996378496,None,1.851946799957659,,,,,,,,,23,001,2019_Dec_25_1215,untitled,3.1.0,59.512084238260485,
240,G,M,315,L,N,240GM315LN,HLN,0,272,272,143,,,1.153,972.1486574000446,972.4912478000042,972.5078225000179,972.7926624999964,972.8075334000168,None,down,972.8075334000168,None,972.8075334000168,973.9403244000277,0.06356410001171753,None,2.215298500028439,,,,,,,,,23,001,2019_Dec_25_1215,untitled,3.1.0,59.512084238260485,
137,F,M,0,R,N,137FM000RN,HRN,0,273,273,112,,,1.356,975.1077909000451,975.4383372000302,975.4554624000448,975.7379276000429,975.7545460000401,None,down,975.7545460000401,None,975.7545460000401,977.086758600024,0.0771954000229016,None,2.4011306000174955,,,,,,,,,23,001,2019_Dec_25_1215,untitled,3.1.0,59.512084238260485,
264,_2,N,315,R,N,264_2N315RN,HRN,0,274,274,247,,,1.367,978.2279832000495,978.5698038000264,978.5860961000435,978.8694071000209,978.8859679000452,None,None,978.8859679000452,None,978.8859679000452,980.2341165000107,0.06474649999290705,None,,,,,,,,,,23,001,2019_Dec_25_1215,untitled,3.1.0,59.512084238260485,
_,_5,N,45,_,_,__5N045__,N,0,275,275,89,,,1.097,982.420271400013,982.7660347000347,982.7820948000299,983.0654983000131,983.0820781000075,982.420271400013,up,983.0820781000075,None,983.0820781000075,984.1644203000469,0.06402600003639236,None,1.834360100037884,,,,,,,,,23,001,2019_Dec_25_1215,untitled,3.1.0,59.512084238260485,
_,R,N,0,_,_,_RN000__,N,0,276,276,64,,,1.198,984.9833991000196,985.3301964999991,985.3463593000197,985.6297419000184,985.6467247999972,None,up,985.6467247999972,None,985.6467247999972,986.8289359000046,0.06059319997439161,None,2.215773799980525,,,,,,,,,23,001,2019_Dec_25_1215,untitled,3.1.0,59.512084238260485,
168,F,N,315,L,N,168FN315LN,HLN,0,277,277,223,,,1.157,987.9338675000472,988.2792247000034,988.2943877000362,988.5774999000132,988.5939025999978,None,up,988.5939025999978,None,988.5939025999978,989.7256919000065,0.06400299997767434,None,1.8488538000383414,,,,,,,,,23,001,2019_Dec_25_1215,untitled,3.1.0,59.512084238260485,
259,_2,N,90,R,N,259_2N090RN,HRN,0,278,278,242,,,1.063,990.5268127000309,990.8586435000179,990.8751760000014,991.1581286000437,991.1742361000506,None,up,991.1742361000506,None,991.1742361000506,992.2238187000039,0.07680040004197508,None,1.7998334000003524,,,,,,,,,23,001,2019_Dec_25_1215,untitled,3.1.0,59.512084238260485,
_,_2,M,315,_,_,__2M315__,N,0,279,279,31,,,0.9590000000000001,993.0417106000241,993.3905149000348,993.4063794999965,993.6908238000469,993.7068337000092,None,down,993.7068337000092,None,993.7068337000092,994.6389212000067,0.06094440002925694,None,1.7152669999632053,,,,,,,,,23,001,2019_Dec_25_1215,untitled,3.1.0,59.512084238260485,
129,F,N,0,R,N,129FN000RN,HRN,0,280,280,208,,,0.891,995.5083561000065,995.8375686000218,995.8541184000205,996.1375381000107,996.1543918000534,None,up,996.1543918000534,None,996.1543918000534,997.0364152000402,0.07822570001007989,None,1.565116300014779,,,,,,,,,23,001,2019_Dec_25_1215,untitled,3.1.0,59.512084238260485,
297,_2,M,0,L,N,297_2M000LN,HLN,0,281,281,152,,,1.276,997.7881256000255,998.1371787000098,998.152528400009,998.435313199996,998.4534186000237,None,down,998.4534186000237,None,998.4534186000237,999.701535900007,0.062026700004935265,None,2.1306704999879003,,,,,,,,,23,001,2019_Dec_25_1215,untitled,3.1.0,59.512084238260485,
_,G,M,270,_,_,_GM270__,N,0,282,282,14,,,1.209,1000.6504490000079,1001.0005078000249,1001.0166239000391,1001.3002193000284,1001.3161277000327,None,down,1001.3161277000327,None,1001.3161277000327,1002.5148090000148,0.059659200021997094,None,2.6656464000116102,,,,,,,,,23,001,2019_Dec_25_1215,untitled,3.1.0,59.512084238260485,
453,_5,N,180,R,N,453_5N180RN,HRN,0,283,283,276,,,1.072,1004.0520563000464,1004.3966328000533,1004.4135619000299,1004.6966354000033,1004.7134588000481,None,up,1004.7134588000481,None,1004.7134588000481,1005.7623828000505,0.0632933999877423,None,2.3647309000371024,,,,,,,,,23,001,2019_Dec_25_1215,untitled,3.1.0,59.512084238260485,
_,F,M,180,_,_,_FM180__,N,0,284,284,4,,,1.09,1007.1467162000481,1007.4944008000311,1007.5109687000513,1007.7941311000031,1007.810775800026,None,up,1007.810775800026,None,1007.810775800026,1008.8765656000469,0.06046020000940189,None,1.8487099999911152,,,,,,,,,23,001,2019_Dec_25_1215,untitled,3.1.0,59.512084238260485,
300,_2,M,135,L,N,300_2M135LN,HLN,0,285,285,155,,,1.1,1009.7364063000423,1010.078959800012,1010.0929227000452,1010.3749501000275,1010.3919475000002,None,down,1010.3919475000002,None,1010.3919475000002,1011.4739373000339,0.06813440000405535,None,2.731572700024117,,,,,,,,,23,001,2019_Dec_25_1215,untitled,3.1.0,59.512084238260485,
301,_2,M,180,L,N,301_2M180LN,HLN,0,286,286,156,,,0.748,1013.1919441000209,1013.5390912000439,1013.555781300005,1013.8382968000369,1013.8553813000326,None,down,1013.8553813000326,None,1013.8553813000326,1014.5878536000382,0.06109949998790398,None,3.000115300004836,,,,,,,,,23,001,2019_Dec_25_1215,untitled,3.1.0,59.512084238260485,
_,_2,N,45,_,_,__2N045__,N,0,287,287,73,,,0.9550000000000001,1016.9241859000176,1017.2696800000267,1017.2855815000366,1017.5689446000033,1017.5853065000265,None,up,1017.5853065000265,None,1017.5853065000265,1018.5178153000306,0.06128520000493154,None,1.9818636000272818,,,,,,,,,23,001,2019_Dec_25_1215,untitled,3.1.0,59.512084238260485,
,,,,,,,,,,,,,,,,,,,,,,,,,,,,,1019.5836137000006,None,1040.6324078000034,None,1048.32518720004,None,1072.2211210000096,None,,,,,,,
