Number,Letter,type,Orientation,human,face_type,image,picture,trials.thisRepN,trials.thisTrialN,trials.thisN,trials.thisIndex,text.started,text.stopped,stimulus_duration,CROSS.started,CROSS.stopped,BLANK.started,BLANK.stopped,TEST.started,TEST.stopped,key_JUDGE.keys,key_JUDGE.started,key_JUDGE.stopped,image_2.started,image_2.stopped,ISI.started,ISI.stopped,key_JUDGE.rt,q1.started,q1.stopped,q2.started,q2.stopped,q3.started,q3.stopped,text_2.started,text_2.stopped,participant,session,date,expName,psychopyVersion,frameRate,
014,R,M,225,R,N,014RM225RN,HRN,0,0,0,101,149.73958210001,None,0.8270000000000001,173.0723486999632,173.41466859995853,173.43102139997063,173.71384129999205,173.73062539997045,None,None,173.73062539997045,None,173.73062539997045,174.54666549997637,0.06578140001511201,None,,,,,,,,,,24,001,2019_Dec_25_1235,untitled,3.1.0,60.18241288119368,
170,F,M,45,L,N,170FM045LN,HLN,0,1,1,121,,,1.344,177.2961833999725,177.6437358999974,177.66061459999764,177.94365420000395,177.96000049996655,177.2961833999725,down,177.96000049996655,None,177.96000049996655,179.29244809999363,0.060303399979602545,None,2.6988622999633662,,,,,,,,,24,001,2019_Dec_25_1235,untitled,3.1.0,60.18241288119368,
013,R,M,180,R,N,013RM180RN,HRN,0,2,2,100,,,0.789,180.73821919999318,181.07607359997928,181.0910643999814,181.3738313000067,181.3908922999981,None,up,181.3908922999981,None,181.3908922999981,182.15652899997076,0.06973330001346767,None,2.731078399985563,,,,,,,,,24,001,2019_Dec_25_1235,untitled,3.1.0,60.18241288119368,
484,_5,N,135,L,N,484_5N135LN,HLN,0,3,3,283,,,0.841,184.1918408999918,184.5383307999582,184.55482419999316,184.83782249997603,184.85460349998903,None,up,184.85460349998903,None,184.85460349998903,185.67064689996187,0.06305100000463426,None,3.1474654000485316,,,,,,,,,24,001,2019_Dec_25_1235,untitled,3.1.0,60.18241288119368,
205,G,M,180,R,N,205GM180RN,HRN,0,4,4,132,,,1.372,188.07448409998324,188.41849780001212,188.4345963000087,188.7179710000055,188.7348217999679,None,None,188.7348217999679,None,188.7348217999679,190.08339529996738,0.065539599978365,None,,,,,,,,,,24,001,2019_Dec_25_1235,untitled,3.1.0,60.18241288119368,
483,_5,N,90,L,N,483_5N090LN,HLN,0,5,5,282,,,1.191,192.28722259995993,192.61524889996508,192.6313550999621,192.9142097000149,192.9308149999706,192.28722259995993,up,192.9308149999706,None,192.9308149999706,194.09623149997788,0.08141799998702481,None,2.234153299999889,,,,,,,,,24,001,2019_Dec_25_1235,untitled,3.1.0,60.18241288119368,
393,_4,M,0,R,N,393_4M000RN,HRN,0,6,6,160,,,1.228,195.2356890999945,195.57831790001364,195.5948602000135,195.87806839996483,195.89460579998558,None,None,195.89460579998558,None,195.89460579998558,197.11069559998577,0.0641009999671951,None,,,,,,,,,,24,001,2019_Dec_25_1235,untitled,3.1.0,60.18241288119368,
165,F,N,180,L,N,165FN180LN,HLN,0,7,7,220,,,1.075,199.4302504999796,199.77466970001115,199.79186599998502,200.07442229997832,200.09231629996793,199.4302504999796,up,200.09231629996793,None,200.09231629996793,201.1400299000088,0.06235309998737648,None,2.514261999982409,,,,,,,,,24,001,2019_Dec_25_1235,untitled,3.1.0,60.18241288119368,
_,F,N,315,_,_,_FN315__,N,0,8,8,55,,,1.044,202.6759079999756,203.02215819997946,203.03872549999505,203.32216709997738,203.33823449996999,None,up,203.33823449996999,None,203.33823449996999,204.37067709997064,0.06235770002240315,None,2.4844805999891832,,,,,,,,,24,001,2019_Dec_25_1235,untitled,3.1.0,60.18241288119368,
_,_5,M,225,_,_,__5M225__,N,0,9,9,45,,,1.194,205.89420619996963,206.2361086999881,206.2522599999793,206.53568490000907,206.5520880999975,None,down,206.5520880999975,None,206.5520880999975,207.73445220000576,0.06468250002944842,None,3.1015274999663234,,,,,,,,,24,001,2019_Dec_25_1235,untitled,3.1.0,60.18241288119368,
301,_2,M,180,L,N,301_2M180LN,HLN,0,10,10,156,,,1.222,209.7237038000021,210.06587980000768,210.0826161999721,210.36573049996514,210.38216859998647,None,None,210.38216859998647,None,210.38216859998647,211.59777870000107,0.06306459999177605,None,,,,,,,,,,24,001,2019_Dec_25_1235,untitled,3.1.0,60.18241288119368,
399,_4,M,270,R,N,399_4M270RN,HRN,0,11,11,166,,,0.86,213.91469389997656,214.26167199999327,214.2787374999607,214.5619307999732,214.57886040001176,213.91469389997656,up,214.57886040001176,None,214.57886040001176,215.42759999999544,0.060995600011665374,None,1.7324891000171192,,,,,,,,,24,001,2019_Dec_25_1235,untitled,3.1.0,60.18241288119368,
_,F,N,225,_,_,_FN225__,N,0,12,12,53,,,1.181,216.37905799999135,216.72680299996864,216.74462299997685,217.02771479997318,217.04308769997442,None,up,217.04308769997442,None,217.04308769997442,218.20853000000352,0.06064059998607263,None,2.332499000011012,,,,,,,,,24,001,2019_Dec_25_1235,untitled,3.1.0,60.18241288119368,
_,G,N,225,_,_,_GN225__,N,0,13,13,61,,,1.236,219.44775389996357,219.79034780000802,219.8077614000067,220.0909457000089,220.10684039996704,None,None,220.10684039996704,None,220.10684039996704,221.3231572000077,0.06575489998795092,None,,,,,,,,,,24,001,2019_Dec_25_1235,untitled,3.1.0,60.18241288119368,
390,_4,N,225,R,N,390_4N225RN,HRN,0,14,14,261,,,1.305,223.64447699999437,223.9867169999634,224.0037936999579,224.2864644000074,224.3030864999746,223.64447699999437,up,224.3030864999746,None,224.3030864999746,225.58556549996138,0.06545840000035241,None,2.5174969999934547,,,,,,,,,24,001,2019_Dec_25_1235,untitled,3.1.0,60.18241288119368,
420,_4,N,135,L,N,420_4N135LN,HLN,0,15,15,267,,,0.849,226.89057799999136,227.23461529996712,227.25112089997856,227.53401770000346,227.5506624999689,None,up,227.5506624999689,None,227.5506624999689,228.38335439999355,0.06325489998562261,None,2.016898499976378,,,,,,,,,24,001,2019_Dec_25_1235,untitled,3.1.0,60.18241288119368,
_,_2,M,45,_,_,__2M045__,N,0,16,16,25,,,0.848,229.63770829996793,229.9820752000087,229.99834300001385,230.28123039996717,230.2987626999966,None,None,230.2987626999966,None,230.2987626999966,231.13125879998552,0.06290740001713857,None,,,,,,,,,,24,001,2019_Dec_25_1235,untitled,3.1.0,60.18241288119368,
396,_4,M,135,R,N,396_4M135RN,HRN,0,17,17,163,,,0.853,233.8428997999872,234.1781750000082,234.19555499998387,234.47797810001066,234.49438389996067,233.8428997999872,None,234.49438389996067,None,234.49438389996067,235.32749689999036,0.0729387000319548,None,,,,,,,,,,24,001,2019_Dec_25_1235,untitled,3.1.0,60.18241288119368,
134,F,N,225,R,N,134FN225RN,HRN,0,18,18,213,,,1.364,238.0281286999816,238.37453939998522,238.391499499965,238.6744629999739,238.69091100001242,238.0281286999816,up,238.69091100001242,None,238.69091100001242,240.03972030000295,0.0618477999814786,None,2.3509952999884263,,,,,,,,,24,001,2019_Dec_25_1235,untitled,3.1.0,60.18241288119368,
389,_4,N,180,R,N,389_4N180RN,HRN,0,19,19,260,,,1.087,241.11029989999952,241.45460559998173,241.47137149999617,241.75530690001324,241.77180919999955,None,down,241.77180919999955,None,241.77180919999955,242.83752619998995,0.06168909999541938,None,2.7141210000263527,,,,,,,,,24,001,2019_Dec_25_1235,untitled,3.1.0,60.18241288119368,
296,_2,N,315,L,N,296_2N315LN,HLN,0,20,20,255,,,0.971,244.55776689999038,244.9020345999743,244.91922739997972,245.20206539996434,245.21886349999113,None,up,245.21886349999113,None,245.21886349999113,246.16785959998379,0.06511699996190146,None,2.781342800008133,,,,,,,,,24,001,2019_Dec_25_1235,untitled,3.1.0,60.18241288119368,
302,_2,M,225,L,N,302_2M225LN,HLN,0,21,21,157,,,0.762,248.06964269996388,248.41636089998065,248.43244339997182,248.71551820001332,248.73298039997462,None,None,248.73298039997462,None,248.73298039997462,249.48142839997308,0.06256829999620095,None,,,,,,,,,,24,001,2019_Dec_25_1235,untitled,3.1.0,60.18241288119368,
486,_5,N,225,L,N,486_5N225LN,HLN,0,22,22,285,,,0.8300000000000001,252.2649571999791,252.6122034,252.62878959998488,252.91210720001254,252.9286196999601,252.2649571999791,up,252.9286196999601,None,252.9286196999601,253.74405390000902,0.061505099991336465,None,2.3320983000448905,,,,,,,,,24,001,2019_Dec_25_1235,untitled,3.1.0,60.18241288119368,
202,G,M,45,R,N,202GM045RN,HRN,0,23,23,129,,,1.283,255.3310596999945,255.67587799998,255.69302159996005,255.97564419999253,255.992608200002,None,down,255.992608200002,None,255.992608200002,257.25808090000646,0.06281730002956465,None,2.864496099995449,,,,,,,,,24,001,2019_Dec_25_1235,untitled,3.1.0,60.18241288119368,
132,F,N,135,R,N,132FN135RN,HRN,0,24,24,211,,,0.993,258.93556640000315,259.2744026000146,259.2912391999853,259.57258709997404,259.58944159996463,None,up,259.58944159996463,None,259.58944159996463,260.5721551000024,0.07076289999531582,None,2.717015200003516,,,,,,,,,24,001,2019_Dec_25_1235,untitled,3.1.0,60.18241288119368,
_,F,N,180,_,_,_FN180__,N,0,25,25,52,,,0.887,262.3749433999765,262.7200821999577,262.736726299976,263.01983979996294,263.036279699998,None,up,263.036279699998,None,263.036279699998,263.9031920999987,0.06106239999644458,None,1.967222800012678,,,,,,,,,24,001,2019_Dec_25_1235,untitled,3.1.0,60.18241288119368,
_,F,M,0,_,_,_FM000__,N,0,26,26,0,,,1.143,265.09441219997825,265.41740119998576,265.4361021000077,265.7184490999789,265.7340078999987,None,down,265.7340078999987,None,265.7340078999987,266.86801789997844,0.0800421999883838,None,2.298401299980469,,,,,,,,,24,001,2019_Dec_25_1235,untitled,3.1.0,60.18241288119368,
195,G,N,90,R,N,195GN090RN,HRN,0,27,27,226,,,1.024,268.10246460000053,268.4481379999779,268.46494350000285,268.7479730999912,268.7649311000132,None,up,268.7649311000132,None,268.7649311000132,269.7637240999611,0.0635741000296548,None,2.3504929000046104,,,,,,,,,24,001,2019_Dec_25_1235,untitled,3.1.0,60.18241288119368,
257,_2,N,0,R,N,257_2N000RN,HRN,0,28,28,240,,,0.867,271.1853010999621,271.5288781999843,271.5455422999803,271.8300092999707,271.8459656999912,None,up,271.8459656999912,None,271.8459656999912,272.6946403000038,0.06307879998348653,None,1.8172049000277184,,,,,,,,,24,001,2019_Dec_25_1235,untitled,3.1.0,60.18241288119368,
131,F,N,90,R,N,131FN090RN,HRN,0,29,29,210,,,1.0050000000000001,273.73135419999016,274.0766990999691,274.0933207999915,274.3776823999942,274.39552409999305,None,down,274.39552409999305,None,274.39552409999305,275.3754232999636,0.06137499999022111,None,3.3303406999912113,,,,,,,,,24,001,2019_Dec_25_1235,untitled,3.1.0,60.18241288119368,
004,R,N,135,R,N,004RN135RN,HRN,0,30,30,195,,,0.7020000000000001,277.79636649996974,278.13973819999956,278.15673699998297,278.43982119997963,278.4566532999743,None,up,278.4566532999743,None,278.4566532999743,279.1394438999705,0.06385879998560995,None,2.050889100006316,,,,,,,,,24,001,2019_Dec_25_1235,untitled,3.1.0,60.18241288119368,
_,_5,N,180,_,_,__5N180__,N,0,31,31,92,,,1.3,280.5825358000002,280.9209511000081,280.9370913999737,281.2204732999671,281.2370668000076,None,up,281.2370668000076,None,281.2370668000076,282.51972519996343,0.0683843000442721,None,2.481725500023458,,,,,,,,,24,001,2019_Dec_25_1235,untitled,3.1.0,60.18241288119368,
_,G,N,135,_,_,_GN135__,N,0,32,32,59,,,1.135,283.79444749996765,284.13493880000897,284.15108209999744,284.4351662999834,284.4505399999907,None,up,284.4505399999907,None,284.4505399999907,285.56660429999465,0.06654109997907653,None,2.617927800049074,,,,,,,,,24,001,2019_Dec_25_1235,untitled,3.1.0,60.18241288119368,
140,F,M,135,R,N,140FM135RN,HRN,0,33,33,115,,,0.793,287.13766109995777,287.48197099997196,287.5002255999716,287.7815044999588,287.7978640999645,None,down,287.7978640999645,None,287.7978640999645,288.5807039999636,0.06251540000084788,None,2.300545100006275,,,,,,,,,24,001,2019_Dec_25_1235,untitled,3.1.0,60.18241288119368,
392,_4,N,315,R,N,392_4N315RN,HRN,0,34,34,263,,,1.071,290.1672271999996,290.5124330999679,290.529023399984,290.81229879998136,290.8292540999828,None,up,290.8292540999828,None,290.8292540999828,291.87809790001484,0.061127099965233356,None,1.9171880999929272,,,,,,,,,24,001,2019_Dec_25_1235,untitled,3.1.0,60.18241288119368,
459,_5,M,90,R,N,459_5M090RN,HRN,0,35,35,178,,,0.877,292.815955099999,293.1601747999666,293.17671249998966,293.46005459997104,293.47658229997614,None,up,293.47658229997614,None,293.47658229997614,294.34232070000144,0.06290560000343248,None,2.1161058000288904,,,,,,,,,24,001,2019_Dec_25_1235,untitled,3.1.0,60.18241288119368,
_,R,M,225,_,_,_RM225__,N,0,36,36,21,,,1.043,295.6659994999645,296.0079759999644,296.02404930000193,296.30832919996465,296.32397699996363,None,down,296.32397699996363,None,296.32397699996363,297.3561326999916,0.06614349997835234,None,2.731617399957031,,,,,,,,,24,001,2019_Dec_25_1235,untitled,3.1.0,60.18241288119368,
386,_4,N,45,R,N,386_4N045RN,HRN,0,37,37,257,,,0.795,299.1237738999771,299.47124220000114,299.48739129997557,299.77075309999054,299.787281900004,None,up,299.787281900004,None,299.787281900004,300.57033899996895,0.061096100020222366,None,2.4001120000029914,,,,,,,,,24,001,2019_Dec_25_1235,untitled,3.1.0,60.18241288119368,
166,F,N,225,L,N,166FN225LN,HLN,0,38,38,221,,,0.864,302.25488929997664,302.60317059996305,302.61918909999076,302.9015548999887,302.9192549000145,None,up,302.9192549000145,None,302.9192549000145,303.7673252999666,0.06096530001377687,None,2.3652091999538243,,,,,,,,,24,001,2019_Dec_25_1235,untitled,3.1.0,60.18241288119368,
_,_4,N,270,_,_,__4N270__,N,0,39,39,86,,,0.726,305.3604062999948,305.6992683999706,305.7159231000114,305.998596099962,306.0158890999737,None,up,306.0158890999737,None,306.0158890999737,306.73197849997086,0.06763960001990199,None,2.06700360000832,,,,,,,,,24,001,2019_Dec_25_1235,untitled,3.1.0,60.18241288119368,
262,_2,N,225,R,N,262_2N225RN,HRN,0,40,40,245,,,0.968,308.1520339999697,308.4979934999719,308.51344979996793,308.7963049999671,308.8131592000136,None,up,308.8131592000136,None,308.8131592000136,309.7620709000039,0.06236019998323172,None,2.117419099959079,,,,,,,,,24,001,2019_Dec_25_1235,untitled,3.1.0,60.18241288119368,
263,_2,N,270,R,N,263_2N270RN,HRN,0,41,41,246,,,1.354,310.9999150999938,311.34456619998673,311.360738999967,311.6441568000009,311.66056459996616,None,up,311.66056459996616,None,311.66056459996616,312.9923077999847,0.06211150001036003,None,2.231615199998487,,,,,,,,,24,001,2019_Dec_25_1235,untitled,3.1.0,60.18241288119368,
424,_4,N,315,L,N,424_4N315LN,HLN,0,42,42,271,,,1.353,313.9628447999712,314.30847230000654,314.32653269998264,314.6079032999696,314.6249034999637,None,up,314.6249034999637,None,314.6249034999637,315.9570234999992,0.06427019997499883,None,2.0490841999999247,,,,,,,,,24,001,2019_Dec_25_1235,untitled,3.1.0,60.18241288119368,
430,_4,M,225,L,N,430_4M225LN,HLN,0,43,43,173,,,1.21,316.7446474999888,317.08949069998926,317.10628020000877,317.3889245999744,317.4055718999589,None,down,317.4055718999589,None,317.4055718999589,318.60451749997446,0.06326409999746829,None,3.1000678000273183,,,,,,,,,24,001,2019_Dec_25_1235,untitled,3.1.0,60.18241288119368,
176,F,M,315,L,N,176FM315LN,HLN,0,44,44,127,,,1.16,320.57425659999717,320.9191026999615,320.93663229997037,321.21897260000696,321.2355695000151,None,down,321.2355695000151,None,321.2355695000151,322.38515360001475,0.06150000001071021,None,2.9321583000128157,,,,,,,,,24,001,2019_Dec_25_1235,untitled,3.1.0,60.18241288119368,
_,F,N,270,_,_,_FN270__,N,0,45,45,54,,,1.156,324.2427890999825,324.5831194999628,324.5998339999933,324.88222689996473,324.89872609998565,None,up,324.89872609998565,None,324.89872609998565,326.0312224999652,0.06718700000783429,None,2.3332892000325955,,,,,,,,,24,001,2019_Dec_25_1235,untitled,3.1.0,60.18241288119368,
_,F,M,315,_,_,_FM315__,N,0,46,46,7,,,1.391,327.30010739999125,327.64699079998536,327.66364679997787,327.9481192000094,327.9628822999657,None,down,327.9628822999657,None,327.9628822999657,329.32861029997,0.06143469997914508,None,2.5656101999920793,,,,,,,,,24,001,2019_Dec_25_1235,untitled,3.1.0,60.18241288119368,
294,_2,N,225,L,N,294_2N225LN,HLN,0,47,47,253,,,0.851,330.5981330999639,330.94401490001474,330.96079839998856,331.243349700002,331.26101249997737,None,up,331.26101249997737,None,331.26101249997737,332.0926474999869,0.06307959998957813,None,2.4332670000148937,,,,,,,,,24,001,2019_Dec_25_1235,untitled,3.1.0,60.18241288119368,
161,F,N,0,L,N,161FN000LN,HLN,0,48,48,216,,,0.859,333.7686476999661,334.10797750001075,334.12463430000935,334.40747440000996,334.4240986999939,None,up,334.4240986999939,None,334.4240986999939,335.2723241999629,0.06648500001756474,None,1.8487630999879912,,,,,,,,,24,001,2019_Dec_25_1235,untitled,3.1.0,60.18241288119368,
426,_4,M,45,L,N,426_4M045LN,HLN,0,49,49,169,,,1.282,336.35921419999795,336.6888259999687,336.7054188000038,336.98862909997115,337.0051911000046,None,down,337.0051911000046,None,337.0051911000046,338.27072199998656,0.07815720001235604,None,2.832522800017614,,,,,,,,,24,001,2019_Dec_25_1235,untitled,3.1.0,60.18241288119368,
387,_4,N,90,R,N,387_4N090RN,HRN,0,50,50,258,,,1.205,339.92292839998845,340.252817999979,340.269107399974,340.55255550000584,340.5690242999699,None,up,340.5690242999699,None,340.5690242999699,341.75144019996515,0.07614780002040789,None,2.698811399983242,,,,,,,,,24,001,2019_Dec_25_1235,untitled,3.1.0,60.18241288119368,
_,R,N,135,_,_,_RN135__,N,0,51,51,67,,,1.317,343.352830799995,343.68276569998125,343.7003043000004,343.98228150000796,343.9994046000065,None,None,343.9994046000065,None,343.9994046000065,345.2976015000022,0.0730621000402607,None,,,,,,,,,,24,001,2019_Dec_25_1235,untitled,3.1.0,60.18241288119368,
_,G,N,315,_,_,_GN315__,N,0,52,52,63,,,1.357,347.5320781999617,347.8793918999727,347.8961299000075,348.178373200004,348.1951654999866,347.5320781999617,up,348.1951654999866,None,348.1951654999866,349.5277462999802,0.062100800045300275,None,2.8984525000560097,,,,,,,,,24,001,2019_Dec_25_1235,untitled,3.1.0,60.18241288119368,
_,_2,N,0,_,_,__2N000__,N,0,53,53,72,,,0.905,351.1613415000029,351.50935899995966,351.52606289996766,351.80927019997034,351.82643489999464,None,up,351.82643489999464,None,351.82643489999464,352.70823109999765,0.061275499989278615,None,1.565185500017833,,,,,,,,,24,001,2019_Dec_25_1235,untitled,3.1.0,60.18241288119368,
_,G,N,180,_,_,_GN180__,N,0,54,54,60,,,1.112,353.4602934999857,353.80770489998395,353.82497329998296,354.10711959999753,354.12393209995935,None,up,354.12393209995935,None,354.12393209995935,355.22221340000397,0.061622000008355826,None,3.197536499996204,,,,,,,,,24,001,2019_Dec_25_1235,untitled,3.1.0,60.18241288119368,
047,R,M,270,L,N,047RM270LN,HLN,0,55,55,110,,,1.222,357.40997839998454,357.737076099962,357.75388460000977,358.0369687000057,358.0534142999677,None,down,358.0534142999677,None,358.0534142999677,359.252407699998,0.07985759997973219,None,2.9676663000136614,,,,,,,,,24,001,2019_Dec_25_1235,untitled,3.1.0,60.18241288119368,
204,G,M,135,R,N,204GM135RN,HRN,0,56,56,131,,,1.372,361.09491409995826,361.43405569996685,361.4502872999874,361.7335802000016,361.750297999999,None,None,361.750297999999,None,361.750297999999,363.0992215999868,0.06706630002008751,None,,,,,,,,,,24,001,2019_Dec_25_1235,untitled,3.1.0,60.18241288119368,
272,_2,M,315,R,N,272_2M315RN,HRN,0,57,57,151,,,1.123,365.2871615999611,365.63049179996597,365.6471542000072,365.93002239998896,365.94634179997956,365.2871615999611,down,365.94634179997956,None,365.94634179997956,367.0458079999662,0.06514280004194006,None,2.831255199969746,,,,,,,,,24,001,2019_Dec_25_1235,untitled,3.1.0,60.18241288119368,
_,R,M,135,_,_,_RM135__,N,0,58,58,19,,,1.139,368.84481479995884,369.19397859997116,369.2107056999812,369.49343129998306,369.5100789999706,None,down,369.5100789999706,None,369.5100789999706,370.62585369998123,0.06066570000257343,None,3.0992351999739185,,,,,,,,,24,001,2019_Dec_25_1235,untitled,3.1.0,60.18241288119368,
_,_2,M,225,_,_,__2M225__,N,0,59,59,29,,,1.2610000000000001,372.677787899971,373.0240296999691,373.04079950001324,373.3238024999737,373.34042520000366,None,down,373.34042520000366,None,373.34042520000366,374.589049400005,0.06171640002867207,None,3.3640297999954782,,,,,,,,,24,001,2019_Dec_25_1235,untitled,3.1.0,60.18241288119368,
_,_2,N,270,_,_,__2N270__,N,0,60,60,78,,,1.333,376.7865615999908,377.120247200015,377.1373680999968,377.42031109996606,377.43704809999326,None,up,377.43704809999326,None,377.43704809999326,378.7520293999696,0.07417089998489246,None,2.3334792000241578,,,,,,,,,24,001,2019_Dec_25_1235,untitled,3.1.0,60.18241288119368,
169,F,M,0,L,N,169FM000LN,HLN,0,61,61,120,,,1.072,379.83927359996596,380.1855494999909,380.2026881999918,380.48427059996175,380.50057029997697,None,down,380.50057029997697,None,380.50057029997697,381.54999899998074,0.061828200006857514,None,2.3338227000203915,,,,,,,,,24,001,2019_Dec_25_1235,untitled,3.1.0,60.18241288119368,
258,_2,N,45,R,N,258_2N045RN,HRN,0,62,62,241,,,1.243,382.903442299983,383.24834250001004,383.26554459996987,383.5484933999833,383.5656308999751,None,up,383.5656308999751,None,383.5656308999751,384.7965034999652,0.062050400010775775,None,1.8806555999908596,,,,,,,,,24,001,2019_Dec_25_1235,untitled,3.1.0,60.18241288119368,
_,_4,N,225,_,_,__4N225__,N,0,63,63,85,,,0.794,385.51621089997934,385.86296880000737,385.8796100000036,386.1627093999996,386.17880429996876,None,up,386.17880429996876,None,386.17880429996876,386.9617489000084,0.06310769997071475,None,2.398888399999123,,,,,,,,,24,001,2019_Dec_25_1235,untitled,3.1.0,60.18241288119368,
487,_5,N,270,L,N,487_5N270LN,HLN,0,64,64,286,,,0.791,388.64546560001327,388.99284690001514,389.0113717999775,389.2931247999659,389.30958619999,None,up,389.30958619999,None,389.30958619999,390.0761136999936,0.061267899989616126,None,2.0651420999784023,,,,,,,,,24,001,2019_Dec_25_1235,untitled,3.1.0,60.18241288119368,
_,R,M,315,_,_,_RM315__,N,0,65,65,23,,,1.377,391.44342600001255,391.7912621999858,391.7912621999858,392.09146399999736,392.1072557999869,None,down,392.1072557999869,None,392.1072557999869,393.47247450001305,0.06200799997895956,None,2.6166132999933325,,,,,,,,,24,001,2019_Dec_25_1235,untitled,3.1.0,60.18241288119368,
259,_2,N,90,R,N,259_2N090RN,HRN,0,66,66,242,,,1.343,394.792305400013,395.1384309999994,395.1554554000031,395.43756709998706,395.45412949996535,None,up,395.45412949996535,None,395.45412949996535,396.7862421000027,0.061681599996518344,None,2.2492376000154763,,,,,,,,,24,001,2019_Dec_25_1235,untitled,3.1.0,60.18241288119368,
133,F,N,180,R,N,133FN180RN,HRN,0,67,67,212,,,1.3880000000000001,397.77798829996027,398.1184368999675,398.1358029000112,398.41866899997694,398.43535419995897,None,down,398.43535419995897,None,398.43535419995897,399.800538600015,0.06716219999361783,None,3.1331132000195794,,,,,,,,,24,001,2019_Dec_25_1235,untitled,3.1.0,60.18241288119368,
_,_4,M,90,_,_,__4M090__,N,0,68,68,34,,,1.119,401.6367290999624,401.98292079998646,401.9988279999816,402.2816354999668,402.29829110001447,None,down,402.29829110001447,None,402.29829110001447,403.3973706999677,0.06100849999347702,None,2.6147972000180744,,,,,,,,,24,001,2019_Dec_25_1235,untitled,3.1.0,60.18241288119368,
230,G,N,225,L,N,230GN225LN,HLN,0,69,69,237,,,0.772,404.9857105999836,405.3288281999994,405.34530919999816,405.6287857000134,405.6456292999792,None,up,405.6456292999792,None,405.6456292999792,406.39476009999635,0.06530670000938699,None,2.5010020000045188,,,,,,,,,24,001,2019_Dec_25_1235,untitled,3.1.0,60.18241288119368,
_,F,M,45,_,_,_FM045__,N,0,70,70,1,,,1.101,408.2141298999777,408.56003079999937,408.5762582999887,408.85922429995844,408.87585519999266,None,down,408.87585519999266,None,408.87585519999266,409.9582864000113,0.06098879995988682,None,2.531634400016628,,,,,,,,,24,001,2019_Dec_25_1235,untitled,3.1.0,60.18241288119368,
_,G,M,0,_,_,_GM000__,N,0,71,71,8,,,1.113,411.4785370999598,411.8248569999705,411.83994009997696,412.12331870000344,412.14016770001035,None,down,412.14016770001035,None,412.14016770001035,413.2395192999975,0.06439020001562312,None,2.399376899993513,,,,,,,,,24,001,2019_Dec_25_1235,untitled,3.1.0,60.18241288119368,
492,_5,M,135,L,N,492_5M135LN,HLN,0,72,72,187,,,1.295,414.6084741000086,414.954239099985,414.9704267999623,415.25367329997243,415.27054019999923,None,down,415.27054019999923,None,415.27054019999923,416.5534800000023,0.06210759998066351,None,2.8168507000082172,,,,,,,,,24,001,2019_Dec_25_1235,untitled,3.1.0,60.18241288119368,
167,F,N,270,L,N,167FN270LN,HLN,0,73,73,222,,,0.876,418.1556854000082,418.500499399961,418.5176741000032,418.8008226999664,418.8175339999725,None,up,418.8175339999725,None,418.8175339999725,419.6680408999673,0.0617855999735184,None,2.0177344999974594,,,,,,,,,24,001,2019_Dec_25_1235,untitled,3.1.0,60.18241288119368,
419,_4,N,90,L,N,419_4N090LN,HLN,0,74,74,266,,,0.882,420.9078442999744,421.2483091999893,421.2652054000064,421.5485190000036,421.56448770000134,None,up,421.56448770000134,None,421.56448770000134,422.4303604000015,0.06582349998643622,None,2.5992422999697737,,,,,,,,,24,001,2019_Dec_25_1235,untitled,3.1.0,60.18241288119368,
200,G,N,315,R,N,200GN315RN,HRN,0,75,75,231,,,0.847,424.23205799999414,424.5790788999875,424.59566079999786,424.8786308999988,424.8950216000085,None,up,424.8950216000085,None,424.8950216000085,425.7279906999902,0.06056700000772253,None,2.1320046999608167,,,,,,,,,24,001,2019_Dec_25_1235,untitled,3.1.0,60.18241288119368,
_,R,M,180,_,_,_RM180__,N,0,76,76,20,,,1.1420000000000001,427.09414619999006,427.4430317999795,427.4598144000047,427.7429375000065,427.75941569998395,None,down,427.75941569998395,None,427.75941569998395,428.8748631000053,0.059780400013551116,None,2.548210199980531,,,,,,,,,24,001,2019_Dec_25_1235,untitled,3.1.0,60.18241288119368,
197,G,N,180,R,N,197GN180RN,HRN,0,77,77,228,,,1.04,430.3758113000076,430.7236128000077,430.7403972999891,431.0228085999843,431.0397360000061,None,None,431.0397360000061,None,431.0397360000061,432.0562872000155,0.06104059994686395,None,,,,,,,,,,24,001,2019_Dec_25_1235,untitled,3.1.0,60.18241288119368,
_,_2,M,90,_,_,__2M090__,N,0,78,78,26,,,1.24,434.5760472000111,434.92012069997145,434.93665879999753,435.21966860000975,435.23627599998144,434.5760472000111,down,435.23627599998144,None,435.23627599998144,436.45181679999223,0.06596650002757087,None,2.533676099963486,,,,,,,,,24,001,2019_Dec_25_1235,untitled,3.1.0,60.18241288119368,
_,_2,N,315,_,_,__2N315__,N,0,79,79,79,,,1.041,437.83699009998236,438.18423989997245,438.2006668999675,438.48491120000836,438.5000433999812,None,up,438.5000433999812,None,438.5000433999812,439.5325018999865,0.059617599996272475,None,2.4814114999608137,,,,,,,,,24,001,2019_Dec_25_1235,untitled,3.1.0,60.18241288119368,
_,_5,N,45,_,_,__5N045__,N,0,80,80,89,,,0.802,441.06016130000353,441.3981116999639,441.41488900000695,441.6972290999838,441.71578689996386,None,up,441.71578689996386,None,441.71578689996386,442.49646569998004,0.07189439999638125,None,1.5154667000169866,,,,,,,,,24,001,2019_Dec_25_1235,untitled,3.1.0,60.18241288119368,
_,_4,N,90,_,_,__4N090__,N,0,81,81,82,,,0.764,443.2986801000079,443.64583769999444,443.66241009999067,443.94505539996317,443.96225659997435,None,up,443.96225659997435,None,443.96225659997435,444.7117304999847,0.0608178999973461,None,1.582878699991852,,,,,,,,,24,001,2019_Dec_25_1235,untitled,3.1.0,60.18241288119368,
171,F,M,90,L,N,171FM090LN,HLN,0,82,82,122,,,1.343,445.61480969999684,445.9602801000001,445.9770948999794,446.2597029999597,446.27625830000034,None,down,446.27625830000034,None,446.27625830000034,447.6086394999875,0.062359799980185926,None,2.2015456999652088,,,,,,,,,24,001,2019_Dec_25_1235,untitled,3.1.0,60.18241288119368,
141,F,M,180,R,N,141FM180RN,HRN,0,83,83,116,,,0.798,448.54607929999474,448.8910658999812,448.9078734999639,449.19134039996425,449.208306799992,None,None,449.208306799992,None,449.208306799992,449.98997090000194,0.06157850002637133,None,,,,,,,,,,24,001,2019_Dec_25_1235,untitled,3.1.0,60.18241288119368,
293,_2,N,180,L,N,293_2N180LN,HLN,0,84,84,252,,,0.8140000000000001,452.7422399999923,453.08744909998495,453.1042350999778,453.3867305999738,453.4046730999835,452.7422399999923,up,453.4046730999835,None,453.4046730999835,454.20321959996363,0.06344900000840425,None,1.997805499995593,,,,,,,,,24,001,2019_Dec_25_1235,untitled,3.1.0,60.18241288119368,
427,_4,M,90,L,N,427_4M090LN,HLN,0,85,85,170,,,1.34,455.47276549995877,455.8179453999619,455.83470429998124,456.11912059999304,456.13512849999825,None,up,456.13512849999825,None,456.13512849999825,457.45084060000954,0.06348419998539612,None,2.0976525000296533,,,,,,,,,24,001,2019_Dec_25_1235,untitled,3.1.0,60.18241288119368,
460,_5,M,135,R,N,460_5M135RN,HRN,0,86,86,179,,,0.888,458.301900499966,458.64975300000515,458.66602120001335,458.94893760001287,458.965563500009,None,up,458.965563500009,None,458.965563500009,459.83167869999306,0.06122710002819076,None,2.3152122999890707,,,,,,,,,24,001,2019_Dec_25_1235,untitled,3.1.0,60.18241288119368,
429,_4,M,180,L,N,429_4M180LN,HLN,0,87,87,172,,,1.217,461.3528055999777,461.69701140001416,461.7134579999838,461.9962409000145,462.01417109998874,None,up,462.01417109998874,None,462.01417109998874,463.2130240999977,0.06442930002231151,None,3.080610400007572,,,,,,,,,24,001,2019_Dec_25_1235,untitled,3.1.0,60.18241288119368,
_,F,N,45,_,_,_FN045__,N,0,88,88,49,,,1.197,465.1749736999627,465.5098576999735,465.5273456000141,465.8100787999574,465.82641129998956,None,up,465.82641129998956,None,465.82641129998956,467.00838099996326,0.07158920000074431,None,2.1511812999960966,,,,,,,,,24,001,2019_Dec_25_1235,untitled,3.1.0,60.18241288119368,
208,G,M,315,R,N,208GM315RN,HRN,0,89,89,135,,,1.187,468.04737909999676,468.3905322999926,468.4074550999794,468.690700999985,468.70731259998865,None,down,468.70731259998865,None,468.70731259998865,469.87414530001115,0.06300690001808107,None,2.1350302000064403,,,,,,,,,24,001,2019_Dec_25_1235,untitled,3.1.0,60.18241288119368,
_,F,M,225,_,_,_FM225__,N,0,90,90,5,,,0.736,470.92426060000435,471.25526830001036,471.2719759999891,471.5548654999584,471.5713289999985,None,down,471.5713289999985,None,471.5713289999985,472.28728310001316,0.07536800001980737,None,2.0009150999831036,,,,,,,,,24,001,2019_Dec_25_1235,untitled,3.1.0,60.18241288119368,
421,_4,N,180,L,N,421_4N180LN,HLN,0,91,91,268,,,0.877,473.646946199995,473.9859612999717,474.0025549000129,474.285667499993,474.30184159998316,None,down,474.30184159998316,None,474.30184159998316,475.16820099996403,0.0673903000424616,None,3.231619000027422,,,,,,,,,24,001,2019_Dec_25_1235,untitled,3.1.0,60.18241288119368,
199,G,N,270,R,N,199GN270RN,HRN,0,92,92,230,,,0.916,477.60211579996394,477.9491893000086,477.96648010000354,478.24910469999304,478.2661403999664,None,up,478.2661403999664,None,478.2661403999664,479.164706200012,0.06185729999560863,None,1.9827462999965064,,,,,,,,,24,001,2019_Dec_25_1235,untitled,3.1.0,60.18241288119368,
_,_4,M,225,_,_,__4M225__,N,0,93,93,37,,,1.262,480.3254053000128,480.66360470000654,480.6800809999695,480.96306949999416,480.97965960000874,None,down,480.97965960000874,None,480.97965960000874,482.22869939997327,0.06860120000783354,None,2.881475700007286,,,,,,,,,24,001,2019_Dec_25_1235,untitled,3.1.0,60.18241288119368,
164,F,N,135,L,N,164FN135LN,HLN,0,94,94,219,,,1.239,483.9334577000118,484.2769093000097,484.2939921999932,484.57705319998786,484.59321690001525,None,up,484.59321690001525,None,484.59321690001525,485.80937859998085,0.06427559995790944,None,2.4318689000210725,,,,,,,,,24,001,2019_Dec_25_1235,untitled,3.1.0,60.18241288119368,
237,G,M,180,L,N,237GM180LN,HLN,0,95,95,140,,,1.008,487.10390749998624,487.4419726000051,487.45845829998143,487.74053539999295,487.7572800999624,None,down,487.7572800999624,None,487.7572800999624,488.7561827999889,0.06956530001480132,None,2.4147851999732666,,,,,,,,,24,001,2019_Dec_25_1235,untitled,3.1.0,60.18241288119368,
496,_5,M,315,L,N,496_5M315LN,HLN,0,96,96,191,,,0.747,490.2443392999703,490.5883495999733,490.6048783999868,490.88810099998955,490.90461369999684,None,down,490.90461369999684,None,490.90461369999684,491.6371874999604,0.06495339999673888,None,2.8993696000543423,,,,,,,,,24,001,2019_Dec_25_1235,untitled,3.1.0,60.18241288119368,
455,_5,N,270,R,N,455_5N270RN,HRN,0,97,97,278,,,1.084,493.88524079998024,494.21841019997373,494.23485269997036,494.51821519999066,494.53464669996174,None,up,494.53464669996174,None,494.53464669996174,495.6005189999705,0.0740726999938488,None,2.131790400017053,,,,,,,,,24,001,2019_Dec_25_1235,untitled,3.1.0,60.18241288119368,
046,R,M,225,L,N,046RM225LN,HLN,0,98,98,109,,,1.353,496.7359156999737,497.0831854999997,497.09924630000023,497.3825470999582,497.3987191999913,None,down,497.3987191999913,None,497.3987191999913,498.7320897000027,0.06237060000421479,None,2.931543899991084,,,,,,,,,24,001,2019_Dec_25_1235,untitled,3.1.0,60.18241288119368,
_,_5,M,315,_,_,__5M315__,N,0,99,99,47,,,0.8140000000000001,500.4013220999623,500.7462704000063,500.7625001000124,501.0513243000023,501.0513243000023,None,down,501.0513243000023,None,501.0513243000023,501.86142779997317,0.06440219999058172,None,2.2281340999761596,,,,,,,,,24,001,2019_Dec_25_1235,untitled,3.1.0,60.18241288119368,
_,_4,N,135,_,_,__4N135__,N,0,100,100,83,,,1.131,503.36115569999674,503.6932843999821,503.7102353000082,503.99331310001435,504.01096029998735,None,up,504.01096029998735,None,504.01096029998735,505.12503970001126,0.07322220003698021,None,2.5468519999994896,,,,,,,,,24,001,2019_Dec_25_1235,untitled,3.1.0,60.18241288119368,
300,_2,M,135,L,N,300_2M135LN,HLN,0,101,101,155,,,1.399,506.6289902999997,506.9734609000152,506.9905434999964,507.2738782999804,507.28976529999636,None,down,507.28976529999636,None,507.28976529999636,508.6727334999596,0.06440029997611418,None,2.6317608000244945,,,,,,,,,24,001,2019_Dec_25_1235,untitled,3.1.0,60.18241288119368,
451,_5,N,90,R,N,451_5N090RN,HRN,0,102,102,274,,,1.094,509.9895355000044,510.3386631999747,510.3541234000004,510.63842749997275,510.6539036000031,None,up,510.6539036000031,None,510.6539036000031,511.7366170999594,0.06146280001848936,None,2.117373500019312,,,,,,,,,24,001,2019_Dec_25_1235,untitled,3.1.0,60.18241288119368,
239,G,M,270,L,N,239GM270LN,HLN,0,103,103,142,,,1.049,512.8407602999941,513.1851269999752,513.202095799963,513.4848931999877,513.501422500005,None,down,513.501422500005,None,513.501422500005,514.534330800001,0.06288789998507127,None,2.1671796000446193,,,,,,,,,24,001,2019_Dec_25_1235,untitled,3.1.0,60.18241288119368,
_,G,M,45,_,_,_GM045__,N,0,104,104,9,,,0.898,515.7375838999869,516.0849499999895,516.1008143000072,516.3823870999622,516.3993426999659,None,up,516.3993426999659,None,516.3993426999659,517.2813019999885,0.06114300002809614,None,2.449920999992173,,,,,,,,,24,001,2019_Dec_25_1235,untitled,3.1.0,60.18241288119368,
168,F,N,315,L,N,168FN315LN,HLN,0,105,105,223,,,1.225,518.9242604000028,519.2636553999619,519.2817336999578,519.5627067000023,519.5789587000036,None,up,519.5789587000036,None,519.5789587000036,520.7959652999998,0.06836259999545291,None,2.0154969000141136,,,,,,,,,24,001,2019_Dec_25_1235,untitled,3.1.0,60.18241288119368,
266,_2,M,45,R,N,266_2M045RN,HRN,0,106,106,145,,,0.883,521.6661768999766,522.0112135999952,522.0273393999669,522.3104435999994,522.3267807000084,None,down,522.3267807000084,None,522.3267807000084,523.1925014999579,0.06484360003378242,None,2.3319202000275254,,,,,,,,,24,001,2019_Dec_25_1235,untitled,3.1.0,60.18241288119368,
_,F,M,270,_,_,_FM270__,N,0,107,107,6,,,0.888,524.7301366999745,525.076450499997,525.0913229999715,525.3741424999898,525.390839700005,None,down,525.390839700005,None,525.390839700005,526.2568626999855,0.06437620002543554,None,2.083756300038658,,,,,,,,,24,001,2019_Dec_25_1235,untitled,3.1.0,60.18241288119368,
265,_2,M,0,R,N,265_2M000RN,HRN,0,108,108,144,,,0.718,527.5430052999873,527.8888902000035,527.905645699997,528.1888147999998,528.2053936999873,None,up,528.2053936999873,None,528.2053936999873,528.90504589997,0.06118239997886121,None,2.6001357000204735,,,,,,,,,24,001,2019_Dec_25_1235,untitled,3.1.0,60.18241288119368,
260,_2,N,135,R,N,260_2N135RN,HRN,0,109,109,243,,,0.927,530.8989808000042,531.2186100999825,531.235578199965,531.5190439000144,531.5356685000006,None,up,531.5356685000006,None,531.5356685000006,532.4517828999669,0.08484440000029281,None,2.6154226000071503,,,,,,,,,24,001,2019_Dec_25_1235,untitled,3.1.0,60.18241288119368,
_,R,N,45,_,_,_RN045__,N,0,110,110,65,,,1.168,534.2183480999665,534.5665486999787,534.5834286999889,534.8661726000137,534.8829474999802,None,up,534.8829474999802,None,534.8829474999802,536.0317094000056,0.06005229998845607,None,2.000825299997814,,,,,,,,,24,001,2019_Dec_25_1235,untitled,3.1.0,60.18241288119368,
_,R,N,90,_,_,_RN090__,N,0,111,111,66,,,1.111,536.9576663000043,537.298251500004,537.3143500000006,537.5972691999632,537.614219399984,None,up,537.614219399984,None,537.614219399984,538.7141573000117,0.0672150999889709,None,1.9151603000354953,,,,,,,,,24,001,2019_Dec_25_1235,untitled,3.1.0,60.18241288119368,
037,R,N,180,L,N,037RN180LN,HLN,0,112,112,204,,,1.3960000000000001,539.598605200008,539.9455653000041,539.962185500015,540.2459292999702,540.2612486999715,None,up,540.2612486999715,None,540.2612486999715,541.6434246000135,0.06272510002600029,None,2.532097799994517,,,,,,,,,24,001,2019_Dec_25_1235,untitled,3.1.0,60.18241288119368,
203,G,M,90,R,N,203GM090RN,HRN,0,113,113,130,,,0.896,542.8662843999919,543.2089569999953,543.2255861999583,543.508561900002,543.5271228000056,None,down,543.5271228000056,None,543.5271228000056,544.4078056999715,0.06581420003203675,None,2.5295149000012316,,,,,,,,,24,001,2019_Dec_25_1235,untitled,3.1.0,60.18241288119368,
491,_5,M,90,L,N,491_5M090LN,HLN,0,114,114,186,,,0.7030000000000001,546.1339007999632,546.4726812000154,546.4894414999872,546.7725000999635,546.7893008000101,None,down,546.7893008000101,None,546.7893008000101,547.4719954999746,0.0689472000231035,None,2.6313821999938227,,,,,,,,,24,001,2019_Dec_25_1235,untitled,3.1.0,60.18241288119368,
_,F,M,90,_,_,_FM090__,N,0,115,115,2,,,0.935,549.4914194999728,549.8361520000035,549.8537790999981,550.1362725999788,550.1526780999848,None,down,550.1526780999848,None,550.1526780999848,551.0685287999804,0.0631639999919571,None,2.367435799969826,,,,,,,,,24,001,2019_Dec_25_1235,untitled,3.1.0,60.18241288119368,
464,_5,M,315,R,N,464_5M315RN,HRN,0,116,116,183,,,1.292,552.5968997000018,552.9343105999869,552.9505674999673,553.2343085999601,553.2503278999939,None,down,553.2503278999939,None,553.2503278999939,554.5322304000147,0.06829890003427863,None,3.2319845000165515,,,,,,,,,24,001,2019_Dec_25_1235,untitled,3.1.0,60.18241288119368,
291,_2,N,90,L,N,291_2N090LN,HLN,0,117,117,250,,,0.902,556.5543778999709,556.8970793999615,556.9141471000039,557.196497500001,557.2131487999577,None,up,557.2131487999577,None,557.2131487999577,558.0959710999741,0.06433019996620715,None,1.967171199969016,,,,,,,,,24,001,2019_Dec_25_1235,untitled,3.1.0,60.18241288119368,
_,_5,N,315,_,_,__5N315__,N,0,118,118,95,,,0.713,559.2656314999913,559.594603399979,559.6114110999624,559.8943773999927,559.9109230999602,None,up,559.9109230999602,None,559.9109230999602,560.6104978999938,0.07653829996706918,None,2.5830744999693707,,,,,,,,,24,001,2019_Dec_25_1235,untitled,3.1.0,60.18241288119368,
452,_5,N,135,R,N,452_5N135RN,HRN,0,119,119,275,,,1.248,562.5630359000061,562.9087372999638,562.9251313999994,563.2087667000014,563.2247748000082,None,None,563.2247748000082,None,563.2247748000082,564.4577964000055,0.06196350004756823,None,,,,,,,,,,24,001,2019_Dec_25_1235,untitled,3.1.0,60.18241288119368,
_,F,N,135,_,_,_FN135__,N,0,120,120,51,,,1.004,566.7575839000056,567.1057021999732,567.1213206999819,567.4044829999912,567.4209886000026,566.7575839000056,down,567.4209886000026,None,567.4209886000026,568.4042823999771,0.06193369999527931,None,2.351101899985224,,,,,,,,,24,001,2019_Dec_25_1235,untitled,3.1.0,60.18241288119368,
174,F,M,225,L,N,174FM225LN,HLN,0,121,121,125,,,1.02,569.8599174999981,570.1853468999616,570.2024104999728,570.4850486000068,570.5016801999882,None,down,570.5016801999882,None,570.5016801999882,571.5003420999856,0.07906240003649145,None,3.3829387000296265,,,,,,,,,24,001,2019_Dec_25_1235,untitled,3.1.0,60.18241288119368,
048,R,M,315,L,N,048RM315LN,HLN,0,122,122,111,,,1.284,573.953295299958,574.2988974999753,574.3150465000072,574.5980125999777,574.6153527999995,None,None,574.6153527999995,None,574.6153527999995,575.8808170999982,0.06182550004450604,None,,,,,,,,,,24,001,2019_Dec_25_1235,untitled,3.1.0,60.18241288119368,
489,_5,M,0,L,N,489_5M000LN,HLN,0,123,123,184,,,1.193,578.1569145999965,578.4953176999697,578.5119160999893,578.7949103999999,578.8111877999618,578.1569145999965,up,578.8111877999618,None,578.8111877999618,579.9769078000099,0.0709585000295192,None,2.2486361999763176,,,,,,,,,24,001,2019_Dec_25_1235,untitled,3.1.0,60.18241288119368,
198,G,N,225,R,N,198GN225RN,HRN,0,124,124,229,,,1.163,581.129056899983,581.4755689000012,581.4924552000011,581.7756006999989,581.7920306999586,None,down,581.7920306999586,None,581.7920306999586,582.9413648999762,0.062028100015595555,None,2.2324519000248984,,,,,,,,,24,001,2019_Dec_25_1235,untitled,3.1.0,60.18241288119368,
267,_2,M,90,R,N,267_2M090RN,HRN,0,125,125,146,,,0.861,584.0933709999663,584.439813999983,584.456638899981,584.7396377999685,584.7563776999596,None,down,584.7563776999596,None,584.7563776999596,585.6055753999972,0.06247210002038628,None,2.2988202000269666,,,,,,,,,24,001,2019_Dec_25_1235,untitled,3.1.0,60.18241288119368,
431,_4,M,270,L,N,431_4M270LN,HLN,0,126,126,174,,,0.9440000000000001,587.1337404999649,587.4702255000011,587.4868471999653,587.7701214000117,587.7867369999876,None,down,587.7867369999876,None,587.7867369999876,588.7190412000054,0.0713363999966532,None,2.6815507000428624,,,,,,,,,24,001,2019_Dec_25_1235,untitled,3.1.0,60.18241288119368,
207,G,M,270,R,N,207GM270RN,HRN,0,127,127,134,,,1.125,590.535854799964,590.8842295999639,590.9031744999811,591.1839888999821,591.2021265999647,None,down,591.2021265999647,None,591.2021265999647,592.2990425999742,0.061091799987480044,None,2.914998700027354,,,,,,,,,24,001,2019_Dec_25_1235,untitled,3.1.0,60.18241288119368,
_,_5,M,90,_,_,__5M090__,N,0,128,128,42,,,1.245,594.1864237000118,594.5306428999756,594.5479322999599,594.8306187000126,594.8470754000009,None,down,594.8470754000009,None,594.8470754000009,596.0793075999827,0.0626613000058569,None,2.9324339000158943,,,,,,,,,24,001,2019_Dec_25_1235,untitled,3.1.0,60.18241288119368,
269,_2,M,180,R,N,269_2M180RN,HRN,0,129,129,148,,,0.936,597.8488232999807,598.1946896999725,598.2129414000083,598.4962577999686,598.5115266999928,None,up,598.5115266999928,None,598.5115266999928,599.4263662999729,0.06275019998429343,None,2.8472423999919556,,,,,,,,,24,001,2019_Dec_25_1235,untitled,3.1.0,60.18241288119368,
008,R,N,315,R,N,008RN315RN,HRN,0,130,130,199,,,1.056,601.4264551000088,601.7741253999993,601.79133919999,602.0750902,602.0909639999736,None,up,602.0909639999736,None,602.0909639999736,603.1230461999658,0.06119349994696677,None,2.166946300014388,,,,,,,,,24,001,2019_Dec_25_1235,untitled,3.1.0,60.18241288119368,
_,_5,N,90,_,_,__5N090__,N,0,131,131,90,,,0.809,604.3256531999796,604.6724072999787,604.6893002999714,604.9721923999605,604.9883034999948,None,up,604.9883034999948,None,604.9883034999948,605.7879486999591,0.060439599968958646,None,2.2152131000184454,,,,,,,,,24,001,2019_Dec_25_1235,untitled,3.1.0,60.18241288119368,
425,_4,M,0,L,N,425_4M000LN,HLN,0,132,132,168,,,1.04,607.2730852999957,607.6196292999666,607.637875299959,607.9203233000007,607.9361227999907,None,down,607.9361227999907,None,607.9361227999907,608.9514154999633,0.06212620000587776,None,2.6348094000131823,,,,,,,,,24,001,2019_Dec_25_1235,untitled,3.1.0,60.18241288119368,
_,G,M,270,_,_,_GM270__,N,0,133,133,14,,,1.325,610.6608064000029,610.9839419999626,611.0003421999863,611.2835798999877,611.3004416999756,None,None,611.3004416999756,None,611.3004416999756,612.6153132999898,0.0801231000223197,None,,,,,,,,,,24,001,2019_Dec_25_1235,untitled,3.1.0,60.18241288119368,
_,G,N,90,_,_,_GN090__,N,0,134,134,58,,,0.859,614.832415300014,615.1794803999946,615.1963308000122,615.479225899966,615.4965349999839,614.832415300014,up,615.4965349999839,None,615.4965349999839,616.3290032999939,0.062315600051078945,None,2.2484117000130937,,,,,,,,,24,001,2019_Dec_25_1235,untitled,3.1.0,60.18241288119368,
_,R,N,315,_,_,_RN315__,N,0,135,135,71,,,0.913,617.8264134000055,618.159744900011,618.1766030999715,618.4604299999774,618.4763991999789,None,up,618.4763991999789,None,618.4763991999789,619.3763632999617,0.07380080001894385,None,1.718665200052783,,,,,,,,,24,001,2019_Dec_25_1235,untitled,3.1.0,60.18241288119368,
_,F,N,90,_,_,_FN090__,N,0,136,136,50,,,1.104,620.2676371000125,620.6082876999862,620.6249403000111,620.9080651999684,620.9246917999699,None,up,620.9246917999699,None,620.9246917999699,622.0084908999852,0.06554939999477938,None,2.33212039998034,,,,,,,,,24,001,2019_Dec_25_1235,untitled,3.1.0,60.18241288119368,
002,R,N,45,R,N,002RN045RN,HRN,0,137,137,193,,,1.199,623.32535249996,623.6723215999664,623.6885239999974,623.9719069999992,623.9888613999938,None,up,623.9888613999938,None,623.9888613999938,625.1708156999666,0.06180630001472309,None,1.883838800014928,,,,,,,,,24,001,2019_Dec_25_1235,untitled,3.1.0,60.18241288119368,
458,_5,M,45,R,N,458_5M045RN,HRN,0,138,138,177,,,1.097,625.942471599963,626.2861795999925,626.3033401999855,626.5863011999754,626.6037271000096,None,down,626.6037271000096,None,626.6037271000096,627.6863941999618,0.06278659997042269,None,2.4139437000267208,,,,,,,,,24,001,2019_Dec_25_1235,untitled,3.1.0,60.18241288119368,
143,F,M,270,R,N,143FM270RN,HRN,0,139,139,118,,,0.924,629.0859167999588,629.4338409999618,629.4504491999978,629.7335999999777,629.7502912000054,None,down,629.7502912000054,None,629.7502912000054,630.6495462000021,0.0612890999764204,None,2.198159800027497,,,,,,,,,24,001,2019_Dec_25_1235,untitled,3.1.0,60.18241288119368,
038,R,N,225,L,N,038RN225LN,HLN,0,140,140,205,,,0.888,632.0236584999948,632.3665888999822,632.3815709999762,632.6642044999753,632.680961999984,None,down,632.680961999984,None,632.680961999984,633.5471086999751,0.06749599997419864,None,2.750532199977897,,,,,,,,,24,001,2019_Dec_25_1235,untitled,3.1.0,60.18241288119368,
_,_4,N,315,_,_,__4N315__,N,0,141,141,87,,,1.349,635.5006714999909,635.8448818000033,635.8617137999972,636.1445953999646,636.162362699979,None,up,636.162362699979,None,636.162362699979,637.496550699987,0.06250359996920452,None,2.3492850000038743,,,,,,,,,24,001,2019_Dec_25_1235,untitled,3.1.0,60.18241288119368,
043,R,M,90,L,N,043RM090LN,HLN,0,142,142,106,,,0.7010000000000001,638.5965727000148,638.9255610000109,638.9421481000027,639.2247988999588,639.2422087999876,None,down,639.2422087999876,None,639.2422087999876,639.9248852999881,0.07727780001005158,None,2.251130499993451,,,,,,,,,24,001,2019_Dec_25_1235,untitled,3.1.0,60.18241288119368,
040,R,N,315,L,N,040RN315LN,HLN,0,143,143,207,,,0.973,641.5774641999742,641.9062839999679,641.9234863999882,642.2062417999841,642.2230957999709,None,up,642.2230957999709,None,642.2230957999709,643.188299899979,0.07486819999758154,None,2.2991730000358075,,,,,,,,,24,001,2019_Dec_25_1235,untitled,3.1.0,60.18241288119368,
039,R,N,270,L,N,039RN270LN,HLN,0,144,144,206,,,0.739,644.5991500999662,644.9371547999908,644.9540109999944,645.2364940000116,645.2534002999892,None,up,645.2534002999892,None,645.2534002999892,645.9703045999631,0.06883299996843562,None,1.9656157999997959,,,,,,,,,24,001,2019_Dec_25_1235,untitled,3.1.0,60.18241288119368,
135,F,N,270,R,N,135FN270RN,HRN,0,145,145,214,,,0.8230000000000001,647.2948089999845,647.6344074999797,647.6519325000118,647.934392599971,647.9511888999841,None,up,647.9511888999841,None,647.9511888999841,648.749789799971,0.0678306000190787,None,1.7669679999817163,,,,,,,,,24,001,2019_Dec_25_1235,untitled,3.1.0,60.18241288119368,
232,G,N,315,L,N,232GN315LN,HLN,0,146,146,239,,,0.933,649.7866840999923,650.1328254999826,650.149039299984,650.4323119999608,650.449564999959,None,up,650.449564999959,None,650.449564999959,651.3651965999743,0.06166880001546815,None,1.8151667999918573,,,,,,,,,24,001,2019_Dec_25_1235,untitled,3.1.0,60.18241288119368,
485,_5,N,180,L,N,485_5N180LN,HLN,0,147,147,284,,,1.042,652.3608595000114,652.6803083000123,652.6970110000111,652.9810880000005,652.9964063999942,None,down,652.9964063999942,None,652.9964063999942,654.0131372999749,0.08832729997811839,None,2.7006448000320233,,,,,,,,,24,001,2019_Dec_25_1235,untitled,3.1.0,60.18241288119368,
_,R,M,45,_,_,_RM045__,N,0,148,148,17,,,0.802,655.7680900999694,656.1106219000067,656.1273800999625,656.4106577999773,656.4271497000009,None,down,656.4271497000009,None,656.4271497000009,657.2099565999815,0.06366870005149394,None,1.6317149000242352,,,,,,,,,24,001,2019_Dec_25_1235,untitled,3.1.0,60.18241288119368,
042,R,M,45,L,N,042RM045LN,HLN,0,149,149,105,,,0.871,658.1313032999751,658.4751485000015,658.4921643999987,658.7753587999614,658.79192649998,None,down,658.79192649998,None,658.79192649998,659.640727299964,0.06555619998835027,None,1.6151297999895178,,,,,,,,,24,001,2019_Dec_25_1235,untitled,3.1.0,60.18241288119368,
450,_5,N,45,R,N,450_5N045RN,HRN,0,150,150,273,,,0.888,660.481107199972,660.8228961999994,660.8406802999671,661.122838100011,661.1392788999947,None,up,661.1392788999947,None,661.1392788999947,662.0053178999806,0.06679159996565431,None,1.732492099981755,,,,,,,,,24,001,2019_Dec_25_1235,untitled,3.1.0,60.18241288119368,
299,_2,M,90,L,N,299_2M090LN,HLN,0,151,151,154,,,0.809,662.9538551999722,663.2873422999983,663.303940200014,663.5870731999748,663.6033297000104,None,down,663.6033297000104,None,663.6033297000104,664.4032423999743,0.074369799986016,None,2.5987569999997504,,,,,,,,,24,001,2019_Dec_25_1235,untitled,3.1.0,60.18241288119368,
453,_5,N,180,R,N,453_5N180RN,HRN,0,152,152,276,,,1.29,666.272258299985,666.6183860999881,666.6357280999655,666.9184668000089,666.9348908999818,None,up,666.9348908999818,None,666.9348908999818,668.1998757999972,0.06295290001435205,None,2.3985087999608368,,,,,,,,,24,001,2019_Dec_25_1235,untitled,3.1.0,60.18241288119368,
_,_2,M,315,_,_,__2M315__,N,0,153,153,31,,,1.091,669.4060193999903,669.7485955999582,669.7650199999916,670.0480387000134,670.0646430999623,None,down,670.0646430999623,None,670.0646430999623,671.1307978999685,0.06605690001742914,None,2.8651601999881677,,,,,,,,,24,001,2019_Dec_25_1235,untitled,3.1.0,60.18241288119368,
428,_4,M,135,L,N,428_4M135LN,HLN,0,154,154,171,,,1.124,672.9997736999649,673.3451342000044,673.362036800012,673.6449346999871,673.662435700011,None,up,673.662435700011,None,673.662435700011,674.7610104999621,0.06290509999962524,None,2.514931700017769,,,,,,,,,24,001,2019_Dec_25_1235,untitled,3.1.0,60.18241288119368,
036,R,N,135,L,N,036RN135LN,HLN,0,155,155,203,,,1.073,676.2484101000009,676.5920185999712,676.6097424000036,676.8920320000034,676.9093189999694,None,up,676.9093189999694,None,676.9093189999694,677.9579828999704,0.06406770000467077,None,2.5665178999770433,,,,,,,,,24,001,2019_Dec_25_1235,untitled,3.1.0,60.18241288119368,
292,_2,N,135,L,N,292_2N135LN,HLN,0,156,156,251,,,1.25,679.5465859000105,679.8901023999788,679.9063405999914,680.1897103000083,680.2058313000016,None,up,680.2058313000016,None,680.2058313000016,681.4382129999576,0.06420840002829209,None,3.3158564000041224,,,,,,,,,24,001,2019_Dec_25_1235,untitled,3.1.0,60.18241288119368,
_,_2,N,45,_,_,__2N045__,N,0,157,157,73,,,0.919,683.5949293999583,683.9365072000073,683.9530750999693,684.2357543999678,684.2523628000054,None,up,684.2523628000054,None,684.2523628000054,685.1522268999834,0.06627220002701506,None,1.6172293999698013,,,,,,,,,24,001,2019_Dec_25_1235,untitled,3.1.0,60.18241288119368,
290,_2,N,45,L,N,290_2N045LN,HLN,0,158,158,249,,,0.714,685.9436413999647,686.2841572999605,686.3007528999588,686.5836667999974,686.6003790000104,None,up,686.6003790000104,None,686.6003790000104,687.3002723999671,0.06677330000093207,None,1.3672291999682784,,,,,,,,,24,001,2019_Dec_25_1235,untitled,3.1.0,60.18241288119368,
163,F,N,90,L,N,163FN090LN,HLN,0,159,159,218,,,1.311,688.0373915999662,688.3825175999664,688.3995955999708,688.6823484000051,688.7000792999752,None,up,688.7000792999752,None,688.7000792999752,689.9977347999811,0.0630830999580212,None,3.096439899993129,,,,,,,,,24,001,2019_Dec_25_1235,untitled,3.1.0,60.18241288119368,
_,G,M,180,_,_,_GM180__,N,0,160,160,12,,,0.8,691.8685283999657,692.2129303999827,692.2299491000012,692.5154158999794,692.5302567000035,None,down,692.5302567000035,None,692.5302567000035,693.3112507999758,0.06384300003992394,None,2.1167524000047706,,,,,,,,,24,001,2019_Dec_25_1235,untitled,3.1.0,60.18241288119368,
233,G,M,0,L,N,233GM000LN,HLN,0,161,161,136,,,1.1380000000000001,694.7135870999773,695.0600948999636,695.076695900003,695.3592987000011,695.3764762000064,None,up,695.3764762000064,None,695.3764762000064,696.4920762999682,0.05937499995343387,None,2.051382299978286,,,,,,,,,24,001,2019_Dec_25_1235,untitled,3.1.0,60.18241288119368,
495,_5,M,270,L,N,495_5M270LN,HLN,0,162,162,190,,,1.178,697.4983940999955,697.8415559999994,697.8574657000136,698.1435759000015,698.1573510000017,None,down,698.1573510000017,None,698.1573510000017,699.3227819000022,0.06316580000566319,None,2.800371700024698,,,,,,,,,24,001,2019_Dec_25_1235,untitled,3.1.0,60.18241288119368,
_,_4,M,180,_,_,__4M180__,N,0,163,163,36,,,1.027,701.0320580999833,701.3710958999582,701.3878160999739,701.6708906000131,701.6874658999732,None,up,701.6874658999732,None,701.6874658999732,702.703105899971,0.06764049996854737,None,2.4149541999795474,,,,,,,,,24,001,2019_Dec_25_1235,untitled,3.1.0,60.18241288119368,
130,F,N,45,R,N,130FN045RN,HRN,0,164,164,209,,,0.88,704.1705935999635,704.5185571999755,704.535517799959,704.8179666000069,704.8344708000077,None,up,704.8344708000077,None,704.8344708000077,705.7007540999912,0.06148380000377074,None,2.7849577000015415,,,,,,,,,24,001,2019_Dec_25_1235,untitled,3.1.0,60.18241288119368,
_,_2,M,135,_,_,__2M135__,N,0,165,165,27,,,0.903,707.708702999982,708.031682699977,708.048295799992,708.3324501999887,708.3489849999896,None,down,708.3489849999896,None,708.3489849999896,709.2305216999957,0.07990120002068579,None,3.018063900002744,,,,,,,,,24,001,2019_Dec_25_1235,untitled,3.1.0,60.18241288119368,
144,F,M,315,R,N,144FM315RN,HRN,0,166,166,119,,,0.864,711.4526134000043,711.778888300003,711.795802699984,712.0786695000133,712.0954242000007,None,down,712.0954242000007,None,712.0954242000007,712.9442933999817,0.07624890003353357,None,1.852729900041595,,,,,,,,,24,001,2019_Dec_25_1235,untitled,3.1.0,60.18241288119368,
_,_5,N,135,_,_,__5N135__,N,0,167,167,91,,,1.0130000000000001,714.040740699973,714.3598174999934,714.3761458999943,714.6597707999754,714.6761021999991,None,up,714.6761021999991,None,714.6761021999991,715.6752620000043,0.08214209997095168,None,3.2478419999824837,,,,,,,,,24,001,2019_Dec_25_1235,untitled,3.1.0,60.18241288119368,
_,_5,N,0,_,_,__5N000__,N,0,168,168,88,,,0.738,717.9927301999996,718.3404857999994,718.3563186000101,718.6394902999746,718.6562935999827,None,up,718.6562935999827,None,718.6562935999827,719.3738323000143,0.06143450003582984,None,1.8505063999909908,,,,,,,,,24,001,2019_Dec_25_1235,untitled,3.1.0,60.18241288119368,
295,_2,N,270,L,N,295_2N270LN,HLN,0,169,169,254,,,1.062,720.5760788999614,720.9206636999734,720.9378047999926,721.2204049999709,721.2370729999966,None,up,721.2370729999966,None,721.2370729999966,722.2864166999934,0.06251319998409599,None,2.9312372999847867,,,,,,,,,24,001,2019_Dec_25_1235,untitled,3.1.0,60.18241288119368,
271,_2,M,270,R,N,271_2M270RN,HRN,0,170,170,150,,,1.33,724.2488801999716,724.5842002999852,724.6008153000148,724.8842904999619,724.9007438999834,None,down,724.9007438999834,None,724.9007438999834,726.2166600999772,0.07316610001726076,None,3.2807338999700733,,,,,,,,,24,001,2019_Dec_25_1235,untitled,3.1.0,60.18241288119368,
_,G,N,270,_,_,_GN270__,N,0,171,171,62,,,0.794,728.2660763000022,728.597197199997,728.6136938999989,728.8976631999831,728.9137014999869,None,up,728.9137014999869,None,728.9137014999869,729.6968892999575,0.07729250000556931,None,2.5824796000379138,,,,,,,,,24,001,2019_Dec_25_1235,untitled,3.1.0,60.18241288119368,
488,_5,N,315,L,N,488_5N315LN,HLN,0,172,172,287,,,1.375,731.5636647999636,731.9115945000085,731.928746199992,732.2112630999763,732.2277837999864,None,up,732.2277837999864,None,732.2277837999864,733.5929699999979,0.06084260001080111,None,2.2325420000124723,,,,,,,,,24,001,2019_Dec_25_1235,untitled,3.1.0,60.18241288119368,
423,_4,N,270,L,N,423_4N270LN,HLN,0,173,173,270,,,0.9460000000000001,734.5296919000102,734.8752092999639,734.8917739999597,735.1750927999965,735.1916869999841,None,up,735.1916869999841,None,735.1916869999841,736.1238446999923,0.0618541999720037,None,1.883516400004737,,,,,,,,,24,001,2019_Dec_25_1235,untitled,3.1.0,60.18241288119368,
298,_2,M,45,L,N,298_2M045LN,HLN,0,174,174,153,,,0.705,737.1462066000095,737.4897447999683,737.5067291999585,737.7902016000007,737.8059244999895,None,up,737.8059244999895,None,737.8059244999895,738.488442300004,0.06419770000502467,None,3.1477434000116773,,,,,,,,,24,001,2019_Dec_25_1235,untitled,3.1.0,60.18241288119368,
226,G,N,45,L,N,226GN045LN,HLN,0,175,175,233,,,1.356,741.0211771999602,741.3718833999592,741.3718833999592,741.6717802999774,741.6861345999641,None,up,741.6861345999641,None,741.6861345999641,743.0182244000025,0.06042900000466034,None,2.6835129999672063,,,,,,,,,24,001,2019_Dec_25_1235,untitled,3.1.0,60.18241288119368,
228,G,N,135,L,N,228GN135LN,HLN,0,176,176,235,,,0.851,744.4375908999937,744.7834958999883,744.8000007999945,745.0830815999652,745.0996067000087,None,down,745.0996067000087,None,745.0996067000087,745.9322381999809,0.06108250003308058,None,1.8007487999857403,,,,,,,,,24,001,2019_Dec_25_1235,untitled,3.1.0,60.18241288119368,
_,R,M,270,_,_,_RM270__,N,0,177,177,22,,,0.714,746.9758740999969,747.3147146999836,747.3314798999927,747.6144290000084,747.6313544999575,None,down,747.6313544999575,None,747.6313544999575,748.3299600000028,0.06809670000802726,None,1.9839986999868415,,,,,,,,,24,001,2019_Dec_25_1235,untitled,3.1.0,60.18241288119368,
006,R,N,225,R,N,006RN225RN,HRN,0,178,178,197,,,0.933,749.6950477999635,750.0293311999994,750.0456953999819,750.3283550000051,750.3450800999999,None,up,750.3450800999999,None,750.3450800999999,751.260761499987,0.07053789997007698,None,2.26498169999104,,,,,,,,,24,001,2019_Dec_25_1235,untitled,3.1.0,60.18241288119368,
463,_5,M,270,R,N,463_5M270RN,HRN,0,179,179,182,,,0.968,752.6798791000037,753.0261765999603,753.0437835999765,753.3254821999581,753.3426603999687,None,down,753.3426603999687,None,753.3426603999687,754.2924391999841,0.06310269999084994,None,2.5320321999606676,,,,,,,,,24,001,2019_Dec_25_1235,untitled,3.1.0,60.18241288119368,
394,_4,M,45,R,N,394_4M045RN,HRN,0,180,180,161,,,0.881,755.9445943000028,756.289526699984,756.3073981999769,756.5899658999988,756.6062655000133,None,down,756.6062655000133,None,756.6062655000133,757.4719306000043,0.06237439997494221,None,1.867096500005573,,,,,,,,,24,001,2019_Dec_25_1235,untitled,3.1.0,60.18241288119368,
449,_5,N,0,R,N,449_5N000RN,HRN,0,181,181,272,,,1.149,758.5402853999985,758.8872913999949,758.904323099996,759.1873375999858,759.2039902000106,None,up,759.2039902000106,None,759.2039902000106,760.3364629999851,0.059781699965242296,None,1.7825979000190273,,,,,,,,,24,001,2019_Dec_25_1235,untitled,3.1.0,60.18241288119368,
398,_4,M,225,R,N,398_4M225RN,HRN,0,182,182,165,,,0.763,761.0719634999987,761.4018744999776,761.419482199999,761.7015807999996,761.7185827000067,None,down,761.7185827000067,None,761.7185827000067,762.4675126000075,0.07495019998168573,None,2.465210099995602,,,,,,,,,24,001,2019_Dec_25_1235,untitled,3.1.0,60.18241288119368,
395,_4,M,90,R,N,395_4M090RN,HRN,0,183,183,162,,,1.071,764.2526770000113,764.5993311000057,764.6162186000147,764.8989184999955,764.9157541999593,None,up,764.9157541999593,None,764.9157541999593,765.9648402999737,0.062049000000115484,None,2.700454699981492,,,,,,,,,24,001,2019_Dec_25_1235,untitled,3.1.0,60.18241288119368,
_,_4,M,0,_,_,__4M000__,N,0,184,184,32,,,0.917,767.7003659000038,768.0295642999699,768.0463572000153,768.3295341999619,768.3461032999912,None,down,768.3461032999912,None,768.3461032999912,769.2451963999774,0.07507640001131222,None,2.8010431999573484,,,,,,,,,24,001,2019_Dec_25_1235,untitled,3.1.0,60.18241288119368,
_,_2,M,180,_,_,__2M180__,N,0,185,185,28,,,1.2750000000000001,771.2157135999878,771.5597839999828,771.5769951000111,771.8601365999784,771.8764379000058,None,None,771.8764379000058,None,771.8764379000058,773.1418520999723,0.06144180003320798,None,,,,,,,,,,24,001,2019_Dec_25_1235,untitled,3.1.0,60.18241288119368,
_,G,M,90,_,_,_GM090__,N,0,186,186,10,,,1.1380000000000001,775.4108380000107,775.756744000013,775.7734964999836,776.0563071999932,776.0725336999749,775.4108380000107,down,776.0725336999749,None,776.0725336999749,777.1880621999735,0.06049290002556518,None,2.598927399958484,,,,,,,,,24,001,2019_Dec_25_1235,untitled,3.1.0,60.18241288119368,
234,G,M,45,L,N,234GM045LN,HLN,0,187,187,137,,,0.857,778.7399872000096,779.0867266000132,779.1047948999912,779.3864872999839,779.4028647000086,None,down,779.4028647000086,None,779.4028647000086,780.2357477999758,0.0615752000012435,None,2.7649423999828286,,,,,,,,,24,001,2019_Dec_25_1235,untitled,3.1.0,60.18241288119368,
045,R,M,180,L,N,045RM180LN,HLN,0,188,188,108,,,0.811,782.2365978999878,782.5839216999593,782.6006654999801,782.8836243000114,782.9003534999792,None,down,782.9003534999792,None,782.9003534999792,783.7014619999682,0.062087500002235174,None,2.7810052999993786,,,,,,,,,24,001,2019_Dec_25_1235,untitled,3.1.0,60.18241288119368,
_,_2,N,90,_,_,__2N090__,N,0,189,189,74,,,1.3760000000000001,785.748169199971,786.0972952999873,786.1140201999806,786.39714799996,786.4138966999599,None,up,786.4138966999599,None,786.4138966999599,787.7626875999849,0.05969520000508055,None,2.3480041000293568,,,,,,,,,24,001,2019_Dec_25_1235,untitled,3.1.0,60.18241288119368,
206,G,M,225,R,N,206GM225RN,HRN,0,190,190,133,,,1.342,788.8378902999684,789.1798797000083,789.1798797000083,789.4774209999596,789.4942893999978,None,None,789.4942893999978,None,789.4942893999978,790.810296199983,0.06789759994717315,None,,,,,,,,,,24,001,2019_Dec_25_1235,untitled,3.1.0,60.18241288119368,
_,_4,N,180,_,_,__4N180__,N,0,191,191,84,,,0.886,793.0251542999758,793.3746085999883,793.3912155000144,793.6746039999998,793.6917141999584,793.0251542999758,up,793.6917141999584,None,793.6917141999584,794.5567861999734,0.058921500050928444,None,2.930700699973386,,,,,,,,,24,001,2019_Dec_25_1235,untitled,3.1.0,60.18241288119368,
303,_2,M,270,L,N,303_2M270LN,HLN,0,192,192,158,,,1.34,796.6921516999719,797.0380095000146,797.0545754999621,797.3371531000012,797.3538820999674,None,down,797.3538820999674,None,797.3538820999674,798.67024149996,0.06290129997069016,None,2.765327100001741,,,,,,,,,24,001,2019_Dec_25_1235,untitled,3.1.0,60.18241288119368,
397,_4,M,180,R,N,397_4M180RN,HRN,0,193,193,164,,,0.774,800.1997069999925,800.5340536999865,800.5510250999941,800.8348023999715,800.8519650999806,None,down,800.8519650999806,None,800.8519650999806,801.6005725999712,0.07271790003869683,None,3.2805557000101544,,,,,,,,,24,001,2019_Dec_25_1235,untitled,3.1.0,60.18241288119368,
238,G,M,225,L,N,238GM225LN,HLN,0,194,194,141,,,0.802,804.2084672999918,804.5481259999797,804.564380900003,804.8479681999888,804.8660098999972,None,down,804.8660098999972,None,804.8660098999972,805.6469449999859,0.06887540000025183,None,2.765493300044909,,,,,,,,,24,001,2019_Dec_25_1235,untitled,3.1.0,60.18241288119368,
_,_5,N,225,_,_,__5N225__,N,0,195,195,93,,,1.2790000000000001,807.6994064999744,808.0448172999895,808.0611485000118,808.3445655999822,808.3611789999995,None,up,808.3611789999995,None,808.3611789999995,809.626592799963,0.061520099989138544,None,2.7653693999745883,,,,,,,,,24,001,2019_Dec_25_1235,untitled,3.1.0,60.18241288119368,
142,F,M,225,R,N,142FM225RN,HRN,0,196,196,117,,,1.174,811.2118504999671,811.5417171000154,811.55914019997,811.8425510000088,811.8585949999979,None,down,811.8585949999979,None,811.8585949999979,813.0087055999902,0.07641109998803586,None,3.1331071999738924,,,,,,,,,24,001,2019_Dec_25_1235,untitled,3.1.0,60.18241288119368,
_,_5,M,135,_,_,__5M135__,N,0,197,197,43,,,1.12,815.0827500000014,815.4047038999852,815.4216550000128,815.7045237999992,815.7217069999897,None,up,815.7217069999897,None,815.7217069999897,816.8204732000013,0.08318949997192249,None,2.9642481000046246,,,,,,,,,24,001,2019_Dec_25_1235,untitled,3.1.0,60.18241288119368,
_,_2,N,135,_,_,__2N135__,N,0,198,198,75,,,1.053,818.7565273999935,819.1027827999787,819.1183527999674,819.4021669999929,819.4197642999934,None,up,819.4197642999934,None,819.4197642999934,820.4503051000065,0.0628475000266917,None,3.2636412999709137,,,,,,,,,24,001,2019_Dec_25_1235,untitled,3.1.0,60.18241288119368,
490,_5,M,45,L,N,490_5M045LN,HLN,0,199,199,185,,,1.185,822.7525564999669,823.0984648999874,823.114888000011,823.3982513999799,823.4146039999905,None,down,823.4146039999905,None,823.4146039999905,824.5807958999649,0.062456399959046394,None,2.6650499000097625,,,,,,,,,24,001,2019_Dec_25_1235,untitled,3.1.0,60.18241288119368,
005,R,N,180,R,N,005RN180RN,HRN,0,200,200,196,,,0.758,826.1492007999914,826.4957288000151,826.5133287999779,826.7954131999868,826.811962399981,None,up,826.811962399981,None,826.811962399981,827.5447905999608,0.06142019998515025,None,3.032172699982766,,,,,,,,,24,001,2019_Dec_25_1235,untitled,3.1.0,60.18241288119368,
007,R,N,270,R,N,007RN270RN,HRN,0,201,201,198,,,1.026,829.9228148999973,830.2585331000155,830.2751961000031,830.5584617999848,830.575323499972,None,up,830.575323499972,None,830.575323499972,831.5908514999901,0.0706038000062108,None,2.3487145000253804,,,,,,,,,24,001,2019_Dec_25_1235,untitled,3.1.0,60.18241288119368,
003,R,N,90,R,N,003RN090RN,HRN,0,202,202,194,,,1.1420000000000001,832.9967164999689,833.3398364000022,833.3562812999589,833.6393432999612,833.6558040999807,None,up,833.6558040999807,None,833.6558040999807,834.7735450000037,0.06608870002673939,None,2.8149088000063784,,,,,,,,,24,001,2019_Dec_25_1235,untitled,3.1.0,60.18241288119368,
268,_2,M,135,R,N,268_2M135RN,HRN,0,203,203,147,,,0.905,836.5444461999577,836.8871063999832,836.9028459999827,837.1861760999891,837.2030761999777,None,down,837.2030761999777,None,837.2030761999777,838.08636690001,0.06696919997921214,None,2.2980586999910884,,,,,,,,,24,001,2019_Dec_25_1235,untitled,3.1.0,60.18241288119368,
194,G,N,45,R,N,194GN045RN,HRN,0,204,204,225,,,0.978,839.5708486000076,839.9171971000032,839.9171971000032,840.2166096000001,840.2330058999942,None,up,840.2330058999942,None,840.2330058999942,841.1990923999692,0.06253579998156056,None,1.9826889000250958,,,,,,,,,24,001,2019_Dec_25_1235,untitled,3.1.0,60.18241288119368,
136,F,N,315,R,N,136FN315RN,HRN,0,205,205,215,,,0.8130000000000001,842.2877694999916,842.6318017999874,842.6502016999875,842.931649599981,842.9483180000097,None,up,842.9483180000097,None,842.9483180000097,843.7475346999709,0.06430730002466589,None,1.848807200032752,,,,,,,,,24,001,2019_Dec_25_1235,untitled,3.1.0,60.18241288119368,
_,_5,M,0,_,_,__5M000__,N,0,206,206,40,,,1.224,844.8739463000093,845.2125175999827,845.2290979999816,845.5121101000113,845.5287431000033,None,down,845.5287431000033,None,845.5287431000033,846.7275339000043,0.0689286999986507,None,2.685246200009715,,,,,,,,,24,001,2019_Dec_25_1235,untitled,3.1.0,60.18241288119368,
_,G,N,45,_,_,_GN045__,N,0,207,207,57,,,0.729,848.2839689999819,848.6263389000087,848.642786499986,848.9259789999924,848.9423898999812,None,up,848.9423898999812,None,848.9423898999812,849.6585148999584,0.06313610001234338,None,1.5331017999560572,,,,,,,,,24,001,2019_Dec_25_1235,untitled,3.1.0,60.18241288119368,
385,_4,N,0,R,N,385_4N000RN,HRN,0,208,208,256,,,1.224,850.5416061999858,850.8908593999804,850.9073365000077,851.1905350000015,851.207030199992,None,up,851.207030199992,None,851.207030199992,852.4061107999878,0.05837799998698756,None,1.9822177999885753,,,,,,,,,24,001,2019_Dec_25_1235,untitled,3.1.0,60.18241288119368,
454,_5,N,225,R,N,454_5N225RN,HRN,0,209,209,277,,,1.168,853.2585915999953,853.6052337000147,853.6217544999672,853.9051510000136,853.9216413999675,None,up,853.9216413999675,None,853.9216413999675,855.0706329999957,0.06225129996892065,None,3.213992099976167,,,,,,,,,24,001,2019_Dec_25_1235,untitled,3.1.0,60.18241288119368,
_,_2,N,225,_,_,__2N225__,N,0,210,210,77,,,0.96,857.2034859000123,857.5520261999918,857.5685866000131,857.8511676999624,857.8679957999848,None,up,857.8679957999848,None,857.8679957999848,858.8013098000083,0.06098269997164607,None,1.9336608000448905,,,,,,,,,24,001,2019_Dec_25_1235,untitled,3.1.0,60.18241288119368,
422,_4,N,225,L,N,422_4N225LN,HLN,0,211,211,269,,,0.987,859.8749884999706,860.2159730999847,860.2322140999604,860.5157877999591,860.5324248999823,None,down,860.5324248999823,None,860.5324248999823,861.4981275000027,0.06554179999511689,None,3.2474159999983385,,,,,,,,,24,001,2019_Dec_25_1235,untitled,3.1.0,60.18241288119368,
456,_5,N,315,R,N,456_5N315RN,HRN,0,212,212,279,,,0.9470000000000001,863.8487062999629,864.1959278999711,864.2126278000069,864.4956017999793,864.5126331999782,None,up,864.5126331999782,None,864.5126331999782,865.4341909000068,0.06266160000814125,None,1.6993769999826327,,,,,,,,,24,001,2019_Dec_25_1235,untitled,3.1.0,60.18241288119368,
_,_2,M,270,_,_,__2M270__,N,0,213,213,30,,,1.108,866.2812158999732,866.6273227999918,866.6442891999613,866.928846499999,866.9437797999708,None,up,866.9437797999708,None,866.9437797999708,868.0267390999943,0.062306699983309954,None,2.56599199998891,,,,,,,,,24,001,2019_Dec_25_1235,untitled,3.1.0,60.18241288119368,
400,_4,M,315,R,N,400_4M315RN,HRN,0,214,214,167,,,1.342,869.5792652000091,869.9245083999704,869.9409238999942,870.2248176999856,870.2414939000155,None,down,870.2414939000155,None,870.2414939000155,871.5736300999997,0.06258319999324158,None,2.5353697999962606,,,,,,,,,24,001,2019_Dec_25_1235,untitled,3.1.0,60.18241288119368,
_,R,N,225,_,_,_RN225__,N,0,215,215,69,,,1.337,872.8675436999765,873.1888641999685,873.204624200007,873.4877524999902,873.5043802,None,up,873.5043802,None,873.5043802,874.8363592000096,0.0796812999760732,None,3.414629800012335,,,,,,,,,24,001,2019_Dec_25_1235,untitled,3.1.0,60.18241288119368,
041,R,M,0,L,N,041RM000LN,HLN,0,216,216,104,,,1.151,876.9882041999954,877.3351672000135,877.3510302999639,877.6337773000123,877.6510097999708,None,down,877.6510097999708,None,877.6510097999708,878.7830390000017,0.06215469999006018,None,2.0023970000329427,,,,,,,,,24,001,2019_Dec_25_1235,untitled,3.1.0,60.18241288119368,
_,R,N,270,_,_,_RN270__,N,0,217,217,70,,,1.2790000000000001,879.7399698999943,880.06551819999,880.0822403999628,880.3654636999709,880.3830016999855,None,up,880.3830016999855,None,880.3830016999855,881.6472595999949,0.07716639997670427,None,3.113152000005357,,,,,,,,,24,001,2019_Dec_25_1235,untitled,3.1.0,60.18241288119368,
010,R,M,45,R,N,010RM045RN,HRN,0,218,218,97,,,1.086,883.5638433999848,883.9131242999574,883.9291927999584,884.2116638000007,884.2282771999598,None,down,884.2282771999598,None,884.2282771999598,885.2940795999602,0.06111500004772097,None,2.0666216000099666,,,,,,,,,24,001,2019_Dec_25_1235,untitled,3.1.0,60.18241288119368,
162,F,N,45,L,N,162FN045LN,HLN,0,219,219,217,,,1.336,886.3629290999961,886.7101720999926,886.7265517999767,887.0098585999804,887.027261100011,None,up,887.027261100011,None,887.027261100011,888.3416279999656,0.060798299964517355,None,2.531933600024786,,,,,,,,,24,001,2019_Dec_25_1235,untitled,3.1.0,60.18241288119368,
481,_5,N,0,L,N,481_5N000LN,HLN,0,220,220,280,,,1.156,889.6269447999657,889.9737780999858,889.9902119999751,890.2736752000055,890.2899450999685,None,up,890.2899450999685,None,890.2899450999685,891.422451899969,0.06093269999837503,None,1.9485627000103705,,,,,,,,,24,001,2019_Dec_25_1235,untitled,3.1.0,60.18241288119368,
_,_5,M,180,_,_,__5M180__,N,0,221,221,44,,,1.3860000000000001,892.3042848999612,892.6538868999924,892.6711069999728,892.9542092999909,892.9708339999779,None,down,892.9708339999779,None,892.9708339999779,894.3360566999763,0.05796800000825897,None,2.7664113999926485,,,,,,,,,24,001,2019_Dec_25_1235,untitled,3.1.0,60.18241288119368,
172,F,M,135,L,N,172FM135LN,HLN,0,222,222,123,,,1.178,895.8410293000052,896.1522120999871,896.1678354999749,896.451522999967,896.4676867999951,None,down,896.4676867999951,None,896.4676867999951,897.6334052999737,0.09181960002752021,None,3.3664596000453457,,,,,,,,,24,001,2019_Dec_25_1235,untitled,3.1.0,60.18241288119368,
196,G,N,135,R,N,196GN135RN,HRN,0,223,223,227,,,1.084,899.9032466000062,900.2478352999897,900.264414299978,900.5476005999953,900.5640096999705,None,up,900.5640096999705,None,900.5640096999705,901.6300044999807,0.06210270000156015,None,3.09841839998262,,,,,,,,,24,001,2019_Dec_25_1235,untitled,3.1.0,60.18241288119368,
457,_5,M,0,R,N,457_5M000RN,HRN,0,224,224,176,,,1.256,903.7342057999922,904.0780095999944,904.0944465000066,904.3774650999694,904.393978099979,None,down,904.393978099979,None,904.393978099979,905.6268630999839,0.06506039999658242,None,2.498826699971687,,,,,,,,,24,001,2019_Dec_25_1235,untitled,3.1.0,60.18241288119368,
044,R,M,135,L,N,044RM135LN,HLN,0,225,225,107,,,0.78,906.9831459000125,907.308321599965,907.3247507999768,907.6092412999715,907.6249571999651,None,down,907.6249571999651,None,907.6249571999651,908.3906838999828,0.08164049999322742,None,2.8658662000088952,,,,,,,,,24,001,2019_Dec_25_1235,untitled,3.1.0,60.18241288119368,
012,R,M,135,R,N,012RM135RN,HRN,0,226,226,99,,,1.208,910.5633545999881,910.9053809999605,910.9225055999705,911.2046500999713,911.2213369999663,None,None,911.2213369999663,None,911.2213369999663,912.4208904000116,0.06513590004760772,None,,,,,,,,,,24,001,2019_Dec_25_1235,untitled,3.1.0,60.18241288119368,
139,F,M,90,R,N,139FM090RN,HRN,0,227,227,114,,,1.208,914.7548680999898,915.1016385999974,915.1183334999951,915.4017164999968,915.418472099991,914.7548680999898,down,915.418472099991,None,915.418472099991,916.5999867999926,0.06194909999612719,None,2.666430500044953,,,,,,,,,24,001,2019_Dec_25_1235,untitled,3.1.0,60.18241288119368,
_,G,N,0,_,_,_GN000__,N,0,228,228,56,,,0.904,918.1540858999942,918.4988532999996,918.5154581000097,918.7988910999848,918.8147412000108,None,up,918.8147412000108,None,918.8147412000108,919.6972561999573,0.05977250001160428,None,1.849685600027442,,,,,,,,,24,001,2019_Dec_25_1235,untitled,3.1.0,60.18241288119368,
201,G,M,0,R,N,201GM000RN,HRN,0,229,229,128,,,1.299,920.7418279999983,921.0795346999657,921.0970924000139,921.3793762999703,921.3956620999961,None,down,921.3956620999961,None,921.3956620999961,922.6783512000111,0.06921899999724701,None,2.3680460000177845,,,,,,,,,24,001,2019_Dec_25_1235,untitled,3.1.0,60.18241288119368,
138,F,M,45,R,N,138FM045RN,HRN,0,230,230,113,,,1.302,923.8335527000017,924.1774306999869,924.1940624999697,924.477057799988,924.4937583999708,None,down,924.4937583999708,None,924.4937583999708,925.7759344999795,0.06251919997157529,None,2.1481168000027537,,,,,,,,,24,001,2019_Dec_25_1235,untitled,3.1.0,60.18241288119368,
494,_5,M,225,L,N,494_5M225LN,HLN,0,231,231,189,,,1.313,926.7139819999575,927.0579208999989,927.0746989999898,927.3587817999651,927.3757195000071,None,down,927.3757195000071,None,927.3757195000071,928.6731001999578,0.06276190001517534,None,3.013978600036353,,,,,,,,,24,001,2019_Dec_25_1235,untitled,3.1.0,60.18241288119368,
_,_4,M,270,_,_,__4M270__,N,0,232,232,38,,,1.044,930.480383999995,930.8059491000022,930.8206965000136,931.1042127999826,931.1213848000043,None,down,931.1213848000043,None,931.1213848000043,932.1548328999779,0.07854270003736019,None,3.433126399992034,,,,,,,,,24,001,2019_Dec_25_1235,untitled,3.1.0,60.18241288119368,
_,G,M,225,_,_,_GM225__,N,0,233,233,13,,,0.871,934.6244824999594,934.9679384999909,934.984691599966,935.2673475999618,935.2842014000053,None,down,935.2842014000053,None,935.2842014000053,936.1334907999844,0.06062730000121519,None,2.7806931999512017,,,,,,,,,24,001,2019_Dec_25_1235,untitled,3.1.0,60.18241288119368,
_,_4,M,135,_,_,__4M135__,N,0,234,234,35,,,0.892,938.131893599988,938.4817620000103,938.497425300011,938.7807689000037,938.7975401000003,None,down,938.7975401000003,None,938.7975401000003,939.6632450000034,0.05970620003063232,None,2.18409850000171,,,,,,,,,24,001,2019_Dec_25_1235,untitled,3.1.0,60.18241288119368,
137,F,M,0,R,N,137FM000RN,HRN,0,235,235,112,,,0.8290000000000001,941.0512159999926,941.3968416000134,941.4136137999594,941.6950113999774,941.7114831999643,None,down,941.7114831999643,None,941.7114831999643,942.5277539999806,0.0626724999747239,None,1.9856825999449939,,,,,,,,,24,001,2019_Dec_25_1235,untitled,3.1.0,60.18241288119368,
034,R,N,45,L,N,034RN045LN,HLN,0,236,236,201,,,1.117,943.767108400003,944.1100612999871,944.1262615000014,944.4096003999584,944.4259759999695,None,up,944.4259759999695,None,944.4259759999695,945.525193599984,0.06261270004324615,None,2.0675508999847807,,,,,,,,,24,001,2019_Dec_25_1235,untitled,3.1.0,60.18241288119368,
_,R,N,180,_,_,_RN180__,N,0,237,237,68,,,1.161,946.5611951999599,946.9072887999937,946.9239955999656,947.2071854000096,947.2236754999612,None,up,947.2236754999612,None,947.2236754999612,948.3727006000117,0.060931899992283434,None,2.4877034000237472,,,,,,,,,24,001,2019_Dec_25_1235,untitled,3.1.0,60.18241288119368,
270,_2,M,225,R,N,270_2M225RN,HRN,0,238,238,149,,,1.178,949.8118318999768,950.1211733999662,950.1381161999889,950.4209241999779,950.4378928999649,None,down,950.4378928999649,None,950.4378928999649,951.6034983000136,0.08979290002025664,None,3.249192800023593,,,,,,,,,24,001,2019_Dec_25_1235,untitled,3.1.0,60.18241288119368,
015,R,M,270,R,N,015RM270RN,HRN,0,239,239,102,,,0.724,953.7550035999739,954.1015493999585,954.1174698999966,954.4013178999885,954.4184417999932,None,down,954.4184417999932,None,954.4184417999932,955.1333191999584,0.06029250001301989,None,2.6311372999916784,,,,,,,,,24,001,2019_Dec_25_1235,untitled,3.1.0,60.18241288119368,
_,F,N,0,_,_,_FN000__,N,0,240,240,48,,,0.746,957.1197127999621,957.4649323999765,957.4814953999594,957.7643859999953,957.7814697999856,None,up,957.7814697999856,None,957.7814697999856,958.5148339999723,0.06266479997429997,None,2.3176307999528944,,,,,,,,,24,001,2019_Dec_25_1235,untitled,3.1.0,60.18241288119368,
482,_5,N,45,L,N,482_5N045LN,HLN,0,241,241,281,,,1.149,960.1672694999725,960.5122799999663,960.5290809000144,960.8117772999685,960.8292060999665,None,up,960.8292060999665,None,960.8292060999665,961.9612390999682,0.06159429997205734,None,1.9317081000190228,,,,,,,,,24,001,2019_Dec_25_1235,untitled,3.1.0,60.18241288119368,
173,F,M,180,L,N,173FM180LN,HLN,0,242,242,124,,,0.89,962.8321118999738,963.1760591999628,963.1934968999703,963.4760058000102,963.492814600002,None,down,963.492814600002,None,963.492814600002,964.3586043000105,0.06412229995476082,None,2.6990944999852218,,,,,,,,,24,001,2019_Dec_25_1235,untitled,3.1.0,60.18241288119368,
_,F,M,135,_,_,_FM135__,N,0,243,243,3,,,0.983,966.2596236999962,966.6071152999648,966.6231852999772,966.9062428000034,966.9232674000086,None,down,966.9232674000086,None,966.9232674000086,967.888579099963,0.06063119997270405,None,2.7480685000191443,,,,,,,,,24,001,2019_Dec_25_1235,untitled,3.1.0,60.18241288119368,
225,G,N,0,L,N,225GN000LN,HLN,0,244,244,232,,,1.363,969.7499226999935,970.087735100009,970.1048134999583,970.3874992000055,970.403845999972,None,up,970.403845999972,None,970.403845999972,971.7526549999602,0.07009970000945032,None,2.9178101999568753,,,,,,,,,24,001,2019_Dec_25_1235,untitled,3.1.0,60.18241288119368,
240,G,M,315,L,N,240GM315LN,HLN,0,245,245,143,,,1.238,973.408815599978,973.7339218999841,973.7501415999723,974.0337903999607,974.0504230000079,None,down,974.0504230000079,None,974.0504230000079,975.2826764999772,0.07702020002761856,None,2.600879499979783,,,,,,,,,24,001,2019_Dec_25_1235,untitled,3.1.0,60.18241288119368,
_,_5,N,270,_,_,__5N270__,N,0,246,246,94,,,1.02,976.7194605999975,977.0639021999668,977.0805745999678,977.3645095999818,977.3806862999918,None,up,977.3806862999918,None,977.3806862999918,978.3800197999808,0.0615694000152871,None,1.9999311999999918,,,,,,,,,24,001,2019_Dec_25_1235,untitled,3.1.0,60.18241288119368,
231,G,N,270,L,N,231GN270LN,HLN,0,247,247,238,,,0.975,979.4594719999586,979.79589389998,979.8117880999926,980.0948280000011,980.1115864999592,None,up,980.1115864999592,None,980.1115864999592,981.0780750999693,0.07038710004417226,None,2.03375339997001,,,,,,,,,24,001,2019_Dec_25_1235,untitled,3.1.0,60.18241288119368,
304,_2,M,315,L,N,304_2M315LN,HLN,0,248,248,159,,,1.278,982.2185775999678,982.5594380999682,982.5758304999908,982.859146200004,982.8754648999893,None,None,982.8754648999893,None,982.8754648999893,984.1414356000023,0.06565770000452176,None,,,,,,,,,,24,001,2019_Dec_25_1235,untitled,3.1.0,60.18241288119368,
_,R,N,0,_,_,_RN000__,N,0,249,249,64,,,1.064,986.4080014000065,986.7561298999935,986.7726107999915,987.0560174999991,987.0744331000024,986.4080014000065,up,987.0744331000024,None,987.0744331000024,988.1221989999758,0.061096000019460917,None,2.199094799987506,,,,,,,,,24,001,2019_Dec_25_1235,untitled,3.1.0,60.18241288119368,
493,_5,M,180,L,N,493_5M180LN,HLN,0,250,250,188,,,1.319,989.346782299981,989.6871223999769,989.7040656000027,989.9866964999819,990.0028239999665,None,down,990.0028239999665,None,990.0028239999665,991.3019593000063,0.06517909996910021,None,2.267037200042978,,,,,,,,,24,001,2019_Dec_25_1235,untitled,3.1.0,60.18241288119368,
_,R,M,90,_,_,_RM090__,N,0,251,251,18,,,1.337,992.3404258000082,992.6836942000082,992.7015466999728,992.984095599968,993.00045339996,None,down,993.00045339996,None,993.00045339996,994.3155372999609,0.060625099984463304,None,2.4340881999814883,,,,,,,,,24,001,2019_Dec_25_1235,untitled,3.1.0,60.18241288119368,
009,R,M,0,R,N,009RM000RN,HRN,0,252,252,96,,,0.862,995.527709499991,995.8480955999694,995.8649198999628,996.1481419999618,996.1651313999901,None,down,996.1651313999901,None,996.1651313999901,997.0141230999725,0.08207340002991259,None,1.6994334000046365,,,,,,,,,24,001,2019_Dec_25_1235,untitled,3.1.0,60.18241288119368,
_,F,M,180,_,_,_FM180__,N,0,253,253,4,,,1.353,997.9470311999903,998.2789017999894,998.2954219999956,998.5784305999987,998.5951632999931,None,down,998.5951632999931,None,998.5951632999931,999.9273766999831,0.07405120000476018,None,3.102020699996501,,,,,,,,,24,001,2019_Dec_25_1235,untitled,3.1.0,60.18241288119368,
297,_2,M,0,L,N,297_2M000LN,HLN,0,254,254,152,,,1.204,1001.7934764999663,1002.1094597000047,1002.1257541999803,1002.4087101999903,1002.4268889999948,None,down,1002.4268889999948,None,1002.4268889999948,1003.6242348999949,0.08531360002234578,None,2.599244599987287,,,,,,,,,24,001,2019_Dec_25_1235,untitled,3.1.0,60.18241288119368,
417,_4,N,0,L,N,417_4N000LN,HLN,0,255,255,264,,,1.237,1005.0970024999697,1005.4396064999746,1005.4565129000111,1005.7395548999775,1005.7559113999596,None,up,1005.7559113999596,None,1005.7559113999596,1006.9717067999882,0.06413080001948401,None,1.9837284000241198,,,,,,,,,24,001,2019_Dec_25_1235,untitled,3.1.0,60.18241288119368,
391,_4,N,270,R,N,391_4N270RN,HRN,0,256,256,262,,,1.381,1007.8127829000005,1008.154635599989,1008.1706429999904,1008.4537542999606,1008.4700722999987,None,up,1008.4700722999987,None,1008.4700722999987,1009.8355375999818,0.06597140000667423,None,2.9343647999921814,,,,,,,,,24,001,2019_Dec_25_1235,untitled,3.1.0,60.18241288119368,
_,G,M,315,_,_,_GM315__,N,0,257,257,15,,,0.926,1011.4741872999584,1011.8172548000002,1011.8341266000061,1012.1174245000002,1012.1337158000097,None,down,1012.1337158000097,None,1012.1337158000097,1013.0499821999692,0.06270210002548993,None,2.7000873999786563,,,,,,,,,24,001,2019_Dec_25_1235,untitled,3.1.0,60.18241288119368,
011,R,M,90,R,N,011RM090RN,HRN,0,258,258,98,,,1.366,1014.9076142999693,1015.2485403000028,1015.2650055999984,1015.547522799985,1015.5637927000062,None,down,1015.5637927000062,None,1015.5637927000062,1016.9133920999593,0.06542080000508577,None,2.448833900038153,,,,,,,,,24,001,2019_Dec_25_1235,untitled,3.1.0,60.18241288119368,
_,_2,N,180,_,_,__2N180__,N,0,259,259,76,,,1.032,1018.0800144000095,1018.4289107999648,1018.4454130000086,1018.7284626999754,1018.7452473999583,None,down,1018.7452473999583,None,1018.7452473999583,1019.7609569999622,0.05988499999511987,None,2.4973636000067927,,,,,,,,,24,001,2019_Dec_25_1235,untitled,3.1.0,60.18241288119368,
_,_5,M,270,_,_,__5M270__,N,0,260,260,46,,,0.755,1021.3364522999618,1021.6597149999579,1021.6755559999729,1021.9622944999719,1021.9767075999989,None,down,1021.9767075999989,None,1021.9767075999989,1022.7088478999794,0.08453449996886775,None,2.5321786000276916,,,,,,,,,24,001,2019_Dec_25_1235,untitled,3.1.0,60.18241288119368,
193,G,N,0,R,N,193GN000RN,HRN,0,261,261,224,,,1.054,1024.5769959999598,1024.9225130999694,1024.9394955000025,1025.2225600999664,1025.2390697000083,None,up,1025.2390697000083,None,1025.2390697000083,1026.271454599977,0.061287400021683425,None,1.9176261000102386,,,,,,,,,24,001,2019_Dec_25_1235,untitled,3.1.0,60.18241288119368,
_,G,M,135,_,_,_GM135__,N,0,262,262,11,,,0.9560000000000001,1027.2668234999874,1027.5557623999775,1027.586760999984,1027.8696321999887,1027.88702189998,None,down,1027.88702189998,None,1027.88702189998,1028.8355978999753,0.0982293999986723,None,3.081246999965515,,,,,,,,,24,001,2019_Dec_25_1235,untitled,3.1.0,60.18241288119368,
462,_5,M,225,R,N,462_5M225RN,HRN,0,263,263,181,,,1.106,1031.0426865000045,1031.3837646999746,1031.4004428999615,1031.6852862999658,1031.7013294000062,None,down,1031.7013294000062,None,1031.7013294000062,1032.7830789000145,0.06713919999310747,None,2.9148745000129566,,,,,,,,,24,001,2019_Dec_25_1235,untitled,3.1.0,60.18241288119368,
033,R,N,0,L,N,033RN000LN,HLN,0,264,264,200,,,1.375,1034.6856461999705,1035.030365899962,1035.0477224999922,1035.3303581000073,1035.3472054000013,None,up,1035.3472054000013,None,1035.3472054000013,1036.7121681999997,0.062471100012771785,None,3.0144210000289604,,,,,,,,,24,001,2019_Dec_25_1235,untitled,3.1.0,60.18241288119368,
236,G,M,135,L,N,236GM135LN,HLN,0,265,265,139,,,0.903,1038.4414111999795,1038.7774674000102,1038.7949386999826,1039.0772152999998,1039.0938751999638,None,down,1039.0938751999638,None,1039.0938751999638,1039.9761382999714,0.0696858000010252,None,2.7654285000171512,,,,,,,,,24,001,2019_Dec_25_1235,untitled,3.1.0,60.18241288119368,
227,G,N,90,L,N,227GN090LN,HLN,0,266,266,234,,,0.756,1041.9296097999904,1042.274307499989,1042.2907615999575,1042.5735031999648,1042.590141099994,None,up,1042.590141099994,None,1042.590141099994,1043.3230345000047,0.0621267999522388,None,2.732270399981644,,,,,,,,,24,001,2019_Dec_25_1235,untitled,3.1.0,60.18241288119368,
_,_5,M,45,_,_,__5M045__,N,0,267,267,41,,,1.295,1045.3919420999591,1045.7380757000064,1045.7549846000038,1046.0390408000094,1046.0543688999605,None,down,1046.0543688999605,None,1046.0543688999605,1047.3367985999794,0.06277220003539696,None,2.5644836999708787,,,,,,,,,24,001,2019_Dec_25_1235,untitled,3.1.0,60.18241288119368,
_,_4,N,45,_,_,__4N045__,N,0,268,268,81,,,0.707,1048.6888550999574,1049.0349999999744,1049.0520316999755,1049.3348638999742,1049.3515436999733,None,up,1049.3515436999733,None,1049.3515436999733,1050.0335342999897,0.06197370000882074,None,2.114891599980183,,,,,,,,,24,001,2019_Dec_25_1235,untitled,3.1.0,60.18241288119368,
289,_2,N,0,L,N,289_2N000LN,HLN,0,269,269,248,,,0.774,1051.5371669000015,1051.8827641999815,1051.8827641999815,1052.182663100015,1052.1993703999906,None,down,1052.1993703999906,None,1052.1993703999906,1052.9483110000147,0.06420359999174252,None,2.11473470000783,,,,,,,,,24,001,2019_Dec_25_1235,untitled,3.1.0,60.18241288119368,
432,_4,M,315,L,N,432_4M315LN,HLN,0,270,270,175,,,0.908,1054.3925633999752,1054.7309096999816,1054.7466846999596,1055.0297300000093,1055.0462020999985,None,down,1055.0462020999985,None,1055.0462020999985,1055.9296019999892,0.06946979998610914,None,3.100366800033953,,,,,,,,,24,001,2019_Dec_25_1235,untitled,3.1.0,60.18241288119368,
129,F,N,0,R,N,129FN000RN,HRN,0,271,271,208,,,0.803,1058.2185627999716,1058.5600749999867,1058.5769068999798,1058.8597461999743,1058.8762627000106,None,up,1058.8762627000106,None,1058.8762627000106,1059.6587743000127,0.06518929998856038,None,1.5846010000095703,,,,,,,,,24,001,2019_Dec_25_1235,untitled,3.1.0,60.18241288119368,
229,G,N,180,L,N,229GN180LN,HLN,0,272,272,236,,,0.731,1060.5342928000027,1060.8748657999677,1060.8911839000066,1061.1747637999943,1061.1911942000152,None,down,1061.1911942000152,None,1061.1911942000152,1061.9065797000076,0.06665330001851544,None,2.6480906999786384,,,,,,,,,24,001,2019_Dec_25_1235,untitled,3.1.0,60.18241288119368,
_,_4,M,45,_,_,__4M045__,N,0,273,273,33,,,1.033,1063.9220820000046,1064.2549283999833,1064.2714876999962,1064.5551855000085,1064.5715452999575,None,down,1064.5715452999575,None,1064.5715452999575,1065.5873538999585,0.07128329999977723,None,2.1154860999668017,,,,,,,,,24,001,2019_Dec_25_1235,untitled,3.1.0,60.18241288119368,
264,_2,N,315,R,N,264_2N315RN,HRN,0,274,274,247,,,1.2790000000000001,1066.7583695999929,1067.1025032000034,1067.1193435000023,1067.4023534000153,1067.4196205000044,None,up,1067.4196205000044,None,1067.4196205000044,1068.6864379000035,0.0642136000096798,None,2.5972389000235125,,,,,,,,,24,001,2019_Dec_25_1235,untitled,3.1.0,60.18241288119368,
_,_4,N,0,_,_,__4N000__,N,0,275,275,80,,,1.124,1070.0888596999575,1070.433476199978,1070.4493199000135,1070.7332464999636,1070.7500336999656,None,up,1070.7500336999656,None,1070.7500336999656,1071.849124500004,0.06536369997775182,None,2.2146878000348806,,,,,,,,,24,001,2019_Dec_25_1235,untitled,3.1.0,60.18241288119368,
_,_4,M,315,_,_,__4M315__,N,0,276,276,39,,,0.834,1073.0323980000103,1073.380201699969,1073.3968305999879,1073.68007209996,1073.6965644999873,None,down,1073.6965644999873,None,1073.6965644999873,1074.5126407999778,0.06086839997442439,None,2.2651681000133976,,,,,,,,,24,001,2019_Dec_25_1235,untitled,3.1.0,60.18241288119368,
175,F,M,270,L,N,175FM270LN,HLN,0,277,277,126,,,1.1500000000000001,1076.0287830999587,1076.3774163000053,1076.3944250000059,1076.678339199978,1076.694696099963,None,down,1076.694696099963,None,1076.694696099963,1077.8265066999593,0.059090199996717274,None,3.2306343999807723,,,,,,,,,24,001,2019_Dec_25_1235,untitled,3.1.0,60.18241288119368,
_,R,M,0,_,_,_RM000__,N,0,278,278,16,,,0.917,1079.9988485999638,1080.340933199972,1080.3577027000138,1080.6409659999772,1080.6576369999675,None,down,1080.6576369999675,None,1080.6576369999675,1081.556904099998,0.06504900002619252,None,1.8353805000078864,,,,,,,,,24,001,2019_Dec_25_1235,untitled,3.1.0,60.18241288119368,
235,G,M,90,L,N,235GM090LN,HLN,0,279,279,138,,,1.3,1082.5766330999904,1082.9053063999745,1082.9225844999892,1083.2055379999802,1083.2219551999588,None,None,1083.2219551999588,None,1083.2219551999588,1084.504037400009,0.07396010000957176,None,,,,,,,,,,24,001,2019_Dec_25_1235,untitled,3.1.0,60.18241288119368,
001,R,N,0,R,N,001RN000RN,HRN,0,280,280,192,,,1.087,1086.752630700008,1087.101383799978,1087.1195002999739,1087.401535300014,1087.4186893999577,1086.752630700008,up,1087.4186893999577,None,1087.4186893999577,1088.48397880001,0.05981329997302964,None,1.7818523000460118,,,,,,,,,24,001,2019_Dec_25_1235,untitled,3.1.0,60.18241288119368,
_,_2,M,0,_,_,__2M000__,N,0,281,281,24,,,0.745,1089.2812168999808,1089.6161790000042,1089.6327244999702,1089.9159804999945,1089.9326196999755,None,down,1089.9326196999755,None,1089.9326196999755,1090.6654405000154,0.07308309996733442,None,2.34968340001069,,,,,,,,,24,001,2019_Dec_25_1235,untitled,3.1.0,60.18241288119368,
016,R,M,315,R,N,016RM315RN,HRN,0,282,282,103,,,0.9510000000000001,1092.362787299964,1092.696660699963,1092.7136150000151,1092.9970383999753,1093.0132198999636,None,down,1093.0132198999636,None,1093.0132198999636,1093.9464687000145,0.07215280004311353,None,3.082411299983505,,,,,,,,,24,001,2019_Dec_25_1235,untitled,3.1.0,60.18241288119368,
035,R,N,90,L,N,035RN090LN,HLN,0,283,283,202,,,0.8190000000000001,1096.1910700000008,1096.510031200014,1096.5281662999769,1096.8098001999897,1096.8268469999894,None,up,1096.8268469999894,None,1096.8268469999894,1097.625879900006,0.08394799998495728,None,2.6662536000367254,,,,,,,,,24,001,2019_Dec_25_1235,untitled,3.1.0,60.18241288119368,
461,_5,M,180,R,N,461_5M180RN,HRN,0,284,284,180,,,1.065,1099.5768759999773,1099.9072415999835,1099.9240550000104,1100.2080586999655,1100.2232253999682,None,down,1100.2232253999682,None,1100.2232253999682,1101.2730238999939,0.0761087000137195,None,3.033497199998237,,,,,,,,,24,001,2019_Dec_25_1235,untitled,3.1.0,60.18241288119368,
388,_4,N,135,R,N,388_4N135RN,HRN,0,285,285,259,,,0.9540000000000001,1103.3253998999717,1103.6704638999654,1103.6873190999613,1103.9702214999706,1103.986657099973,None,down,1103.986657099973,None,1103.986657099973,1104.9195693999645,0.061665100045502186,None,2.784811499994248,,,,,,,,,24,001,2019_Dec_25_1235,untitled,3.1.0,60.18241288119368,
261,_2,N,180,R,N,261_2N180RN,HRN,0,286,286,244,,,0.933,1106.856232399994,1107.1849076999933,1107.2009174000123,1107.4839929000009,1107.500972000009,None,up,1107.500972000009,None,1107.500972000009,1108.4166984999902,0.0757302000420168,None,3.030751899990719,,,,,,,,,24,001,2019_Dec_25_1235,untitled,3.1.0,60.18241288119368,
418,_4,N,45,L,N,418_4N045LN,HLN,0,287,287,265,,,1.131,1110.599526099977,1110.947434599977,1110.9653502000147,1111.248150600004,1111.2643892999622,None,up,1111.2643892999622,None,1111.2643892999622,1112.3800948999706,0.06065050000324845,None,2.134939100011252,,,,,,,,,24,001,2019_Dec_25_1235,untitled,3.1.0,60.18241288119368,
,,,,,,,,,,,,,,,,,,,,,,,,,,,,,1113.4121107999817,None,1136.8750669999863,None,1142.2203813999658,None,1145.5510608999757,None,,,,,,,
