Number,Letter,type,Orientation,human,face_type,image,picture,trials.thisRepN,trials.thisTrialN,trials.thisN,trials.thisIndex,text.started,text.stopped,stimulus_duration,CROSS.started,CROSS.stopped,BLANK.started,BLANK.stopped,TEST.started,TEST.stopped,key_JUDGE.keys,key_JUDGE.rt,key_JUDGE.started,key_JUDGE.stopped,image_2.started,image_2.stopped,ISI.started,ISI.stopped,q1.started,q1.stopped,q2.started,q2.stopped,q3.started,q3.stopped,text_2.started,text_2.stopped,participant,session,date,expName,psychopyVersion,frameRate,
042,R,M,45,L,N,042RM045LN,HLN,0,0,0,105,15.023873400001321,None,1.042,63.715009499981534,63.9491330999881,63.9491330999881,64.19819309999002,64.21485200000461,None,down,2.4181162000168115,64.21485200000461,None,64.21485200000461,65.24713109998265,0.1610889000003226,None,,,,,,,,,25,001,2019_Dec_25_1139,untitled,3.1.0,59.91837917622173,
_,_5,N,315,_,_,__5N315__,N,0,1,1,95,,,0.998,66.74010299996007,67.07916449999902,67.09578839997994,67.37895079998998,67.39593669999158,None,None,,67.39593669999158,None,67.39593669999158,68.37758420000318,0.06517300003906712,None,,,,,,,,,25,001,2019_Dec_25_1139,untitled,3.1.0,59.91837917622173,
_,F,N,225,_,_,_FN225__,N,0,2,2,53,,,1.035,70.94282719999319,71.27519669994945,71.29180349997478,71.57517199998256,71.5917057999759,70.94282719999319,up,2.434145200008061,71.5917057999759,None,71.5917057999759,72.60729759995593,0.07631870004115626,None,,,,,,,,,25,001,2019_Dec_25_1139,untitled,3.1.0,59.91837917622173,
037,R,N,180,L,N,037RN180LN,HLN,0,3,3,204,,,1.377,74.09812509996118,74.43903619999764,74.45593019999797,74.73922769998899,74.75586949998979,None,up,3.3984228000044823,74.75586949998979,None,74.75586949998979,76.12778389995219,0.065535000001546,None,,,,,,,,,25,001,2019_Dec_25_1139,untitled,3.1.0,59.91837917622173,
_,_2,N,45,_,_,__2N045__,N,0,4,4,73,,,0.988,78.25745139998617,78.56917649996467,78.58549669996137,78.86896189994877,78.88546679995488,None,up,2.317362800007686,78.88546679995488,None,78.88546679995488,79.85113289998844,0.09327410004334524,None,,,,,,,,,25,001,2019_Dec_25_1139,untitled,3.1.0,59.91837917622173,
302,_2,M,225,L,N,302_2M225LN,HLN,0,5,5,157,,,0.797,81.27556799998274,81.61645679996582,81.63312119996408,81.91610390000278,81.93267389998073,None,up,2.5812038999865763,81.93267389998073,None,81.93267389998073,82.71578209998552,0.06483769998885691,None,,,,,,,,,25,001,2019_Dec_25_1139,untitled,3.1.0,59.91837917622173,
_,_2,M,45,_,_,__2M045__,N,0,6,6,25,,,1.052,84.58347219997086,84.93028149998281,84.94678719999501,85.23065719997976,85.24648329999764,None,down,3.214812599995639,85.24648329999764,None,85.24648329999764,86.27906679996522,0.062459299981128424,None,,,,,,,,,25,001,2019_Dec_25_1139,untitled,3.1.0,59.91837917622173,
271,_2,M,270,R,N,271_2M270RN,HRN,0,7,7,150,,,1.2770000000000001,88.54057789995568,88.8767750999541,88.89307659998303,89.17690729995957,89.1928775999695,None,down,3.197766999946907,89.1928775999695,None,89.1928775999695,90.45897529996,0.0716526000178419,None,,,,,,,,,25,001,2019_Dec_25_1139,untitled,3.1.0,59.91837917622173,
_,_4,M,270,_,_,__4M270__,N,0,8,8,38,,,1.0030000000000001,92.46052849997068,92.80639749998227,92.82314860000042,93.10629389999667,93.12473759998102,None,down,2.480309100006707,93.12473759998102,None,93.12473759998102,94.10512069996912,0.06204230000730604,None,,,,,,,,,25,001,2019_Dec_25_1139,untitled,3.1.0,59.91837917622173,
034,R,N,45,L,N,034RN045LN,HLN,0,9,9,201,,,1.096,95.67490379995434,96.02090619999217,96.03739779995522,96.32007049996173,96.33668939996278,None,up,2.2984242999809794,96.33668939996278,None,96.33668939996278,97.41927959996974,0.06284430000232533,None,,,,,,,,,25,001,2019_Dec_25_1139,untitled,3.1.0,59.91837917622173,
_,F,M,225,_,_,_FM225__,N,0,10,10,5,,,1.223,98.70303229999263,99.05102329998044,99.0684180999524,99.3510514999507,99.36749159998726,None,down,2.7986959000118077,99.36749159998726,None,99.36749159998726,100.56636239995714,0.060842800012324005,None,,,,,,,,,25,001,2019_Dec_25_1139,untitled,3.1.0,59.91837917622173,
010,R,M,45,R,N,010RM045RN,HRN,0,11,11,97,,,0.73,102.25205199996708,102.58138649998,102.5977625999949,102.88094899995485,102.89751839998644,None,down,1.9496980999829248,102.89751839998644,None,102.89751839998644,103.61346869997215,0.07829159998800606,None,,,,,,,,,25,001,2019_Dec_25_1139,untitled,3.1.0,59.91837917622173,
298,_2,M,45,L,N,298_2M045LN,HLN,0,12,12,153,,,0.767,104.9369652000023,105.26251879998017,105.27916149998782,105.5628577999887,105.57901180000044,None,None,,105.57901180000044,None,105.57901180000044,106.32848450000165,0.08146650000708178,None,,,,,,,,,25,001,2019_Dec_25_1139,untitled,3.1.0,59.91837917622173,
299,_2,M,90,L,N,299_2M090LN,HLN,0,13,13,154,,,1.076,109.1423739999882,109.45977359998506,109.47603499999968,109.75886349997018,109.77705659996718,109.1423739999882,down,2.829224699991755,109.77705659996718,None,109.77705659996718,110.84062839997932,0.09167549997800961,None,,,,,,,,,25,001,2019_Dec_25_1139,untitled,3.1.0,59.91837917622173,
262,_2,N,225,R,N,262_2N225RN,HRN,0,14,14,245,,,1.28,112.67605979996733,113.02245719998609,113.03916529996786,113.32230559998425,113.3388297999627,None,up,3.0492997000110336,113.3388297999627,None,113.3388297999627,114.60438729997259,0.06275530002312735,None,,,,,,,,,25,001,2019_Dec_25_1139,untitled,3.1.0,59.91837917622173,
_,_4,N,90,_,_,__4N090__,N,0,15,15,82,,,1.068,116.46781259996351,116.80229799996596,116.81921299995156,117.10184429999208,117.11839699995471,None,down,2.615079900017008,117.11839699995471,None,117.11839699995471,118.16759999998612,0.0722228999948129,None,,,,,,,,,25,001,2019_Dec_25_1139,untitled,3.1.0,59.91837917622173,
389,_4,N,180,R,N,389_4N180RN,HRN,0,16,16,260,,,0.911,119.80275239999173,120.14982489997055,120.16620409995085,120.45047819998581,120.466871099954,None,up,3.2801284000161104,120.466871099954,None,120.466871099954,121.36467069998616,0.06260860001202673,None,,,,,,,,,25,001,2019_Dec_25_1139,untitled,3.1.0,59.91837917622173,
038,R,N,225,L,N,038RN225LN,HLN,0,17,17,205,,,1.288,123.83991290000267,124.16387999994913,124.17900349997217,124.46290519996546,124.47912929998711,None,up,3.332420799997635,124.47912929998711,None,124.47912929998711,125.74432349996641,0.08442999998806044,None,,,,,,,,,25,001,2019_Dec_25_1139,untitled,3.1.0,59.91837917622173,
458,_5,M,45,R,N,458_5M045RN,HRN,0,18,18,177,,,1.031,127.88335819996428,128.22561799996765,128.24414490000345,128.52551239996683,128.54213709995383,None,None,,128.54213709995383,None,128.54213709995383,129.55828800000018,0.06510350003372878,None,,,,,,,,,25,001,2019_Dec_25_1139,untitled,3.1.0,59.91837917622173,
_,_2,M,90,_,_,__2M090__,N,0,19,19,26,,,1.326,132.08147579996148,132.42225599999074,132.43870499997865,132.72145219997037,132.7380542999599,132.08147579996148,down,3.100272700015921,132.7380542999599,None,132.7380542999599,134.0535534999799,0.06846710003446788,None,,,,,,,,,25,001,2019_Dec_25_1139,untitled,3.1.0,59.91837917622173,
_,F,N,270,_,_,_FN270__,N,0,20,20,54,,,1.227,135.9080452999915,136.25194679998094,136.2685873999726,136.55177570000524,136.5685083999997,None,up,2.8818421000032686,136.5685083999997,None,136.5685083999997,137.78462099999888,0.06309840001631528,None,,,,,,,,,25,001,2019_Dec_25_1139,untitled,3.1.0,59.91837917622173,
206,G,M,225,R,N,206GM225RN,HRN,0,21,21,133,,,1.131,139.52409449999686,139.86578359996201,139.88206679996802,140.1653278999729,140.18194709997624,None,down,3.1815452000009827,140.18194709997624,None,140.18194709997624,141.29801119997865,0.06627120001940057,None,,,,,,,,,25,001,2019_Dec_25_1139,untitled,3.1.0,59.91837917622173,
161,F,N,0,L,N,161FN000LN,HLN,0,22,22,216,,,0.927,143.43577409995487,143.7788999999757,143.79651809995994,144.0783922999981,144.09594509995077,None,up,2.147815599979367,144.09594509995077,None,144.09594509995077,145.01082709996263,0.06352359999436885,None,,,,,,,,,25,001,2019_Dec_25_1139,untitled,3.1.0,59.91837917622173,
193,G,N,0,R,N,193GN000RN,HRN,0,23,23,224,,,1.041,146.33972249994986,146.65995479997946,146.67660899995826,146.95974169997498,146.97582859999966,None,up,2.1987197999842465,146.97582859999966,None,146.97582859999966,147.99169039999833,0.08747520000906661,None,,,,,,,,,25,001,2019_Dec_25_1139,untitled,3.1.0,59.91837917622173,
_,R,N,90,_,_,_RN090__,N,0,24,24,66,,,1.115,149.25390710000647,149.59027489996515,149.60695609997492,149.8898922999506,149.90656959998887,None,up,2.316056400013622,149.90656959998887,None,149.90656959998887,151.00543679995462,0.07187469996279106,None,,,,,,,,,25,001,2019_Dec_25_1139,untitled,3.1.0,59.91837917622173,
043,R,M,90,L,N,043RM090LN,HLN,0,25,25,106,,,0.962,152.2982834999566,152.63788309996016,152.65439579996746,152.93803259998094,152.95434110000497,None,down,1.7824060000129975,152.95434110000497,None,152.95434110000497,153.9032593999873,0.06769809999968857,None,,,,,,,,,25,001,2019_Dec_25_1139,untitled,3.1.0,59.91837917622173,
234,G,M,45,L,N,234GM045LN,HLN,0,26,26,137,,,1.051,154.8136797999614,155.15341239998816,155.16905379999662,155.45162779995007,155.46907969994936,None,down,2.481135100009851,155.46907969994936,None,155.46907969994936,156.5009300999809,0.06998069997644052,None,,,,,,,,,25,001,2019_Dec_25_1139,untitled,3.1.0,59.91837917622173,
_,_4,M,135,_,_,__4M135__,N,0,27,27,35,,,1.3900000000000001,158.12566769996192,158.41596869996283,158.41596869996283,158.66620959999273,158.68290899996646,None,down,2.933538800047245,158.68290899996646,None,158.68290899996646,160.0478899999871,0.16833580000093207,None,,,,,,,,,25,001,2019_Dec_25_1139,untitled,3.1.0,59.91837917622173,
_,_5,M,180,_,_,__5M180__,N,0,28,28,44,,,1.0090000000000001,161.68591949995607,162.03035630000522,162.0460877000005,162.32908009999665,162.34592619998148,None,down,2.398864999995567,162.34592619998148,None,162.34592619998148,163.34460539999418,0.06270219996804371,None,,,,,,,,,25,001,2019_Dec_25_1139,untitled,3.1.0,59.91837917622173,
_,G,M,0,_,_,_GM000__,N,0,29,29,8,,,1.189,164.82223599997815,165.1598374999594,165.17678809998324,165.46001779998187,165.47643889999017,None,None,,165.47643889999017,None,165.47643889999017,166.64217999996617,0.06985850003547966,None,,,,,,,,,25,001,2019_Dec_25_1139,untitled,3.1.0,59.91837917622173,
175,F,M,270,L,N,175FM270LN,HLN,0,30,30,126,,,0.7010000000000001,169.0479740999872,169.37432299996726,169.389462799998,169.6735882999492,169.68969739996828,169.0479740999872,down,2.5148059999919496,169.68969739996828,None,169.68969739996828,170.37322649999987,0.07900989998597652,None,,,,,,,,,25,001,2019_Dec_25_1139,untitled,3.1.0,59.91837917622173,
202,G,M,45,R,N,202GM045RN,HRN,0,31,31,129,,,0.798,172.27634669997497,172.6211170000024,172.6366555999848,172.9206126999925,172.93640129995765,None,down,2.7011019000201486,172.93640129995765,None,172.93640129995765,173.71944789995905,0.06483009998919442,None,,,,,,,,,25,001,2019_Dec_25_1139,untitled,3.1.0,59.91837917622173,
266,_2,M,45,R,N,266_2M045RN,HRN,0,32,32,145,,,1.068,175.70705129997805,176.05049419996794,176.06720900000073,176.35068089998094,176.3670446999604,None,up,2.9145588999963365,176.3670446999604,None,176.3670446999604,177.41629389999434,0.06243470002664253,None,,,,,,,,,25,001,2019_Dec_25_1139,untitled,3.1.0,59.91837917622173,
_,G,M,315,_,_,_GM315__,N,0,33,33,15,,,1.202,179.45961809996516,179.74814339994919,179.74814339994919,179.9971071999753,180.0136185999727,None,down,3.297597099968698,180.0136185999727,None,180.0136185999727,181.19590639998205,0.16943310003262013,None,,,,,,,,,25,001,2019_Dec_25_1139,untitled,3.1.0,59.91837917622173,
133,F,N,180,R,N,133FN180RN,HRN,0,34,34,212,,,0.804,183.38109849998727,183.72727390000364,183.74422449996928,184.04661409999244,184.08479150000494,None,up,2.959102900000289,184.08479150000494,None,184.08479150000494,184.82723609998357,0.06267679994925857,None,,,,,,,,,25,001,2019_Dec_25_1139,untitled,3.1.0,59.91837917622173,
_,_5,M,315,_,_,__5M315__,N,0,35,35,47,,,0.909,187.12565399997402,187.45775449997745,187.47438239998883,187.75760219997028,187.77491749997716,None,down,2.447293199948035,187.77491749997716,None,187.77491749997716,188.67364989995258,0.07303539995336905,None,,,,,,,,,25,001,2019_Dec_25_1139,untitled,3.1.0,59.91837917622173,
007,R,N,270,R,N,007RN270RN,HRN,0,36,36,198,,,1.2790000000000001,190.3067802999867,190.63796569994884,190.65475039999,190.93806459999178,190.95456569996895,None,up,2.883479100011755,190.95456569996895,None,190.95456569996895,192.21986779995495,0.07611500000348315,None,,,,,,,,,25,001,2019_Dec_25_1139,untitled,3.1.0,59.91837917622173,
394,_4,M,45,R,N,394_4M045RN,HRN,0,37,37,161,,,1.186,193.92044719995465,194.25106199999573,194.26810829999158,194.55100849998416,194.5675924999523,None,down,2.2824822000111453,194.5675924999523,None,194.5675924999523,195.73323719995096,0.07562240003608167,None,,,,,,,,,25,001,2019_Dec_25_1139,untitled,3.1.0,59.91837917622173,
268,_2,M,135,R,N,268_2M135RN,HRN,0,38,38,147,,,0.776,196.93223769997712,197.2657757999841,197.28230149997398,197.56492029997753,197.58180919999722,None,None,,197.58180919999722,None,197.58180919999722,198.34826070000418,0.07426999998278916,None,,,,,,,,,25,001,2019_Dec_25_1139,untitled,3.1.0,59.91837917622173,
_,_4,N,0,_,_,__4N000__,N,0,39,39,80,,,0.838,201.1169993999647,201.46346949995495,201.47969039995223,201.76191359997028,201.7797625999665,201.1169993999647,up,2.03143380000256,201.7797625999665,None,201.7797625999665,202.5940130999661,0.06296030001249164,None,,,,,,,,,25,001,2019_Dec_25_1139,untitled,3.1.0,59.91837917622173,
295,_2,N,270,L,N,295_2N270LN,HLN,0,40,40,254,,,1.166,203.91548389999662,204.22649489995092,204.24257499998203,204.52615109999897,204.542896799976,None,up,2.6994109000079334,204.542896799976,None,204.542896799976,205.69152589997975,0.09409320005215704,None,,,,,,,,,25,001,2019_Dec_25_1139,untitled,3.1.0,59.91837917622173,
291,_2,N,90,L,N,291_2N090LN,HLN,0,41,41,250,,,1.038,207.3190750000067,207.65646839997498,207.67330450000009,207.95657629997004,207.97310239996295,None,up,2.4480581000098027,207.97310239996295,None,207.97310239996295,208.98866139998427,0.0698223999934271,None,,,,,,,,,25,001,2019_Dec_25_1139,untitled,3.1.0,59.91837917622173,
003,R,N,90,R,N,003RN090RN,HRN,0,42,42,194,,,1.2590000000000001,210.5126299999538,210.83700279996265,210.85357649996877,211.13647509994917,211.15344969998114,None,up,2.282078400021419,211.15344969998114,None,211.15344969998114,212.40213069994934,0.08413350000046194,None,,,,,,,,,25,001,2019_Dec_25_1139,untitled,3.1.0,59.91837917622173,
227,G,N,90,L,N,227GN090LN,HLN,0,43,43,234,,,1.035,213.5068929999834,213.85142049996648,213.86793349997606,214.15076519997092,214.1685046000057,None,up,1.9157562000327744,214.1685046000057,None,214.1685046000057,215.18389379995642,0.06421380001120269,None,,,,,,,,,25,001,2019_Dec_25_1139,untitled,3.1.0,59.91837917622173,
260,_2,N,135,R,N,260_2N135RN,HRN,0,44,44,243,,,0.724,216.15557149995584,216.49912259995472,216.51546179997968,216.7989450999885,216.8147058999748,None,up,1.8354397999937646,216.8147058999748,None,216.8147058999748,217.5144746999722,0.06491439999081194,None,,,,,,,,,25,001,2019_Dec_25_1139,untitled,3.1.0,59.91837917622173,
400,_4,M,315,R,N,400_4M315RN,HRN,0,45,45,167,,,0.788,218.74288179998985,219.0634194999584,219.07988350000232,219.36324689997127,219.38054129999364,None,up,2.3641423000372015,219.38054129999364,None,219.38054129999364,220.14559209998697,0.08490349998464808,None,,,,,,,,,25,001,2019_Dec_25_1139,untitled,3.1.0,59.91837917622173,
236,G,M,135,L,N,236GM135LN,HLN,0,46,46,139,,,1.307,221.91913529997692,222.21058759995503,222.21058759995503,222.46130480000284,222.4783719999832,None,down,2.9631297000451013,222.4783719999832,None,222.4783719999832,223.75880059995688,0.16487470001447946,None,,,,,,,,,25,001,2019_Dec_25_1139,untitled,3.1.0,59.91837917622173,
_,G,N,315,_,_,_GN315__,N,0,47,47,63,,,0.881,225.527838399983,225.85717929998646,225.87391859997297,226.15693759999704,226.17332169995643,None,up,2.28211959998589,226.17332169995643,None,226.17332169995643,227.0393827999942,0.07900450000306591,None,,,,,,,,,25,001,2019_Dec_25_1139,untitled,3.1.0,59.91837917622173,
264,_2,N,315,R,N,264_2N315RN,HRN,0,48,48,247,,,0.905,228.52833770000143,228.87120039999718,228.88887119997526,229.17068569996627,229.18784909998067,None,up,2.5319701000116765,229.18784909998067,None,229.18784909998067,230.06978089996846,0.06566630001179874,None,,,,,,,,,25,001,2019_Dec_25_1139,untitled,3.1.0,59.91837917622173,
_,F,N,180,_,_,_FN180__,N,0,49,49,52,,,0.862,231.79437119996874,232.1350964999874,232.15163779997965,232.43482279998716,232.45205159997568,None,up,2.7474646999617107,232.45205159997568,None,232.45205159997568,233.3008476999821,0.06597440002951771,None,,,,,,,,,25,001,2019_Dec_25_1139,untitled,3.1.0,59.91837917622173,
486,_5,N,225,L,N,486_5N225LN,HLN,0,50,50,285,,,1.002,235.27501199999824,235.61581849999493,235.63256429997273,235.91517100000056,235.93165829998907,None,up,2.4505368000245653,235.93165829998907,None,235.93165829998907,236.91423729999224,0.06822279997868463,None,,,,,,,,,25,001,2019_Dec_25_1139,untitled,3.1.0,59.91837917622173,
015,R,M,270,R,N,015RM270RN,HRN,0,51,51,102,,,1.357,238.45201409998117,238.79614940000465,238.81307390000438,239.09610450000037,239.1125092000002,None,down,2.2486762999906205,239.1125092000002,None,239.1125092000002,240.4615141999675,0.06275690003531054,None,,,,,,,,,25,001,2019_Dec_25_1139,untitled,3.1.0,59.91837917622173,
296,_2,N,315,L,N,296_2N315LN,HLN,0,52,52,255,,,1.04,241.44651049998356,241.77662429999327,241.79302339995047,242.0764135000063,242.09312139998656,None,up,2.6505733000230975,242.09312139998656,None,242.09312139998656,243.10873399995035,0.07752520003123209,None,,,,,,,,,25,001,2019_Dec_25_1139,untitled,3.1.0,59.91837917622173,
169,F,M,0,L,N,169FM000LN,HLN,0,53,53,120,,,0.969,244.81491219997406,245.1569161999505,245.17458829999669,245.45714339998085,245.47490359999938,None,down,1.964815799961798,245.47490359999938,None,245.47490359999938,246.42236229998525,0.06420799996703863,None,,,,,,,,,25,001,2019_Dec_25_1139,untitled,3.1.0,59.91837917622173,
229,G,N,180,L,N,229GN180LN,HLN,0,54,54,236,,,1.067,247.52417859999696,247.85524219996296,247.87419010000303,248.154808399966,248.17189529997995,None,up,2.9493409999995492,248.17189529997995,None,248.17189529997995,249.22014549997402,0.0743873999454081,None,,,,,,,,,25,001,2019_Dec_25_1139,untitled,3.1.0,59.91837917622173,
047,R,M,270,L,N,047RM270LN,HLN,0,55,55,110,,,0.975,251.19166929996572,251.53502939996542,251.55171069997596,251.8348176999716,251.85753799998201,None,down,2.513555300014559,251.85753799998201,None,251.85753799998201,252.81782729999395,0.06401140004163608,None,,,,,,,,,25,001,2019_Dec_25_1139,untitled,3.1.0,59.91837917622173,
208,G,M,315,R,N,208GM315RN,HRN,0,56,56,135,,,0.75,254.49146499997005,254.7822162999655,254.79876879998483,255.08197749999817,255.09867699997267,None,down,1.9982052000123076,255.09867699997267,None,255.09867699997267,255.83102489996236,0.11062750004930422,None,,,,,,,,,25,001,2019_Dec_25_1139,untitled,3.1.0,59.91837917622173,
_,F,M,180,_,_,_FM180__,N,0,57,57,4,,,0.9400000000000001,257.1764934999519,257.5127208000049,257.5300056999549,257.8124727999675,257.82907229999546,None,down,3.3497547999722883,257.82907229999546,None,257.82907229999546,258.7450269999681,0.07217800000216812,None,,,,,,,,,25,001,2019_Dec_25_1139,untitled,3.1.0,59.91837917622173,
035,R,N,90,L,N,035RN090LN,HLN,0,58,58,202,,,1.28,261.34793139999965,261.6433868999593,261.6433868999593,261.89270189998206,261.9092372999876,None,up,2.3011075000395067,261.9092372999876,None,261.9092372999876,263.1750221999828,0.16134440002497286,None,,,,,,,,,25,001,2019_Dec_25_1139,untitled,3.1.0,59.91837917622173,
225,G,N,0,L,N,225GN000LN,HLN,0,59,59,232,,,1.154,264.2822121999925,264.62374369997997,264.64103339996655,264.92344919999596,264.9398766999948,None,up,2.1832755000214092,264.9398766999948,None,264.9398766999948,266.0719925999874,0.06546139996498823,None,,,,,,,,,25,001,2019_Dec_25_1139,untitled,3.1.0,59.91837917622173,
_,G,M,135,_,_,_GM135__,N,0,60,60,11,,,1.185,267.2805883999681,267.5712660999852,267.5712660999852,267.83758160000434,267.8537567000021,None,down,2.18290590000106,267.8537567000021,None,267.8537567000021,269.01963169994997,0.14802909997524694,None,,,,,,,,,25,001,2019_Dec_25_1139,untitled,3.1.0,59.91837917622173,
012,R,M,135,R,N,012RM135RN,HRN,0,61,61,99,,,1.2770000000000001,270.1212805999676,270.4517116000061,270.4681360999821,270.7514549999614,270.76807910000207,None,down,2.7652075000223704,270.76807910000207,None,270.76807910000207,272.0352602999774,0.0759832999901846,None,,,,,,,,,25,001,2019_Dec_25_1139,untitled,3.1.0,59.91837917622173,
484,_5,N,135,L,N,484_5N135LN,HLN,0,62,62,283,,,0.894,273.61851099994965,273.9484805999673,273.9650277000037,274.24816009995993,274.26505769998766,None,up,2.398887899995316,274.26505769998766,None,274.26505769998766,275.1480511999689,0.0775160999619402,None,,,,,,,,,25,001,2019_Dec_25_1139,untitled,3.1.0,59.91837917622173,
395,_4,M,90,R,N,395_4M090RN,HRN,0,63,63,162,,,0.9490000000000001,276.7538808999816,277.08020549995126,277.09627369994996,277.3789586999919,277.39554919995135,None,down,2.0172458000015467,277.39554919995135,None,277.39554919995135,278.3280289999675,0.08274019998498261,None,,,,,,,,,25,001,2019_Dec_25_1139,untitled,3.1.0,59.91837917622173,
013,R,M,180,R,N,013RM180RN,HRN,0,64,64,100,,,0.725,279.49132269999245,279.8270354999695,279.8438066999661,280.12682799994946,280.1435012999573,None,up,2.215924800024368,280.1435012999573,None,280.1435012999573,280.8594236999634,0.0713365999981761,None,,,,,,,,,25,001,2019_Dec_25_1139,untitled,3.1.0,59.91837917622173,
232,G,N,315,L,N,232GN315LN,HLN,0,65,65,239,,,1.098,282.5462773999898,282.8420533000026,282.8420533000026,283.0744427999598,283.09091549995355,None,down,2.217277199961245,283.09091549995355,None,283.09091549995355,284.1737809999613,0.1754551000194624,None,,,,,,,,,25,001,2019_Dec_25_1139,untitled,3.1.0,59.91837917622173,
_,_5,M,0,_,_,__5M000__,N,0,66,66,40,,,1.1360000000000001,285.3826631999691,285.7219913000008,285.7386380999815,286.0223236999591,286.03867819998413,None,up,3.3971990999998525,286.03867819998413,None,286.03867819998413,287.15352619998157,0.06714360002661124,None,,,,,,,,,25,001,2019_Dec_25_1139,untitled,3.1.0,59.91837917622173,
_,R,M,315,_,_,_RM315__,N,0,67,67,23,,,1.3840000000000001,289.5185653999797,289.85138720000396,289.86816869996255,290.15136769996025,290.1680459000054,None,down,2.488858600030653,290.1680459000054,None,290.1680459000054,291.533066199976,0.07469480001600459,None,,,,,,,,,25,001,2019_Dec_25_1139,untitled,3.1.0,59.91837917622173,
230,G,N,225,L,N,230GN225LN,HLN,0,68,68,237,,,1.3940000000000001,292.73759449995123,293.06562039995333,293.0823118999833,293.3656695999671,293.38240050000604,None,up,3.3682282000081614,293.38240050000604,None,293.38240050000604,294.7642912999727,0.07389190001413226,None,,,,,,,,,25,001,2019_Dec_25_1139,untitled,3.1.0,59.91837917622173,
237,G,M,180,L,N,237GM180LN,HLN,0,69,69,140,,,1.191,296.84953680000035,297.1617850000039,297.17967879999196,297.4621014999575,297.47852869995404,None,up,3.2165195000125095,297.47852869995404,None,297.47852869995404,298.6603998999926,0.08722079999279231,None,,,,,,,,,25,001,2019_Dec_25_1139,untitled,3.1.0,59.91837917622173,
430,_4,M,225,L,N,430_4M225LN,HLN,0,70,70,173,,,1.294,300.7719942999538,301.10853139997926,301.1253205999965,301.40830849995837,301.4250159999938,None,up,2.981195400003344,301.4250159999938,None,301.4250159999938,302.70700239995494,0.06963629997335374,None,,,,,,,,,25,001,2019_Dec_25_1139,untitled,3.1.0,59.91837917622173,
481,_5,N,0,L,N,481_5N000LN,HLN,0,71,71,280,,,1.395,304.85431679995963,304.85431679995963,304.85431679995963,305.15479109995067,305.15479109995067,None,up,2.7827581000165083,305.15479109995067,None,305.15479109995067,306.52065429999493,0.43964220001362264,None,,,,,,,,,25,001,2019_Dec_25_1139,untitled,3.1.0,59.91837917622173,
197,G,N,180,R,N,197GN180RN,HRN,0,72,72,228,,,0.91,308.1231049000053,308.41864339995664,308.41864339995664,308.65186270000413,308.66901389998384,None,up,2.0151811000541784,308.66901389998384,None,308.66901389998384,309.5676830000011,0.17600279999896884,None,,,,,,,,,25,001,2019_Dec_25_1139,untitled,3.1.0,59.91837917622173,
_,F,M,90,_,_,_FM090__,N,0,73,73,2,,,1.369,310.86463989998447,311.150149299996,311.150149299996,311.39962459995877,311.41759789997013,None,down,2.4316345999832265,311.41759789997013,None,311.41759789997013,312.76472219999414,0.17074929998489097,None,,,,,,,,,25,001,2019_Dec_25_1139,untitled,3.1.0,59.91837917622173,
495,_5,M,270,L,N,495_5M270LN,HLN,0,74,74,190,,,0.872,313.9280970999971,314.26455679995706,314.28017609997187,314.5634114999557,314.57998899999075,None,down,2.165001299988944,314.57998899999075,None,314.57998899999075,315.4293484999798,0.07043889997294173,None,,,,,,,,,25,001,2019_Dec_25_1139,untitled,3.1.0,59.91837917622173,
_,R,M,45,_,_,_RM045__,N,0,75,75,17,,,1.157,316.81493419996696,317.1612622999819,317.1778734999825,317.461172899988,317.4778010000009,None,down,2.098193700017873,317.4778010000009,None,317.4778010000009,318.6101078999927,0.06311669998103753,None,,,,,,,,,25,001,2019_Dec_25_1139,untitled,3.1.0,59.91837917622173,
001,R,N,0,R,N,001RN000RN,HRN,0,76,76,192,,,0.766,319.6576481999946,319.9919020999805,320.00824549997924,320.2913211999694,320.3080252999789,None,up,1.5019559999927878,320.3080252999789,None,320.3080252999789,321.0575826999848,0.07395120000001043,None,,,,,,,,,25,001,2019_Dec_25_1139,untitled,3.1.0,59.91837917622173,
269,_2,M,180,R,N,269_2M180RN,HRN,0,77,77,148,,,0.858,321.9090918999864,322.2234302999568,322.23992219998036,322.52308209997136,322.53990039997734,None,up,2.9684916000114754,322.53990039997734,None,322.53990039997734,323.3892849999829,0.09186230000341311,None,,,,,,,,,25,001,2019_Dec_25_1139,untitled,3.1.0,59.91837917622173,
431,_4,M,270,L,N,431_4M270LN,HLN,0,78,78,174,,,1.198,325.6166138999979,325.92063919996144,325.93673819996184,326.21950899995863,326.2372858999879,None,down,2.932159500021953,326.2372858999879,None,326.2372858999879,327.4190498999669,0.09682540001813322,None,,,,,,,,,25,001,2019_Dec_25_1139,untitled,3.1.0,59.91837917622173,
_,_2,N,225,_,_,__2N225__,N,0,79,79,77,,,1.071,329.33668399997987,329.6341606999631,329.6341606999631,329.88387369998964,329.9010404999717,None,up,2.680190700048115,329.9010404999717,None,329.9010404999717,330.94991299998946,0.15859240002464503,None,,,,,,,,,25,001,2019_Dec_25_1139,untitled,3.1.0,59.91837917622173,
_,R,M,90,_,_,_RM090__,N,0,80,80,18,,,1.373,332.65253219997976,332.99700449995,333.0143990999786,333.2972187999985,333.31352729996433,None,down,2.2986536999815144,333.31352729996433,None,333.31352729996433,334.6622642999864,0.06431460002204403,None,,,,,,,,,25,001,2019_Dec_25_1139,untitled,3.1.0,59.91837917622173,
424,_4,N,315,L,N,424_4N315LN,HLN,0,81,81,271,,,1.175,335.69453049998265,336.0280101999524,336.04427829995984,336.3275635999744,336.34440079994965,None,up,2.1819724999950267,336.34440079994965,None,336.34440079994965,337.49301529995864,0.07435829995665699,None,,,,,,,,,25,001,2019_Dec_25_1139,untitled,3.1.0,59.91837917622173,
392,_4,N,315,R,N,392_4N315RN,HRN,0,82,82,263,,,1.068,338.6081040999852,338.9422869999544,338.95867199997883,339.24266729998635,339.2587642999715,None,up,2.0994365999940783,339.2587642999715,None,339.2587642999715,340.3074123999686,0.07389729999704286,None,,,,,,,,,25,001,2019_Dec_25_1139,untitled,3.1.0,59.91837917622173,
259,_2,N,90,R,N,259_2N090RN,HRN,0,83,83,242,,,0.8300000000000001,341.4304488999769,341.77332279999973,341.78989630000433,342.07287169998745,342.08970229997067,None,up,1.548924500006251,342.08970229997067,None,342.08970229997067,342.90634149999823,0.06541490001836792,None,,,,,,,,,25,001,2019_Dec_25_1139,untitled,3.1.0,59.91837917622173,
_,_4,N,135,_,_,__4N135__,N,0,84,84,83,,,0.843,343.708668999956,344.05454219999956,344.07113559998106,344.3547142999596,344.37195459997747,None,up,1.4832544000237249,344.37195459997747,None,344.37195459997747,345.2030012999894,0.06355360004818067,None,,,,,,,,,25,001,2019_Dec_25_1139,untitled,3.1.0,59.91837917622173,
483,_5,N,90,L,N,483_5N090LN,HLN,0,85,85,282,,,0.8280000000000001,345.92839789995924,346.2691242999863,346.28556930000195,346.5693246999872,346.58632750000106,None,up,1.5503055999870412,346.58632750000106,None,346.58632750000106,347.4017996999901,0.06593089998932555,None,,,,,,,,,25,001,2019_Dec_25_1139,untitled,3.1.0,59.91837917622173,
176,F,M,315,L,N,176FM315LN,HLN,0,86,86,127,,,1.345,348.21130530000664,348.55024809995666,348.566767399956,348.85049539996544,348.86718189995736,None,down,2.7648175999638624,348.86718189995736,None,348.86718189995736,350.1986781999585,0.0673452999908477,None,,,,,,,,,25,001,2019_Dec_25_1139,untitled,3.1.0,59.91837917622173,
040,R,N,315,L,N,040RN315LN,HLN,0,87,87,207,,,1.163,351.80521049996605,352.09724109998206,352.09724109998206,352.34711799997604,352.36440530000255,None,up,2.082480499986559,352.36440530000255,None,352.36440530000255,353.512125499954,0.16492680000374094,None,,,,,,,,,25,001,2019_Dec_25_1139,untitled,3.1.0,59.91837917622173,
141,F,M,180,R,N,141FM180RN,HRN,0,88,88,116,,,0.925,354.5535084999865,354.86144849995617,354.8782322999905,355.1618317999528,355.1787801999599,None,None,,355.1787801999599,None,355.1787801999599,356.0942581999698,0.0966488000121899,None,,,,,,,,,25,001,2019_Dec_25_1139,untitled,3.1.0,59.91837917622173,
293,_2,N,180,L,N,293_2N180LN,HLN,0,89,89,252,,,1.053,358.8398879999877,359.14211179997073,359.14211179997073,359.3578502999735,359.37422569998307,358.8398879999877,up,2.3484347999910824,359.37422569998307,None,359.37422569998307,360.4070524999988,0.18930829997407272,None,,,,,,,,,25,001,2019_Dec_25_1139,untitled,3.1.0,59.91837917622173,
_,_4,N,45,_,_,__4N045__,N,0,90,90,81,,,1.313,361.7946501999977,362.13851259998046,362.15605059999507,362.438474399969,362.45490439998684,None,up,1.9650753000169061,362.45490439998684,None,362.45490439998684,363.7537638999638,0.06313649995718151,None,,,,,,,,,25,001,2019_Dec_25_1139,untitled,3.1.0,59.91837917622173,
_,_2,N,0,_,_,__2N000__,N,0,91,91,72,,,1.151,364.5879114999552,364.88594399997965,364.88594399997965,365.13563269999577,365.1524402999785,None,up,2.0488680000416934,365.1524402999785,None,365.1524402999785,366.28464949998306,0.15972659998806193,None,,,,,,,,,25,001,2019_Dec_25_1139,untitled,3.1.0,59.91837917622173,
137,F,M,0,R,N,137FM000RN,HRN,0,92,92,112,,,1.175,367.28611629997613,367.61703079997096,367.63381049997406,367.9169267999823,367.93373069999507,None,down,2.3979293000302278,367.93373069999507,None,367.93373069999507,369.08250610000687,0.07737630000337958,None,,,,,,,,,25,001,2019_Dec_25_1139,untitled,3.1.0,59.91837917622173,
292,_2,N,135,L,N,292_2N135LN,HLN,0,93,93,251,,,0.926,370.42694459995255,370.7478406999726,370.7647493999684,371.0472464999766,371.0641689999611,None,up,2.9003721000044607,371.0641689999611,None,371.0641689999611,371.9630380999879,0.08853620005538687,None,,,,,,,,,25,001,2019_Dec_25_1139,untitled,3.1.0,59.91837917622173,
289,_2,N,0,L,N,289_2N000LN,HLN,0,94,94,248,,,1.099,374.1455141999759,374.4446032999549,374.4446032999549,374.67791529995156,374.6941536999657,None,up,1.682366400025785,374.6941536999657,None,374.6941536999657,375.77698859997327,0.17374980001477525,None,,,,,,,,,25,001,2019_Dec_25_1139,untitled,3.1.0,59.91837917622173,
165,F,N,180,L,N,165FN180LN,HLN,0,95,95,220,,,1.348,376.47370109998155,376.79258049995406,376.8092162999674,377.09199179999996,377.1097732000053,None,up,2.4655455999891274,377.1097732000053,None,377.1097732000053,378.4415024999762,0.09021900000516325,None,,,,,,,,,25,001,2019_Dec_25_1139,untitled,3.1.0,59.91837917622173,
164,F,N,135,L,N,164FN135LN,HLN,0,96,96,219,,,1.143,379.73999339999864,380.0395636999747,380.0395636999747,380.29007679998176,380.3065460999496,None,up,1.8651542000006884,380.3065460999496,None,380.3065460999496,381.43805789999897,0.1556653999723494,None,,,,,,,,,25,001,2019_Dec_25_1139,untitled,3.1.0,59.91837917622173,
_,G,N,135,_,_,_GN135__,N,0,97,97,59,,,0.8190000000000001,382.34793419996276,382.63727049995214,382.63727049995214,382.8868959999527,382.9034158999566,None,up,2.183014300011564,382.9034158999566,None,382.9034158999566,383.7030380999786,0.168008100008592,None,,,,,,,,,25,001,2019_Dec_25_1139,untitled,3.1.0,59.91837917622173,
_,_4,M,45,_,_,__4M045__,N,0,98,98,33,,,1.237,385.1662525999709,385.50137699994957,385.51784419995965,385.802225499996,385.81754789996194,None,down,2.1338918000110425,385.81754789996194,None,385.81754789996194,387.0332303000032,0.0726583999930881,None,,,,,,,,,25,001,2019_Dec_25_1139,untitled,3.1.0,59.91837917622173,
457,_5,M,0,R,N,457_5M000RN,HRN,0,99,99,176,,,0.737,388.1625395999872,388.45064860000275,388.45064860000275,388.6659395999741,388.68300059996545,None,down,2.147695299994666,388.68300059996545,None,388.68300059996545,389.4146774999681,0.19574589998228475,None,,,,,,,,,25,001,2019_Dec_25_1139,untitled,3.1.0,59.91837917622173,
423,_4,N,270,L,N,423_4N270LN,HLN,0,100,100,270,,,1.016,390.9017111999565,391.2466437999974,391.26379539998015,391.54642159998184,391.5628055999987,None,up,2.7668888000189327,391.5628055999987,None,391.5628055999987,392.56225479999557,0.06423209997592494,None,,,,,,,,,25,001,2019_Dec_25_1139,untitled,3.1.0,59.91837917622173,
463,_5,M,270,R,N,463_5M270RN,HRN,0,101,101,182,,,1.165,394.53484509995906,394.8269594999729,394.8269594999729,395.04312829999253,395.059877599997,None,down,2.248869000002742,395.059877599997,None,395.059877599997,396.20899379998446,0.1961373999947682,None,,,,,,,,,25,001,2019_Dec_25_1139,untitled,3.1.0,59.91837917622173,
131,F,N,90,R,N,131FN090RN,HRN,0,102,102,210,,,1.361,397.39187269995455,397.7242215999868,397.740758800006,398.0237945999834,398.0403278999729,None,down,3.14980250003282,398.0403278999729,None,398.0403278999729,399.389245999977,0.07577170000877231,None,,,,,,,,,25,001,2019_Dec_25_1139,untitled,3.1.0,59.91837917622173,
396,_4,M,135,R,N,396_4M135RN,HRN,0,103,103,163,,,1.302,401.2662362999981,401.6043312999536,401.6210184999509,401.9043146999902,401.9208762999624,None,up,2.3160037000197917,401.9208762999624,None,401.9208762999624,403.203008099983,0.0689342999830842,None,,,,,,,,,25,001,2019_Dec_25_1139,untitled,3.1.0,59.91837917622173,
198,G,N,225,R,N,198GN225RN,HRN,0,104,104,229,,,1.053,404.32741849997547,404.65157469996484,404.6687352999579,404.95293759997,404.96815759997116,None,up,2.5812049999949522,404.96815759997116,None,404.96815759997116,406.0002225000062,0.07938810001360252,None,,,,,,,,,25,001,2019_Dec_25_1139,untitled,3.1.0,59.91837917622173,
388,_4,N,135,R,N,388_4N135RN,HRN,0,105,105,259,,,0.744,407.62129439995624,407.96536989999004,407.9823072999716,408.2648580999812,408.2817806999665,None,up,1.6343960000085644,408.2817806999665,None,408.2817806999665,409.01438710000366,0.06476170005043969,None,,,,,,,,,25,001,2019_Dec_25_1139,untitled,3.1.0,59.91837917622173,
036,R,N,135,L,N,036RN135LN,HLN,0,106,106,203,,,1.048,410.07864179997705,410.3652870999649,410.3652870999649,410.62981549999677,410.64653339999495,None,up,1.7320330999791622,410.64653339999495,None,410.64653339999495,411.67858339997474,0.15297789999749511,None,,,,,,,,,25,001,2019_Dec_25_1139,untitled,3.1.0,59.91837917622173,
_,_4,M,225,_,_,__4M225__,N,0,107,107,37,,,1.281,412.46176869998453,412.7942395999562,412.8110029999516,413.0941690999898,413.1107148999581,None,up,2.3494261000305414,413.1107148999581,None,413.1107148999581,414.37648909998825,0.07499079999979585,None,,,,,,,,,25,001,2019_Dec_25_1139,untitled,3.1.0,59.91837917622173,
420,_4,N,135,L,N,420_4N135LN,HLN,0,108,108,267,,,1.364,415.63034340000013,415.9248466999852,415.9248466999852,416.1757845999673,416.19379229994956,None,up,2.5463943000067957,416.19379229994956,None,416.19379229994956,417.5398525999626,0.16269510000711307,None,,,,,,,,,25,001,2019_Dec_25_1139,untitled,3.1.0,59.91837917622173,
207,G,M,270,R,N,207GM270RN,HRN,0,109,109,134,,,1.01,418.8110658999649,419.15586100000655,419.17178529995726,419.45535459998064,419.47320409998065,None,down,2.3152130999951623,419.47320409998065,None,419.47320409998065,420.47076379996724,0.0635426000226289,None,,,,,,,,,25,001,2019_Dec_25_1139,untitled,3.1.0,59.91837917622173,
204,G,M,135,R,N,204GM135RN,HRN,0,110,110,131,,,0.93,421.8592549999594,422.20332440000493,422.21983600000385,422.5030236999737,422.51965839997865,None,down,2.9638775000348687,422.51965839997865,None,422.51965839997865,423.4357822999591,0.06391169998096302,None,,,,,,,,,25,001,2019_Dec_25_1139,untitled,3.1.0,59.91837917622173,
450,_5,N,45,R,N,450_5N045RN,HRN,0,111,111,273,,,0.796,425.69775679998565,425.98483129998203,425.98483129998203,426.1991980999592,426.21669609996025,None,up,1.7483980000251904,426.21669609996025,None,426.21669609996025,426.9986426999676,0.20628790004411712,None,,,,,,,,,25,001,2019_Dec_25_1139,untitled,3.1.0,59.91837917622173,
263,_2,N,270,R,N,263_2N270RN,HRN,0,112,112,246,,,1.155,428.04349559999537,428.38072989997454,428.39719879999757,428.6803943999694,428.6970022000023,None,up,2.082495899987407,428.6970022000023,None,428.6970022000023,429.8293137999717,0.07103460002690554,None,,,,,,,,,25,001,2019_Dec_25_1139,untitled,3.1.0,59.91837917622173,
454,_5,N,225,R,N,454_5N225RN,HRN,0,113,113,277,,,1.218,430.8680489999824,431.19516929995734,431.2118064999813,431.49465769995004,431.51238739996916,None,up,2.082363500026986,431.51238739996916,None,431.51238739996916,432.7101242999779,0.07925050001358613,None,,,,,,,,,25,001,2019_Dec_25_1139,untitled,3.1.0,59.91837917622173,
459,_5,M,90,R,N,459_5M090RN,HRN,0,114,114,178,,,1.307,433.6690897999797,434.009343099955,434.0263899999554,434.3089709999622,434.3263689999585,None,down,2.3824974999879487,434.3263689999585,None,434.3263689999585,435.60793009999907,0.06654619995970279,None,,,,,,,,,25,001,2019_Dec_25_1139,untitled,3.1.0,59.91837917622173,
_,G,N,0,_,_,_GN000__,N,0,115,115,56,,,1.035,436.8038753999863,437.1234111999511,437.13967199996114,437.42313359997934,437.4394530999707,None,up,2.015537499974016,437.4394530999707,None,437.4394530999707,438.45543319999706,0.08772179996594787,None,,,,,,,,,25,001,2019_Dec_25_1139,untitled,3.1.0,59.91837917622173,
199,G,N,270,R,N,199GN270RN,HRN,0,116,116,230,,,0.897,439.5273012999678,439.872232099995,439.8876925999648,440.171198099968,440.1871304999804,None,up,1.5995649000396952,440.1871304999804,None,440.1871304999804,441.0696107999538,0.0649013000074774,None,,,,,,,,,25,001,2019_Dec_25_1139,untitled,3.1.0,59.91837917622173,
451,_5,N,90,R,N,451_5N090RN,HRN,0,117,117,274,,,0.907,441.86230909998994,442.2019941000035,442.218620700005,442.5014860999654,442.51833299995633,None,up,1.8495791000314057,442.51833299995633,None,442.51833299995633,443.40110199997434,0.06864040001528338,None,,,,,,,,,25,001,2019_Dec_25_1139,untitled,3.1.0,59.91837917622173,
_,R,M,0,_,_,_RM000__,N,0,118,118,16,,,1.174,444.5394318999606,444.83313719998114,444.83313719998114,445.0824360999977,445.099435799988,None,down,2.0165754000190645,445.099435799988,None,445.099435799988,446.24862450000364,0.1640126999700442,None,,,,,,,,,25,001,2019_Dec_25_1139,untitled,3.1.0,59.91837917622173,
014,R,M,225,R,N,014RM225RN,HRN,0,119,119,101,,,0.9430000000000001,447.2165718000033,447.5313697999809,447.54760549997445,447.8306214999757,447.8474768999731,None,up,2.384137299959548,447.8474768999731,None,447.8474768999731,448.78119449998485,0.09246130002429709,None,,,,,,,,,25,001,2019_Dec_25_1139,untitled,3.1.0,59.91837917622173,
_,G,M,225,_,_,_GM225__,N,0,120,120,13,,,1.174,450.417755100003,450.711522699974,450.711522699974,450.94497519999277,450.96148479997646,None,down,2.697850299999118,450.96148479997646,None,450.96148479997646,452.12633259996073,0.1789013000088744,None,,,,,,,,,25,001,2019_Dec_25_1139,untitled,3.1.0,59.91837917622173,
168,F,N,315,L,N,168FN315LN,HLN,0,121,121,223,,,1.239,453.73116249998566,454.075200399966,454.09177939995425,454.3748367999797,454.391685199982,None,down,2.199676799995359,454.391685199982,None,454.391685199982,455.607160799962,0.06468579999636859,None,,,,,,,,,25,001,2019_Dec_25_1139,untitled,3.1.0,59.91837917622173,
226,G,N,45,L,N,226GN045LN,HLN,0,122,122,233,,,1.33,456.76289759995416,457.0563562999596,457.0563562999596,457.3056297999574,457.3224685000023,None,up,2.2650399999693036,457.3224685000023,None,457.3224685000023,458.63770949997706,0.16204339999239892,None,,,,,,,,,25,001,2019_Dec_25_1139,untitled,3.1.0,59.91837917622173,
304,_2,M,315,L,N,304_2M315LN,HLN,0,123,123,159,,,1.323,459.6712648999528,460.0033083999879,460.0195332999574,460.3025819999748,460.3201100999722,None,None,,460.3201100999722,None,460.3201100999722,461.618645199982,0.07629469997482374,None,,,,,,,,,25,001,2019_Dec_25_1139,untitled,3.1.0,59.91837917622173,
046,R,M,225,L,N,046RM225LN,HLN,0,124,124,109,,,1.184,463.9496450999868,464.2493606999633,464.2493606999633,464.49934109998867,464.5166337999981,463.9496450999868,up,2.7646511000348255,464.5166337999981,None,464.5166337999981,465.68253749998985,0.15523959998972714,None,,,,,,,,,25,001,2019_Dec_25_1139,untitled,3.1.0,59.91837917622173,
_,_5,N,135,_,_,__5N135__,N,0,125,125,91,,,0.8250000000000001,467.3514974999707,467.6965079999645,467.7131629999494,467.9969311999739,468.0132143999799,None,up,2.547843299980741,468.0132143999799,None,468.0132143999799,468.8125746999867,0.06277379998937249,None,,,,,,,,,25,001,2019_Dec_25_1139,untitled,3.1.0,59.91837917622173,
_,_5,M,270,_,_,__5M270__,N,0,126,126,46,,,0.76,470.7550244999584,471.0453269999707,471.0453269999707,471.2766272999579,471.2944864999736,None,down,2.3310141999972984,471.2944864999736,None,471.2944864999736,472.0435402999865,0.185981200018432,None,,,,,,,,,25,001,2019_Dec_25_1139,untitled,3.1.0,59.91837917622173,
432,_4,M,315,L,N,432_4M315LN,HLN,0,127,127,175,,,1.217,473.7970408999827,474.09100189997116,474.09100189997116,474.34055409999564,474.35732879996067,None,up,2.151397600013297,474.35732879996067,None,474.35732879996067,475.55610779998824,0.16358159994706511,None,,,,,,,,,25,001,2019_Dec_25_1139,untitled,3.1.0,59.91837917622173,
203,G,M,90,R,N,203GM090RN,HRN,0,128,128,130,,,0.994,476.57803709997097,476.9220298999571,476.9386702000047,477.22172450000653,477.23831139999675,None,down,2.3666403999668546,477.23831139999675,None,477.23831139999675,478.2217980999849,0.06261660001473501,None,,,,,,,,,25,001,2019_Dec_25_1139,untitled,3.1.0,59.91837917622173,
270,_2,M,225,R,N,270_2M225RN,HRN,0,129,129,149,,,1.219,479.6800341999624,480.0197342999745,480.036158999952,480.31918150000274,480.33583880000515,None,up,3.398344499990344,480.33583880000515,None,480.33583880000515,481.5346050999942,0.06804410001495853,None,,,,,,,,,25,001,2019_Dec_25_1139,untitled,3.1.0,59.91837917622173,
456,_5,N,315,R,N,456_5N315RN,HRN,0,130,130,279,,,1.125,483.8042962999898,484.14896439999575,484.16595880000386,484.4495513999718,484.4658930999576,None,up,3.3469760000007227,484.4658930999576,None,484.4658930999576,485.58113929996034,0.06360430002678186,None,,,,,,,,,25,001,2019_Dec_25_1139,untitled,3.1.0,59.91837917622173,
_,R,N,45,_,_,_RN045__,N,0,131,131,65,,,0.965,487.90818069997476,488.2283267999883,488.2457116000005,488.5286094999756,488.5449652999523,None,up,1.616282900038641,488.5449652999523,None,488.5449652999523,489.4939739999827,0.08861470001284033,None,,,,,,,,,25,001,2019_Dec_25_1139,untitled,3.1.0,59.91837917622173,
_,G,N,180,_,_,_GN180__,N,0,132,132,60,,,1.258,490.3382074999972,490.6264990000054,490.6264990000054,490.87612509995233,490.8929363999632,None,up,2.6504560000030324,490.8929363999632,None,490.8929363999632,492.1427462999709,0.16780579998157918,None,,,,,,,,,25,001,2019_Dec_25_1139,untitled,3.1.0,59.91837917622173,
464,_5,M,315,R,N,464_5M315RN,HRN,0,133,133,183,,,0.999,493.6508705999586,493.95729269995354,493.97403359995224,494.256949899951,494.2738728999975,None,down,2.8655285999993794,494.2738728999975,None,494.2738728999975,495.2559209999745,0.09756910003488883,None,,,,,,,,,25,001,2019_Dec_25_1139,untitled,3.1.0,59.91837917622173,
009,R,M,0,R,N,009RM000RN,HRN,0,134,134,96,,,0.961,497.2167266999604,497.5541004999541,497.5708920999896,497.8541852000053,497.8730390999699,None,down,1.7967296999995597,497.8730390999699,None,497.8730390999699,498.81975889997557,0.07061609998345375,None,,,,,,,,,25,001,2019_Dec_25_1139,untitled,3.1.0,59.91837917622173,
240,G,M,315,L,N,240GM315LN,HLN,0,135,135,143,,,0.859,499.85064129997045,500.1520673999912,500.1520673999912,500.38641639996786,500.38641639996786,None,down,2.1304749000119045,500.38641639996786,None,500.38641639996786,501.2342711999663,0.17355199996381998,None,,,,,,,,,25,001,2019_Dec_25_1139,untitled,3.1.0,59.91837917622173,
171,F,M,90,L,N,171FM090LN,HLN,0,136,136,122,,,0.9570000000000001,502.5916550999973,502.93215039995266,502.9487951999763,503.2326178999501,503.2507626999868,None,down,2.1633398000267334,503.2507626999868,None,503.2507626999868,504.1808695999789,0.06727540004067123,None,,,,,,,,,25,001,2019_Dec_25_1139,untitled,3.1.0,59.91837917622173,
_,_5,M,45,_,_,__5M045__,N,0,137,137,41,,,0.903,505.4999878999661,505.82996209996054,505.8467085000011,506.12964989995817,506.1464206999517,None,None,,506.1464206999517,None,506.1464206999517,507.0287274000002,0.07850780000444502,None,,,,,,,,,25,001,2019_Dec_25_1139,untitled,3.1.0,59.91837917622173,
258,_2,N,45,R,N,258_2N045RN,HRN,0,138,138,241,,,0.887,509.6974327999633,510.0274916999624,510.0430536000058,510.3264905999531,510.3428881999571,509.6974327999633,up,1.8681815000018105,510.3428881999571,None,510.3428881999571,511.20866780000506,0.07927500002551824,None,,,,,,,,,25,001,2019_Dec_25_1139,untitled,3.1.0,59.91837917622173,
_,G,M,90,_,_,_GM090__,N,0,139,139,10,,,0.846,512.3777504999889,512.6741775999544,512.6741775999544,512.9239515999798,512.9400318999542,None,down,1.9359625999932177,512.9400318999542,None,512.9400318999542,513.773012599966,0.15682690002722666,None,,,,,,,,,25,001,2019_Dec_25_1139,untitled,3.1.0,59.91837917622173,
_,R,N,270,_,_,_RN270__,N,0,140,140,70,,,1.2670000000000001,515.0818333000061,515.3734469999908,515.3734469999908,515.5885835999507,515.6062991999788,None,up,2.347444200015161,515.6062991999788,None,515.6062991999788,516.8539758999832,0.1937259000260383,None,,,,,,,,,25,001,2019_Dec_25_1139,untitled,3.1.0,59.91837917622173,
_,_4,N,270,_,_,__4N270__,N,0,141,141,86,,,1.1380000000000001,518.0690472999704,518.3693277999992,518.3871625000029,518.6684373999597,518.6862282999791,None,up,2.731217699998524,518.6862282999791,None,518.6862282999791,519.8014955999679,0.10759689996484667,None,,,,,,,,,25,001,2019_Dec_25_1139,untitled,3.1.0,59.91837917622173,
460,_5,M,135,R,N,460_5M135RN,HRN,0,142,142,179,,,1.314,521.5037282999838,521.8326471999753,521.8492238000035,522.13219199999,522.1488872999907,None,down,2.9152857000008225,522.1488872999907,None,522.1488872999907,523.4479605999659,0.07810309994965792,None,,,,,,,,,25,001,2019_Dec_25_1139,untitled,3.1.0,59.91837917622173,
417,_4,N,0,L,N,417_4N000LN,HLN,0,143,143,264,,,0.9470000000000001,525.1390822999529,525.4791893999791,525.496581799991,525.7804895999725,525.7966316999518,None,up,1.8836088000098243,525.7966316999518,None,525.7966316999518,526.7285155999707,0.06723240000428632,None,,,,,,,,,25,001,2019_Dec_25_1139,untitled,3.1.0,59.91837917622173,
140,F,M,135,R,N,140FM135RN,HRN,0,144,144,115,,,1.039,527.7532787999953,528.0941668999731,528.1107969000004,528.3933168999502,528.4102444999735,None,down,2.3679158999584615,528.4102444999735,None,528.4102444999735,529.4262268999591,0.06618690001778305,None,,,,,,,,,25,001,2019_Dec_25_1139,untitled,3.1.0,59.91837917622173,
452,_5,N,135,R,N,452_5N135RN,HRN,0,145,145,275,,,1.302,530.8698359999689,531.191275899997,531.2082609999925,531.4911797999521,531.5076617999584,None,up,2.831661800039001,531.5076617999584,None,531.5076617999584,532.7896880999906,0.08314960001735017,None,,,,,,,,,25,001,2019_Dec_25_1139,untitled,3.1.0,59.91837917622173,
045,R,M,180,L,N,045RM180LN,HLN,0,146,146,108,,,0.716,534.5189948999905,534.8069047000026,534.8069047000026,535.0546402999898,535.0710577999707,None,up,1.7989857000065967,535.0710577999707,None,535.0710577999707,535.7704182000016,0.17093379999278113,None,,,,,,,,,25,001,2019_Dec_25_1139,untitled,3.1.0,59.91837917622173,
_,F,N,0,_,_,_FN000__,N,0,147,147,48,,,0.983,537.0433612999623,537.335829299991,537.335829299991,537.5856525999843,537.6022870999877,None,up,1.8016496999771334,537.6022870999877,None,537.6022870999877,538.5686089999508,0.1650560999987647,None,,,,,,,,,25,001,2019_Dec_25_1139,untitled,3.1.0,59.91837917622173,
_,F,M,270,_,_,_FM270__,N,0,148,148,6,,,0.9470000000000001,539.4933091999847,539.8171563000069,539.8339506000048,540.1164126999793,540.1329448999604,None,down,2.0178600999643095,540.1329448999604,None,540.1329448999604,541.0658889999613,0.0824010000214912,None,,,,,,,,,25,001,2019_Dec_25_1139,untitled,3.1.0,59.91837917622173,
428,_4,M,135,L,N,428_4M135LN,HLN,0,149,149,171,,,0.997,542.2237463999772,542.564722399984,542.5815573,542.8649190999568,542.881898099964,None,up,2.2140597000252455,542.881898099964,None,542.881898099964,543.8632417999906,0.06589420000091195,None,,,,,,,,,25,001,2019_Dec_25_1139,untitled,3.1.0,59.91837917622173,
_,F,N,315,_,_,_FN315__,N,0,150,150,55,,,1.154,545.2625833000056,545.5622841999866,545.5622841999866,545.8121283999644,545.828724299965,None,up,2.231719500035979,545.828724299965,None,545.828724299965,546.9611814999953,0.15770410001277924,None,,,,,,,,,25,001,2019_Dec_25_1139,untitled,3.1.0,59.91837917622173,
201,G,M,0,R,N,201GM000RN,HRN,0,151,151,128,,,1.0190000000000001,548.1318130999571,548.4761543999775,548.4928963999846,548.7768767999951,548.7926050999667,None,down,1.9661229000193998,548.7926050999667,None,548.7926050999667,549.7917551999562,0.06457489996682853,None,,,,,,,,,25,001,2019_Dec_25_1139,untitled,3.1.0,59.91837917622173,
462,_5,M,225,R,N,462_5M225RN,HRN,0,152,152,181,,,1.315,550.8433944999706,551.1738109999569,551.1901738999877,551.473355199967,551.4901427999721,None,down,2.932304199959617,551.4901427999721,None,551.4901427999721,552.7889803999569,0.07773570000426844,None,,,,,,,,,25,001,2019_Dec_25_1139,untitled,3.1.0,59.91837917622173,
142,F,M,225,R,N,142FM225RN,HRN,0,153,153,117,,,1.299,554.5182632999495,554.837349999987,554.8538147999789,555.1389611999621,555.1549197999993,None,down,2.6497231000103056,555.1549197999993,None,555.1549197999993,556.4364477999625,0.08514549996471033,None,,,,,,,,,25,001,2019_Dec_25_1139,untitled,3.1.0,59.91837917622173,
482,_5,N,45,L,N,482_5N045LN,HLN,0,154,154,281,,,1.113,557.8753975,558.2191049999674,558.2344424999901,558.5177284999518,558.5343885999755,None,up,2.0512044999632053,558.5343885999755,None,558.5343885999755,559.6331956000067,0.063947000016924,None,,,,,,,,,25,001,2019_Dec_25_1139,untitled,3.1.0,59.91837917622173,
166,F,N,225,L,N,166FN225LN,HLN,0,155,155,221,,,0.85,560.6605855999514,560.9994640999939,561.0153340999968,561.2987310999888,561.3149586999789,None,up,2.099937000020873,561.3149586999789,None,561.3149586999789,562.1471799999708,0.0683380999835208,None,,,,,,,,,25,001,2019_Dec_25_1139,untitled,3.1.0,59.91837917622173,
485,_5,N,180,L,N,485_5N180LN,HLN,0,156,156,284,,,0.986,563.5076156999567,563.8289829999558,563.8461278000032,564.1293161999783,564.1454176999978,None,up,2.5490342000266537,564.1454176999978,None,564.1454176999978,565.1117644999758,0.08460509998258203,None,,,,,,,,,25,001,2019_Dec_25_1139,untitled,3.1.0,59.91837917622173,
129,F,N,0,R,N,129FN000RN,HRN,0,157,157,208,,,1.309,566.8749671999831,567.1765995000023,567.1765995000023,567.4095929999603,567.4263432999724,None,up,2.1324977000476792,567.4263432999724,None,567.4263432999724,568.7251197999576,0.17258569999830797,None,,,,,,,,,25,001,2019_Dec_25_1139,untitled,3.1.0,59.91837917622173,
002,R,N,45,R,N,002RN045RN,HRN,0,158,158,193,,,0.874,569.6455681999796,569.9741953999619,569.9907850999734,570.2743655999657,570.2917409999645,None,up,1.5481461000163108,570.2917409999645,None,570.2917409999645,571.1409472999512,0.07915450003929436,None,,,,,,,,,25,001,2019_Dec_25_1139,untitled,3.1.0,59.91837917622173,
_,_4,M,180,_,_,__4M180__,N,0,159,159,36,,,0.763,571.9312289999798,572.2886556999874,572.2886556999874,572.5552636999637,572.5722250999534,None,up,2.6648688999703154,572.5722250999534,None,572.5722250999534,573.3214883999899,0.08331429999088868,None,,,,,,,,,25,001,2019_Dec_25_1139,untitled,3.1.0,59.91837917622173,
132,F,N,135,R,N,132FN135RN,HRN,0,160,160,211,,,1.196,575.3061561000068,575.6526902999613,575.6695899000042,575.9533632999519,575.9691029999522,None,up,2.600355899950955,575.9691029999522,None,575.9691029999522,577.1508896999876,0.062468299991451204,None,,,,,,,,,25,001,2019_Dec_25_1139,untitled,3.1.0,59.91837917622173,
461,_5,M,180,R,N,461_5M180RN,HRN,0,161,161,180,,,0.781,578.6479449999752,578.9840050999774,578.9999392000027,579.2829457999906,579.2994681999553,None,down,2.7815607999800704,579.2994681999553,None,579.2994681999553,580.0652535999543,0.06995400000596419,None,,,,,,,,,25,001,2019_Dec_25_1139,untitled,3.1.0,59.91837917622173,
138,F,M,45,R,N,138FM045RN,HRN,0,162,162,113,,,0.996,582.1604861999513,582.4973753999802,582.5132920999895,582.7965460999985,582.8129025999806,None,None,,582.8129025999806,None,582.8129025999806,583.795437599998,0.07267979998141527,None,,,,,,,,,25,001,2019_Dec_25_1139,untitled,3.1.0,59.91837917622173,
301,_2,M,180,L,N,301_2M180LN,HLN,0,163,163,156,,,0.737,586.3493382000015,586.6930411999929,586.7092580999597,586.9932856999803,587.010429899965,586.3493382000015,up,2.6139191000256687,587.010429899965,None,587.010429899965,587.7263731999556,0.06586009997408837,None,,,,,,,,,25,001,2019_Dec_25_1139,untitled,3.1.0,59.91837917622173,
_,_5,M,90,_,_,__5M090__,N,0,164,164,42,,,1.17,589.8339290999575,590.124064899981,590.124064899981,590.340221899969,590.3566891999799,None,down,2.847964700020384,590.3566891999799,None,590.3566891999799,591.5049947999651,0.201255299965851,None,,,,,,,,,25,001,2019_Dec_25_1139,untitled,3.1.0,59.91837917622173,
_,F,M,0,_,_,_FM000__,N,0,165,165,0,,,1.3760000000000001,593.4140797999571,593.7032763999887,593.7032763999887,593.921154199983,593.9365730999853,None,down,2.750659200013615,593.9365730999853,None,593.9365730999853,595.3017513999948,0.1987961000413634,None,,,,,,,,,25,001,2019_Dec_25_1139,untitled,3.1.0,59.91837917622173,
294,_2,N,225,L,N,294_2N225LN,HLN,0,166,166,253,,,1.174,596.7566544999718,597.1014970999677,597.1173130999669,597.3999375999556,597.4167522999924,None,up,2.415623000008054,597.4167522999924,None,597.4167522999924,598.5826438999502,0.0623129999730736,None,,,,,,,,,25,001,2019_Dec_25_1139,untitled,3.1.0,59.91837917622173,
_,_2,N,270,_,_,__2N270__,N,0,167,167,78,,,0.9490000000000001,599.9136555999867,600.2477579999832,600.2643585999613,600.5473753999686,600.5639896999928,None,up,1.6658587999991141,600.5639896999928,None,600.5639896999928,601.4967062999494,0.07324280001921579,None,,,,,,,,,25,001,2019_Dec_25_1139,untitled,3.1.0,59.91837917622173,
390,_4,N,225,R,N,390_4N225RN,HRN,0,168,168,261,,,1.018,602.4207412999822,602.7138567999937,602.7138567999937,602.9457690999843,602.9622316999594,None,up,2.499997299979441,602.9622316999594,None,602.9622316999594,603.9621200999827,0.1820716000511311,None,,,,,,,,,25,001,2019_Dec_25_1139,untitled,3.1.0,59.91837917622173,
235,G,M,90,L,N,235GM090LN,HLN,0,169,169,138,,,1.163,605.5831178999506,605.8769196000067,605.8769196000067,606.1766552999616,606.1924709999585,None,down,2.18223149998812,606.1924709999585,None,606.1924709999585,607.3423917999608,0.11400090000825003,None,,,,,,,,,25,001,2019_Dec_25_1139,untitled,3.1.0,59.91837917622173,
426,_4,M,45,L,N,426_4M045LN,HLN,0,170,170,169,,,1.317,608.4463217000011,608.7917387000052,608.8072719000047,609.0899916999624,609.1067555999616,None,down,2.231752499996219,609.1067555999616,None,609.1067555999616,610.4067088000011,0.0645358000183478,None,,,,,,,,,25,001,2019_Dec_25_1139,untitled,3.1.0,59.91837917622173,
_,_2,N,180,_,_,__2N180__,N,0,171,171,76,,,0.726,611.4106330999639,611.7544145999709,611.771314499958,612.054307799961,612.0710669999826,None,up,2.149069499981124,612.0710669999826,None,612.0710669999826,612.7707370999851,0.0648287000367418,None,,,,,,,,,25,001,2019_Dec_25_1139,untitled,3.1.0,59.91837917622173,
265,_2,M,0,R,N,265_2M000RN,HRN,0,172,172,144,,,0.9460000000000001,614.3115405999706,614.635225999984,614.6517139999778,614.9348674999783,614.9514662000001,None,down,1.9517940999940038,614.9514662000001,None,614.9514662000001,615.8840858999756,0.08290490001672879,None,,,,,,,,,25,001,2019_Dec_25_1139,untitled,3.1.0,59.91837917622173,
016,R,M,315,R,N,016RM315RN,HRN,0,173,173,103,,,1.176,616.9714636999997,617.3164212999982,617.3334052999853,617.6156511000008,617.6326830000035,None,down,2.001686299976427,617.6326830000035,None,617.6326830000035,618.7989305999945,0.06018470000708476,None,,,,,,,,,25,001,2019_Dec_25_1139,untitled,3.1.0,59.91837917622173,
418,_4,N,45,L,N,418_4N045LN,HLN,0,174,174,265,,,0.713,619.7052504000021,620.0473646000028,620.0638948999695,620.3475582999527,620.3637416999554,None,down,1.3827272999915294,620.3637416999554,None,620.3637416999554,621.0636156999972,0.06397139996988699,None,,,,,,,,,25,001,2019_Dec_25_1139,untitled,3.1.0,59.91837917622173,
005,R,N,180,R,N,005RN180RN,HRN,0,175,175,196,,,0.801,621.8163998999516,622.162366799952,622.1800545000006,622.4627481999923,622.4784835999599,None,up,2.0999152000295,622.4784835999599,None,622.4784835999599,623.2612526000012,0.06317300000227988,None,,,,,,,,,25,001,2019_Dec_25_1139,untitled,3.1.0,59.91837917622173,
_,F,M,315,_,_,_FM315__,N,0,176,176,7,,,1.127,624.7389023999567,625.028259499988,625.028259499988,625.2941123999772,625.3097952999524,None,down,2.26491760002682,625.3097952999524,None,625.3097952999524,626.4246598999598,0.15340289997402579,None,,,,,,,,,25,001,2019_Dec_25_1139,untitled,3.1.0,59.91837917622173,
_,_2,M,0,_,_,__2M000__,N,0,177,177,24,,,1.11,627.6466406999971,627.9907745999517,628.0073740999796,628.2914512999705,628.3071067999699,None,down,2.2813990999711677,628.3071067999699,None,628.3071067999699,629.406491199974,0.06519589998060837,None,,,,,,,,,25,001,2019_Dec_25_1139,untitled,3.1.0,59.91837917622173,
419,_4,N,90,L,N,419_4N090LN,HLN,0,178,178,266,,,1.174,630.6694401999703,631.0042629999807,631.0206610999885,631.3039099999587,631.3207212999696,None,up,2.051534099970013,631.3207212999696,None,631.3207212999696,632.4694512999849,0.07301570003619418,None,,,,,,,,,25,001,2019_Dec_25_1139,untitled,3.1.0,59.91837917622173,
233,G,M,0,L,N,233GM000LN,HLN,0,179,179,136,,,1.018,633.441304899985,633.7852243999951,633.8023073999793,634.0848096999689,634.1015653999639,None,down,1.9157610000111163,634.1015653999639,None,634.1015653999639,635.1019361999934,0.062334599962923676,None,,,,,,,,,25,001,2019_Dec_25_1139,untitled,3.1.0,59.91837917622173,
_,_5,N,225,_,_,__5N225__,N,0,180,180,93,,,1.016,636.0909170999657,636.4341106999782,636.4497410999611,636.7326522999792,636.7499756999896,None,up,2.547305600019172,636.7499756999896,None,636.7499756999896,637.7482445999631,0.06516489997738972,None,,,,,,,,,25,001,2019_Dec_25_1139,untitled,3.1.0,59.91837917622173,
488,_5,N,315,L,N,488_5N315LN,HLN,0,181,181,287,,,1.243,639.3691293000011,639.7139530999702,639.7304912999971,640.0133081999957,640.0298061999492,None,up,2.1843649999937043,640.0298061999492,None,640.0298061999492,641.24648599996,0.06485329999122769,None,,,,,,,,,25,001,2019_Dec_25_1139,untitled,3.1.0,59.91837917622173,
_,_5,N,45,_,_,__5N045__,N,0,182,182,89,,,1.024,642.3977423000033,642.6940324999741,642.6940324999741,642.9276479999535,642.9444953000057,None,up,1.6322257000138052,642.9444953000057,None,642.9444953000057,643.9425733999815,0.1770579000003636,None,,,,,,,,,25,001,2019_Dec_25_1139,untitled,3.1.0,59.91837917622173,
_,_5,N,180,_,_,__5N180__,N,0,183,183,92,,,1.1500000000000001,644.655902199971,644.9926394000067,645.008830399951,645.2918329999666,645.3088631999562,None,up,2.4816300000529736,645.3088631999562,None,645.3088631999562,646.4405187999946,0.07179189997259527,None,,,,,,,,,25,001,2019_Dec_25_1139,untitled,3.1.0,59.91837917622173,
200,G,N,315,R,N,200GN315RN,HRN,0,184,184,231,,,1.249,647.8723868999514,648.206351300003,648.223279399972,648.5062343999743,648.5230471999967,None,up,2.783426799986046,648.5230471999967,None,648.5230471999967,649.7550232999492,0.07441299996571615,None,,,,,,,,,25,001,2019_Dec_25_1139,untitled,3.1.0,59.91837917622173,
011,R,M,90,R,N,011RM090RN,HRN,0,185,185,98,,,1.374,651.3814705999685,651.7198386999662,651.7366984999971,652.0199625999667,652.0366355999722,None,down,2.600678800023161,652.0366355999722,None,652.0366355999722,653.4023214000044,0.06773780001094565,None,,,,,,,,,25,001,2019_Dec_25_1139,untitled,3.1.0,59.91837917622173,
_,_4,N,315,_,_,__4N315__,N,0,186,186,87,,,0.801,654.7091074999771,655.0501647999627,655.0667795999907,655.3498836999643,655.3665559999645,None,up,1.7830664000357501,655.3665559999645,None,655.3665559999645,656.148932799988,0.06495379999978468,None,,,,,,,,,25,001,2019_Dec_25_1139,untitled,3.1.0,59.91837917622173,
004,R,N,135,R,N,004RN135RN,HRN,0,187,187,195,,,0.839,657.226001699979,657.564682599972,657.5813678999548,657.8645557999844,657.8816306999652,None,up,2.0511090000509284,657.8816306999652,None,657.8816306999652,658.6966956999968,0.06961409997893497,None,,,,,,,,,25,001,2019_Dec_25_1139,untitled,3.1.0,59.91837917622173,
399,_4,M,270,R,N,399_4M270RN,HRN,0,188,188,166,,,0.866,660.0114050999982,660.3453251000028,660.3619327999768,660.6449848999619,660.6616835999885,None,down,1.7492763999616727,660.6616835999885,None,660.6616835999885,661.5108101999504,0.07044420001329854,None,,,,,,,,,25,001,2019_Dec_25_1139,untitled,3.1.0,59.91837917622173,
297,_2,M,0,L,N,297_2M000LN,HLN,0,189,189,152,,,1.32,662.4938369999873,662.8264228999615,662.8431443999871,663.1259964999626,663.1427791999886,None,down,2.3825224000029266,663.1427791999886,None,663.1427791999886,664.4420039999532,0.07502699998440221,None,,,,,,,,,25,001,2019_Dec_25_1139,untitled,3.1.0,59.91837917622173,
257,_2,N,0,R,N,257_2N000RN,HRN,0,190,190,240,,,0.877,665.6094151999569,665.9401649999782,665.957225799968,666.2405510999961,666.2571414999547,None,up,1.6320712000015192,666.2571414999547,None,666.2571414999547,667.1226692000055,0.07619320001685992,None,,,,,,,,,25,001,2019_Dec_25_1139,untitled,3.1.0,59.91837917622173,
453,_5,N,180,R,N,453_5N180RN,HRN,0,191,191,276,,,0.9380000000000001,667.9668394000037,668.3055508999969,668.3220995999873,668.6061862999923,668.62155109999,None,up,2.482365200005006,668.62155109999,None,668.62155109999,669.5372542999685,0.06897660001413897,None,,,,,,,,,25,001,2019_Dec_25_1139,untitled,3.1.0,59.91837917622173,
_,G,M,270,_,_,_GM270__,N,0,192,192,14,,,1.078,671.2087545999675,671.5187512999983,671.5353745999746,671.8193926999811,671.8357393000042,None,down,2.3815450000111014,671.8357393000042,None,671.8357393000042,672.9018770999974,0.09795060002943501,None,,,,,,,,,25,001,2019_Dec_25_1139,untitled,3.1.0,59.91837917622173,
_,R,N,0,_,_,_RN000__,N,0,193,193,64,,,1.093,674.3761914999923,674.66659909999,674.66659909999,674.9328168999637,674.9494672999717,None,up,1.7989640000159852,674.9494672999717,None,674.9494672999717,676.0318631999544,0.15139260003343225,None,,,,,,,,,25,001,2019_Dec_25_1139,untitled,3.1.0,59.91837917622173,
041,R,M,0,L,N,041RM000LN,HLN,0,194,194,104,,,1.187,676.9262359999702,677.2147435999941,677.2147435999941,677.4637625999749,677.4803043999709,None,down,1.8820514000253752,677.4803043999709,None,677.4803043999709,678.6460757000023,0.16938809998100623,None,,,,,,,,,25,001,2019_Dec_25_1139,untitled,3.1.0,59.91837917622173,
_,G,M,180,_,_,_GM180__,N,0,195,195,12,,,1.085,679.5297950999811,679.8282522999798,679.8282522999798,680.0794018000015,680.09497679997,None,up,2.564782700035721,680.09497679997,None,680.09497679997,681.1601834999747,0.1595986999454908,None,,,,,,,,,25,001,2019_Dec_25_1139,untitled,3.1.0,59.91837917622173,
_,_5,N,0,_,_,__5N000__,N,0,196,196,88,,,0.738,682.730527799984,683.0765576999984,683.0923763999599,683.3756820999552,683.3923647999763,None,up,1.6831267000525258,683.3923647999763,None,683.3923647999763,684.1089782000054,0.06215790001442656,None,,,,,,,,,25,001,2019_Dec_25_1139,untitled,3.1.0,59.91837917622173,
194,G,N,45,R,N,194GN045RN,HRN,0,197,197,225,,,0.922,685.1573004999664,685.4902440999867,685.5069075999781,685.7899330999935,685.8070047999499,None,up,1.6836180000100285,685.8070047999499,None,685.8070047999499,686.7060934999608,0.07427879999158904,None,,,,,,,,,25,001,2019_Dec_25_1139,untitled,3.1.0,59.91837917622173,
136,F,N,315,R,N,136FN315RN,HRN,0,198,198,215,,,1.252,687.5625810999773,687.904286200006,687.9224533999804,688.2052904999582,688.2211477999808,None,up,2.148761399963405,688.2211477999808,None,688.2211477999808,689.4543349999585,0.06525869999313727,None,,,,,,,,,25,001,2019_Dec_25_1139,untitled,3.1.0,59.91837917622173,
_,G,N,90,_,_,_GN090__,N,0,199,199,58,,,1.291,690.5542913999525,690.851864599972,690.851864599972,691.0852951999987,691.1019973999937,None,up,2.0319741999846883,691.1019973999937,None,691.1019973999937,692.3674398000003,0.17749260005075485,None,,,,,,,,,25,001,2019_Dec_25_1139,untitled,3.1.0,59.91837917622173,
398,_4,M,225,R,N,398_4M225RN,HRN,0,200,200,165,,,1.1,693.2164934999892,693.549728599959,693.5663918000064,693.8498490999918,693.8667875999818,None,down,3.0825640000402927,693.8667875999818,None,693.8667875999818,694.948582699988,0.07385869999416173,None,,,,,,,,,25,001,2019_Dec_25_1139,untitled,3.1.0,59.91837917622173,
_,_4,M,0,_,_,__4M000__,N,0,201,201,32,,,1.012,697.0582585999509,697.3462111999979,697.3792683999636,697.6629965999746,697.6797114999499,None,up,1.8990922999801114,697.6797114999499,None,697.6797114999499,698.6791132999933,0.09924609999870881,None,,,,,,,,,25,001,2019_Dec_25_1139,untitled,3.1.0,59.91837917622173,
422,_4,N,225,L,N,422_4N225LN,HLN,0,202,202,269,,,1.35,699.6719400999718,699.9946870999993,700.0119400999974,700.294718899997,700.312273199961,None,up,2.5635119000216946,700.312273199961,None,700.312273199961,701.6426801999914,0.08368929999414831,None,,,,,,,,,25,001,2019_Dec_25_1139,untitled,3.1.0,59.91837917622173,
033,R,N,0,L,N,033RN000LN,HLN,0,203,203,200,,,1.217,703.0937639999902,703.3912672000006,703.3912672000006,703.5912942999857,703.6082598000066,None,up,2.150504900026135,703.6082598000066,None,703.6082598000066,704.8066392999608,0.20927909994497895,None,,,,,,,,,25,001,2019_Dec_25_1139,untitled,3.1.0,59.91837917622173,
172,F,M,135,L,N,172FM135LN,HLN,0,204,204,123,,,0.81,705.8345562999602,706.1729982999968,706.188974699995,706.4724584000069,706.4895845999708,None,down,2.963645399955567,706.4895845999708,None,706.4895845999708,707.2875929999864,0.06871839996892959,None,,,,,,,,,25,001,2019_Dec_25_1139,untitled,3.1.0,59.91837917622173,
_,_2,M,315,_,_,__2M315__,N,0,205,205,31,,,0.997,709.5354456999921,709.8687558999518,709.8855349999503,710.1686198999523,710.1852656999836,None,down,2.3825107000302523,710.1852656999836,None,710.1852656999836,711.1682811999926,0.07413939997786656,None,,,,,,,,,25,001,2019_Dec_25_1139,untitled,3.1.0,59.91837917622173,
_,F,M,45,_,_,_FM045__,N,0,206,206,1,,,1.124,712.7512962999754,713.0493415999808,713.0493415999808,713.2829044999671,713.2994601999526,None,down,2.2980736999888904,713.2994601999526,None,713.2994601999526,714.4146826000069,0.17393089999677613,None,,,,,,,,,25,001,2019_Dec_25_1139,untitled,3.1.0,59.91837917622173,
_,F,N,135,_,_,_FN135__,N,0,207,207,51,,,0.707,715.8219998999848,716.1137578999624,716.1137578999624,716.3133106000023,716.3300471999682,None,up,2.065657300001476,716.3300471999682,None,716.3300471999682,717.0123429999803,0.21664170001167804,None,,,,,,,,,25,001,2019_Dec_25_1139,untitled,3.1.0,59.91837917622173,
_,_5,M,135,_,_,__5M135__,N,0,208,208,43,,,1.125,718.4723553999793,718.8117811999982,718.8275072999531,719.1101493999595,719.1269089999842,None,down,3.299544600013178,719.1269089999842,None,719.1269089999842,720.2260229999665,0.06968279997818172,None,,,,,,,,,25,001,2019_Dec_25_1139,untitled,3.1.0,59.91837917622173,
238,G,M,225,L,N,238GM225LN,HLN,0,209,209,141,,,0.898,722.5059757999843,722.8408721999731,722.8573348999489,723.1406858999981,723.1574615999707,None,down,2.5817147999769077,723.1574615999707,None,723.1574615999707,724.0398434999515,0.07164899999042973,None,,,,,,,,,25,001,2019_Dec_25_1139,untitled,3.1.0,59.91837917622173,
387,_4,N,90,R,N,387_4N090RN,HRN,0,210,210,258,,,0.799,725.8165870999801,726.1556882999721,726.1714247000054,726.4544622999965,726.471711799968,None,up,2.0812882000464015,726.471711799968,None,726.471711799968,727.2545089999912,0.06999460002407432,None,,,,,,,,,25,001,2019_Dec_25_1139,untitled,3.1.0,59.91837917622173,
_,_2,N,135,_,_,__2N135__,N,0,211,211,75,,,1.113,728.6297737999703,728.9694000000018,728.985755599977,729.2691267000046,729.2858356999932,None,up,2.267226599971764,729.2858356999932,None,729.2858356999932,730.3844170999946,0.06982029997743666,None,,,,,,,,,25,001,2019_Dec_25_1139,untitled,3.1.0,59.91837917622173,
_,_2,M,180,_,_,__2M180__,N,0,212,212,28,,,1.245,731.7332827999489,732.0325790999923,732.0325790999923,732.2667002999806,732.2855558999581,None,down,2.596748900017701,732.2855558999581,None,732.2855558999581,733.5148568999721,0.17307800002163276,None,,,,,,,,,25,001,2019_Dec_25_1139,untitled,3.1.0,59.91837917622173,
391,_4,N,270,R,N,391_4N270RN,HRN,0,213,213,262,,,0.986,734.9616742999642,735.2968425999861,735.3132540999795,735.5961144999601,735.6128387999488,None,up,1.8992649000138044,735.6128387999488,None,735.6128387999488,736.5791383999749,0.07139140000799671,None,,,,,,,,,25,001,2019_Dec_25_1139,untitled,3.1.0,59.91837917622173,
048,R,M,315,L,N,048RM315LN,HLN,0,214,214,111,,,1.195,737.587788899953,737.927442199958,737.9441532999626,738.227490899968,738.2440287999925,None,down,2.8815414999844506,738.2440287999925,None,738.2440287999925,739.4261662999634,0.06826650002039969,None,,,,,,,,,25,001,2019_Dec_25_1139,untitled,3.1.0,59.91837917622173,
_,_2,M,135,_,_,__2M135__,N,0,215,215,27,,,0.9420000000000001,741.2050840999582,741.5411619999795,741.5574335999554,741.841294199985,741.8581728999852,None,down,2.3318315999931656,741.8581728999852,None,741.8581728999852,742.7736157999607,0.07177040004171431,None,,,,,,,,,25,001,2019_Dec_25_1139,untitled,3.1.0,59.91837917622173,
_,_4,M,90,_,_,__4M090__,N,0,216,216,34,,,0.766,744.2651513000019,744.6051771999919,744.6224617999978,744.9058140999987,744.9218298000051,None,down,2.116418999969028,744.9218298000051,None,744.9218298000051,745.6707333999802,0.06732149998424575,None,,,,,,,,,25,001,2019_Dec_25_1139,untitled,3.1.0,59.91837917622173,
008,R,N,315,R,N,008RN315RN,HRN,0,217,217,199,,,1.326,747.1253888999927,747.4527990999632,747.4697267999873,747.7522822999745,747.7693359999685,None,up,2.731147999991663,747.7693359999685,None,747.7693359999685,749.0849210000015,0.07926679996307939,None,,,,,,,,,25,001,2019_Dec_25_1139,untitled,3.1.0,59.91837917622173,
261,_2,N,180,R,N,261_2N180RN,HRN,0,218,218,244,,,1.366,750.5725848999573,750.916534799966,750.9335959999589,751.2167213999783,751.2331452999497,None,up,3.1984175000106916,751.2331452999497,None,751.2331452999497,752.5817371999728,0.0640502999885939,None,,,,,,,,,25,001,2019_Dec_25_1139,untitled,3.1.0,59.91837917622173,
487,_5,N,270,L,N,487_5N270LN,HLN,0,219,219,286,,,0.8210000000000001,754.5212125999969,754.8461492999922,754.8628218999947,755.1458132999833,755.1624978999607,None,up,1.665620099985972,755.1624978999607,None,755.1624978999607,755.9622460999526,0.08135379996383563,None,,,,,,,,,25,001,2019_Dec_25_1139,untitled,3.1.0,59.91837917622173,
_,_2,N,315,_,_,__2N315__,N,0,220,220,79,,,0.784,756.9110156999668,757.2438182999613,757.2605360999587,757.5443475999637,757.560733499995,None,down,2.3482918000081554,757.560733499995,None,757.560733499995,758.3268110999488,0.07485289999749511,None,,,,,,,,,25,001,2019_Dec_25_1139,untitled,3.1.0,59.91837917622173,
170,F,M,45,L,N,170FM045LN,HLN,0,221,221,121,,,1.1360000000000001,759.9835983999656,760.3248216999928,760.3425271000015,760.6242741000024,760.6410240999539,None,down,2.215502800012473,760.6410240999539,None,760.6410240999539,761.7568942999933,0.06783820001874119,None,,,,,,,,,25,001,2019_Dec_25_1139,untitled,3.1.0,59.91837917622173,
385,_4,N,0,R,N,385_4N000RN,HRN,0,222,222,256,,,1.059,762.934063499968,763.2724140000064,763.2905622999533,763.5725524000009,763.5895656999783,None,up,1.7815425000153482,763.5895656999783,None,763.5895656999783,764.6211764999898,0.07039750000694767,None,,,,,,,,,25,001,2019_Dec_25_1139,untitled,3.1.0,59.91837917622173,
006,R,N,225,R,N,006RN225RN,HRN,0,223,223,197,,,1.054,765.44317579997,765.7870311999577,765.8039157000021,766.0867181999492,766.1030870999675,None,up,2.7156630999525078,766.1030870999675,None,766.1030870999675,767.1384585999767,0.06467729998985305,None,,,,,,,,,25,001,2019_Dec_25_1139,untitled,3.1.0,59.91837917622173,
421,_4,N,180,L,N,421_4N180LN,HLN,0,224,224,268,,,0.872,768.902343099995,769.2343996999552,769.250857499952,769.5340145999799,769.5502275999752,None,up,2.248147999984212,769.5502275999752,None,769.5502275999752,770.3995392999495,0.0761402000207454,None,,,,,,,,,25,001,2019_Dec_25_1139,untitled,3.1.0,59.91837917622173,
228,G,N,135,L,N,228GN135LN,HLN,0,225,225,235,,,0.8270000000000001,771.8669841999654,772.2145563999657,772.2323022999917,772.5150130999973,772.5309326999704,None,up,1.8352922999765724,772.5309326999704,None,772.5309326999704,773.3468184999656,0.06194420001702383,None,,,,,,,,,25,001,2019_Dec_25_1139,untitled,3.1.0,59.91837917622173,
_,R,N,225,_,_,_RN225__,N,0,226,226,69,,,0.756,774.438099299965,774.7789753999677,774.7955741999904,775.0790464999736,775.0954268999631,None,up,1.4340421999804676,775.0954268999631,None,775.0954268999631,775.8284358999808,0.0629029999836348,None,,,,,,,,,25,001,2019_Dec_25_1139,untitled,3.1.0,59.91837917622173,
_,R,M,270,_,_,_RM270__,N,0,227,227,22,,,0.835,776.6336353999795,776.9442963000038,776.960575199977,777.2437151999911,777.2600745999953,None,down,1.717814100033138,777.2600745999953,None,777.2600745999953,778.0766551999841,0.09263109997846186,None,,,,,,,,,25,001,2019_Dec_25_1139,untitled,3.1.0,59.91837917622173,
303,_2,M,270,L,N,303_2M270LN,HLN,0,228,228,158,,,1.153,779.0477537999977,779.3918163999915,779.4086842999677,779.6918084999779,779.7081658999668,None,down,2.1483410999644548,779.7081658999668,None,779.7081658999668,780.8405922999955,0.06186880002496764,None,,,,,,,,,25,001,2019_Dec_25_1139,untitled,3.1.0,59.91837917622173,
425,_4,M,0,L,N,425_4M000LN,HLN,0,229,229,168,,,0.901,781.9283909999649,782.2726667999523,782.2912670999649,782.5730581999524,782.5895807999768,None,up,1.7169189000269398,782.5895807999768,None,782.5895807999768,783.4716375999851,0.06489280000096187,None,,,,,,,,,25,001,2019_Dec_25_1139,untitled,3.1.0,59.91837917622173,
231,G,N,270,L,N,231GN270LN,HLN,0,230,230,238,,,0.917,784.4839961999678,784.7727023999905,784.7727023999905,785.0206113999593,785.0367641999619,None,down,1.7517894999473356,785.0367641999619,None,785.0367641999619,785.9363578999764,0.16953900002408773,None,,,,,,,,,25,001,2019_Dec_25_1139,untitled,3.1.0,59.91837917622173,
_,F,N,45,_,_,_FN045__,N,0,231,231,49,,,1.3820000000000001,786.9805926999543,787.2694783000043,787.2694783000043,787.5015064000036,787.5181025000056,None,up,2.215053000021726,787.5181025000056,None,787.5181025000056,788.8843982999679,0.18467129999771714,None,,,,,,,,,25,001,2019_Dec_25_1139,untitled,3.1.0,59.91837917622173,
491,_5,M,90,L,N,491_5M090LN,HLN,0,232,232,186,,,0.9550000000000001,789.8107202999527,790.1488427000004,790.1659112999914,790.4485531999962,790.465773199976,None,down,2.2335228000301868,790.465773199976,None,790.465773199976,791.3980177000049,0.0688788999686949,None,,,,,,,,,25,001,2019_Dec_25_1139,untitled,3.1.0,59.91837917622173,
_,_4,N,180,_,_,__4N180__,N,0,233,233,84,,,1.335,792.7704169999924,793.1129993000068,793.1299829999916,793.4127463999903,793.4302576999762,None,up,2.713679399981629,793.4302576999762,None,793.4302576999762,794.7449916999904,0.0643982999608852,None,,,,,,,,,25,001,2019_Dec_25_1139,untitled,3.1.0,59.91837917622173,
397,_4,M,180,R,N,397_4M180RN,HRN,0,234,234,164,,,1.361,796.2171857999638,796.5625492999679,796.5770647999598,796.8603610999999,796.8776335999719,None,down,2.9469994999817573,796.8776335999719,None,796.8776335999719,798.2254528999911,0.06584569998085499,None,,,,,,,,,25,001,2019_Dec_25_1139,untitled,3.1.0,59.91837917622173,
139,F,M,90,R,N,139FM090RN,HRN,0,235,235,114,,,1.252,799.89598999999,800.2405037999852,800.2571725999587,800.5403458999936,800.5565399999614,None,up,2.0015040999860503,800.5565399999614,None,800.5565399999614,801.7891704000067,0.06381469999905676,None,,,,,,,,,25,001,2019_Dec_25_1139,untitled,3.1.0,59.91837917622173,
300,_2,M,135,L,N,300_2M135LN,HLN,0,236,236,155,,,1.207,802.6272150999866,802.9713595999638,802.9877550999518,803.2711705999682,803.2889556000009,None,down,2.6637297000270337,803.2889556000009,None,803.2889556000009,804.4714077999815,0.062430999998468906,None,,,,,,,,,25,001,2019_Dec_25_1139,untitled,3.1.0,59.91837917622173,
_,_2,N,90,_,_,__2N090__,N,0,237,237,74,,,1.258,806.1154462999548,806.4167936999584,806.4167936999584,806.6680884999805,806.6848216999788,None,up,2.2507687999750488,806.6848216999788,None,806.6848216999788,807.9164938000031,0.15524799999548122,None,,,,,,,,,25,001,2019_Dec_25_1139,untitled,3.1.0,59.91837917622173,
494,_5,M,225,L,N,494_5M225LN,HLN,0,238,238,189,,,0.96,809.0077898000018,809.3493402999593,809.3657703999779,809.6490319999866,809.6654790999601,None,down,2.5486959000118077,809.6654790999601,None,809.6654790999601,810.6145684999647,0.06543249997776002,None,,,,,,,,,25,001,2019_Dec_25_1139,untitled,3.1.0,59.91837917622173,
_,G,N,225,_,_,_GN225__,N,0,239,239,61,,,1.073,812.3918291999726,812.6793663999997,812.6793663999997,812.9292462999583,812.945676399977,None,down,2.3680246000294574,812.945676399977,None,812.945676399977,813.9952063999954,0.16851230000611395,None,,,,,,,,,25,001,2019_Dec_25_1139,untitled,3.1.0,59.91837917622173,
163,F,N,90,L,N,163FN090LN,HLN,0,240,240,218,,,0.726,815.4725990999723,815.761582499952,815.761582499952,816.0268654999672,816.0428260999615,None,up,1.4343041999964043,816.0428260999615,None,816.0428260999615,816.7593561999965,0.15057210001396015,None,,,,,,,,,25,001,2019_Dec_25_1139,untitled,3.1.0,59.91837917622173,
_,_5,N,270,_,_,__5N270__,N,0,241,241,94,,,0.709,817.5503211999894,817.8916843999759,817.9083261999767,818.1910197999678,818.2080934999976,None,up,1.9322488000034355,818.2080934999976,None,818.2080934999976,818.9084594000014,0.06642500002635643,None,,,,,,,,,25,001,2019_Dec_25_1139,untitled,3.1.0,59.91837917622173,
162,F,N,45,L,N,162FN045LN,HLN,0,242,242,217,,,1.1440000000000001,820.233496300003,820.5559579999535,820.57254069997,820.8558321999735,820.8751552999602,None,up,1.9161146000260487,820.8751552999602,None,820.8751552999602,822.0044833999709,0.08269429998472333,None,,,,,,,,,25,001,2019_Dec_25_1139,untitled,3.1.0,59.91837917622173,
496,_5,M,315,L,N,496_5M315LN,HLN,0,243,243,191,,,1.129,822.9063885999494,823.2044487999519,823.2199459999683,823.5031716999947,823.5198451000033,None,down,2.417002699978184,823.5198451000033,None,823.5198451000033,824.6352349999943,0.10620090004522353,None,,,,,,,,,25,001,2019_Dec_25_1139,untitled,3.1.0,59.91837917622173,
173,F,M,180,L,N,173FM180LN,HLN,0,244,244,124,,,1.34,826.0081293999683,826.350982999953,826.3675639999565,826.6504892999656,826.6679570999695,None,up,2.4489189999876544,826.6679570999695,None,826.6679570999695,827.9833958999952,0.06437180005013943,None,,,,,,,,,25,001,2019_Dec_25_1139,untitled,3.1.0,59.91837917622173,
205,G,M,180,R,N,205GM180RN,HRN,0,245,245,132,,,1.088,829.1946789000067,829.5316274999641,829.5477382999961,829.8312037999858,829.8476651999517,None,down,3.0985861000372097,829.8476651999517,None,829.8476651999517,830.9130716999643,0.07040149997919798,None,,,,,,,,,25,001,2019_Dec_25_1139,untitled,3.1.0,59.91837917622173,
_,F,N,90,_,_,_FN090__,N,0,246,246,50,,,0.767,833.1517251000041,833.4448281999794,833.4448281999794,833.6610026999842,833.6775486999541,None,up,1.484203499974683,833.6775486999541,None,833.6775486999541,834.4274419999565,0.1985570999677293,None,,,,,,,,,25,001,2019_Dec_25_1139,untitled,3.1.0,59.91837917622173,
167,F,N,270,L,N,167FN270LN,HLN,0,247,247,222,,,1.227,835.2372850999818,835.5769910999807,835.5930299999891,835.8760320000001,835.8928192000021,None,up,2.199528699973598,835.8928192000021,None,835.8928192000021,837.1087442999706,0.06793299998389557,None,,,,,,,,,25,001,2019_Dec_25_1139,untitled,3.1.0,59.91837917622173,
_,G,M,45,_,_,_GM045__,N,0,248,248,9,,,1.3980000000000001,838.1996061999816,838.506985999993,838.5236136000021,838.8067364000017,838.8233288999763,None,down,2.8832137000281364,838.8233288999763,None,838.8233288999763,840.2058631999535,0.09437080001225695,None,,,,,,,,,25,001,2019_Dec_25_1139,untitled,3.1.0,59.91837917622173,
239,G,M,270,L,N,239GM270LN,HLN,0,249,249,142,,,1.209,841.7773101999774,842.120484199957,842.1371178999543,842.4201204999699,842.4368047000025,None,down,2.4008526999969035,842.4368047000025,None,842.4368047000025,843.6353604999604,0.06428950000554323,None,,,,,,,,,25,001,2019_Dec_25_1139,untitled,3.1.0,59.91837917622173,
_,_4,M,315,_,_,__4M315__,N,0,250,250,39,,,0.793,844.9122076999629,845.250614199962,845.2672822999884,845.5509640999953,845.5676313999575,None,down,2.714655199961271,845.5676313999575,None,845.5676313999575,846.3503743999754,0.06754010001895949,None,,,,,,,,,25,001,2019_Dec_25_1139,untitled,3.1.0,59.91837917622173,
_,G,N,270,_,_,_GN270__,N,0,251,251,62,,,1.117,848.3497208000044,848.6988308999571,848.714890400006,848.9977257999708,849.0145357999718,None,up,1.9820553999743424,849.0145357999718,None,849.0145357999718,850.113537999976,0.06064819998573512,None,,,,,,,,,25,001,2019_Dec_25_1139,untitled,3.1.0,59.91837917622173,
039,R,N,270,L,N,039RN270LN,HLN,0,252,252,206,,,0.987,851.1762441999745,851.4785649999976,851.4785649999976,851.7120336999651,851.730347100005,None,up,1.8970892000361346,851.730347100005,None,851.730347100005,852.6943689999753,0.17211889999452978,None,,,,,,,,,25,001,2019_Dec_25_1139,untitled,3.1.0,59.91837917622173,
134,F,N,225,R,N,134FN225RN,HRN,0,253,253,213,,,1.109,853.699596099963,854.0446618999704,854.0599515999784,854.3434736999916,854.3598223999725,None,up,1.9331732999999076,854.3598223999725,None,854.3598223999725,855.4420963999582,0.0653734999941662,None,,,,,,,,,25,001,2019_Dec_25_1139,untitled,3.1.0,59.91837917622173,
393,_4,M,0,R,N,393_4M000RN,HRN,0,254,254,160,,,1.0210000000000001,856.3653301000013,856.7080028000055,856.724465199979,857.0078268999932,857.0240730999503,None,down,2.1815987000009045,857.0240730999503,None,857.0240730999503,858.0231319000013,0.0653611000161618,None,,,,,,,,,25,001,2019_Dec_25_1139,untitled,3.1.0,59.91837917622173,
_,_5,N,90,_,_,__5N090__,N,0,255,255,90,,,1.298,859.2775492999936,859.6219282999518,859.6392515999614,859.9222265999997,859.9390375999501,None,up,2.2327188999624923,859.9390375999501,None,859.9390375999501,861.2207901999936,0.06282699998700991,None,,,,,,,,,25,001,2019_Dec_25_1139,untitled,3.1.0,59.91837917622173,
272,_2,M,315,R,N,272_2M315RN,HRN,0,256,256,151,,,0.761,862.2437413999578,862.5860066000023,862.6028179999557,862.885874199972,862.9029138999758,None,down,2.1319695000420325,862.9029138999758,None,862.9029138999758,863.6517040999606,0.06489539996255189,None,,,,,,,,,25,001,2019_Dec_25_1139,untitled,3.1.0,59.91837917622173,
_,R,M,225,_,_,_RM225__,N,0,257,257,21,,,1.107,865.1276010999572,865.4504147999687,865.4666865000036,865.7504529999569,865.766497399949,None,down,2.651168600015808,865.766497399949,None,865.766497399949,866.8656642999849,0.0842316999915056,None,,,,,,,,,25,001,2019_Dec_25_1139,untitled,3.1.0,59.91837917622173,
_,R,M,135,_,_,_RM135__,N,0,258,258,19,,,1.237,868.5868723999592,868.8800154000055,868.8800154000055,869.130616999988,869.147395899985,None,down,2.6313612000085413,869.147395899985,None,869.147395899985,870.3630043999874,0.1589477999950759,None,,,,,,,,,25,001,2019_Dec_25_1139,untitled,3.1.0,59.91837917622173,
130,F,N,45,R,N,130FN045RN,HRN,0,259,259,209,,,0.842,871.8523778999806,872.1955886999494,872.2131434999756,872.4946918999776,872.5108366999775,None,up,1.7173772000242025,872.5108366999775,None,872.5108366999775,873.3271801999654,0.06702220003353432,None,,,,,,,,,25,001,2019_Dec_25_1139,untitled,3.1.0,59.91837917622173,
135,F,N,270,R,N,135FN270RN,HRN,0,260,260,214,,,0.757,874.3518018999603,874.6422301999992,874.6422301999992,874.9416811999981,874.9589753999608,None,up,1.4161838999716565,874.9589753999608,None,874.9589753999608,875.7076056999504,0.11653940001269802,None,,,,,,,,,25,001,2019_Dec_25_1139,untitled,3.1.0,59.91837917622173,
267,_2,M,90,R,N,267_2M090RN,HRN,0,261,261,146,,,1.0170000000000001,876.4565165999811,876.7913920999854,876.8067607999546,877.0901579000056,877.1067393999547,None,down,2.332018799963407,877.1067393999547,None,877.1067393999547,878.105671999976,0.07261660002404824,None,,,,,,,,,25,001,2019_Dec_25_1139,untitled,3.1.0,59.91837917622173,
_,R,M,180,_,_,_RM180__,N,0,262,262,20,,,1.086,879.509390799969,879.8734867000021,879.9041119999602,880.1535874999827,880.1711546999868,None,down,3.113656400004402,880.1711546999868,None,880.1711546999868,881.2363688999903,0.06407820002641529,None,,,,,,,,,25,001,2019_Dec_25_1139,untitled,3.1.0,59.91837917622173,
427,_4,M,90,L,N,427_4M090LN,HLN,0,263,263,170,,,1.209,883.3572785999859,883.7006763999816,883.7195619999547,884.0007820999599,884.0168456999818,None,down,2.2826209000195377,884.0168456999818,None,884.0168456999818,885.2162306999671,0.06591289996868,None,,,,,,,,,25,001,2019_Dec_25_1139,untitled,3.1.0,59.91837917622173,
_,R,N,315,_,_,_RN315__,N,0,264,264,71,,,0.713,886.4886309999856,886.7815823999699,886.7815823999699,887.0155657999567,887.0312068999629,None,up,1.8841697999741882,887.0312068999629,None,887.0312068999629,887.7305442999932,0.1821516000200063,None,,,,,,,,,25,001,2019_Dec_25_1139,untitled,3.1.0,59.91837917622173,
044,R,M,135,L,N,044RM135LN,HLN,0,265,265,107,,,0.769,888.9948860000004,889.328966000001,889.3462381999707,889.62888199999,889.6456797999563,None,down,1.6326802999828942,889.6456797999563,None,889.6456797999563,890.3954830999719,0.07095769996521994,None,,,,,,,,,25,001,2019_Dec_25_1139,untitled,3.1.0,59.91837917622173,
196,G,N,135,R,N,196GN135RN,HRN,0,266,266,227,,,1.373,891.3486024999875,891.6960525999893,891.7108326999587,891.9956161999726,892.0099740999867,None,up,2.7822145000100136,892.0099740999867,None,892.0099740999867,893.3588556000032,0.06235319998813793,None,,,,,,,,,25,001,2019_Dec_25_1139,untitled,3.1.0,59.91837917622173,
_,F,M,135,_,_,_FM135__,N,0,267,267,3,,,1.222,894.8953316999832,895.2076745999511,895.2245375000057,895.5073116999702,895.5242615999887,None,down,2.1645366000011563,895.5242615999887,None,895.5242615999887,896.7224285999546,0.09418090002145618,None,,,,,,,,,25,001,2019_Dec_25_1139,untitled,3.1.0,59.91837917622173,
_,_2,M,270,_,_,__2M270__,N,0,268,268,30,,,0.728,897.7654394999845,898.1053978999844,898.1218247999786,898.4045964999823,898.421916399966,None,down,2.100385700003244,898.421916399966,None,898.421916399966,899.1374851999572,0.06806459999643266,None,,,,,,,,,25,001,2019_Dec_25_1139,untitled,3.1.0,59.91837917622173,
386,_4,N,45,R,N,386_4N045RN,HRN,0,269,269,257,,,0.719,900.593095499964,900.9359226999804,900.9536027999711,901.2356196999899,901.2524744999828,None,up,1.4160279000061564,901.2524744999828,None,901.2524744999828,901.9518813999603,0.06404770002700388,None,,,,,,,,,25,001,2019_Dec_25_1139,untitled,3.1.0,59.91837917622173,
_,G,N,45,_,_,_GN045__,N,0,270,270,57,,,0.787,902.7396753999637,903.0842155999853,903.1009429999976,903.3840284000034,903.4006816999754,None,up,1.5488463999936357,903.4006816999754,None,903.4006816999754,904.166653799999,0.06390649999957532,None,,,,,,,,,25,001,2019_Dec_25_1139,untitled,3.1.0,59.91837917622173,
_,_2,M,225,_,_,__2M225__,N,0,271,271,29,,,0.923,905.0251100999885,905.3651215999853,905.3823094999534,905.6648468999774,905.6811464999919,None,down,2.2176054000156,905.6811464999919,None,905.6811464999919,906.5809999000048,0.06816329999128357,None,,,,,,,,,25,001,2019_Dec_25_1139,untitled,3.1.0,59.91837917622173,
_,_5,M,225,_,_,__5M225__,N,0,272,272,45,,,0.749,907.9675735000055,908.3126737999846,908.3300350999925,908.6125935000018,908.6289390999591,None,up,3.0313379000290297,908.6289390999591,None,908.6289390999591,909.3625077999895,0.061188000021502376,None,,,,,,,,,25,001,2019_Dec_25_1139,untitled,3.1.0,59.91837917622173,
_,R,N,180,_,_,_RN180__,N,0,273,273,68,,,0.725,911.743124599976,912.0775771999615,912.0935589000001,912.3763646999723,912.3931638999493,None,up,2.101371199998539,912.3931638999493,None,912.3931638999493,913.0921231999528,0.07581589999608696,None,,,,,,,,,25,001,2019_Dec_25_1139,untitled,3.1.0,59.91837917622173,
429,_4,M,180,L,N,429_4M180LN,HLN,0,274,274,172,,,1.067,914.5810526999994,914.907779000001,914.9238694999949,915.2070002999972,915.2239036999526,None,None,,915.2239036999526,None,915.2239036999526,916.2731713999528,0.07971499999985099,None,,,,,,,,,25,001,2019_Dec_25_1139,untitled,3.1.0,59.91837917622173,
489,_5,M,0,L,N,489_5M000LN,HLN,0,275,275,184,,,0.8160000000000001,918.780562400003,919.1034211999504,919.1200581999728,919.4031051999773,919.4196718999883,918.780562400003,down,2.000670799985528,919.4196718999883,None,919.4196718999883,920.2190994999837,0.08390490000601858,None,,,,,,,,,25,001,2019_Dec_25_1139,untitled,3.1.0,59.91837917622173,
290,_2,N,45,L,N,290_2N045LN,HLN,0,276,276,249,,,1.156,921.4929234999581,921.8344893999747,921.851301799994,922.1345862000016,922.1508284999873,None,up,2.1147677000262775,922.1508284999873,None,922.1508284999873,923.2830694000004,0.06567899999208748,None,,,,,,,,,25,001,2019_Dec_25_1139,untitled,3.1.0,59.91837917622173,
455,_5,N,270,R,N,455_5N270RN,HRN,0,277,277,278,,,1.184,924.339983999962,924.6817484999774,924.6987826999975,924.9811215999653,924.9978095999686,None,up,2.1154630999662913,924.9978095999686,None,924.9978095999686,926.1635070999619,0.06672740000067279,None,,,,,,,,,25,001,2019_Dec_25_1139,untitled,3.1.0,59.91837917622173,
_,R,N,135,_,_,_RN135__,N,0,278,278,67,,,1.119,927.2073113999795,927.529429999995,927.5465344999684,927.829189299955,927.8456424999749,None,up,2.032261300017126,927.8456424999749,None,927.8456424999749,928.9449929999537,0.08475359994918108,None,,,,,,,,,25,001,2019_Dec_25_1139,untitled,3.1.0,59.91837917622173,
144,F,M,315,R,N,144FM315RN,HRN,0,279,279,119,,,0.767,929.9657824999886,930.295585899963,930.3118215999566,930.593566800002,930.6102435999783,None,down,1.8672126999590546,930.6102435999783,None,930.6102435999783,931.3592946999706,0.07813369994983077,None,,,,,,,,,25,001,2019_Dec_25_1139,untitled,3.1.0,59.91837917622173,
493,_5,M,180,L,N,493_5M180LN,HLN,0,280,280,188,,,0.8290000000000001,932.5469082999625,932.8917613999802,932.9080049999757,933.1909838999854,933.2078311999794,None,up,2.4815538999973796,933.2078311999794,None,933.2078311999794,934.0242193999584,0.06292430002940819,None,,,,,,,,,25,001,2019_Dec_25_1139,untitled,3.1.0,59.91837917622173,
174,F,M,225,L,N,174FM225LN,HLN,0,281,281,125,,,1.018,935.7652225999627,936.1049986999715,936.121505099989,936.4051370999659,936.4216656999779,None,up,2.1501864999881946,936.4216656999779,None,936.4216656999779,937.4213655999629,0.06838509999215603,None,,,,,,,,,25,001,2019_Dec_25_1139,untitled,3.1.0,59.91837917622173,
_,_4,N,225,_,_,__4N225__,N,0,282,282,85,,,1.203,938.6413752999506,938.9861582999583,939.0027375999489,939.2859607999562,939.3024107999518,None,up,2.916633200016804,939.3024107999518,None,939.3024107999518,940.4850916999858,0.06229100003838539,None,,,,,,,,,25,001,2019_Dec_25_1139,untitled,3.1.0,59.91837917622173,
492,_5,M,135,L,N,492_5M135LN,HLN,0,283,283,187,,,1.0070000000000001,942.3470365999965,942.6496084999526,942.6496084999526,942.933074600005,942.9488157999585,None,down,2.3322005000081845,942.9488157999585,None,942.9488157999585,943.9314988999977,0.12110559997381642,None,,,,,,,,,25,001,2019_Dec_25_1139,untitled,3.1.0,59.91837917622173,
490,_5,M,45,L,N,490_5M045LN,HLN,0,284,284,185,,,0.805,945.3541151999962,945.6968986999709,945.7136860999744,945.9962057999801,946.0126646999852,None,down,2.4007871000212617,946.0126646999852,None,946.0126646999852,946.7954815999838,0.06572960002813488,None,,,,,,,,,25,001,2019_Dec_25_1139,untitled,3.1.0,59.91837917622173,
143,F,M,270,R,N,143FM270RN,HRN,0,285,285,118,,,1.08,948.5772149999975,948.8771720999503,948.8771720999503,949.1270154999802,949.1437179999775,None,up,2.481191700033378,949.1437179999775,None,949.1437179999775,950.2113839999656,0.15582939999876544,None,,,,,,,,,25,001,2019_Dec_25_1139,untitled,3.1.0,59.91837917622173,
195,G,N,90,R,N,195GN090RN,HRN,0,286,286,226,,,1.237,951.7008578999666,952.0411975999596,952.0579794999794,952.341725599952,952.3577196999686,None,up,2.434131400019396,952.3577196999686,None,952.3577196999686,953.5733334999532,0.06861269997898489,None,,,,,,,,,25,001,2019_Dec_25_1139,untitled,3.1.0,59.91837917622173,
449,_5,N,0,R,N,449_5N000RN,HRN,0,287,287,272,,,1.252,954.8644954999909,955.2053743999568,955.2219077000045,955.5050330999657,955.5226372999605,None,up,2.630539099976886,955.5226372999605,None,955.5226372999605,956.7538813999854,0.06568130000960082,None,,,,,,,,,25,001,2019_Dec_25_1139,untitled,3.1.0,59.91837917622173,
,,,,,,,,,,,,,,,,,,,,,,,,,,,,,958.1704690000042,None,970.5251466999762,None,973.4891216999968,None,976.7704550999915,None,,,,,,,
