Number,Letter,type,Orientation,human,face_type,image,picture,trials.thisRepN,trials.thisTrialN,trials.thisN,trials.thisIndex,text.started,text.stopped,stimulus_duration,CROSS.started,CROSS.stopped,BLANK.started,BLANK.stopped,TEST.started,TEST.stopped,key_JUDGE.keys,key_JUDGE.started,key_JUDGE.stopped,image_2.started,image_2.stopped,ISI.started,ISI.stopped,key_JUDGE.rt,q1.started,q1.stopped,q2.started,q2.stopped,q3.started,q3.stopped,text_2.started,text_2.stopped,participant,session,date,expName,psychopyVersion,frameRate,
136,F,N,315,R,N,136FN315RN,HRN,0,0,0,215,8.872929093664425,None,1.098,45.74052966050658,46.07376393404047,46.07376393404047,46.40715881801225,46.40715881801225,None,None,46.40715881801225,None,46.40715881801225,47.45713637930021,0.06939072212480824,None,,,,,,,,,,26,001,2019_Dec_25_1346,untitled,3.1.0,60.00052090269702,
169,F,M,0,L,N,169FM000LN,HLN,0,1,1,120,,,0.925,49.94050969272212,50.273847812091844,50.290492195868865,50.57385976604928,50.60727842437336,49.94050969272212,down,50.60727842437336,None,50.60727842437336,None,0.07057109199013212,None,0.3334032317106903,,,,,,,,,26,001,2019_Dec_25_1346,untitled,3.1.0,60.00052090269702,
205,G,M,180,R,N,205GM180RN,HRN,0,2,2,132,,,0.736,51.02387185356929,51.35721865458618,51.37389075284591,51.65721424698131,51.690564787779294,None,None,51.690564787779294,None,51.690564787779294,52.390493731851166,0.06960275461824494,None,,,,,,,,,,26,001,2019_Dec_25_1346,untitled,3.1.0,60.00052090269702,
129,F,N,0,R,N,129FN000RN,HRN,0,3,3,208,,,0.989,55.22396574890445,55.557304870002554,55.573976968262286,55.85730613885971,55.89069107233081,55.22396574890445,up,55.89069107233081,None,55.89069107233081,56.8407034937627,0.06751114589860663,None,1.8337391446038964,,,,,,,,,26,001,2019_Dec_25_1346,untitled,3.1.0,60.00052090269702,
463,_5,M,270,R,N,463_5M270RN,HRN,0,4,4,182,,,0.709,57.807321231564856,58.14073781965271,58.15733011355405,58.44069334291271,58.47399780421256,None,down,58.47399780421256,None,58.47399780421256,59.14070509652447,0.06851087075847317,None,1.8336352987680584,,,,,,,,,26,001,2019_Dec_25_1346,untitled,3.1.0,60.00052090269702,
453,_5,N,180,R,N,453_5N180RN,HRN,0,5,5,276,,,1.26,60.39078890779638,60.72404388371433,60.740726333166094,61.02408755906799,61.05745479534016,None,up,61.05745479534016,None,61.05745479534016,62.27407553832745,0.0709714494041691,None,2.850254639335617,,,,,,,,,26,001,2019_Dec_25_1346,untitled,3.1.0,60.00052090269702,
035,R,N,90,L,N,035RN090LN,HLN,0,6,6,202,,,0.772,63.990836857192335,64.32409917911718,64.34082069597207,64.62413918146922,64.65753513395248,None,up,64.65753513395248,None,64.65753513395248,65.39084066375653,0.07320163054828299,None,2.550228995092766,,,,,,,,,26,001,2019_Dec_25_1346,untitled,3.1.0,60.00052090269702,
417,_4,N,0,L,N,417_4N000LN,HLN,0,7,7,264,,,0.809,67.29084647378113,67.62423100656451,67.64090377264074,67.92423027196128,67.95755576955344,None,up,67.95755576955344,None,67.95755576955344,68.72425391275101,0.07204563606865122,None,1.7836968048868584,,,,,,,,,26,001,2019_Dec_25_1346,untitled,3.1.0,60.00052090269702,
_,_2,N,45,_,_,__2N045__,N,0,8,8,73,,,0.9590000000000001,69.82426312865209,70.15761293485048,70.17428302965345,70.45761921234589,70.49097509569765,None,up,70.49097509569765,None,70.49097509569765,71.40768739665509,0.07091034398035845,None,1.8836305572549463,,,,,,,,,26,001,2019_Dec_25_1346,untitled,3.1.0,60.00052090269702,
_,_2,N,90,_,_,__2N090__,N,0,9,9,74,,,1.285,72.4576726378582,72.79100675031441,72.80773628099632,73.09104742048294,73.14108341592146,None,up,73.14108341592146,None,73.14108341592146,74.37437926235361,0.07025387802423211,None,2.033533523172082,,,,,,,,,26,001,2019_Dec_25_1346,untitled,3.1.0,60.00052090269702,
_,_5,M,315,_,_,__5M315__,N,0,10,10,47,,,1.014,75.30770088659483,75.60774022112673,75.60774022112673,75.89107440036605,75.92440156750308,None,down,75.92440156750308,None,75.92440156750308,76.90770509385402,0.11489022393288906,None,2.217004738842661,,,,,,,,,26,001,2019_Dec_25_1346,untitled,3.1.0,60.00052090269702,
230,G,N,225,L,N,230GN225LN,HLN,0,11,11,237,,,1.022,78.2244656113362,78.55772259071091,78.57446213867661,78.85780299610269,78.90785034446162,None,up,78.90785034446162,None,78.90785034446162,79.87441666021186,0.07178251543518854,None,2.466874848072621,,,,,,,,,26,001,2019_Dec_25_1346,untitled,3.1.0,60.00052090269702,
_,R,M,0,_,_,_RM000__,N,0,12,12,16,,,1.233,81.45788767553677,81.79119974996865,81.80787218213663,82.0912183821165,82.1245448814334,None,down,82.1245448814334,None,82.1245448814334,83.32457199488272,0.07055105742620071,None,2.150277612308855,,,,,,,,,26,001,2019_Dec_25_1346,untitled,3.1.0,60.00052090269702,
_,F,N,45,_,_,_FN045__,N,0,13,13,49,,,1.281,84.35796060135908,84.69124329175975,84.70798150408882,84.99126993773098,85.02460111178516,None,up,85.02460111178516,None,85.02460111178516,86.27463249927314,0.07151238269580062,None,2.333661009797652,,,,,,,,,26,001,2019_Dec_25_1346,untitled,3.1.0,60.00052090269702,
225,G,N,0,L,N,225GN000LN,HLN,0,14,14,232,,,0.9570000000000001,87.44132409784288,87.77466221721261,87.79132930683045,88.07467550680667,88.10807813748033,None,up,88.10807813748033,None,88.10807813748033,89.02469059951545,0.0710409025705303,None,2.0668510069372132,,,,,,,,,26,001,2019_Dec_25_1346,untitled,3.1.0,60.00052090269702,
138,F,M,45,R,N,138FM045RN,HRN,0,15,15,113,,,1.3,90.25802451162235,90.59136597008546,90.60805977246127,90.89138560396168,90.92468872962127,None,down,90.92468872962127,None,90.92468872962127,92.19147502490887,0.07113272766582668,None,2.0003262295213062,,,,,,,,,26,001,2019_Dec_25_1346,untitled,3.1.0,60.00052090269702,
_,R,N,90,_,_,_RN090__,N,0,16,16,66,,,0.901,93.00817176568671,93.34139368457181,93.35811386579007,93.64147843078536,93.67478689899508,None,up,93.67478689899508,None,93.67478689899508,94.54147322179779,0.06954932910957723,None,1.8336937329186185,,,,,,,,,26,001,2019_Dec_25_1346,untitled,3.1.0,60.00052090269702,
_,G,N,90,_,_,_GN090__,N,0,17,17,58,,,1.374,95.59151856669996,95.92484332969252,95.94152344177928,96.22485695319483,96.25817209959496,None,down,96.25817209959496,None,96.25817209959496,97.59155496282983,0.069863203982095,None,2.216955654155754,,,,,,,,,26,001,2019_Dec_25_1346,untitled,3.1.0,60.00052090269702,
_,R,N,180,_,_,_RN180__,N,0,18,18,68,,,0.934,98.55819507256456,98.89157359497403,98.90824001677538,99.19158588284336,99.22498617614838,None,down,99.22498617614838,None,99.22498617614838,100.12491284963471,0.06990728002710966,None,2.00024575734642,,,,,,,,,26,001,2019_Dec_25_1346,untitled,3.1.0,60.00052090269702,
_,_4,N,225,_,_,__4N225__,N,0,19,19,85,,,1.3,101.30828055338134,101.64160965719566,101.65830078829458,101.9416379727154,101.97498250314675,None,up,101.97498250314675,None,101.97498250314675,103.24162889037689,0.07059346392270527,None,2.433712966103485,,,,,,,,,26,001,2019_Dec_25_1346,untitled,3.1.0,60.00052090269702,
142,F,M,225,R,N,142FM225RN,HRN,0,20,20,117,,,1.35,104.49170368609339,104.82499806332635,104.84169987952555,105.12496560732689,105.15844904408368,None,up,105.15844904408368,None,105.15844904408368,106.47507933688394,0.0715915192340617,None,3.0335983016047976,,,,,,,,,26,001,2019_Dec_25_1346,untitled,3.1.0,60.00052090269702,
460,_5,M,135,R,N,460_5M135RN,HRN,0,21,21,179,,,0.977,108.27510865413205,108.60849886337019,108.62513723678057,108.90845405272557,108.9418019222503,None,down,108.9418019222503,None,108.9418019222503,109.89180799940004,0.07258055899001192,None,1.9668892061781662,,,,,,,,,26,001,2019_Dec_25_1346,untitled,3.1.0,60.00052090269702,
141,F,M,180,R,N,141FM180RN,HRN,0,22,22,116,,,0.998,110.99183691596045,111.32522245046857,111.34183945367113,111.6251786415487,111.65846874473937,None,down,111.65846874473937,None,111.65846874473937,112.62519867611627,0.07113072420906974,None,2.4837182418741577,,,,,,,,,26,001,2019_Dec_25_1346,untitled,3.1.0,60.00052090269702,
418,_4,N,45,L,N,418_4N045LN,HLN,0,23,23,265,,,1.004,114.22520388510384,114.55858641442683,114.57524549021764,114.85859369365426,114.8919175216979,None,up,114.8919175216979,None,114.8919175216979,115.85857599645169,0.0709383923713176,None,2.2502444217097946,,,,,,,,,26,001,2019_Dec_25_1346,untitled,3.1.0,60.00052090269702,
290,_2,N,45,L,N,290_2N045LN,HLN,0,24,24,249,,,1.266,117.22526499053129,117.55861913755143,117.57531360774374,117.85864110879265,117.89203939864092,None,down,117.89203939864092,None,117.89203939864092,119.12535093881888,0.0716936955213896,None,2.366899690936407,,,,,,,,,26,001,2019_Dec_25_1346,untitled,3.1.0,60.00052090269702,
038,R,N,225,L,N,038RN225LN,HLN,0,25,25,205,,,0.8,120.34199839456414,120.675380256067,120.69204734568848,120.97538219274429,121.00871870934498,None,up,121.00871870934498,None,121.00871870934498,121.77540516571389,0.07152573907296755,None,2.0502867614268325,,,,,,,,,26,001,2019_Dec_25_1346,untitled,3.1.0,60.00052090269702,
259,_2,N,90,R,N,259_2N090RN,HRN,0,26,26,242,,,0.796,123.14210951962377,123.47544162862323,123.49211639815985,123.77551969665001,123.80889027201556,None,up,123.80889027201556,None,123.80889027201556,124.57547087908824,0.07209004602555069,None,1.7501182039413834,,,,,,,,,26,001,2019_Dec_25_1346,untitled,3.1.0,60.00052090269702,
234,G,M,45,L,N,234GM045LN,HLN,0,27,27,137,,,0.931,125.64215092439554,125.97549472022365,125.99216681848338,126.27546894241459,126.30880078428527,None,down,126.30880078428527,None,126.30880078428527,127.20889307685502,0.0719117383887351,None,2.250447772556072,,,,,,,,,26,001,2019_Dec_25_1346,untitled,3.1.0,60.00052090269702,
425,_4,M,0,L,N,425_4M000LN,HLN,0,28,28,168,,,1.054,128.64226078060165,128.97560157124462,128.99226866086246,129.27557679516394,129.32558106920624,None,up,129.32558106920624,None,129.32558106920624,130.32557439101583,0.07164160564934718,None,2.233536261228437,,,,,,,,,26,001,2019_Dec_25_1346,untitled,3.1.0,60.00052090269702,
481,_5,N,0,L,N,481_5N000LN,HLN,0,29,29,280,,,1.0110000000000001,131.64224976158948,131.9755868792272,131.9922766746895,132.2756305545845,132.30898643793262,None,up,132.30898643793262,None,132.30898643793262,133.29225891070746,0.07180856036939076,None,1.850303724026162,,,,,,,,,26,001,2019_Dec_25_1346,untitled,3.1.0,60.00052090269702,
204,G,M,135,R,N,204GM135RN,HRN,0,30,30,131,,,1.016,134.2423160760045,134.57568324549356,134.5923429891045,134.87571356447006,134.90898864173505,None,down,134.90898864173505,None,134.90898864173505,135.89237297417276,0.07288708785563358,None,3.3170052730965836,,,,,,,,,26,001,2019_Dec_25_1346,untitled,3.1.0,60.00052090269702,
_,_5,N,225,_,_,__5N225__,N,0,31,31,93,,,0.923,138.30910096887237,138.64248283037523,138.65910717958832,138.94244937265103,138.97582929748023,None,up,138.97582929748023,None,138.97582929748023,139.85913629649076,0.07158818014067947,None,2.133614195692644,,,,,,,,,26,001,2019_Dec_25_1346,untitled,3.1.0,60.00052090269702,
487,_5,N,270,L,N,487_5N270LN,HLN,0,32,32,286,,,1.299,141.19242032252805,141.52583123415752,141.54249999332023,141.8258625548624,141.859172692617,None,up,141.859172692617,None,141.859172692617,143.12591791704472,0.071477656118077,None,2.5837595130797126,,,,,,,,,26,001,2019_Dec_25_1346,untitled,3.1.0,60.00052090269702,
012,R,M,135,R,N,012RM135RN,HRN,0,33,33,99,,,0.8210000000000001,144.52583323761064,144.85925416652026,144.87587283927132,145.1592604440193,145.1926126543658,None,up,145.1926126543658,None,145.1926126543658,145.97591177311187,0.07288541831076145,None,2.516950912642642,,,,,,,,,26,001,2019_Dec_25_1346,untitled,3.1.0,60.00052090269702,
133,F,N,180,R,N,133FN180RN,HRN,0,34,34,212,,,1.3,147.7926519221146,148.12594997235283,148.14265345810054,148.42593654919256,148.45931580620527,None,up,148.45931580620527,None,148.45931580620527,149.7260476742522,0.07213612552732229,None,3.23369720557821,,,,,,,,,26,001,2019_Dec_25_1346,untitled,3.1.0,60.00052090269702,
015,R,M,270,R,N,015RM270RN,HRN,0,35,35,102,,,0.9470000000000001,151.77608300187057,152.109365358363,152.12605548773354,152.40939066870123,152.4427585727899,None,down,152.4427585727899,None,152.4427585727899,153.35943414370922,0.07233647119210218,None,2.5836656845276593,,,,,,,,,26,001,2019_Dec_25_1346,untitled,3.1.0,60.00052090269702,
193,G,N,0,R,N,193GN000RN,HRN,0,36,36,224,,,1.05,155.109480223211,155.44281300003058,155.4594744131864,155.74281159761085,155.77617683042627,None,up,155.77617683042627,None,155.77617683042627,156.79284659131736,0.07226334502411191,None,2.450356014240242,,,,,,,,,26,001,2019_Dec_25_1346,untitled,3.1.0,60.00052090269702,
132,F,N,135,R,N,132FN135RN,HRN,0,37,37,211,,,0.803,158.3095226964906,158.64290389017697,158.65955628778102,158.94284906224857,158.97617522766086,None,up,158.97617522766086,None,158.97617522766086,159.74290809743616,0.0733124884791323,None,2.1169664728186035,,,,,,,,,26,001,2019_Dec_25_1346,untitled,3.1.0,60.00052090269702,
455,_5,N,270,R,N,455_5N270RN,HRN,0,38,38,278,,,1.3880000000000001,161.17622771822425,161.50957618878238,161.52628234580698,161.80959916175198,161.84302049135295,None,up,161.84302049135295,None,161.84302049135295,163.19290649467075,0.07218020157233695,None,2.5669034307211405,,,,,,,,,26,001,2019_Dec_25_1346,untitled,3.1.0,60.00052090269702,
496,_5,M,315,L,N,496_5M315LN,HLN,0,39,39,191,,,0.714,164.49302129273565,164.8263140004201,164.84299845333226,165.12635700795727,165.1597212390443,None,down,165.1597212390443,None,165.1597212390443,165.84303685291525,0.07210573977135937,None,2.866988176934683,,,,,,,,,26,001,2019_Dec_25_1346,untitled,3.1.0,60.00052090269702,
226,G,N,45,L,N,226GN045LN,HLN,0,40,40,233,,,0.856,168.10972531274092,168.44309315004648,168.45976157530458,168.74310710746067,168.77642592686607,None,up,168.77642592686607,None,168.77642592686607,169.59309996179945,0.07273248778437846,None,1.750258779811702,,,,,,,,,26,001,2019_Dec_25_1346,untitled,3.1.0,60.00052090269702,
_,_4,M,180,_,_,__4M180__,N,0,41,41,36,,,1.278,170.60981480046757,170.94311051333716,170.95982067727527,171.24316587552312,171.27652175887488,None,up,171.27652175887488,None,171.27652175887488,172.52655782109287,0.07060615248337854,None,2.4503075973734667,,,,,,,,,26,001,2019_Dec_25_1346,untitled,3.1.0,60.00052090269702,
458,_5,M,45,R,N,458_5M045RN,HRN,0,42,42,177,,,1.332,173.80986762494285,174.14315165098014,174.15990789442003,174.44317629349825,174.50993313797517,None,down,174.50993313797517,None,174.50993313797517,175.77657117747003,0.07171640136584756,None,3.150304325063189,,,,,,,,,26,001,2019_Dec_25_1346,untitled,3.1.0,60.00052090269702,
_,_4,N,270,_,_,__4N270__,N,0,43,43,86,,,1.0030000000000001,177.74330578357694,178.07664390294667,178.09335473470128,178.3766682115529,178.410017082806,None,up,178.410017082806,None,178.410017082806,179.37671128587317,0.07207969483351917,None,3.0002597815400804,,,,,,,,,26,001,2019_Dec_25_1346,untitled,3.1.0,60.00052090269702,
004,R,N,135,R,N,004RN135RN,HRN,0,44,44,195,,,1.032,181.4933882592086,181.82672771421494,181.84343286951116,182.12676471138184,182.16002643226966,None,up,182.16002643226966,None,182.16002643226966,183.16008954115387,0.07204730561716133,None,2.250322556516039,,,,,,,,,26,001,2019_Dec_25_1346,untitled,3.1.0,60.00052090269702,
162,F,N,45,L,N,162FN045LN,HLN,0,45,45,217,,,1.19,184.49338592184358,184.8267574321544,184.84343687642468,185.12674901763967,185.16021342155727,None,up,185.16021342155727,None,185.16021342155727,186.31015712442604,0.071849631232908,None,2.0002444217097946,,,,,,,,,26,001,2019_Dec_25_1346,untitled,3.1.0,60.00052090269702,
399,_4,M,270,R,N,399_4M270RN,HRN,0,46,46,166,,,0.742,187.2435375167297,187.57685326416322,187.5935644298297,187.87679175804806,187.91023980040336,None,down,187.91023980040336,None,187.91023980040336,188.61021449006512,0.07197518118118751,None,2.133562773640733,,,,,,,,,26,001,2019_Dec_25_1346,untitled,3.1.0,60.00052090269702,
_,F,M,135,_,_,_FM135__,N,0,47,47,3,,,0.858,190.12693033046162,190.4602467457189,190.47691283360837,190.760270386505,190.79366299989488,None,down,190.79366299989488,None,190.79366299989488,191.6102812719546,0.07015771210717503,None,2.4334952571516624,,,,,,,,,26,001,2019_Dec_25_1346,untitled,3.1.0,60.00052090269702,
167,F,N,270,L,N,167FN270LN,HLN,0,48,48,222,,,1.0150000000000001,193.3102860134677,193.6436561881419,193.66038404927895,193.94364677189515,193.97706776758787,None,up,193.97706776758787,None,193.97706776758787,194.96031853624663,0.0715754915800062,None,2.2336187368600804,,,,,,,,,26,001,2019_Dec_25_1346,untitled,3.1.0,60.00052090269702,
197,G,N,180,R,N,197GN180RN,HRN,0,49,49,228,,,1.3780000000000001,196.29371308631016,196.6270084652715,196.64373265340328,196.9270511388968,197.02713448269424,None,down,197.02713448269424,None,197.02713448269424,198.3104058869576,0.07146864056267077,None,2.1836785734303703,,,,,,,,,26,001,2019_Dec_25_1346,untitled,3.1.0,60.00052090269702,
166,F,N,225,L,N,166FN225LN,HLN,0,50,50,221,,,1.088,199.29377118655248,199.62712099275086,199.64378908410072,199.92718971131399,199.9604591121206,None,up,199.9604591121206,None,199.9604591121206,201.01042598830463,0.07284067444197717,None,2.300331505288341,,,,,,,,,26,001,2019_Dec_25_1346,untitled,3.1.0,60.00052090269702,
_,_4,N,90,_,_,__4N090__,N,0,51,51,82,,,1.297,202.343851258036,202.67719405213938,202.69386147566547,202.97714189548424,203.0105959482098,None,up,203.0105959482098,None,203.0105959482098,204.27718890993128,0.07142923924766365,None,3.116959794631839,,,,,,,,,26,001,2019_Dec_25_1346,untitled,3.1.0,60.00052090269702,
483,_5,N,90,L,N,483_5N090LN,HLN,0,52,52,282,,,0.7030000000000001,206.2105549441294,206.5439040825113,206.56057350949413,206.84391970947036,206.8773470494416,None,up,206.8773470494416,None,206.8773470494416,207.54396418621036,0.07155478919594316,None,1.616805194560584,,,,,,,,,26,001,2019_Dec_25_1346,untitled,3.1.0,60.00052090269702,
_,F,N,225,_,_,_FN225__,N,0,53,53,53,,,0.903,208.57732040347037,208.91070627188674,208.927273188674,209.21066947506915,209.2440998202219,None,up,209.2440998202219,None,209.2440998202219,210.11067328163335,0.07062785659582005,None,2.2834620665526018,,,,,,,,,26,001,2019_Dec_25_1346,untitled,3.1.0,60.00052090269702,
172,F,M,135,L,N,172FM135LN,HLN,0,54,54,123,,,0.9400000000000001,211.6106916466524,211.9440671638804,211.96073058049296,212.2441195208812,212.27749977961867,None,down,212.27749977961867,None,212.27749977961867,213.17747219869852,0.07192776603915263,None,2.6669780928677937,,,,,,,,,26,001,2019_Dec_25_1346,untitled,3.1.0,60.00052090269702,
_,G,N,225,_,_,_GN225__,N,0,55,55,61,,,1.268,215.02739125905282,215.36075175035148,215.37751033115637,215.66075869567067,215.6941579872473,None,up,215.6941579872473,None,215.6941579872473,216.92751694256367,0.07053135677051614,None,2.3502482950570993,,,,,,,,,26,001,2019_Dec_25_1346,untitled,3.1.0,60.00052090269702,
_,F,M,45,_,_,_FM045__,N,0,56,56,1,,,0.864,218.12757544349734,218.46084310797596,218.4775175436007,218.7608573992984,218.79431278766424,None,down,218.79431278766424,None,218.79431278766424,219.62759581197315,0.06939105603305507,None,2.1667987835025997,,,,,,,,,26,001,2019_Dec_25_1346,untitled,3.1.0,60.00052090269702,
489,_5,M,0,L,N,489_5M000LN,HLN,0,57,57,184,,,0.961,221.04430510774546,221.37754906465125,221.39431799664817,221.67761077111572,221.71102375298142,None,down,221.71102375298142,None,221.71102375298142,222.644266240688,0.07239056452090153,None,2.4335349923749163,,,,,,,,,26,001,2019_Dec_25_1346,untitled,3.1.0,60.00052090269702,
451,_5,N,90,R,N,451_5N090RN,HRN,0,58,58,274,,,1.096,224.22773258127927,224.56100959522155,224.57767802047601,224.8609624472083,224.91098608799803,None,up,224.91098608799803,None,224.91098608799803,225.96099336722182,0.07183694267223473,None,2.000264456273726,,,,,,,,,26,001,2019_Dec_25_1346,untitled,3.1.0,60.00052090269702,
297,_2,M,0,L,N,297_2M000LN,HLN,0,59,59,152,,,1.083,226.99436127131412,227.32771875742765,227.34440421206818,227.62769431525885,227.66115471226294,None,down,227.66115471226294,None,227.66115471226294,228.71106148474792,0.0721798676677281,None,2.5001993439364014,,,,,,,,,26,001,2019_Dec_25_1346,untitled,3.1.0,60.00052090269702,
_,R,M,225,_,_,_RM225__,N,0,60,60,21,,,1.171,230.24442471410657,230.5777725168482,230.5944770043243,230.8777464051309,230.96122843946796,None,down,230.96122843946796,None,230.96122843946796,232.04455787719053,0.07070432185719255,None,2.316847333931946,,,,,,,,,26,001,2019_Dec_25_1346,untitled,3.1.0,60.00052090269702,
301,_2,M,180,L,N,301_2M180LN,HLN,0,61,61,156,,,1.232,233.36126830825378,233.69454498828782,233.71123812283986,233.99451820875038,234.04456956401918,None,down,234.04456956401918,None,234.04456956401918,235.22787950143174,0.07300395616039168,None,2.4668451301295136,,,,,,,,,26,001,2019_Dec_25_1346,untitled,3.1.0,60.00052090269702,
_,G,N,45,_,_,_GN045__,N,0,62,62,57,,,1.156,236.594655645873,236.9279069487893,236.9446474984834,237.22799035936623,237.2613322185207,None,up,237.2613322185207,None,237.2613322185207,238.3779504237973,0.07055072351795388,None,2.250428405808634,,,,,,,,,26,001,2019_Dec_25_1346,untitled,3.1.0,60.00052090269702,
161,F,N,0,L,N,161FN000LN,HLN,0,63,63,216,,,0.9490000000000001,239.59472175994233,239.92801914236043,239.94465183930515,240.22797433171218,240.2614307218064,None,up,240.2614307218064,None,240.2614307218064,241.1780251527307,0.07219088667625329,None,2.016828367879498,,,,,,,,,26,001,2019_Dec_25_1346,untitled,3.1.0,60.00052090269702,
267,_2,M,90,R,N,267_2M090RN,HRN,0,64,64,146,,,0.851,242.36137950009652,242.69474366440045,242.71138270562733,242.9947008572126,243.0447866051545,None,down,243.0447866051545,None,243.0447866051545,243.84471908866908,0.07253180821498972,None,1.866925735870609,,,,,,,,,26,001,2019_Dec_25_1346,untitled,3.1.0,60.00052090269702,
134,F,N,225,R,N,134FN225RN,HRN,0,65,65,213,,,0.8320000000000001,244.99476196264004,245.328136478136,245.34480289993735,245.62809300312801,245.66149630161817,None,up,245.66149630161817,None,245.66149630161817,246.46143613113964,0.0717384393865359,None,1.6336302233466995,,,,,,,,,26,001,2019_Dec_25_1346,untitled,3.1.0,60.00052090269702,
_,R,M,135,_,_,_RM135__,N,0,66,66,19,,,0.869,247.37817414312303,247.71148688537141,247.72816933482682,248.01153723891548,248.04486741124128,None,down,248.04486741124128,None,248.04486741124128,248.87820653233575,0.07065690671515767,None,2.533569251481822,,,,,,,,,26,001,2019_Dec_25_1346,untitled,3.1.0,60.00052090269702,
176,F,M,315,L,N,176FM315LN,HLN,0,67,67,127,,,1.312,250.66155874268225,250.99493826682374,251.0115682924952,251.29490814819292,251.3282767201017,None,down,251.3282767201017,None,251.3282767201017,252.61160455505888,0.07223295926451101,None,2.583668021892663,,,,,,,,,26,001,2019_Dec_25_1346,untitled,3.1.0,60.00052090269702,
034,R,N,45,L,N,034RN045LN,HLN,0,68,68,201,,,0.9490000000000001,253.99502742064215,254.32841161951364,254.3450944028773,254.628317056362,254.66169731509945,None,up,254.66169731509945,None,254.66169731509945,255.57841061778527,0.07236084658143227,None,2.333577866345877,,,,,,,,,26,001,2019_Dec_25_1346,untitled,3.1.0,60.00052090269702,
228,G,N,135,L,N,228GN135LN,HLN,0,69,69,235,,,1.2790000000000001,257.0783725521105,257.4116943099143,257.42844621253244,257.7117970872423,257.74514161767,None,down,257.74514161767,None,257.74514161767,258.995055802945,0.07092303253739374,None,2.5002878299383156,,,,,,,,,26,001,2019_Dec_25_1346,untitled,3.1.0,60.00052090269702,
_,_5,M,90,_,_,__5M090__,N,0,70,70,42,,,1.035,260.3284363288112,260.66175975616716,260.67843719697703,260.961777386583,260.9952040587341,None,down,260.9952040587341,None,260.9952040587341,261.99517267124975,0.06976503460828098,None,2.05018425122762,,,,,,,,,26,001,2019_Dec_25_1346,untitled,3.1.0,60.00052090269702,
016,R,M,315,R,N,016RM315RN,HRN,0,71,71,103,,,0.926,263.12852908885543,263.46184750756584,263.4785112580903,263.76185178160813,263.8119939602475,None,down,263.8119939602475,None,263.8119939602475,264.67852301170205,0.0717384393865359,None,1.6668896068695176,,,,,,,,,26,001,2019_Dec_25_1346,untitled,3.1.0,60.00052090269702,
039,R,N,270,L,N,039RN270LN,HLN,0,72,72,206,,,1.03,265.56189645869017,265.89528165929005,265.9118923182141,266.1952418572837,266.22866418861304,None,up,266.22866418861304,None,266.22866418861304,267.2286110970126,0.07158884795717313,None,2.0002367417910136,,,,,,,,,26,001,2019_Dec_25_1346,untitled,3.1.0,60.00052090269702,
_,_5,M,180,_,_,__5M180__,N,0,73,73,44,,,1.221,268.31195322329586,268.6452773184683,268.66203122453953,268.9452809246868,268.978653837421,None,down,268.978653837421,None,268.978653837421,270.1620131934287,0.07021514452935662,None,2.6002760095434496,,,,,,,,,26,001,2019_Dec_25_1346,untitled,3.1.0,60.00052090269702,
426,_4,M,45,L,N,426_4M045LN,HLN,0,74,74,169,,,1.2510000000000001,271.66211203062267,271.9953673404525,272.0120360996152,272.29539532206036,272.34547639527227,None,down,272.34547639527227,None,272.34547639527227,273.545473122962,0.07202159459120594,None,3.000194335290871,,,,,,,,,26,001,2019_Dec_25_1346,untitled,3.1.0,60.00052090269702,
_,_5,M,45,_,_,__5M045__,N,0,75,75,41,,,1.195,275.4288245319258,275.7621886962297,275.77874793310184,276.0621078233635,276.0955675525511,None,down,276.0955675525511,None,276.0955675525511,277.2622391165569,0.0702939471557329,None,2.183494255423284,,,,,,,,,26,001,2019_Dec_25_1346,untitled,3.1.0,60.00052090269702,
_,_5,N,315,_,_,__5N315__,N,0,76,76,95,,,1.221,278.3621905661239,278.69552000384647,278.71222215395755,278.99552661525377,279.0289602995035,None,up,279.0289602995035,None,279.0289602995035,280.2122168114038,0.07017574321798747,None,2.750190996197489,,,,,,,,,26,001,2019_Dec_25_1346,untitled,3.1.0,60.00052090269702,
011,R,M,90,R,N,011RM090RN,HRN,0,77,77,98,,,0.885,281.86228673204096,282.19559813865635,282.21226556218244,282.49565483647893,282.52892791028717,None,down,282.52892791028717,None,282.52892791028717,283.3789564929357,0.07067427000947646,None,2.000272136192507,,,,,,,,,26,001,2019_Dec_25_1346,untitled,3.1.0,60.00052090269702,
266,_2,M,45,R,N,266_2M045RN,HRN,0,78,78,145,,,1.004,284.61232045689394,284.9456615814488,284.96233935617056,285.2456501617453,285.2790547958757,None,down,285.2790547958757,None,285.2790547958757,286.24567520495475,0.07100951508255093,None,2.3168640294024954,,,,,,,,,26,001,2019_Dec_25_1346,untitled,3.1.0,60.00052090269702,
449,_5,N,0,R,N,449_5N000RN,HRN,0,79,79,272,,,0.765,287.6791360694333,288.01236166132,288.02909686846397,288.31237061009233,288.3457959466068,None,up,288.3457959466068,None,288.3457959466068,289.0791011425026,0.07157816285689478,None,1.4335179629924824,,,,,,,,,26,001,2019_Dec_25_1346,untitled,3.1.0,60.00052090269702,
_,_2,M,90,_,_,__2M090__,N,0,80,80,26,,,1.034,289.86244667466235,290.19576275600775,290.2124291778091,290.495824128564,290.54591855815306,None,down,290.54591855815306,None,290.54591855815306,291.529140944509,0.06995302562063443,None,2.283454052725574,,,,,,,,,26,001,2019_Dec_25_1346,untitled,3.1.0,60.00052090269702,
_,F,N,180,_,_,_FN180__,N,0,81,81,52,,,0.9500000000000001,292.9125093828552,293.24582579810885,293.26257603117847,293.5458925132152,293.5959064706294,None,down,293.5959064706294,None,293.5959064706294,294.4958525108668,0.06997038890767726,None,2.7670574297517305,,,,,,,,,26,001,2019_Dec_25_1346,untitled,3.1.0,60.00052090269702,
456,_5,N,315,R,N,456_5N315RN,HRN,0,82,82,279,,,0.762,296.44592269862915,296.7792444564366,296.79590954259766,297.0792794501431,297.11264100995686,None,up,297.11264100995686,None,297.11264100995686,297.84594987885794,0.07136713209183654,None,2.516916519969527,,,,,,,,,26,001,2019_Dec_25_1346,untitled,3.1.0,60.00052090269702,
_,_2,M,0,_,_,__2M000__,N,0,83,83,24,,,1.072,299.71266391614336,300.04600470678633,300.0626634486689,300.34603903267634,300.3794513467219,None,down,300.3794513467219,None,300.3794513467219,301.4126793427604,0.07039278435331653,None,2.2334848391765263,,,,,,,,,26,001,2019_Dec_25_1346,untitled,3.1.0,60.00052090269702,
397,_4,M,180,R,N,397_4M180RN,HRN,0,84,84,164,,,1.077,302.6961270512038,303.029448475103,303.0460634748488,303.32948981309164,303.3628473659883,None,down,303.3628473659883,None,303.3628473659883,304.4127798494992,0.07249006953134085,None,2.6666555363553925,,,,,,,,,26,001,2019_Dec_25_1346,untitled,3.1.0,60.00052090269702,
269,_2,M,180,R,N,269_2M180RN,HRN,0,85,85,148,,,1.192,306.1128062951284,306.44614474840637,306.46284522896894,306.7461486885368,306.7795392984699,None,down,306.7795392984699,None,306.7795392984699,307.9295107158214,0.07334153859846992,None,1.9168161467896425,,,,,,,,,26,001,2019_Dec_25_1346,untitled,3.1.0,60.00052090269702,
_,_4,M,45,_,_,__4M045__,N,0,86,86,33,,,1.193,308.7795316185511,309.1128540441787,309.1295197981599,309.4128800223334,309.47965022318385,None,down,309.47965022318385,None,309.47965022318385,310.5962413817979,0.07020679679044406,None,2.233490849546797,,,,,,,,,26,001,2019_Dec_25_1346,untitled,3.1.0,60.00052090269702,
_,_5,M,270,_,_,__5M270__,N,0,87,87,46,,,1.22,311.79630121836817,312.1296012720595,312.14627537377964,312.42961589729384,312.46305993273563,None,down,312.46305993273563,None,312.46305993273563,313.64628505715154,0.07356091710244073,None,2.000153264430992,,,,,,,,,26,001,2019_Dec_25_1346,untitled,3.1.0,60.00052090269702,
289,_2,N,0,L,N,289_2N000LN,HLN,0,88,88,248,,,0.845,314.54632025120736,314.8796353308244,314.8963348096586,315.17963893704655,315.213094659317,None,down,315.213094659317,None,315.213094659317,316.02974765795807,0.07503412554433453,None,1.6001604768753168,,,,,,,,,26,001,2019_Dec_25_1346,untitled,3.1.0,60.00052090269702,
_,R,M,90,_,_,_RM090__,N,0,89,89,18,,,0.768,316.8963992541794,317.22976742539686,317.24637040440575,317.5298287979531,317.5631446121697,None,up,317.5631446121697,None,317.5631446121697,318.29649154674917,0.07125493852072395,None,2.583537797210738,,,,,,,,,26,001,2019_Dec_25_1346,untitled,3.1.0,60.00052090269702,
298,_2,M,45,L,N,298_2M045LN,HLN,0,90,90,153,,,0.928,320.22980115024984,320.5631158959586,320.5797776430263,320.86311415963064,320.89650944429377,None,down,320.89650944429377,None,320.89650944429377,321.79650256576133,0.07087494958250318,None,2.100231933498435,,,,,,,,,26,001,2019_Dec_25_1346,untitled,3.1.0,60.00052090269702,
292,_2,N,135,L,N,292_2N135LN,HLN,0,91,91,251,,,1.0190000000000001,323.0799222258138,323.4131882207439,323.42984863217134,323.7131961677878,323.7466425405946,None,down,323.7466425405946,None,323.7466425405946,324.72996176069137,0.07136446081494796,None,1.8670269104295585,,,,,,,,,26,001,2019_Dec_25_1346,untitled,3.1.0,60.00052090269702,
261,_2,N,180,R,N,261_2N180RN,HRN,0,92,92,244,,,1.216,325.6966559637549,326.02991661613487,326.04658437357284,326.3299082016165,326.3633071592849,None,down,326.3633071592849,None,326.3633071592849,327.5465780292943,0.07051966993458336,None,1.900204486140865,,,,,,,,,26,001,2019_Dec_25_1346,untitled,3.1.0,60.00052090269702,
168,F,N,315,L,N,168FN315LN,HLN,0,93,93,223,,,1.147,328.346738906861,328.67996282920285,328.6966259119072,328.9800075062849,329.0300852403998,None,down,329.0300852403998,None,329.0300852403998,330.1301034718563,0.07169536506989971,None,1.750130224678287,,,,,,,,,26,001,2019_Dec_25_1346,untitled,3.1.0,60.00052090269702,
236,G,M,135,L,N,236GM135LN,HLN,0,94,94,139,,,1.354,330.8634584202591,331.196682342601,331.21341721583667,331.49669095746503,331.530151688381,None,down,331.530151688381,None,331.530151688381,332.846824721586,0.0713364124239888,None,3.1669994630719884,,,,,,,,,26,001,2019_Dec_25_1346,untitled,3.1.0,60.00052090269702,
265,_2,M,0,R,N,265_2M000RN,HRN,0,95,95,144,,,1.1380000000000001,334.780195764426,335.11345675071425,335.1301969665001,335.4135184571787,335.51349995859346,None,down,335.51349995859346,None,335.51349995859346,336.5468204475437,0.07084723509615287,None,1.7337736708395823,,,,,,,,,26,001,2019_Dec_25_1346,untitled,3.1.0,60.00052090269702,
419,_4,N,90,L,N,419_4N090LN,HLN,0,96,96,266,,,1.059,337.3302033775617,337.66358690861307,337.680251326954,337.9635888452867,337.99689731349645,None,down,337.99689731349645,None,337.99689731349645,339.01353935990846,0.07043986557982862,None,2.6000516224012244,,,,,,,,,26,001,2019_Dec_25_1346,untitled,3.1.0,60.00052090269702,
171,F,M,90,L,N,171FM090LN,HLN,0,97,97,122,,,0.741,340.6802613442378,341.0135790951317,341.0302418439278,341.31359939682443,341.34704443399824,None,None,341.34704443399824,None,341.34704443399824,342.0469656981513,0.07051532911282266,None,,,,,,,,,,26,001,2019_Dec_25_1346,untitled,3.1.0,60.00052090269702,
303,_2,M,270,L,N,303_2M270LN,HLN,0,98,98,158,,,1.0110000000000001,344.88044339166663,345.21366263927484,345.2303334018943,345.51374037338974,345.547165375996,344.88044339166663,down,345.547165375996,None,345.547165375996,346.53046155634,0.07067293436921318,None,1.9169443680184486,,,,,,,,,26,001,2019_Dec_25_1346,untitled,3.1.0,60.00052090269702,
_,R,M,180,_,_,_RM180__,N,0,99,99,20,,,1.3800000000000001,347.5470889107346,347.8804110024503,347.8970767564315,348.1804025879319,348.23048800196557,None,None,348.23048800196557,None,348.23048800196557,349.5637663515445,0.06924079678719863,None,,,,,,,,,,26,001,2019_Dec_25_1346,untitled,3.1.0,60.00052090269702,
464,_5,M,315,R,N,464_5M315RN,HRN,0,100,100,183,,,0.713,351.74724257585694,352.08048319366935,352.0971536223842,352.380511843101,352.41396489409817,351.74724257585694,down,352.41396489409817,None,352.41396489409817,353.09719402542396,0.07182725930033484,None,1.9001370364312606,,,,,,,,,26,001,2019_Dec_25_1346,untitled,3.1.0,60.00052090269702,
304,_2,M,315,L,N,304_2M315LN,HLN,0,101,101,159,,,0.964,354.3972750986359,354.7306001955367,354.747216864831,355.0305794263695,355.0640374860086,None,down,355.0640374860086,None,355.0640374860086,355.9973290584021,0.07174244630004978,None,1.600118738195306,,,,,,,,,26,001,2019_Dec_25_1346,untitled,3.1.0,60.00052090269702,
270,_2,M,225,R,N,270_2M225RN,HRN,0,102,102,149,,,0.847,356.74737780918076,357.0805967228807,357.09738435380496,357.3806477442413,357.41401564832995,None,down,357.41401564832995,None,357.41401564832995,358.2306549566856,0.0715584622012102,None,1.4835202335743816,,,,,,,,,26,001,2019_Dec_25_1346,untitled,3.1.0,60.00052090269702,
_,_2,N,180,_,_,__2N180__,N,0,103,103,76,,,1.389,358.9807200690266,359.3140865706955,359.3307356292062,359.61401905420644,359.6474594166466,None,down,359.6474594166466,None,359.6474594166466,360.9973591102498,0.06900004808630911,None,1.9501496582124673,,,,,,,,,26,001,2019_Dec_25_1346,untitled,3.1.0,60.00052090269702,
430,_4,M,225,L,N,430_4M225LN,HLN,0,104,104,173,,,1.356,361.6807969349793,362.0140712776447,362.03072601261374,362.31405752057617,362.3474681650732,None,down,362.3474681650732,None,362.3474681650732,363.66408643713294,0.07062351577405934,None,2.3835203671369527,,,,,,,,,26,001,2019_Dec_25_1346,untitled,3.1.0,60.00052090269702,
165,F,N,180,L,N,165FN180LN,HLN,0,105,105,220,,,1.178,364.814119627732,365.14745006718294,365.16411648898065,365.4474907373515,365.48086064490053,None,up,365.48086064490053,None,365.48086064490053,366.63091687524866,0.07204763952904614,None,3.083586881901283,,,,,,,,,26,001,2019_Dec_25_1346,untitled,3.1.0,60.00052090269702,
_,_4,N,0,_,_,__4N000__,N,0,106,106,80,,,1.302,368.6475642642108,368.9808683248157,368.99755511509284,369.28087693967973,369.31427823471313,None,down,369.31427823471313,None,369.31427823471313,370.5809286288604,0.0724376457510516,None,2.7502480947150616,,,,,,,,,26,001,2019_Dec_25_1346,untitled,3.1.0,60.00052090269702,
044,R,M,135,L,N,044RM135LN,HLN,0,107,107,107,,,1.092,372.1476938210726,372.48094879699056,372.49768934668464,372.78099147061585,372.8477693513887,None,up,372.8477693513887,None,372.8477693513887,373.86435596883166,0.07211408750663395,None,2.566827299368015,,,,,,,,,26,001,2019_Dec_25_1346,untitled,3.1.0,60.00052090269702,
257,_2,N,0,R,N,257_2N000RN,HRN,0,108,108,240,,,0.9480000000000001,375.4977153916225,375.83103848506653,375.8476995643141,376.1310684701348,376.1978233111513,None,up,376.1978233111513,None,376.1978233111513,377.0810845645683,0.07121854239085224,None,2.233481833991391,,,,,,,,,26,001,2019_Dec_25_1346,untitled,3.1.0,60.00052090269702,
392,_4,N,315,R,N,392_4N315RN,HRN,0,109,109,263,,,0.9580000000000001,378.5145203858374,378.84779506241466,378.8645252609167,379.1477659455122,379.1978356658001,None,up,379.1978356658001,None,379.1978356658001,380.0978117578852,0.07179386835559853,None,2.450225455653708,,,,,,,,,26,001,2019_Dec_25_1346,untitled,3.1.0,60.00052090269702,
003,R,N,90,R,N,003RN090RN,HRN,0,110,110,194,,,1.033,381.7312740247835,382.06451163741076,382.08116203155805,382.3644845239651,382.43124570926375,None,up,382.43124570926375,None,382.43124570926375,383.3979055196578,0.07203495096837287,None,3.2668954836772173,,,,,,,,,26,001,2019_Dec_25_1346,untitled,3.1.0,60.00052090269702,
195,G,N,90,R,N,195GN090RN,HRN,0,111,111,226,,,1.355,385.78132037141404,386.1145950479877,386.13134995579094,386.4146250330559,386.4480777501449,None,up,386.4480777501449,None,386.4480777501449,387.76464626969755,0.07159452441919711,None,2.066925468741829,,,,,,,,,26,001,2019_Dec_25_1346,untitled,3.1.0,60.00052090269702,
_,_2,M,135,_,_,__2M135__,N,0,112,112,27,,,0.836,388.5981029269169,388.93131850151985,388.9479939388766,389.23141192938056,389.2646713129034,None,down,389.2646713129034,None,389.2646713129034,390.064699962335,0.07066358490556013,None,2.400272603663325,,,,,,,,,26,001,2019_Dec_25_1346,untitled,3.1.0,60.00052090269702,
045,R,M,180,L,N,045RM180LN,HLN,0,113,113,108,,,0.81,391.74816817282044,392.0814715656088,392.09807688197907,392.38141540204015,392.414839402918,None,up,392.414839402918,None,392.414839402918,393.18145473657205,0.07285770382441115,None,2.350167488973966,,,,,,,,,26,001,2019_Dec_25_1346,untitled,3.1.0,60.00052090269702,
203,G,M,90,R,N,203GM090RN,HRN,0,114,114,130,,,1.364,394.8481389891349,395.18147610677624,395.19816323096165,395.48148739291355,395.5482662754148,None,None,395.5482662754148,None,395.5482662754148,396.8482054371125,0.07197117426767363,None,,,,,,,,,,26,001,2019_Dec_25_1346,untitled,3.1.0,60.00052090269702,
_,F,N,315,_,_,_FN315__,N,0,115,115,55,,,0.907,399.0482595972244,399.38155864918735,399.39822874399397,399.6815782830636,399.71495219752615,399.0482595972244,down,399.71495219752615,None,399.71495219752615,400.5815717384394,0.07109332635081955,None,2.43358274142156,,,,,,,,,26,001,2019_Dec_25_1346,untitled,3.1.0,60.00052090269702,
042,R,M,45,L,N,042RM045LN,HLN,0,116,116,105,,,1.338,402.2316443303498,402.56498011235453,402.58168326419036,402.86505584301267,402.8983522904855,None,None,402.8983522904855,None,402.8983522904855,404.19835188979414,0.07172040827936144,None,,,,,,,,,,26,001,2019_Dec_25_1346,untitled,3.1.0,60.00052090269702,
_,F,M,180,_,_,_FM180__,N,0,117,117,4,,,0.873,406.43178597473525,406.76507901632795,406.7817444364009,407.06515541480985,407.0985360074592,406.43178597473525,down,407.0985360074592,None,407.0985360074592,407.9317689453528,0.07014869655176881,None,1.8334790291519312,,,,,,,,,26,001,2019_Dec_25_1346,untitled,3.1.0,60.00052090269702,
_,F,M,315,_,_,_FM315__,N,0,118,118,7,,,0.858,409.01510038653214,409.34845586919255,409.3651259639955,409.6485449562315,409.6818394002439,None,down,409.6818394002439,None,409.6818394002439,410.4985621859596,0.0699062782987312,None,2.1169003587529005,,,,,,,,,26,001,2019_Dec_25_1346,untitled,3.1.0,60.00052090269702,
206,G,M,225,R,N,206GM225RN,HRN,0,119,119,133,,,0.929,411.88190558109636,412.2151655656562,412.23187205658905,412.51522326520717,412.5486499373583,None,down,412.5486499373583,None,412.5486499373583,413.44856358837933,0.07172808819450438,None,3.350177172345866,,,,,,,,,26,001,2019_Dec_25_1346,untitled,3.1.0,60.00052090269702,
_,_2,N,225,_,_,__2N225__,N,0,120,120,77,,,0.796,415.98200127953896,416.3152909820419,416.3319493900126,416.61527889451827,416.64862309103773,None,up,416.64862309103773,None,416.64862309103773,417.4153198985987,0.07036306641020929,None,2.966967340984411,,,,,,,,,26,001,2019_Dec_25_1346,untitled,3.1.0,60.00052090269702,
486,_5,N,225,L,N,486_5N225LN,HLN,0,121,121,285,,,0.797,419.6987325465525,420.032046958353,420.04871271233424,420.33200982762355,420.43218933733806,None,up,420.43218933733806,None,420.43218933733806,421.1320838887368,0.07224097309153876,None,3.283482435028418,,,,,,,,,26,001,2019_Dec_25_1346,untitled,3.1.0,60.00052090269702,
231,G,N,270,L,N,231GN270LN,HLN,0,122,122,238,,,1.333,423.79879351841737,424.1321276308736,424.1487873744845,424.43215728202995,424.4655806150877,None,up,424.4655806150877,None,424.4655806150877,425.76552912625266,0.07191975221576286,None,2.100165485520847,,,,,,,,,26,001,2019_Dec_25_1346,untitled,3.1.0,60.00052090269702,
002,R,N,45,R,N,002RN045RN,HRN,0,123,123,193,,,1.09,426.6489242773532,426.9822026269321,426.99883565778873,427.28219321068536,427.3156572806947,None,up,427.3156572806947,None,427.3156572806947,428.36565153745323,0.07148266475996934,None,3.2334868426332832,,,,,,,,,26,001,2019_Dec_25_1346,untitled,3.1.0,60.00052090269702,
_,_5,N,0,_,_,__5N000__,N,0,124,124,88,,,0.8280000000000001,430.63235635883757,430.9656337066881,430.98229345029904,431.2656329720885,431.29907066325177,None,up,431.29907066325177,None,431.29907066325177,432.09896975581796,0.06966586350245052,None,1.4835603027095203,,,,,,,,,26,001,2019_Dec_25_1346,untitled,3.1.0,60.00052090269702,
495,_5,M,270,L,N,495_5M270LN,HLN,0,125,125,190,,,1.147,432.8656598851885,433.19901670348554,433.21568345919513,433.49901596888594,433.5491327704076,None,down,433.5491327704076,None,433.5491327704076,434.64902545191217,0.07204263088351581,None,2.050193266783026,,,,,,,,,26,001,2019_Dec_25_1346,untitled,3.1.0,60.00052090269702,
459,_5,M,90,R,N,459_5M090RN,HRN,0,126,126,178,,,1.044,435.6824651465322,436.0157384874692,436.03242627947475,436.31574910579,436.3492893071525,None,up,436.3492893071525,None,436.3492893071525,437.36577241266787,0.07302399072432308,None,3.216757311947731,,,,,,,,,26,001,2019_Dec_25_1346,untitled,3.1.0,60.00052090269702,
_,_4,M,225,_,_,__4M225__,N,0,127,127,37,,,0.923,439.64916335650923,439.98250381324397,439.999143522291,440.28252778794194,440.3159527905482,None,up,440.3159527905482,None,440.3159527905482,441.19919067030423,0.07083821954074665,None,1.9668033914531406,,,,,,,,,26,001,2019_Dec_25_1346,untitled,3.1.0,60.00052090269702,
_,R,N,225,_,_,_RN225__,N,0,128,128,69,,,0.926,442.36596774969075,442.69922072215195,442.7158818013995,442.99921664845897,443.04922559723127,None,up,443.04922559723127,None,443.04922559723127,443.9159055757518,0.07099115006349166,None,1.600311070033058,,,,,,,,,26,001,2019_Dec_25_1346,untitled,3.1.0,60.00052090269702,
008,R,N,315,R,N,008RN315RN,HRN,0,129,129,199,,,1.3880000000000001,444.74932416729644,445.06594711408616,445.0826128680674,445.3659386995678,445.3993383250563,None,up,445.3993383250563,None,445.3993383250563,446.74936189906293,0.07943004330445547,None,2.8669888447511767,,,,,,,,,26,001,2019_Dec_25_1346,untitled,3.1.0,60.00052090269702,
494,_5,M,225,L,N,494_5M225LN,HLN,0,130,130,189,,,0.935,448.34947562861635,448.6827693380292,448.6995058808134,448.98274456195213,449.0327732113801,None,down,449.0327732113801,None,449.0327732113801,449.9160608436432,0.07173075946775498,None,2.8002109639819537,,,,,,,,,26,001,2019_Dec_25_1346,untitled,3.1.0,60.00052090269702,
237,G,M,180,L,N,237GM180LN,HLN,0,131,131,140,,,0.995,451.9161312985343,452.24943969996093,452.2661141355893,452.54952010535635,452.5827791549673,None,up,452.5827791549673,None,452.5827791549673,453.5494750275793,0.07146496755740372,None,2.266937890173722,,,,,,,,,26,001,2019_Dec_25_1346,untitled,3.1.0,60.00052090269702,
198,G,N,225,R,N,198GN225RN,HRN,0,132,132,229,,,0.96,454.9329059069896,455.2661401805235,455.282843332363,455.5661518005727,455.5995697910803,None,up,455.5995697910803,None,455.5995697910803,456.51620796414136,0.07201424858430983,None,1.8835434068932955,,,,,,,,,26,001,2019_Dec_25_1346,untitled,3.1.0,60.00052090269702,
_,G,N,0,_,_,_GN000__,N,0,133,133,56,,,1.068,457.56635548533086,457.8995737312107,457.91633331374396,458.19959603636016,458.23296894909436,None,up,458.23296894909436,None,458.23296894909436,459.2662814242176,0.06936200591371744,None,2.133539066067897,,,,,,,,,26,001,2019_Dec_25_1346,untitled,3.1.0,60.00052090269702,
014,R,M,225,R,N,014RM225RN,HRN,0,134,134,101,,,1.2610000000000001,460.44965513833085,460.78304334411587,460.7996229494602,461.08298050236044,461.14973300601196,None,up,461.14973300601196,None,461.14973300601196,462.3496702978191,0.0717815137031721,None,1.9501833830618125,,,,,,,,,26,001,2019_Dec_25_1346,untitled,3.1.0,60.00052090269702,
395,_4,M,90,R,N,395_4M090RN,HRN,0,135,135,162,,,1.207,463.1831085900194,463.5163608946641,463.5330152957249,463.8163798607202,463.866434555086,None,None,463.866434555086,None,463.866434555086,465.0163782579548,0.07214747844773228,None,,,,,,,,,,26,001,2019_Dec_25_1346,untitled,3.1.0,60.00052090269702,
_,G,N,135,_,_,_GN135__,N,0,136,136,59,,,0.809,467.38318946288564,467.7164410997102,467.7331963414217,468.0164680795933,468.08319754349577,467.38318946288564,down,468.08319754349577,None,468.08319754349577,468.8164840404643,0.07049663018551655,None,2.0168540789018152,,,,,,,,,26,001,2019_Dec_25_1346,untitled,3.1.0,60.00052090269702,
041,R,M,0,L,N,041RM000LN,HLN,0,137,137,104,,,1.3780000000000001,470.1832611866339,470.5165081487248,470.5331772417994,470.81653512860794,470.8500168958162,None,down,470.8500168958162,None,470.8500168958162,472.1998935496704,0.07160086869771476,None,2.4667659935948905,,,,,,,,,26,001,2019_Dec_25_1346,untitled,3.1.0,60.00052090269702,
_,_5,M,225,_,_,__5M225__,N,0,138,138,45,,,1.249,473.4000041404761,473.73326412503593,473.749914185275,474.0332694008066,474.09998884742527,None,down,474.09998884742527,None,474.09998884742527,475.28330245783945,0.07019544387003407,None,2.3836155313292693,,,,,,,,,26,001,2019_Dec_25_1346,untitled,3.1.0,60.00052090269702,
_,_4,M,135,_,_,__4M135__,N,0,139,139,35,,,1.0210000000000001,476.56666301592486,476.89998143463527,476.91666789100054,477.20001008406325,477.2500400691315,None,down,477.2500400691315,None,477.2500400691315,478.2166955387038,0.07096043039564393,None,2.3169037646293873,,,,,,,,,26,001,2019_Dec_25_1346,untitled,3.1.0,60.00052090269702,
400,_4,M,315,R,N,400_4M315RN,HRN,0,140,140,167,,,0.872,479.65013236170125,479.9833866697991,480.00005776633407,480.2833912777496,480.3167635226637,None,down,480.3167635226637,None,480.3167635226637,481.15011433059044,0.07171873873085133,None,1.9169069701601984,,,,,,,,,26,001,2019_Dec_25_1346,untitled,3.1.0,60.00052090269702,
208,G,M,315,R,N,208GM315RN,HRN,0,141,141,135,,,1.291,482.3167912371464,482.6501253496026,482.6668134755164,482.9501506599372,483.016795310843,None,None,483.016795310843,None,483.016795310843,484.23358067118534,0.07341666822321713,None,,,,,,,,,,26,001,2019_Dec_25_1346,untitled,3.1.0,60.00052090269702,
_,_5,N,90,_,_,__5N090__,N,0,142,142,90,,,0.706,486.5170080111566,486.8502319334948,486.8668773190002,487.1502385449021,487.2169586593409,486.5170080111566,up,487.2169586593409,None,487.2169586593409,487.85021290065924,0.06996571417766972,None,2.1835556947589794,,,,,,,,,26,001,2019_Dec_25_1346,untitled,3.1.0,60.00052090269702,
_,R,N,45,_,_,_RN045__,N,0,143,143,65,,,0.911,489.48369687166996,489.8169665396017,489.83363029012617,490.1169534503533,490.15033003608914,None,up,490.15033003608914,None,490.15033003608914,491.0336744329543,0.06969090671191225,None,2.716874514160736,,,,,,,,,26,001,2019_Dec_25_1346,untitled,3.1.0,60.00052090269702,
007,R,N,270,R,N,007RN270RN,HRN,0,144,144,198,,,1.327,492.9504124449377,493.2836914623367,493.30038259343564,493.58370174674565,493.6170653100162,None,up,493.6170653100162,None,493.6170653100162,494.9003958162466,0.07086893920859438,None,1.9168932798711467,,,,,,,,,26,001,2019_Dec_25_1346,untitled,3.1.0,60.00052090269702,
235,G,M,90,L,N,235GM090LN,HLN,0,145,145,138,,,1.067,495.6170830072151,495.9504244656782,495.96709489438945,496.25042840580863,496.2838670987003,None,down,496.2838670987003,None,496.2838670987003,497.3171258144066,0.07121520329747,None,2.2668246948742308,,,,,,,,,26,001,2019_Dec_25_1346,untitled,3.1.0,60.00052090269702,
491,_5,M,90,L,N,491_5M090LN,HLN,0,146,146,186,,,0.9570000000000001,498.63390903772597,498.9671663510089,498.9838013853223,499.2671866527053,499.33398056112856,None,up,499.33398056112856,None,499.33398056112856,500.217226454708,0.0705737632670207,None,2.8668155457526154,,,,,,,,,26,001,2019_Dec_25_1346,untitled,3.1.0,60.00052090269702,
_,F,N,0,_,_,_FN000__,N,0,147,147,48,,,0.807,502.28396326461734,502.61723460210123,502.63390336126395,502.9173413863391,502.95071530079804,None,up,502.95071530079804,None,502.95071530079804,503.7173586828467,0.07106861705688061,None,2.8836492561822524,,,,,,,,,26,001,2019_Dec_25_1346,untitled,3.1.0,60.00052090269702,
_,_4,N,315,_,_,__4N315__,N,0,148,148,87,,,1.055,505.9173550766245,506.2506561320479,506.26732455730235,506.5506787711056,506.5840944242482,None,down,506.5840944242482,None,506.5840944242482,507.600680373871,0.06920573629759019,None,1.9168732453072153,,,,,,,,,26,001,2019_Dec_25_1346,untitled,3.1.0,60.00052090269702,
462,_5,M,225,R,N,462_5M225RN,HRN,0,149,149,181,,,1.037,508.5840620350318,508.9174018239464,508.9341490518309,509.2175069386394,509.2508184120343,None,down,509.2508184120343,None,509.2508184120343,510.25078001244765,0.07077544456842588,None,2.35019587127681,,,,,,,,,26,001,2019_Dec_25_1346,untitled,3.1.0,60.00052090269702,
227,G,N,90,L,N,227GN090LN,HLN,0,150,150,234,,,0.981,511.6842081538016,512.0174671366331,512.0341345601591,512.3174617272998,512.3508947437294,None,up,512.3508947437294,None,512.3508947437294,513.3008520701042,0.07174511757693836,None,2.0501962719681615,,,,,,,,,26,001,2019_Dec_25_1346,untitled,3.1.0,60.00052090269702,
036,R,N,135,L,N,036RN135LN,HLN,0,151,151,203,,,1.268,514.4842872235567,514.8175368569246,514.8342102908209,515.1175251033128,515.1509220575244,None,up,515.1509220575244,None,515.1509220575244,516.3842563035432,0.07158984968918958,None,2.600216573664511,,,,,,,,,26,001,2019_Dec_25_1346,untitled,3.1.0,60.00052090269702,
_,G,M,315,_,_,_GM315__,N,0,152,152,15,,,0.783,517.8343438545962,518.1676021696112,518.1842622471304,518.4676017689198,518.5010635015606,None,down,518.5010635015606,None,518.5010635015606,519.250965666095,0.06919839029069408,None,2.0002761431060208,,,,,,,,,26,001,2019_Dec_25_1346,untitled,3.1.0,60.00052090269702,
_,F,M,270,_,_,_FM270__,N,0,153,153,6,,,0.735,520.5843338373124,520.91765626294,520.9343220169212,521.2176652117123,521.2511216018029,None,down,521.2511216018029,None,521.2511216018029,521.9511220024942,0.07030863916952512,None,2.2501592748012627,,,,,,,,,26,001,2019_Dec_25_1346,untitled,3.1.0,60.00052090269702,
009,R,M,0,R,N,009RM000RN,HRN,0,154,154,96,,,1.395,523.5844199859494,523.9177427454815,523.934412172468,524.2178425176244,524.2511733577667,None,down,524.2511733577667,None,524.2511733577667,525.6177691911107,0.07176214695573435,None,2.366838919417205,,,,,,,,,26,001,2019_Dec_25_1346,untitled,3.1.0,60.00052090269702,
427,_4,M,90,L,N,427_4M090LN,HLN,0,155,155,170,,,1.292,526.7012368673422,527.0344758156061,527.0511365609455,527.3344690706363,527.3845070695315,None,up,527.3845070695315,None,527.3845070695315,528.6178934054224,0.07048661290173186,None,3.1169364209745254,,,,,,,,,26,001,2019_Dec_25_1346,untitled,3.1.0,60.00052090269702,
485,_5,N,180,L,N,485_5N180LN,HLN,0,156,156,284,,,0.928,530.5846520530067,530.917903355923,530.9345697777244,531.2179103012386,531.2846477789681,None,down,531.2846477789681,None,531.2846477789681,532.151250958319,0.07112337820217363,None,2.0337151699059177,,,,,,,,,26,001,2019_Dec_25_1346,untitled,3.1.0,60.00052090269702,
_,R,N,0,_,_,_RN000__,N,0,157,157,64,,,0.788,533.4013611484334,533.7346441727459,533.7513686947896,534.0346173932085,534.0679602540913,None,up,534.0679602540913,None,534.0679602540913,534.8179786191104,0.06987656035926193,None,1.6336285537981894,,,,,,,,,26,001,2019_Dec_25_1346,untitled,3.1.0,60.00052090269702,
137,F,M,0,R,N,137FM000RN,HRN,0,158,158,112,,,0.842,535.7847596386309,536.118003929445,536.134690051902,536.4180676393662,536.4680942853411,None,down,536.4680942853411,None,536.4680942853411,537.2513860580802,0.07315889013989363,None,2.1168646304431604,,,,,,,,,26,001,2019_Dec_25_1346,untitled,3.1.0,60.00052090269702,
386,_4,N,45,R,N,386_4N045RN,HRN,0,159,159,257,,,1.1340000000000001,538.6681477776328,539.0014067604643,539.0180768552673,539.3015078682402,539.3347535614776,None,up,539.3347535614776,None,539.3347535614776,540.4347671182004,0.07114040758096962,None,2.5670653767956537,,,,,,,,,26,001,2019_Dec_25_1346,untitled,3.1.0,60.00052090269702,
_,_2,M,45,_,_,__2M045__,N,0,160,160,25,,,0.892,541.9848428488622,542.3181395634601,542.3348276893739,542.618162870338,542.651560826278,None,up,542.651560826278,None,542.651560826278,543.5015079350233,0.0703734176022408,None,2.333594561816426,,,,,,,,,26,001,2019_Dec_25_1346,untitled,3.1.0,60.00052090269702,
_,R,N,315,_,_,_RN315__,N,0,161,161,71,,,1.205,545.0682621082233,545.4015488055375,545.4182329245377,545.7015547491283,545.7349583815267,None,up,545.7349583815267,None,545.7349583815267,546.9016089092365,0.07113539893907728,None,3.1169888447511767,,,,,,,,,26,001,2019_Dec_25_1346,untitled,3.1.0,60.00052090269702,
_,_2,M,315,_,_,__2M315__,N,0,162,162,31,,,0.964,548.9349998530779,549.2683706955722,549.284970669396,549.5683051825399,549.6017084810337,None,up,549.6017084810337,None,549.6017084810337,550.5350858681522,0.07145895718713291,None,3.3669006926611473,,,,,,,,,26,001,2019_Dec_25_1346,untitled,3.1.0,60.00052090269702,
_,G,M,180,_,_,_GM180__,N,0,163,163,12,,,0.791,553.0517462795797,553.3850596896518,553.4017418051953,553.6851624669762,553.7184662604559,None,up,553.7184662604559,None,553.7184662604559,554.4684398816098,0.07015537473853328,None,2.6669016276100592,,,,,,,,,26,001,2019_Dec_25_1346,untitled,3.1.0,60.00052090269702,
_,G,M,90,_,_,_GM090__,N,0,164,164,10,,,1.336,556.4685777862069,556.8018050476421,556.8184915040074,557.1018346987985,557.1352036046192,None,down,557.1352036046192,None,557.1352036046192,558.435180498087,0.07087428175873356,None,2.8835771317462786,,,,,,,,,26,001,2019_Dec_25_1346,untitled,3.1.0,60.00052090269702,
_,G,M,135,_,_,_GM135__,N,0,165,165,11,,,1.058,560.1020584181242,560.4352365948725,560.4519110304973,560.7352512201032,560.7852498176835,None,up,560.7852498176835,None,560.7852498176835,561.7852554941455,0.06999810339402757,None,2.900315677983599,,,,,,,,,26,001,2019_Dec_25_1346,untitled,3.1.0,60.00052090269702,
194,G,N,45,R,N,194GN045RN,HRN,0,166,166,225,,,0.848,563.7686999302787,564.1019916362347,564.1186557206711,564.4019895659985,564.4353911949402,None,up,564.4353911949402,None,564.4353911949402,565.2519961106227,0.07149702286187676,None,1.9168685705735697,,,,,,,,,26,001,2019_Dec_25_1346,untitled,3.1.0,60.00052090269702,
391,_4,N,270,R,N,391_4N270RN,HRN,0,167,167,262,,,0.808,566.4353942001253,566.7687152901126,566.7853853849156,567.068823743899,567.1020911412488,None,up,567.1020911412488,None,567.1020911412488,567.8687472118545,0.07181323510303628,None,2.483543941147218,,,,,,,,,26,001,2019_Dec_25_1346,untitled,3.1.0,60.00052090269702,
_,F,N,135,_,_,_FN135__,N,0,168,168,51,,,0.799,569.6687895515715,570.0021243318479,570.0187720547183,570.302114247781,570.3688620767025,None,up,570.3688620767025,None,570.3688620767025,571.1021545840413,0.0702795890501875,None,2.8002787475998048,,,,,,,,,26,001,2019_Dec_25_1346,untitled,3.1.0,60.00052090269702,
_,G,M,270,_,_,_GM270__,N,0,169,169,14,,,0.7030000000000001,573.2522719198205,573.5855395842955,573.6022040026401,573.8855305019606,573.9189875598713,None,down,573.9189875598713,None,573.9189875598713,574.5855509372159,0.07207468619162682,None,1.9502147705497919,,,,,,,,,26,001,2019_Dec_25_1346,untitled,3.1.0,60.00052090269702,
135,F,N,270,R,N,135FN270RN,HRN,0,170,170,214,,,1.19,575.9522713187835,576.2855857305804,576.3023239429094,576.585606366185,576.6191706090249,None,up,576.6191706090249,None,576.6191706090249,577.7689814159348,0.07229072559493943,None,2.1667386798035295,,,,,,,,,26,001,2019_Dec_25_1346,untitled,3.1.0,60.00052090269702,
006,R,N,225,R,N,006RN225RN,HRN,0,171,171,197,,,0.792,578.8690577476336,579.2023187339219,579.2190569462509,579.5023273487859,579.5523763666897,None,up,579.5523763666897,None,579.5523763666897,580.2856755522189,0.07180956209776923,None,1.483549617605604,,,,,,,,,26,001,2019_Dec_25_1346,untitled,3.1.0,60.00052090269702,
202,G,M,45,R,N,202GM045RN,HRN,0,172,172,129,,,1.12,581.1190357096093,581.4523861836278,581.4690606192562,581.7524014766823,581.81914396305,None,down,581.81914396305,None,581.81914396305,582.8691609256493,0.07207635574013693,None,2.1335096820403123,,,,,,,,,26,001,2019_Dec_25_1346,untitled,3.1.0,60.00052090269702,
_,G,N,180,_,_,_GN180__,N,0,173,173,60,,,0.9490000000000001,584.0357897492468,584.3691402232653,584.38576824548,584.6691955854512,584.7024957059257,None,None,584.7024957059257,None,584.7024957059257,585.6191729463899,0.07105158767080866,None,,,,,,,,,,26,001,2019_Dec_25_1346,untitled,3.1.0,60.00052090269702,
043,R,M,90,L,N,043RM090LN,HLN,0,174,174,106,,,0.714,588.235948423011,588.5692130823045,588.5858801719223,588.8692226988969,588.902605295003,588.235948423011,up,588.902605295003,None,588.902605295003,589.5858941961196,0.07187934916873928,None,1.8336252814879117,,,,,,,,,26,001,2019_Dec_25_1346,untitled,3.1.0,60.00052090269702,
398,_4,M,225,R,N,398_4M225RN,HRN,0,175,175,165,,,1.227,590.8193386322528,591.15261330883,591.1692603638803,591.4526129081387,591.4860001789748,None,up,591.4860001789748,None,591.4860001789748,592.68597420082,0.07184028176561696,None,3.1502408822707366,,,,,,,,,26,001,2019_Dec_25_1346,untitled,3.1.0,60.00052090269702,
037,R,N,180,L,N,037RN180LN,HLN,0,176,176,204,,,0.793,594.719426917909,595.052684231192,595.0693486495366,595.3527155518968,595.3860614179648,None,up,595.3860614179648,None,595.3860614179648,596.1360380443039,0.07335990362116718,None,1.9668748480726208,,,,,,,,,26,001,2019_Dec_25_1346,untitled,3.1.0,60.00052090269702,
_,G,M,0,_,_,_GM000__,N,0,177,177,8,,,1.076,597.4361531762806,597.7694078182903,597.7860682297178,598.0694130940574,598.1028744927899,None,up,598.1028744927899,None,598.1028744927899,599.1361014871,0.07056775289674988,None,2.566817615992477,,,,,,,,,26,001,2019_Dec_25_1346,untitled,3.1.0,60.00052090269702,
295,_2,N,270,L,N,295_2N270LN,HLN,0,178,178,254,,,0.719,600.752840233683,601.0862458027586,601.102883174437,601.386278793012,601.4196019532355,None,up,601.4196019532355,None,601.4196019532355,602.1028601346843,0.07639413868673728,None,2.050146519464761,,,,,,,,,26,001,2019_Dec_25_1346,untitled,3.1.0,60.00052090269702,
005,R,N,180,R,N,005RN180RN,HRN,0,179,179,196,,,1.095,603.552876896938,603.8862330474185,603.9028971318512,604.1863127849902,604.2196810229907,None,up,604.2196810229907,None,604.2196810229907,605.2862618971922,0.0709497452917276,None,2.0669775586138712,,,,,,,,,26,001,2019_Dec_25_1346,untitled,3.1.0,60.00052090269702,
163,F,N,90,L,N,163FN090LN,HLN,0,180,180,218,,,1.289,606.3696350770515,606.7029638469576,606.7196329400322,607.0029664514514,607.0363593987495,None,up,607.0363593987495,None,607.0363593987495,608.2863196635262,0.0706331991495972,None,2.000198008296138,,,,,,,,,26,001,2019_Dec_25_1346,untitled,3.1.0,60.00052090269702,
033,R,N,0,L,N,033RN000LN,HLN,0,181,181,200,,,0.8210000000000001,609.1197155492264,609.4530246184731,609.4696850299042,609.7530108614046,609.7864589037599,None,up,609.7864589037599,None,609.7864589037599,610.5697874065372,0.0709918178836233,None,1.616825896948285,,,,,,,,,26,001,2019_Dec_25_1346,untitled,3.1.0,60.00052090269702,
432,_4,M,315,L,N,432_4M315LN,HLN,0,182,182,175,,,1.28,611.4864766677456,611.8197493408625,611.836439470233,612.1197409263441,612.1531291989122,None,down,612.1531291989122,None,612.1531291989122,613.4030921349622,0.07329913210196537,None,3.100224253579654,,,,,,,,,26,001,2019_Dec_25_1346,untitled,3.1.0,60.00052090269702,
299,_2,M,90,L,N,299_2M090LN,HLN,0,183,183,154,,,0.73,615.3365139320376,615.6699308540337,615.6864857500805,615.969820263228,616.0199540941285,None,down,616.0199540941285,None,616.0199540941285,616.7032232945894,0.07245534295361722,None,2.433558032123983,,,,,,,,,26,001,2019_Dec_25_1346,untitled,3.1.0,60.00052090269702,
_,F,M,0,_,_,_FM000__,N,0,184,184,0,,,1.302,618.5365530662239,618.8699088827925,618.8865722994087,619.1699124890147,619.2366392816402,None,down,619.2366392816402,None,619.2366392816402,620.4699451453562,0.07023117218341213,None,2.2335452767838433,,,,,,,,,26,001,2019_Dec_25_1346,untitled,3.1.0,60.00052090269702,
488,_5,N,315,L,N,488_5N315LN,HLN,0,185,185,287,,,1.336,621.5533754237294,621.8866410847513,621.9033088421893,622.1866630559925,622.2200486572838,None,up,622.2200486572838,None,622.2200486572838,623.520005516184,0.07295754274673527,None,2.666852876831399,,,,,,,,,26,001,2019_Dec_25_1346,untitled,3.1.0,60.00052090269702,
200,G,N,315,R,N,200GN315RN,HRN,0,186,186,231,,,1.333,624.9700590084758,625.3033714168159,625.3200174701415,625.6033950576057,625.6367863353553,None,up,625.6367863353553,None,625.6367863353553,626.9367612253664,0.07178284934343537,None,2.600211231110734,,,,,,,,,26,001,2019_Dec_25_1346,untitled,3.1.0,60.00052090269702,
_,R,M,315,_,_,_RM315__,N,0,187,187,23,,,1.0050000000000001,628.3201376775396,628.6534631083487,628.6701298640583,628.9534817404965,628.9868476411284,None,down,628.9868476411284,None,628.9868476411284,629.953493761237,0.07123056313139386,None,2.2669479074575065,,,,,,,,,26,001,2019_Dec_25_1346,untitled,3.1.0,60.00052090269702,
390,_4,N,225,R,N,390_4N225RN,HRN,0,188,188,261,,,0.894,631.3368742203202,631.6701966459477,631.6869381973702,631.970183890604,632.0035815126357,None,up,632.0035815126357,None,632.0035815126357,632.8702291019436,0.07192910167577793,None,3.1670562276776764,,,,,,,,,26,001,2019_Dec_25_1346,untitled,3.1.0,60.00052090269702,
291,_2,N,90,L,N,291_2N090LN,HLN,0,189,189,250,,,0.963,635.2536743394594,635.5869496838532,635.6036221160248,635.8869446084318,635.9536780792441,None,up,635.9536780792441,None,635.9536780792441,636.8536508322359,0.07274417461303528,None,1.9336819125273905,,,,,,,,,26,001,2019_Dec_25_1346,untitled,3.1.0,60.00052090269702,
131,F,N,90,R,N,131FN090RN,HRN,0,190,190,210,,,1.234,637.9704139542082,638.3036672605813,638.3204007981767,638.6036905674591,638.637135270721,None,up,638.637135270721,None,638.637135270721,639.8370381698551,0.07158250367865548,None,1.9168071312378743,,,,,,,,,26,001,2019_Dec_25_1346,untitled,3.1.0,60.00052090269702,
_,_5,N,180,_,_,__5N180__,N,0,191,191,92,,,1.349,640.6371189091587,640.9704119507514,640.9870800420977,641.2704963630567,641.3039013310954,None,up,641.3039013310954,None,641.3039013310954,642.6204474787155,0.0697894099939731,None,3.1168309055865393,,,,,,,,,26,001,2019_Dec_25_1346,untitled,3.1.0,60.00052090269702,
293,_2,N,180,L,N,293_2N180LN,HLN,0,192,192,252,,,0.879,644.503933453183,644.8371520329747,644.8538144478589,645.1371853571363,645.1705946659968,None,up,645.1705946659968,None,645.1705946659968,646.0205207384461,0.07219723095477093,None,1.816845664383436,,,,,,,,,26,001,2019_Dec_25_1346,untitled,3.1.0,60.00052090269702,
394,_4,M,45,R,N,394_4M045RN,HRN,0,193,193,161,,,0.809,647.0706452198865,647.4038898446124,647.4205596055072,647.703879092729,647.7372793860341,None,None,647.7372793860341,None,647.7372793860341,648.5038940518716,0.07025988839450292,None,,,,,,,,,,26,001,2019_Dec_25_1346,untitled,3.1.0,60.00052090269702,
263,_2,N,270,R,N,263_2N270RN,HRN,0,194,194,246,,,1.191,651.2706783437025,651.6039650410166,651.6206334662747,651.9039930226281,651.9373802934679,651.2706783437025,up,651.9373802934679,None,651.9373802934679,653.0873650671965,0.0704482133151032,None,1.8335337902972242,,,,,,,,,26,001,2019_Dec_25_1346,untitled,3.1.0,60.00052090269702,
046,R,M,225,L,N,046RM225LN,HLN,0,195,195,109,,,0.716,653.8540869179633,654.1873405582446,654.2040480509022,654.4873505087453,654.5207641584275,None,down,654.5207641584275,None,654.5207641584275,655.2040841131238,0.07048494335685973,None,2.500217375043576,,,,,,,,,26,001,2019_Dec_25_1346,untitled,3.1.0,60.00052090269702,
_,_2,M,270,_,_,__2M270__,N,0,196,196,30,,,0.806,657.1041279888232,657.4374343867967,657.4541014764145,657.7374563580379,657.7708873710108,None,down,657.7708873710108,None,657.7708873710108,658.537458962528,0.06935399208668969,None,2.6002102293823555,,,,,,,,,26,001,2019_Dec_25_1346,untitled,3.1.0,60.00052090269702,
140,F,M,135,R,N,140FM135RN,HRN,0,197,197,115,,,1.057,660.4542881317902,660.7875123880403,660.8042652923832,661.0875193333559,661.1209757234465,None,None,661.1209757234465,None,661.1209757234465,662.1375199343929,0.07189637855481124,None,,,,,,,,,,26,001,2019_Dec_25_1346,untitled,3.1.0,60.00052090269702,
130,F,N,45,R,N,130FN045RN,HRN,0,198,198,209,,,0.774,664.6543693385647,664.9876099563771,665.0042767120867,665.2876169016927,665.3209564234821,664.6543693385647,up,665.3209564234821,None,665.3209564234821,666.0543107040685,0.07080749987289892,None,1.6169040317581675,,,,,,,,,26,001,2019_Dec_25_1346,untitled,3.1.0,60.00052090269702,
421,_4,N,180,L,N,421_4N180LN,HLN,0,199,199,268,,,0.872,667.0210459779955,667.3543249953909,667.3709790625435,667.6543376171685,667.70445375087,None,None,667.70445375087,None,667.70445375087,668.5210827080336,0.07165462811826728,None,,,,,,,,,,26,001,2019_Dec_25_1346,untitled,3.1.0,60.00052090269702,
260,_2,N,135,R,N,260_2N135RN,HRN,0,200,200,243,,,1.2750000000000001,671.2211084858391,671.5544409287504,671.5710973332643,671.8545206663221,671.887775041203,671.2211084858391,up,671.887775041203,None,671.887775041203,673.1211904272168,0.07250142245538882,None,3.166968409495894,,,,,,,,,26,001,2019_Dec_25_1346,untitled,3.1.0,60.00052090269702,
262,_2,N,225,R,N,262_2N225RN,HRN,0,201,201,245,,,0.751,675.1379580235771,675.4712126655868,675.4878810908413,675.7712085918902,675.8046369335898,None,up,675.8046369335898,None,675.8046369335898,676.5212206126307,0.07211976396865794,None,1.5166570723340556,,,,,,,,,26,001,2019_Dec_25_1346,untitled,3.1.0,60.00052090269702,
493,_5,M,180,L,N,493_5M180LN,HLN,0,202,202,188,,,0.715,677.4045933917987,677.7379204921563,677.7545832409523,678.0379244322867,678.0713263951402,None,down,678.0713263951402,None,678.0713263951402,678.7546082841582,0.07220223959666328,None,1.650007813481352,,,,,,,,,26,001,2019_Dec_25_1346,untitled,3.1.0,60.00052090269702,
175,F,M,270,L,N,175FM270LN,HLN,0,203,203,126,,,1.039,679.8046563003372,680.1379566879405,680.1546000699855,680.437991681647,680.4713649282894,None,down,680.4713649282894,None,680.4713649282894,681.4713482328189,0.07087561739535886,None,2.717027444683481,,,,,,,,,26,001,2019_Dec_25_1346,untitled,3.1.0,60.00052090269702,
164,F,N,135,L,N,164FN135LN,HLN,0,204,204,219,,,0.925,683.2714062662781,683.6047119964314,683.6213637262153,683.9047029140929,683.954839082362,None,up,683.954839082362,None,683.954839082362,684.8214082029517,0.0716793374158442,None,1.9001410433447745,,,,,,,,,26,001,2019_Dec_25_1346,untitled,3.1.0,60.00052090269702,
174,F,M,225,L,N,174FM225LN,HLN,0,205,205,125,,,1.299,685.9381536277251,686.2714279703905,686.2880960617367,686.5714653014657,686.6214448662104,None,up,686.6214448662104,None,686.6214448662104,687.871477589335,0.07194880233510048,None,2.2669442344522395,,,,,,,,,26,001,2019_Dec_25_1346,untitled,3.1.0,60.00052090269702,
_,_4,N,45,_,_,__4N045__,N,0,206,206,81,,,0.747,688.9715792981478,689.304845293078,689.3215153878809,689.604835542923,689.6381800733543,None,up,689.6381800733543,None,689.6381800733543,690.3548929753451,0.06977905880194157,None,2.4836808440159075,,,,,,,,,26,001,2019_Dec_25_1346,untitled,3.1.0,60.00052090269702,
_,_2,N,135,_,_,__2N135__,N,0,207,207,75,,,0.706,692.2049893416115,692.5382733676488,692.5549210905228,692.8382739686858,692.8716819419096,None,up,692.8716819419096,None,692.8716819419096,693.5382780423824,0.07031231217479217,None,3.03363569945941,,,,,,,,,26,001,2019_Dec_25_1346,untitled,3.1.0,60.00052090269702,
_,_2,N,270,_,_,__2N270__,N,0,208,208,78,,,1.008,695.9883422197745,696.3216315883656,696.3383657937811,696.6217520628925,696.6550638701956,None,up,696.6550638701956,None,696.6550638701956,697.6216999730204,0.06966452786218724,None,2.4002038183207333,,,,,,,,,26,001,2019_Dec_25_1346,untitled,3.1.0,60.00052090269702,
_,_5,M,0,_,_,__5M000__,N,0,209,209,40,,,1.0210000000000001,699.1384866022163,699.4717272200287,699.4884110051207,699.7718500319206,699.8051324551961,None,down,699.8051324551961,None,699.8051324551961,700.7884323085418,0.06978239789532381,None,2.650241883995477,,,,,,,,,26,001,2019_Dec_25_1346,untitled,3.1.0,60.00052090269702,
048,R,M,315,L,N,048RM315LN,HLN,0,210,210,111,,,0.71,702.5384750489502,702.8718148378684,702.8885697456681,703.1718094285352,703.2052020419214,None,down,703.2052020419214,None,703.2052020419214,703.8718525696349,0.07093772455482394,None,1.93354868266033,,,,,,,,,26,001,2019_Dec_25_1346,untitled,3.1.0,60.00052090269702,
396,_4,M,135,R,N,396_4M135RN,HRN,0,211,211,163,,,0.75,705.221897847754,705.5552012405387,705.5718683301602,705.8552198726866,705.905283916516,None,up,705.905283916516,None,705.905283916516,706.6052439141677,0.07105693022458581,None,2.450221782648441,,,,,,,,,26,001,2019_Dec_25_1346,untitled,3.1.0,60.00052090269702,
_,R,N,135,_,_,_RN135__,N,0,212,212,67,,,1.357,708.4387159312209,708.7719812583309,708.7886283133848,709.0719618248004,709.1053487617282,None,up,709.1053487617282,None,709.1053487617282,710.4220164523867,0.06948521849699318,None,2.4335436740184377,,,,,,,,,26,001,2019_Dec_25_1346,untitled,3.1.0,60.00052090269702,
_,_4,M,90,_,_,__4M090__,N,0,213,213,34,,,0.8310000000000001,711.6220826332356,711.9553492959858,711.9720557869186,712.2553732706838,712.2887271505751,None,None,712.2887271505751,None,712.2887271505751,713.0887100544132,0.07003182824701071,None,,,,,,,,,,26,001,2019_Dec_25_1346,untitled,3.1.0,60.00052090269702,
_,_2,M,180,_,_,__2M180__,N,0,214,214,28,,,1.124,715.8222793726782,716.1554592189714,716.1721253068608,716.4554818580327,716.4888627845903,715.8222793726782,down,716.4888627845903,None,716.4888627845903,717.5721441393544,0.07006121227823314,None,2.7502183767755923,,,,,,,,,26,001,2019_Dec_25_1346,untitled,3.1.0,60.00052090269702,
201,G,M,0,R,N,201GM000RN,HRN,0,215,215,128,,,1.188,719.3222145942455,719.6555477049733,719.6721867462002,719.9555546502888,719.9889135388257,None,up,719.9889135388257,None,719.9889135388257,721.1389049907448,0.07206967754973448,None,2.78359028777777,,,,,,,,,26,001,2019_Dec_25_1346,untitled,3.1.0,60.00052090269702,
_,F,N,90,_,_,_FN090__,N,0,216,216,50,,,1.125,722.8556289117478,723.1889540086486,723.2056257730001,723.4890668032567,723.5223382075201,None,up,723.5223382075201,None,723.5223382075201,724.6056926884521,0.07178618843681761,None,1.8668903414691158,,,,,,,,,26,001,2019_Dec_25_1346,untitled,3.1.0,60.00052090269702,
484,_5,N,135,L,N,484_5N135LN,HLN,0,217,217,283,,,0.811,725.4723896963551,725.8056683798459,725.8223434832908,726.1057140586563,726.1391086755029,None,None,726.1391086755029,None,726.1391086755029,726.922373067664,0.07262263158190763,None,,,,,,,,,,26,001,2019_Dec_25_1346,untitled,3.1.0,60.00052090269702,
_,_4,N,180,_,_,__4N180__,N,0,218,218,84,,,0.929,729.6724582145725,730.0057552630788,730.0224246900652,730.3058520300365,730.3391057370973,729.6724582145725,down,730.3391057370973,None,730.3391057370973,731.2391218983139,0.06962913346433197,None,2.833609587742103,,,,,,,,,26,001,2019_Dec_25_1346,untitled,3.1.0,60.00052090269702,
385,_4,N,0,R,N,385_4N000RN,HRN,0,219,219,256,,,1.113,733.2558046816775,733.5891948909193,733.605858975352,733.8892769658596,733.9225310068286,None,down,733.9225310068286,None,733.9225310068286,735.0058878251257,0.07144226171658374,None,2.150113328862062,,,,,,,,,26,001,2019_Dec_25_1346,untitled,3.1.0,60.00052090269702,
_,G,N,270,_,_,_GN270__,N,0,220,220,62,,,1.3920000000000001,736.1559123340812,736.4892648115529,736.5059265586206,736.789276431602,736.8226667076269,None,None,736.8226667076269,None,736.8226667076269,738.1726081399102,0.07012398725419189,None,,,,,,,,,,26,001,2019_Dec_25_1346,untitled,3.1.0,60.00052090269702,
196,G,N,135,R,N,196GN135RN,HRN,0,221,221,227,,,1.299,740.3560265978886,740.6893546999745,740.7060418241599,740.9893997109684,741.0228073502803,740.3560265978886,down,741.0228073502803,None,741.0228073502803,742.2894039850071,0.07189738027955173,None,2.0834670084113895,,,,,,,,,26,001,2019_Dec_25_1346,untitled,3.1.0,60.00052090269702,
428,_4,M,135,L,N,428_4M135LN,HLN,0,222,222,171,,,1.369,743.1893630477098,743.5227315528391,743.5394029832787,743.8227725569195,743.8561448018299,None,up,743.8561448018299,None,743.8561448018299,745.1894385112428,0.07386644423604594,None,2.800221982997755,,,,,,,,,26,001,2019_Dec_25_1346,untitled,3.1.0,60.00052090269702,
233,G,M,0,L,N,233GM000LN,HLN,0,223,223,136,,,1.084,746.7395603214063,747.0728329945268,747.0894890651325,747.3728539640397,747.4062606016232,None,down,747.4062606016232,None,747.4062606016232,748.4561977598678,0.0723845541542687,None,3.066912112364662,,,,,,,,,26,001,2019_Dec_25_1346,untitled,3.1.0,60.00052090269702,
_,G,M,45,_,_,_GM045__,N,0,224,224,9,,,0.9590000000000001,750.5563301883521,750.8896606278031,750.9062699510869,751.189574746295,751.2229566745809,None,down,751.2229566745809,None,751.2229566745809,752.1395991884674,0.07085524892318062,None,1.900247560457501,,,,,,,,,26,001,2019_Dec_25_1346,untitled,3.1.0,60.00052090269702,
454,_5,N,225,R,N,454_5N225RN,HRN,0,225,225,277,,,0.716,753.2063186350861,753.5396464032601,753.5563144946063,753.8397184609166,753.8730429567804,None,up,753.8730429567804,None,753.8730429567804,754.5563462160062,0.07145862327888608,None,2.8836679551095585,,,,,,,,,26,001,2019_Dec_25_1346,untitled,3.1.0,60.00052090269702,
271,_2,M,270,R,N,271_2M270RN,HRN,0,226,226,150,,,1.268,756.8397391633043,757.1730599193797,757.189809150721,757.4730655290587,757.5064561389918,None,down,757.5064561389918,None,757.5064561389918,758.7397790320902,0.0722429765482957,None,2.333533790300862,,,,,,,,,26,001,2019_Dec_25_1346,untitled,3.1.0,60.00052090269702,
457,_5,M,0,R,N,457_5M000RN,HRN,0,227,227,176,,,0.876,759.923193483155,760.2564524659865,760.2731172182393,760.5564720998627,760.5898930955555,None,down,760.5898930955555,None,760.5898930955555,761.4231420611031,0.07185564159954083,None,2.8502269248529046,,,,,,,,,26,001,2019_Dec_25_1346,untitled,3.1.0,60.00052090269702,
450,_5,N,45,R,N,450_5N045RN,HRN,0,228,228,273,,,0.989,763.5232173910736,763.8565491661611,763.873218593144,764.1565544419318,764.1898849481622,None,None,764.1898849481622,None,764.1898849481622,765.1400025510666,0.07280494613587507,None,,,,,,,,,,26,001,2019_Dec_25_1346,untitled,3.1.0,60.00052090269702,
_,_2,M,225,_,_,__2M225__,N,0,229,229,29,,,1.091,767.7233817412962,768.0566260321139,768.0732904504584,768.3566730465645,768.3901224245565,767.7233817412962,down,768.3901224245565,None,768.3901224245565,769.4399944704601,0.06901240273145959,None,2.0667895676015178,,,,,,,,,26,001,2019_Dec_25_1346,untitled,3.1.0,60.00052090269702,
_,R,M,45,_,_,_RM045__,N,0,230,230,17,,,0.9450000000000001,770.5400360755739,770.8733568316529,770.8900265925477,771.173363109152,771.2068068106855,None,down,771.2068068106855,None,771.2068068106855,772.123419272717,0.07124058041517856,None,2.783510483423015,,,,,,,,,26,001,2019_Dec_25_1346,untitled,3.1.0,60.00052090269702,
_,F,N,270,_,_,_FN270__,N,0,231,231,54,,,1.316,774.0734664207303,774.4067738204321,774.4235327351453,774.7067824352962,774.7401700400405,None,up,774.7401700400405,None,774.7401700400405,776.0234748352486,0.07052401075998205,None,2.333573859432363,,,,,,,,,26,001,2019_Dec_25_1346,untitled,3.1.0,60.00052090269702,
490,_5,M,45,L,N,490_5M045LN,HLN,0,232,232,185,,,1.057,777.1568639759789,777.4901730452257,777.5068431400323,777.7901803244531,777.8569769041533,None,up,777.8569769041533,None,777.8569769041533,778.8402032974227,0.07321498692181194,None,2.1168208883063926,,,,,,,,,26,001,2019_Dec_25_1346,untitled,3.1.0,60.00052090269702,
482,_5,N,45,L,N,482_5N045LN,HLN,0,233,233,281,,,1.122,780.0569876560367,780.3902710142575,780.4069270848631,780.6902595945539,780.7235864277827,None,up,780.7235864277827,None,780.7235864277827,781.8069689571057,0.07229406469195965,None,2.7836099884334544,,,,,,,,,26,001,2019_Dec_25_1346,untitled,3.1.0,60.00052090269702,
170,F,M,45,L,N,170FM045LN,HLN,0,234,234,121,,,0.72,783.5904093195459,783.9236719753826,783.9403747933102,784.2237450347675,784.2571269630535,None,down,784.2571269630535,None,784.2571269630535,784.9403480805559,0.0717815137031721,None,2.1834742208557145,,,,,,,,,26,001,2019_Dec_25_1346,untitled,3.1.0,60.00052090269702,
296,_2,N,315,L,N,296_2N315LN,HLN,0,235,235,255,,,0.986,786.5237830336591,786.8571224886655,786.8737431648733,787.1570583112734,787.1905070214489,None,down,787.1905070214489,None,787.1905070214489,788.1404196039548,0.07253882031363901,None,2.2168354467576137,,,,,,,,,26,001,2019_Dec_25_1346,untitled,3.1.0,60.00052090269702,
268,_2,M,135,R,N,268_2M135RN,HRN,0,236,236,147,,,0.918,789.4904849166414,789.8237919824351,789.8404533955909,790.1238146214928,790.1572776897738,None,down,790.1572776897738,None,790.1572776897738,791.0405008775124,0.07200489912065677,None,1.7167740074219182,,,,,,,,,26,001,2019_Dec_25_1346,untitled,3.1.0,60.00052090269702,
_,_5,N,270,_,_,__5N270__,N,0,237,237,94,,,1.363,791.9572619292485,792.2905285919987,792.3072794928848,792.5905245183021,792.6239244776989,None,up,792.6239244776989,None,792.6239244776989,793.9572385555875,0.06913194231310626,None,2.333662345434277,,,,,,,,,26,001,2019_Dec_25_1346,untitled,3.1.0,60.00052090269702,
047,R,M,270,L,N,047RM270LN,HLN,0,238,238,110,,,0.7030000000000001,795.0406127371753,795.3739598721004,795.3906630239362,795.6739130579954,795.7073257059528,None,down,795.7073257059528,None,795.7073257059528,796.373919469057,0.07146129455577466,None,1.816921461828315,,,,,,,,,26,001,2019_Dec_25_1346,untitled,3.1.0,60.00052090269702,
173,F,M,180,L,N,173FM180LN,HLN,0,239,239,124,,,1.155,797.607348211448,797.9406405852242,797.9573083426585,798.2407136446091,798.290723929018,None,down,798.290723929018,None,798.290723929018,799.3907117747149,0.07165796721164952,None,2.48354561069209,,,,,,,,,26,001,2019_Dec_25_1346,untitled,3.1.0,60.00052090269702,
_,_4,M,315,_,_,__4M315__,N,0,240,240,39,,,1.295,800.8574163289741,801.190733078136,801.2074048424874,801.4907413590918,801.5241065919072,None,down,801.5241065919072,None,801.5241065919072,802.7907690067914,0.07130201975087402,None,2.550240348016814,,,,,,,,,26,001,2019_Dec_25_1346,untitled,3.1.0,60.00052090269702,
431,_4,M,270,L,N,431_4M270LN,HLN,0,241,241,174,,,0.846,804.1574760319818,804.4908084748895,804.5074966008033,804.790830780039,804.8242380854426,None,up,804.8242380854426,None,804.8242380854426,805.6409081134661,0.07214547499461332,None,2.68349993188167,,,,,,,,,26,001,2019_Dec_25_1346,untitled,3.1.0,60.00052090269702,
393,_4,M,0,R,N,393_4M000RN,HRN,0,242,242,160,,,1.0110000000000001,807.5908450713614,807.9242907095722,807.9409588009185,808.2242125079792,808.257620481203,None,down,808.257620481203,None,808.257620481203,809.2409166615471,0.0725662008881045,None,2.0003709733864525,,,,,,,,,26,001,2019_Dec_25_1346,untitled,3.1.0,60.00052090269702,
302,_2,M,225,L,N,302_2M225LN,HLN,0,243,243,157,,,1.093,810.3410267180989,810.6742820279251,810.6909678164739,810.9742943157944,811.0076411835871,None,down,811.0076411835871,None,811.0076411835871,812.0576080597712,0.07221993679922889,None,2.766937222357228,,,,,,,,,26,001,2019_Dec_25_1346,untitled,3.1.0,60.00052090269702,
424,_4,N,315,L,N,424_4N315LN,HLN,0,244,244,271,,,1.016,813.8576837904329,814.1910332627231,814.2077003523409,814.4911256888554,814.5243673751793,None,up,814.5243673751793,None,814.5243673751793,815.5077119723901,0.07181924547330709,None,2.4669416299584555,,,,,,,,,26,001,2019_Dec_25_1346,untitled,3.1.0,60.00052090269702,
272,_2,M,315,R,N,272_2M315RN,HRN,0,245,245,151,,,0.8210000000000001,817.0744995365349,817.4077578515462,817.4244232716192,817.7077828279726,817.7411577441599,None,down,817.7411577441599,None,817.7411577441599,818.5245393385376,0.07059947429297608,None,2.500222717593715,,,,,,,,,26,001,2019_Dec_25_1346,untitled,3.1.0,60.00052090269702,
207,G,M,270,R,N,207GM270RN,HRN,0,246,246,134,,,0.927,820.3246027145506,820.6578309777142,820.6744977334238,820.9579487809642,820.991221186956,None,up,820.991221186956,None,820.991221186956,821.8911926043074,0.07095275048050098,None,2.5835481484064076,,,,,,,,,26,001,2019_Dec_25_1346,untitled,3.1.0,60.00052090269702,
258,_2,N,45,R,N,258_2N045RN,HRN,0,247,247,241,,,1.319,823.6579231367177,823.9913246988799,824.0079236709716,824.291309940083,824.3246528009659,None,up,824.3246528009659,None,824.3246528009659,825.607959933539,0.07340631703482359,None,2.033699142251862,,,,,,,,,26,001,2019_Dec_25_1346,untitled,3.1.0,60.00052090269702,
_,G,M,225,_,_,_GM225__,N,0,248,248,13,,,1.062,826.4413935510056,826.7746521999288,826.7913169521817,827.0746544705144,827.1080858173955,None,down,827.1080858173955,None,827.1080858173955,828.1414166575378,0.07274551025329856,None,2.083492385529098,,,,,,,,,26,001,2019_Dec_25_1346,untitled,3.1.0,60.00052090269702,
_,_5,N,45,_,_,__5N045__,N,0,249,249,89,,,0.896,829.2747089645345,829.608051424726,829.6247211856171,829.9080433441159,829.9414159229382,None,up,829.9414159229382,None,829.9414159229382,830.8080782042598,0.071817575921159,None,1.9669038981919584,,,,,,,,,26,001,2019_Dec_25_1346,untitled,3.1.0,60.00052090269702,
294,_2,N,225,L,N,294_2N225LN,HLN,0,250,250,253,,,0.731,831.9914629373889,832.3247746779125,832.3414437709871,832.6248146802609,832.6582216517563,None,up,832.6582216517563,None,832.6582216517563,833.3581175387917,0.07308543006365653,None,2.50024575734642,,,,,,,,,26,001,2019_Dec_25_1346,untitled,3.1.0,60.00052090269702,
232,G,N,315,L,N,232GN315LN,HLN,0,251,251,239,,,0.936,835.2415874856088,835.5748284373294,835.5916160682573,835.8748377200136,835.9082433558688,None,down,835.9082433558688,None,835.9082433558688,836.808216776677,0.0733285161331878,None,3.1835914230687195,,,,,,,,,26,001,2019_Dec_25_1346,untitled,3.1.0,60.00052090269702,
_,_4,M,0,_,_,__4M000__,N,0,252,252,32,,,1.19,839.1749695474573,839.5082732741539,839.5249523845123,839.8083192868762,839.8750954981006,None,down,839.8750954981006,None,839.8750954981006,840.9917237206573,0.07083821954438463,None,2.233504205923964,,,,,,,,,26,001,2019_Dec_25_1346,untitled,3.1.0,60.00052090269702,
_,G,N,315,_,_,_GN315__,N,0,253,253,63,,,1.151,842.1917424863677,842.5250018031111,842.5416635501788,842.8250204352589,842.8584117130085,None,down,842.8584117130085,None,842.8584117130085,843.9750619735933,0.06974600176909007,None,2.3502689974448003,,,,,,,,,26,001,2019_Dec_25_1346,untitled,3.1.0,60.00052090269702,
139,F,M,90,R,N,139FM090RN,HRN,0,254,254,114,,,1.397,845.2917680638311,845.6251549339795,845.6417362088723,845.925101775596,845.9584449703871,None,down,845.9584449703871,None,845.9584449703871,847.3251059160721,0.0717815137031721,None,2.300296778710617,,,,,,,,,26,001,2019_Dec_25_1346,untitled,3.1.0,60.00052090269702,
013,R,M,180,R,N,013RM180RN,HRN,0,255,255,100,,,1.075,848.3418150782818,848.6751365021773,848.6918904082522,848.9751421118563,849.0418582193815,None,None,849.0418582193815,None,849.0418582193815,850.0418468664611,0.07188769690765184,None,,,,,,,,,,26,001,2019_Dec_25_1346,untitled,3.1.0,60.00052090269702,
144,F,M,315,R,N,144FM315RN,HRN,0,256,256,119,,,1.272,852.5419223299941,852.8752484286233,852.8919238659764,853.1752363410997,853.2086182693856,852.5419223299941,down,853.2086182693856,None,853.2086182693856,854.4419705465152,0.07055038960606907,None,2.8502272587647894,,,,,,,,,26,001,2019_Dec_25_1346,untitled,3.1.0,60.00052090269702,
492,_5,M,135,L,N,492_5M135LN,HLN,0,257,257,187,,,0.801,856.1420310509056,856.4754082376785,856.4919808309278,856.7753881363315,856.8086962706329,None,down,856.8086962706329,None,856.8086962706329,857.5753867339117,0.07211442141488078,None,2.333532454664237,,,,,,,,,26,001,2019_Dec_25_1346,untitled,3.1.0,60.00052090269702,
264,_2,N,315,R,N,264_2N315RN,HRN,0,258,258,247,,,0.882,859.2254229296959,859.5587139678319,859.5753997563806,859.85873861035,859.9087979794458,None,down,859.9087979794458,None,859.9087979794458,860.7420749933881,0.0717214100077399,None,2.2677199060781277,,,,,,,,,26,001,2019_Dec_25_1346,untitled,3.1.0,60.00052090269702,
422,_4,N,225,L,N,422_4N225LN,HLN,0,259,259,269,,,1.186,862.2588739772364,862.5921443129882,862.6087836881234,862.8921642807727,862.9255108146572,None,down,862.9255108146572,None,862.9255108146572,864.075517960322,0.07267004672030453,None,2.016927872889937,,,,,,,,,26,001,2019_Dec_25_1346,untitled,3.1.0,60.00052090269702,
238,G,M,225,L,N,238GM225LN,HLN,0,260,260,141,,,1.354,865.0255757934356,865.3588614890214,865.3755459419299,865.6588377146691,865.6922410131629,None,down,865.6922410131629,None,865.6922410131629,867.008914714188,0.0724780487944372,None,3.150306662428193,,,,,,,,,26,001,2019_Dec_25_1346,untitled,3.1.0,60.00052090269702,
_,_4,N,135,_,_,__4N135__,N,0,261,261,83,,,1.243,868.9256911257544,869.2589364183004,869.2756021722817,869.5589467027094,869.6090655076878,None,up,869.6090655076878,None,869.6090655076878,870.792343055884,0.07283766925684176,None,2.666912980530469,,,,,,,,,26,001,2019_Dec_25_1346,untitled,3.1.0,60.00052090269702,
143,F,M,270,R,N,143FM270RN,HRN,0,262,262,118,,,1.207,872.3590167569128,872.6923588831924,872.709027976267,872.9923768475201,873.0257520976193,None,down,873.0257520976193,None,873.0257520976193,874.1923842603101,0.07711805435246788,None,2.0168701065558707,,,,,,,,,26,001,2019_Dec_25_1346,untitled,3.1.0,60.00052090269702,
423,_4,N,270,L,N,423_4N270LN,HLN,0,263,263,270,,,0.745,875.1257566387867,875.4590974294297,875.4757681920528,875.7591070460221,875.7924782892078,None,up,875.7924782892078,None,875.7924782892078,876.5091227397679,0.07435929456914891,None,2.233552956702624,,,,,,,,,26,001,2019_Dec_25_1346,untitled,3.1.0,60.00052090269702,
_,_5,M,135,_,_,__5M135__,N,0,264,264,43,,,0.729,878.1092334641362,878.4425027981597,878.4591622078624,878.7425084078386,878.775865626827,None,down,878.775865626827,None,878.775865626827,879.4758366434871,0.07047926689483575,None,2.233585679827229,,,,,,,,,26,001,2019_Dec_25_1346,untitled,3.1.0,60.00052090269702,
001,R,N,0,R,N,001RN000RN,HRN,0,265,265,192,,,1.353,881.0926037723766,881.4259211893586,881.4425882789765,881.7259662003489,881.7759975210574,None,up,881.7759975210574,None,881.7759975210574,883.0759837639889,0.07352285142769688,None,2.3502062224688416,,,,,,,,,26,001,2019_Dec_25_1346,untitled,3.1.0,60.00052090269702,
300,_2,M,135,L,N,300_2M135LN,HLN,0,266,266,155,,,0.8280000000000001,884.2093765777208,884.5426392335576,884.5593143370024,884.8426475145097,884.8761399668219,None,down,884.8761399668219,None,884.8761399668219,885.675981626966,0.07139818567156908,None,2.7167863620707067,,,,,,,,,26,001,2019_Dec_25_1346,untitled,3.1.0,60.00052090269702,
_,R,N,270,_,_,_RN270__,N,0,267,267,70,,,1.033,887.6760784607031,888.009369832751,888.026034918912,888.3094261966653,888.3427757357349,None,up,888.3427757357349,None,888.3427757357349,889.3427316596899,0.07001045804281603,None,2.0835317868441052,,,,,,,,,26,001,2019_Dec_25_1346,untitled,3.1.0,60.00052090269702,
_,R,M,270,_,_,_RM270__,N,0,268,268,22,,,1.202,890.509458986573,890.8427617115376,890.8594298028875,891.1427940339745,891.2262637136591,None,down,891.2262637136591,None,891.2262637136591,892.3428204796,0.0696241248260776,None,2.483463135060447,,,,,,,,,26,001,2019_Dec_25_1346,untitled,3.1.0,60.00052090269702,
452,_5,N,135,R,N,452_5N135RN,HRN,0,269,269,275,,,0.992,893.7928549390563,894.1261923906059,894.1428761756943,894.4262026750148,894.4596520530067,None,up,894.4596520530067,None,894.4596520530067,895.4095519469593,0.07145762155050761,None,2.4834881782699085,,,,,,,,,26,001,2019_Dec_25_1346,untitled,3.1.0,60.00052090269702,
239,G,M,270,L,N,239GM270LN,HLN,0,270,270,142,,,1.105,897.0262916952706,897.3596191295364,897.3762678541389,897.6596010316462,897.6929709391952,None,down,897.6929709391952,None,897.6929709391952,898.7596302821148,0.07471257075303583,None,2.2171075829501206,,,,,,,,,26,001,2019_Dec_25_1346,untitled,3.1.0,60.00052090269702,
389,_4,N,180,R,N,389_4N180RN,HRN,0,271,271,260,,,1.337,899.9930136128205,900.3263333671675,900.3429991211488,900.6263389768465,900.6596975314751,None,down,900.6596975314751,None,900.6596975314751,901.9597772690468,0.07239724271130399,None,3.1336335624400817,,,,,,,,,26,001,2019_Dec_25_1346,untitled,3.1.0,60.00052090269702,
240,G,M,315,L,N,240GM315LN,HLN,0,272,272,143,,,1.095,903.8764702032568,904.2097385355519,904.2264957807201,904.5097438113226,904.5765143460849,None,down,904.5765143460849,None,904.5765143460849,905.6097680531457,0.07262997758516576,None,2.2168391197592427,,,,,,,,,26,001,2019_Dec_25_1346,untitled,3.1.0,60.00052090269702,
_,F,M,225,_,_,_FM225__,N,0,273,273,5,,,1.078,906.8765640318088,907.2098303606472,907.2264917738066,907.5099100982225,907.5432319228094,None,up,907.5432319228094,None,907.5432319228094,908.5931567264051,0.07028025687031914,None,2.283690126700094,,,,,,,,,26,001,2019_Dec_25_1346,untitled,3.1.0,60.00052090269702,
_,_5,N,135,_,_,__5N135__,N,0,274,274,91,,,0.932,909.9098858563957,910.2432343269575,910.2598800463747,910.5432466148268,910.6433900623197,None,up,910.6433900623197,None,910.6433900623197,911.4765709103449,0.07477835091412999,None,3.3001391734542267,,,,,,,,,26,001,2019_Dec_25_1346,untitled,3.1.0,60.00052090269702,
_,_2,N,315,_,_,__2N315__,N,0,275,275,79,,,0.886,914.0267508207507,914.3599714039956,914.376650514354,914.6599977160586,914.6933702948809,None,down,914.6933702948809,None,914.6933702948809,915.5433297582749,0.07179153099059477,None,3.083615598112374,,,,,,,,,26,001,2019_Dec_25_1346,untitled,3.1.0,60.00052090269702,
_,_4,M,270,_,_,__4M270__,N,0,276,276,38,,,1.2630000000000001,917.8600892740287,918.1934444227772,918.2100731128121,918.4934022834059,918.5267521563874,None,down,918.5267521563874,None,918.5267521563874,919.7600960857781,0.07197317772079259,None,2.600407235953753,,,,,,,,,26,001,2019_Dec_25_1346,untitled,3.1.0,60.00052090269702,
_,F,M,90,_,_,_FM090__,N,0,277,277,2,,,1.173,921.2101465728883,921.5434736732423,921.5601384254951,921.8435059956792,921.8934855604202,None,down,921.8934855604202,None,921.8934855604202,923.0102166270881,0.07007156347026466,None,2.5836393056815723,,,,,,,,,26,001,2019_Dec_25_1346,untitled,3.1.0,60.00052090269702,
429,_4,M,180,L,N,429_4M180LN,HLN,0,278,278,172,,,1.104,924.5602075447496,924.8935620256816,924.9102301170278,925.1935696388173,925.2269879632331,None,down,925.2269879632331,None,925.2269879632331,926.2935855329051,0.07363437717867782,None,3.0669014272643835,,,,,,,,,26,001,2019_Dec_25_1346,untitled,3.1.0,60.00052090269702,
388,_4,N,135,R,N,388_4N135RN,HRN,0,279,279,259,,,1.22,928.3770091330916,928.7102995034111,928.7269652573923,929.0103278189308,929.0437611692687,None,up,929.0437611692687,None,929.0437611692687,930.2269983144251,0.0731021255342057,None,2.5669832350722572,,,,,,,,,26,001,2019_Dec_25_1346,untitled,3.1.0,60.00052090269702,
_,_2,N,0,_,_,__2N000__,N,0,280,280,72,,,0.73,931.6938204048056,932.027044994964,932.0437124184937,932.3270659644768,932.3604695968788,None,down,932.3604695968788,None,932.3604695968788,933.060411563416,0.07302566027283319,None,1.7336738319172582,,,,,,,,,26,001,2019_Dec_25_1346,untitled,3.1.0,60.00052090269702,
199,G,N,270,R,N,199GN270RN,HRN,0,281,281,230,,,1.119,934.17712793807,934.510452701059,934.5271191228603,934.8104569751013,934.8438482528509,None,up,934.8438482528509,None,934.8438482528509,935.9272277769924,0.0732824366314162,None,2.600235606500064,,,,,,,,,26,001,2019_Dec_25_1346,untitled,3.1.0,60.00052090269702,
420,_4,N,135,L,N,420_4N135LN,HLN,0,282,282,267,,,1.221,937.527138823516,937.860501318275,937.8771951206472,938.1605129383242,938.1938704912209,None,up,938.1938704912209,None,938.1938704912209,939.3772084770244,0.07751574048961629,None,2.7003272980291513,,,,,,,,,26,001,2019_Dec_25_1346,untitled,3.1.0,60.00052090269702,
229,G,N,180,L,N,229GN180LN,HLN,0,283,283,236,,,0.886,940.9772954938235,941.3106065665306,941.3272759935135,941.610677956367,941.6439991131374,None,up,941.6439991131374,None,941.6439991131374,942.4940313687875,0.07413924825232243,None,3.200237142482365,,,,,,,,,26,001,2019_Dec_25_1346,untitled,3.1.0,60.00052090269702,
040,R,N,315,L,N,040RN315LN,HLN,0,284,284,207,,,1.2670000000000001,944.9273563321258,945.2606787577497,945.2773822434974,945.560706405453,945.594039249052,None,up,945.594039249052,None,945.594039249052,946.8273855158113,0.07335188979413942,None,2.100361824268475,,,,,,,,,26,001,2019_Dec_25_1346,untitled,3.1.0,60.00052090269702,
387,_4,N,90,R,N,387_4N090RN,HRN,0,285,285,258,,,1.156,947.7774436828331,948.1107387278862,948.1274128296027,948.4107670434059,948.4441733470812,None,up,948.4441733470812,None,948.4441733470812,949.5607795316173,0.07292749089901918,None,2.1168395872336987,,,,,,,,,26,001,2019_Dec_25_1346,untitled,3.1.0,60.00052090269702,
010,R,M,45,R,N,010RM045RN,HRN,0,286,286,97,,,0.967,950.6441740816808,950.9775051889519,950.994163263018,951.2774834180564,951.3108196007524,None,down,951.3108196007524,None,951.3108196007524,952.2441649325629,0.07216250437340932,None,1.900277946217102,,,,,,,,,26,001,2019_Dec_25_1346,untitled,3.1.0,60.00052090269702,
461,_5,M,180,R,N,461_5M180RN,HRN,0,287,287,180,,,1.08,953.2942142843785,953.6275453916496,953.6442608981342,953.9276388195103,953.9609950367703,None,up,953.9609950367703,None,953.9609950367703,955.0109188386377,0.0727014342082839,None,3.3001885920493805,,,,,,,,,26,001,2019_Dec_25_1346,untitled,3.1.0,60.00052090269702,
,,,,,,,,,,,,,,,,,,,,,,,,,,,,,957.277792284287,None,962.4778103821809,None,964.3278606689419,None,966.6113300815014,None,,,,,,,
