Number,Letter,type,Orientation,human,face_type,image,picture,trials.thisRepN,trials.thisTrialN,trials.thisN,trials.thisIndex,text.started,text.stopped,stimulus_duration,CROSS.started,CROSS.stopped,BLANK.started,BLANK.stopped,TEST.started,TEST.stopped,key_JUDGE.keys,key_JUDGE.started,key_JUDGE.stopped,image_2.started,image_2.stopped,ISI.started,ISI.stopped,key_JUDGE.rt,q1.started,q1.stopped,q2.started,q2.stopped,q3.started,q3.stopped,text_2.started,text_2.stopped,participant,session,date,expName,psychopyVersion,frameRate,
_,_2,N,315,_,_,__2N315__,N,0,0,0,79,19.849655939717195,None,0.794,29.11654674865713,29.449880527205096,29.449880527205096,29.76661132674417,29.76661132674417,None,None,29.76661132674417,None,29.76661132674417,30.533199613735633,0.06841370310939965,None,,,,,,,,,,27,001,2019_Dec_25_1403,untitled,3.1.0,60.00328584887272,
227,G,N,90,L,N,227GN090LN,HLN,0,1,1,234,,,0.8310000000000001,33.31660324613404,33.65005355907488,33.66662815578093,33.950005075425,33.98333424602242,33.31660324613404,up,33.98333424602242,None,33.98333424602242,34.78330078829458,0.07245233776848181,None,2.4002695984818274,,,,,,,,,27,001,2019_Dec_25_1403,untitled,3.1.0,60.00328584887272,
_,G,M,45,_,_,_GM045__,N,0,2,2,9,,,0.7020000000000001,36.466655803480535,36.80004734835893,36.81670475460487,37.10002524355514,37.13335274460405,None,down,37.13335274460405,None,37.13335274460405,37.80005803346285,0.07178218152330373,None,1.550351873767795,,,,,,,,,27,001,2019_Dec_25_1403,untitled,3.1.0,60.00328584887272,
385,_4,N,0,R,N,385_4N000RN,HRN,0,3,3,256,,,0.9540000000000001,38.766703151839465,39.10006564659852,39.11673140057974,39.40011232713732,39.45018839170734,None,up,39.45018839170734,None,39.45018839170734,40.350094362809614,0.0730774162329908,None,1.7668240270540991,,,,,,,,,27,001,2019_Dec_25_1403,untitled,3.1.0,60.00328584887272,
139,F,M,90,R,N,139FM090RN,HRN,0,4,4,114,,,0.976,41.30011980670679,41.63345224961449,41.65014538417017,41.93346487139206,41.96692693794466,None,None,41.96692693794466,None,41.96692693794466,42.90014939108369,0.07355123372690286,None,,,,,,,,,,27,001,2019_Dec_25_1403,untitled,3.1.0,60.00328584887272,
198,G,N,225,R,N,198GN225RN,HRN,0,5,5,229,,,1.2,45.50021370204195,45.833563174332085,45.85021857712127,46.13358547948155,46.16693635419142,45.50021370204195,up,46.16693635419142,None,46.16693635419142,47.3336236119394,0.07194279196482967,None,3.050280417148315,,,,,,,,,27,001,2019_Dec_25_1403,untitled,3.1.0,60.00328584887272,
143,F,M,270,R,N,143FM270RN,HRN,0,6,6,118,,,1.399,49.30035387722455,49.633619204334536,49.65031000152521,49.93363082438373,49.983657470358594,None,down,49.983657470358594,None,49.983657470358594,51.33374515497417,0.07247404187728534,None,2.566938157302502,,,,,,,,,27,001,2019_Dec_25_1403,untitled,3.1.0,60.00328584887272,
208,G,M,315,R,N,208GM315RN,HRN,0,7,7,135,,,1.1500000000000001,52.63371570416348,52.96714063998661,52.98371557060091,53.26703305436604,53.30051782675946,None,down,53.30051782675946,None,53.30051782675946,54.417085945620784,0.07346241382037988,None,2.0501418447274773,,,,,,,,,27,001,2019_Dec_25_1403,untitled,3.1.0,60.00328584887272,
236,G,M,135,L,N,236GM135LN,HLN,0,8,8,139,,,1.252,55.43383450914189,55.76711486217755,55.78378261961552,56.06720528485312,56.10059522696611,None,None,56.10059522696611,None,56.10059522696611,57.317187921562436,0.07336357662279624,None,,,,,,,,,,27,001,2019_Dec_25_1403,untitled,3.1.0,60.00328584887272,
486,_5,N,225,L,N,486_5N225LN,HLN,0,9,9,285,,,1.252,59.63387598069312,59.96721009314933,59.983876181038795,60.2672227149269,60.30067843719735,59.63387598069312,up,60.30067843719735,None,60.30067843719735,61.51727580652732,0.07209338511893293,None,2.316840321836935,,,,,,,,,27,001,2019_Dec_25_1403,untitled,3.1.0,60.00328584887272,
_,_2,M,315,_,_,__2M315__,N,0,10,10,31,,,1.318,62.7507068862833,63.05064337670774,63.05064337670774,63.33395752137949,63.36737183888181,None,down,63.36737183888181,None,63.36737183888181,64.65065526388207,0.11667997852418921,None,2.8002249881792523,,,,,,,,,27,001,2019_Dec_25_1403,untitled,3.1.0,60.00328584887272,
491,_5,M,90,L,N,491_5M090LN,HLN,0,11,11,186,,,1.3980000000000001,66.25077700726615,66.58403331882073,66.60069406416005,66.88405729351871,66.91749331513347,None,None,66.91749331513347,None,66.91749331513347,68.28406644263669,0.07330113555872231,None,,,,,,,,,,27,001,2019_Dec_25_1403,untitled,3.1.0,60.00328584887272,
_,F,M,180,_,_,_FM180__,N,0,12,12,4,,,1.287,70.45087223823793,70.78418464657807,70.80081634179805,71.08422431501822,71.11759188520227,70.45087223823793,up,71.11759188520227,None,71.11759188520227,72.36758787828876,0.07100717771754717,None,2.6670048056257656,,,,,,,,,27,001,2019_Dec_25_1403,untitled,3.1.0,60.00328584887272,
161,F,N,0,L,N,161FN000LN,HLN,0,13,13,216,,,0.9480000000000001,73.86753645623321,74.20086556004753,74.21754199912903,74.5009583200881,74.53422872262308,None,up,74.53422872262308,None,74.53422872262308,75.45090062053714,0.07385809650077135,None,1.616903030026151,,,,,,,,,27,001,2019_Dec_25_1403,untitled,3.1.0,60.00328584887272,
261,_2,N,180,R,N,261_2N180RN,HRN,0,14,14,244,,,1.353,76.23434265252581,76.56759662671539,76.58427006061174,76.86760991630945,76.9009798238585,None,up,76.9009798238585,None,76.9009798238585,78.21772231022624,0.07348779093445046,None,2.2335653113514127,,,,,,,,,27,001,2019_Dec_25_1403,untitled,3.1.0,60.00328584887272,
494,_5,M,225,L,N,494_5M225LN,HLN,0,15,15,189,,,1.204,79.2177473534357,79.55099097643324,79.56766641378636,79.8510109442177,79.88434512345339,None,down,79.88434512345339,None,79.88434512345339,81.05109849527071,0.07316490050652646,None,2.9836921969399555,,,,,,,,,27,001,2019_Dec_25_1403,untitled,3.1.0,60.00328584887272,
229,G,N,180,L,N,229GN180LN,HLN,0,16,16,236,,,0.722,82.95116607854288,83.28441404236219,83.30109515617733,83.58443801706017,83.65121589782939,None,None,83.65121589782939,None,83.65121589782939,84.30119866810492,0.07215916528002708,None,,,,,,,,,,27,001,2019_Dec_25_1403,untitled,3.1.0,60.00328584887272,
199,G,N,270,R,N,199GN270RN,HRN,0,17,17,230,,,1.052,87.15117783215464,87.48451561761249,87.50117936813695,87.78451755428978,87.8345351847056,87.15117783215464,up,87.8345351847056,None,87.8345351847056,88.83458360157601,0.07274050161140622,None,1.817125146586477,,,,,,,,,27,001,2019_Dec_25_1403,untitled,3.1.0,60.00328584887272,
_,R,N,180,_,_,_RN180__,N,0,18,18,68,,,1.174,89.73466888204712,90.06794355862075,90.08462133334251,90.36803865602997,90.40137149962902,None,up,90.40137149962902,None,90.40137149962902,91.53466914917226,0.0717541331287066,None,2.583513421825046,,,,,,,,,27,001,2019_Dec_25_1403,untitled,3.1.0,60.00328584887272,
418,_4,N,45,L,N,418_4N045LN,HLN,0,19,19,265,,,1.028,93.06798129038725,93.4013160706636,93.41800085748037,93.70131900906563,93.75144282268593,None,up,93.75144282268593,None,93.75144282268593,94.73481780565635,0.07314486594259506,None,1.9834768253494985,,,,,,,,,27,001,2019_Dec_25_1403,untitled,3.1.0,60.00328584887272,
046,R,M,225,L,N,046RM225LN,HLN,0,20,20,109,,,1.02,95.81812386971797,96.15139687674673,96.16804626916564,96.45138679267984,96.48484919314433,None,down,96.48484919314433,None,96.48484919314433,97.46807825769065,0.07281396168764331,None,2.1169778257390135,,,,,,,,,27,001,2019_Dec_25_1403,untitled,3.1.0,60.00328584887272,
_,_2,M,90,_,_,__2M090__,N,0,21,21,26,,,1.139,98.68486027893596,99.01811091403215,99.03477466455661,99.31813121572486,99.40157017574529,None,up,99.40157017574529,None,99.40157017574529,100.45148028732365,0.0711704594323237,None,3.000348935362126,,,,,,,,,27,001,2019_Dec_25_1403,untitled,3.1.0,60.00328584887272,
487,_5,N,270,L,N,487_5N270LN,HLN,0,22,22,286,,,1.364,102.4848625495215,102.81820267234434,102.83486375159555,103.11821529412191,103.1516636703891,None,up,103.1516636703891,None,103.1516636703891,104.48499244029153,0.07351116459540208,None,2.233479830534634,,,,,,,,,27,001,2019_Dec_25_1403,untitled,3.1.0,60.00328584887272,
_,_4,N,315,_,_,__4N315__,N,0,23,23,87,,,0.763,105.46829830400748,105.80160403416085,105.81824875184975,106.10169178556316,106.13495050126585,None,up,106.13495050126585,None,106.13495050126585,106.86827339436422,0.07125827761410619,None,1.6502485621858796,,,,,,,,,27,001,2019_Dec_25_1403,untitled,3.1.0,60.00328584887272,
204,G,M,135,R,N,204GM135RN,HRN,0,24,24,131,,,1.104,107.86839093048548,108.20174173841588,108.21834939215114,108.50166253509451,108.53512627119562,None,up,108.53512627119562,None,108.53512627119562,109.6016881125579,0.07278758284155629,None,2.8336730305345554,,,,,,,,,27,001,2019_Dec_25_1403,untitled,3.1.0,60.00328584887272,
170,F,M,45,L,N,170FM045LN,HLN,0,25,25,121,,,1.116,111.45178648227738,111.78507451523183,111.8017355944794,112.08510884112184,112.1184507002763,None,down,112.1184507002763,None,112.1184507002763,113.20177512935697,0.07279292539169546,None,2.0169759558484657,,,,,,,,,27,001,2019_Dec_25_1403,untitled,3.1.0,60.00328584887272,
015,R,M,270,R,N,015RM270RN,HRN,0,26,26,102,,,1.286,114.21851868423983,114.5518037120055,114.56847380680847,114.85182434761009,114.88527172214526,None,down,114.88527172214526,None,114.88527172214526,116.13515218256725,0.0728904269526538,None,2.066808266528824,,,,,,,,,27,001,2019_Dec_25_1403,untitled,3.1.0,60.00328584887272,
132,F,N,135,R,N,132FN135RN,HRN,0,27,27,211,,,0.725,117.03525115332377,117.36852983681456,117.38520126725416,117.66862994286203,117.70192138169296,None,up,117.70192138169296,None,117.70192138169296,118.38519559079577,0.07291547015847755,None,2.0168874698501895,,,,,,,,,27,001,2019_Dec_25_1403,untitled,3.1.0,60.00328584887272,
138,F,M,45,R,N,138FM045RN,HRN,0,28,28,113,,,1.022,119.80195096606985,120.13526537786674,120.15192645711431,120.43527733182418,120.46872504027124,None,down,120.46872504027124,None,120.46872504027124,121.45194041452851,0.07263031150068855,None,1.8169204600999365,,,,,,,,,27,001,2019_Dec_25_1403,untitled,3.1.0,60.00328584887272,
396,_4,M,135,R,N,396_4M135RN,HRN,0,29,29,163,,,1.187,122.36874053366773,122.70199417394906,122.71865458538014,123.00203083720771,123.03544882771166,None,down,123.03544882771166,None,123.03544882771166,124.18535379708555,0.0716780017792189,None,2.9501780405153113,,,,,,,,,27,001,2019_Dec_25_1403,untitled,3.1.0,60.00328584887272,
430,_4,M,225,L,N,430_4M225LN,HLN,0,30,30,173,,,1.2690000000000001,126.06870620777772,126.40216253108883,126.41874514161827,126.70217481895452,126.73542485301368,None,down,126.73542485301368,None,126.73542485301368,127.96886862133033,0.07208537129190518,None,3.3337124318495626,,,,,,,,,27,001,2019_Dec_25_1403,untitled,3.1.0,60.00328584887272,
_,_5,M,135,_,_,__5M135__,N,0,31,31,43,,,1.0230000000000001,130.15223064861493,130.48551767983736,130.5021677400764,130.78560342778292,130.8188531279302,None,up,130.8188531279302,None,130.8188531279302,131.80219739123277,0.07173009165126132,None,2.7336033770261565,,,,,,,,,27,001,2019_Dec_25_1403,untitled,3.1.0,60.00328584887272,
033,R,N,0,L,N,033RN000LN,HLN,0,32,32,200,,,1.216,133.63558927002305,133.96891770601724,133.98559414509873,134.2690081286928,134.30238271097187,None,up,134.30238271097187,None,134.30238271097187,135.4856115083894,0.07255217669080594,None,2.8835060090350453,,,,,,,,,27,001,2019_Dec_25_1403,untitled,3.1.0,60.00328584887272,
_,F,N,225,_,_,_FN225__,N,0,33,33,53,,,0.8180000000000001,137.26899076540212,137.60232788304347,137.6190794517497,137.9023381674524,137.9357975627281,None,up,137.9357975627281,None,137.9357975627281,138.7191073665781,0.07146563537753536,None,2.3670459432687494,,,,,,,,,27,001,2019_Dec_25_1403,untitled,3.1.0,60.00328584887272,
295,_2,N,270,L,N,295_2N270LN,HLN,0,34,34,254,,,1.2670000000000001,140.38582033535204,140.71907097044823,140.73574073134296,141.01905587774309,141.08580237102433,None,up,141.08580237102433,None,141.08580237102433,142.2857757250531,0.07308810133690713,None,2.0502076248885714,,,,,,,,,27,001,2019_Dec_25_1403,untitled,3.1.0,60.00328584887272,
_,_5,M,180,_,_,__5M180__,N,0,35,35,44,,,0.79,143.21922557051948,143.55252629203096,143.56913361186162,143.85247413537581,143.9026039593664,None,down,143.9026039593664,None,143.9026039593664,144.63582968481933,0.07124492123693926,None,2.950159341584367,,,,,,,,,27,001,2019_Dec_25_1403,untitled,3.1.0,60.00328584887272,
_,_2,N,225,_,_,__2N225__,N,0,36,36,77,,,1.344,146.9359291230503,147.26923385147165,147.28588691689583,147.5692214300434,147.60262840153882,None,up,147.60262840153882,None,147.60262840153882,148.91932714576978,0.06997005500306841,None,2.3837170398001035,,,,,,,,,27,001,2019_Dec_25_1403,untitled,3.1.0,60.00328584887272,
460,_5,M,135,R,N,460_5M135RN,HRN,0,37,37,179,,,1.268,150.06934497653492,150.4026176496518,150.4192934209168,150.70262459497098,150.73597847486235,None,down,150.73597847486235,None,150.73597847486235,151.96934811528263,0.0707527387276059,None,3.366959794631839,,,,,,,,,27,001,2019_Dec_25_1403,untitled,3.1.0,60.00328584887272,
014,R,M,225,R,N,014RM225RN,HRN,0,38,38,101,,,1.356,154.1861241261613,154.51938778372278,154.53607123490656,154.81948755586563,154.85273658819642,None,down,154.85273658819642,None,154.85273658819642,156.16951547069402,0.07207602182825212,None,2.7836210074456176,,,,,,,,,27,001,2019_Dec_25_1403,untitled,3.1.0,60.00328584887272,
239,G,M,270,L,N,239GM270LN,HLN,0,39,39,142,,,0.804,157.71947700432793,158.05282146797617,158.06946952475482,158.3528931917208,158.38627946083216,None,down,158.38627946083216,None,158.38627946083216,159.15282801260037,0.07446213867660845,None,3.0501221440717927,,,,,,,,,27,001,2019_Dec_25_1403,untitled,3.1.0,60.00328584887272,
452,_5,N,135,R,N,452_5N135RN,HRN,0,40,40,275,,,0.796,161.51960048403635,161.85290120554782,161.8695549387885,162.15289379275782,162.18624299791918,None,up,162.18624299791918,None,162.18624299791918,162.95294748539527,0.07312483137866366,None,1.9337600473336352,,,,,,,,,27,001,2019_Dec_25_1403,untitled,3.1.0,60.00328584887272,
009,R,M,0,R,N,009RM000RN,HRN,0,41,41,96,,,0.998,164.20298154416014,164.53630230023555,164.5529406736423,164.8362972248142,164.869753948813,None,down,164.869753948813,None,164.869753948813,165.83640140455827,0.07265067997286678,None,1.9335233055426215,,,,,,,,,27,001,2019_Dec_25_1403,untitled,3.1.0,60.00328584887272,
293,_2,N,180,L,N,293_2N180LN,HLN,0,42,42,252,,,1.289,166.88639332394814,167.2196753465323,167.23636280462597,167.5197771221283,167.56981445320343,None,up,167.56981445320343,None,167.56981445320343,168.80313133593154,0.07309010479366407,None,2.4835542923392495,,,,,,,,,27,001,2019_Dec_25_1403,untitled,3.1.0,60.00328584887272,
202,G,M,45,R,N,202GM045RN,HRN,0,43,43,129,,,1.046,170.13638597794125,170.46974947442868,170.4864412733441,170.7698519178448,170.8032244966671,None,down,170.8032244966671,None,170.8032244966671,171.81980042900977,0.07200089220350492,None,2.966914583292237,,,,,,,,,27,001,2019_Dec_25_1403,untitled,3.1.0,60.00328584887272,
193,G,N,0,R,N,193GN000RN,HRN,0,44,44,224,,,0.913,173.8532334454394,174.18650511683154,174.2031949122902,174.48652475070412,174.51997479651618,None,down,174.51997479651618,None,174.51997479651618,175.40328580244022,0.07194145632456639,None,1.6334646042632812,,,,,,,,,27,001,2019_Dec_25_1403,untitled,3.1.0,60.00328584887272,
_,R,N,270,_,_,_RN270__,N,0,45,45,70,,,1.195,176.23656782502076,176.56989292192156,176.5865693610067,176.86998735151064,176.90332486984335,None,up,176.90332486984335,None,176.90332486984335,178.0699279824148,0.07151939479444991,None,2.5336971387987433,,,,,,,,,27,001,2019_Dec_25_1403,untitled,3.1.0,60.00328584887272,
_,_5,N,270,_,_,__5N270__,N,0,46,46,94,,,1.354,179.51996277577564,179.85330456815063,179.8699893549674,180.15330717264442,180.20344100354487,None,up,180.20344100354487,None,180.20344100354487,181.50335345249187,0.07192910167577793,None,2.3501421118562575,,,,,,,,,27,001,2019_Dec_25_1403,untitled,3.1.0,60.00328584887272,
165,F,N,180,L,N,165FN180LN,HLN,0,47,47,220,,,0.7000000000000001,182.6367068649124,182.9701181104465,182.9867347797408,183.27004825659242,183.3035063162315,None,down,183.3035063162315,None,183.3035063162315,183.97007370049323,0.07382637510454515,None,3.11702256960416,,,,,,,,,27,001,2019_Dec_25_1403,untitled,3.1.0,60.00328584887272,
_,_4,N,135,_,_,__4N135__,N,0,48,48,83,,,1.338,186.50345295750594,186.83683214773555,186.85346317513176,187.13680303082947,187.17020365804638,None,up,187.17020365804638,None,187.17020365804638,188.47017186986704,0.07247137060403475,None,2.7336511260764382,,,,,,,,,27,001,2019_Dec_25_1403,untitled,3.1.0,60.00328584887272,
260,_2,N,135,R,N,260_2N135RN,HRN,0,49,49,243,,,0.8320000000000001,189.98685498713894,190.32021380889273,190.33688056460232,190.62031424885208,190.6536227170618,None,down,190.6536227170618,None,190.6536227170618,191.4536557073152,0.0691195876643178,None,2.0003299025265733,,,,,,,,,27,001,2019_Dec_25_1403,untitled,3.1.0,60.00328584887272,
230,G,N,225,L,N,230GN225LN,HLN,0,50,50,237,,,1.264,192.73694046795572,193.07033601974763,193.08695502640694,193.37035064498195,193.40373791581806,None,up,193.40373791581806,None,193.40373791581806,194.6370651497382,0.07371151026018197,None,2.86700320286036,,,,,,,,,27,001,2019_Dec_25_1403,untitled,3.1.0,60.00328584887272,
463,_5,M,270,R,N,463_5M270RN,HRN,0,51,51,182,,,1.147,196.3537760482759,196.68704271102615,196.70369176953318,196.98703696778466,197.02043024899103,None,down,197.02043024899103,None,197.02043024899103,198.13707116010846,0.06970392917719437,None,2.1170439398119925,,,,,,,,,27,001,2019_Dec_25_1403,untitled,3.1.0,60.00328584887272,
135,F,N,270,R,N,135FN270RN,HRN,0,52,52,214,,,1.371,199.22047572745578,199.553776115059,199.57042317011292,199.85375935280535,199.8872200837177,None,up,199.8872200837177,None,199.8872200837177,201.22054618234688,0.07013200108121964,None,2.2669899800421263,,,,,,,,,27,001,2019_Dec_25_1403,untitled,3.1.0,60.00328584887272,
006,R,N,225,R,N,006RN225RN,HRN,0,53,53,197,,,0.969,202.23723464217255,202.5704896180905,202.58716138243835,202.87050324159281,202.92063006039825,None,up,202.92063006039825,None,202.92063006039825,203.83727123864446,0.07102988356200512,None,1.883472618090309,,,,,,,,,27,001,2019_Dec_25_1403,untitled,3.1.0,60.00328584887272,
012,R,M,135,R,N,012RM135RN,HRN,0,54,54,99,,,1.161,204.88729821852758,205.22055386226566,205.2372376473577,205.52056180930958,205.55396043306973,None,up,205.55396043306973,None,205.55396043306973,206.687226695125,0.07216183655327768,None,1.9668862009930308,,,,,,,,,27,001,2019_Dec_25_1403,untitled,3.1.0,60.00328584887272,
169,F,M,0,L,N,169FM000LN,HLN,0,55,55,120,,,0.835,207.60401345788705,207.93727411026703,207.9539515510769,208.23737020940462,208.2706896966265,None,down,208.2706896966265,None,208.2706896966265,209.0707296989749,0.0710205340947141,None,1.5335171616097796,,,,,,,,,27,001,2019_Dec_25_1403,untitled,3.1.0,60.00328584887272,
175,F,M,270,L,N,175FM270LN,HLN,0,56,56,126,,,1.236,209.8873816958876,210.22066605583677,210.2373334793665,210.52075881587734,210.5540212045853,None,down,210.5540212045853,None,210.5540212045853,211.75403696511057,0.07101185245119268,None,2.016916519969527,,,,,,,,,27,001,2019_Dec_25_1403,untitled,3.1.0,60.00328584887272,
140,F,M,135,R,N,140FM135RN,HRN,0,57,57,115,,,0.765,212.65409820410423,212.98741795845126,213.0040703560553,213.28738116163368,213.32080549641978,None,None,213.32080549641978,None,213.32080549641978,214.05408832038302,0.0700852537593164,None,,,,,,,,,,27,001,2019_Dec_25_1403,untitled,3.1.0,60.00328584887272,
493,_5,M,180,L,N,493_5M180LN,HLN,0,58,58,188,,,0.935,216.8542418519428,217.18749716177263,217.20416291575384,217.4875077800898,217.52084596624263,216.8542418519428,down,217.52084596624263,None,217.52084596624263,218.42094493699915,0.07277990292641334,None,2.366937422699266,,,,,,,,,27,001,2019_Dec_25_1403,untitled,3.1.0,60.00328584887272,
194,G,N,45,R,N,194GN045RN,HRN,0,59,59,225,,,1.227,219.97087307968832,220.30424726127603,220.32089732151508,220.60428826535644,220.65437134202512,None,up,220.65437134202512,None,220.65437134202512,221.82092303254103,0.07081351024316973,None,1.9334591949336755,,,,,,,,,27,001,2019_Dec_25_1403,untitled,3.1.0,60.00328584887272,
_,F,M,0,_,_,_FM000__,N,0,60,60,0,,,0.77,222.6709536186463,223.0042967466543,223.02098487256808,223.3042960120547,223.3377807844481,None,down,223.3377807844481,None,223.3377807844481,224.0709854736051,0.07137113900535041,None,1.4668618256037007,,,,,,,,,27,001,2019_Dec_25_1403,untitled,3.1.0,60.00328584887272,
431,_4,M,270,L,N,431_4M270LN,HLN,0,61,61,174,,,1.329,224.88776168482946,225.22101398947052,225.23767339917322,225.52101792960457,225.55447732488028,None,down,225.55447732488028,None,225.55447732488028,226.85438142608837,0.07062718877568841,None,2.216821756468562,,,,,,,,,27,001,2019_Dec_25_1403,untitled,3.1.0,60.00328584887272,
298,_2,M,45,L,N,298_2M045LN,HLN,0,62,62,153,,,1.2570000000000001,227.85449629093637,228.18774592430418,228.2044123461019,228.48776956509028,228.5212142683522,None,None,228.5212142683522,None,228.5212142683522,229.73786840228422,0.0718983820079302,None,,,,,,,,,,27,001,2019_Dec_25_1403,untitled,3.1.0,60.00328584887272,
039,R,N,270,L,N,039RN270LN,HLN,0,63,63,206,,,0.9460000000000001,232.05450370372637,232.38783781617894,232.40451024835056,232.68784709886313,232.72122234896233,232.05450370372637,up,232.72122234896233,None,232.72122234896233,233.63789357905625,0.07100216907565482,None,1.9170635736845725,,,,,,,,,27,001,2019_Dec_25_1403,untitled,3.1.0,60.00328584887272,
_,_5,M,45,_,_,__5M045__,N,0,64,64,41,,,0.995,234.7212724353776,235.05457148734058,235.07121453548098,235.35457776483963,235.38804016530048,None,down,235.38804016530048,None,235.38804016530048,236.35463486335357,0.06992097031252342,None,2.1836692239703552,,,,,,,,,27,001,2019_Dec_25_1403,untitled,3.1.0,60.00328584887272,
003,R,N,90,R,N,003RN090RN,HRN,0,65,65,194,,,0.779,237.65462611492694,237.98797224812006,238.00463299345938,238.2879745187056,238.32137681546737,None,up,238.32137681546737,None,238.32137681546737,239.07142823751929,0.07075707954936661,None,1.9002832887672412,,,,,,,,,27,001,2019_Dec_25_1403,untitled,3.1.0,60.00328584887272,
_,R,M,135,_,_,_RM135__,N,0,66,66,19,,,1.0030000000000001,240.30472942650522,240.6380274767398,240.6546985732748,240.93809920048807,240.9714914799697,None,down,240.9714914799697,None,240.9714914799697,241.93806347217833,0.06917802181123989,None,2.750337916349963,,,,,,,,,27,001,2019_Dec_25_1403,untitled,3.1.0,60.00328584887272,
010,R,M,45,R,N,010RM045RN,HRN,0,67,67,97,,,1.018,243.80479954748807,244.13819977401,244.15477704199293,244.4381512903601,244.47156894695945,None,down,244.47156894695945,None,244.47156894695945,245.45480969833443,0.07067059700420941,None,1.7168344450292352,,,,,,,,,27,001,2019_Dec_25_1403,untitled,3.1.0,60.00328584887272,
423,_4,N,270,L,N,423_4N270LN,HLN,0,68,68,270,,,1.103,246.27149575400836,246.60483320555795,246.62150096299592,246.9049049293062,246.93830188351785,None,up,246.93830188351785,None,246.93830188351785,248.00490212446675,0.07137347637035418,None,1.81680425961531,,,,,,,,,27,001,2019_Dec_25_1403,untitled,3.1.0,60.00328584887272,
007,R,N,270,R,N,007RN270RN,HRN,0,69,69,198,,,0.865,248.83826762441095,249.17155899645513,249.1882267538931,249.47156460613405,249.5049886070119,None,up,249.5049886070119,None,249.5049886070119,250.33827563823434,0.07101118463106104,None,1.650266593296692,,,,,,,,,27,001,2019_Dec_25_1403,untitled,3.1.0,60.00328584887272,
016,R,M,315,R,N,016RM315RN,HRN,0,70,70,103,,,1.222,251.2383505675134,251.57161121989338,251.5883170430061,251.8716381997765,251.9050745552995,None,down,251.9050745552995,None,251.9050745552995,253.08831904646286,0.07098781097010942,None,1.9002291954420798,,,,,,,,,27,001,2019_Dec_25_1403,untitled,3.1.0,60.00328584887272,
240,G,M,315,L,N,240GM315LN,HLN,0,71,71,143,,,1.131,253.8883416855242,254.22167846925367,254.23834288759826,254.52168474675273,254.55513546038128,None,down,254.55513546038128,None,254.55513546038128,255.65503916090165,0.07147531874943525,None,1.9836574703549559,,,,,,,,,27,001,2019_Dec_25_1403,untitled,3.1.0,60.00328584887272,
_,R,N,315,_,_,_RN315__,N,0,72,72,71,,,1.106,256.62182051433047,256.9550731528798,256.9717419120461,257.25507575737356,257.28848239496074,None,up,257.28848239496074,None,257.28848239496074,258.3551894869306,0.06972496547314222,None,1.8002042857951892,,,,,,,,,27,001,2019_Dec_25_1403,untitled,3.1.0,60.00328584887272,
488,_5,N,315,L,N,488_5N315LN,HLN,0,73,73,287,,,0.792,259.1718314665595,259.5051475479049,259.5218830889571,259.8051394672948,259.8552656182801,None,down,259.8552656182801,None,259.8552656182801,260.5885751550013,0.0712482603303215,None,1.650130692152743,,,,,,,,,27,001,2019_Dec_25_1403,untitled,3.1.0,60.00328584887272,
_,G,N,0,_,_,_GN000__,N,0,74,74,56,,,1.059,261.5885310789563,261.92185183503534,261.9385479747725,262.2219506054462,262.25520798551224,None,up,262.25520798551224,None,262.25520798551224,263.2718870958706,0.06971227691610693,None,2.0170257083555043,,,,,,,,,27,001,2019_Dec_25_1403,untitled,3.1.0,60.00328584887272,
450,_5,N,45,R,N,450_5N045RN,HRN,0,75,75,273,,,1.344,264.35530535350335,264.6885997307363,264.7052477875186,264.9885933196747,265.0220513793138,None,up,265.0220513793138,None,265.0220513793138,266.3386997032212,0.07068395338137634,None,1.9668100696399051,,,,,,,,,27,001,2019_Dec_25_1403,untitled,3.1.0,60.00328584887272,
_,G,N,225,_,_,_GN225__,N,0,76,76,61,,,1.211,267.0720596602696,267.40539644399905,267.4219750476186,267.7053192441381,267.73878464978407,None,up,267.73878464978407,None,267.73878464978407,268.92201478284187,0.06925982962638955,None,3.4336819125273905,,,,,,,,,27,001,2019_Dec_25_1403,untitled,3.1.0,60.00328584887272,
_,R,N,0,_,_,_RN000__,N,0,77,77,64,,,1.106,271.25546209059394,271.5887427775415,271.6054098671593,271.88874771940027,271.92213699369313,None,up,271.92213699369313,None,271.92213699369313,272.98877730377717,0.06971394646097906,None,1.7168731785241107,,,,,,,,,27,001,2019_Dec_25_1403,untitled,3.1.0,60.00328584887272,
462,_5,M,225,R,N,462_5M225RN,HRN,0,78,78,181,,,1.327,273.722165977033,274.0554600203577,274.07213846289596,274.355502693983,274.4222054451311,None,down,274.4222054451311,None,274.4222054451311,275.6889256263494,0.07094173146833782,None,2.2335693182649266,,,,,,,,,27,001,2019_Dec_25_1403,untitled,3.1.0,60.00328584887272,
034,R,N,45,L,N,034RN045LN,HLN,0,79,79,201,,,1.197,276.7389442584972,277.0722055786937,277.08889136723883,277.37219849981193,277.40561715813965,None,up,277.40561715813965,None,277.40561715813965,278.5722733623079,0.07044053339996026,None,1.8335127540049143,,,,,,,,,27,001,2019_Dec_25_1403,untitled,3.1.0,60.00328584887272,
_,G,M,180,_,_,_GM180__,N,0,80,80,12,,,1.156,279.32233480164723,279.65559244883843,279.6722715591968,279.9556771950556,279.9889409194002,None,down,279.9889409194002,None,279.9889409194002,281.10570404137616,0.06994167270022444,None,2.7337923697705264,,,,,,,,,27,001,2019_Dec_25_1403,untitled,3.1.0,60.00328584887272,
_,R,M,225,_,_,_RM225__,N,0,81,81,21,,,1.1260000000000001,282.8057505215693,283.1390081687605,283.1556682462833,283.4391109460885,283.4724808536339,None,down,283.4724808536339,None,283.4724808536339,284.55570811506914,0.06999543212077697,None,2.0003172139659,,,,,,,,,27,001,2019_Dec_25_1403,untitled,3.1.0,60.00328584887272,
428,_4,M,135,L,N,428_4M135LN,HLN,0,82,82,171,,,1.171,285.5557321565502,285.88907094373644,285.90573502816915,286.189077889052,286.2557582682675,None,down,286.2557582682675,None,286.2557582682675,287.35580655157173,0.07100817944592563,None,2.633629555526568,,,,,,,,,27,001,2019_Dec_25_1403,untitled,3.1.0,60.00328584887272,
231,G,N,270,L,N,231GN270LN,HLN,0,83,83,238,,,0.8210000000000001,288.97256566663054,289.30581463218186,289.3224940764485,289.60582191140566,289.639238566273,None,up,289.639238566273,None,289.639238566273,290.4225079670796,0.07293316735740518,None,1.7669201929711562,,,,,,,,,27,001,2019_Dec_25_1403,untitled,3.1.0,60.00328584887272,
226,G,N,45,L,N,226GN045LN,HLN,0,84,84,233,,,0.925,291.4892000331238,291.82255751924095,291.83929239247664,292.1225474351777,292.1726725844346,None,up,292.1726725844346,None,292.1726725844346,293.03923903374744,0.07061283067014301,None,1.433722649475385,,,,,,,,,27,001,2019_Dec_25_1403,untitled,3.1.0,60.00328584887272,
391,_4,N,270,R,N,391_4N270RN,HRN,0,85,85,262,,,0.8320000000000001,293.68925786624095,294.0225909769688,294.03924704757446,294.32259358146257,294.356046966368,None,down,294.356046966368,None,294.356046966368,295.15607862098113,0.07059279610621161,None,1.3835941611250746,,,,,,,,,27,001,2019_Dec_25_1403,untitled,3.1.0,60.00328584887272,
_,_4,N,180,_,_,__4N180__,N,0,86,86,84,,,1.154,295.8227612039991,296.1560078321818,296.17267792698476,296.45610827214114,296.4894327680049,None,None,296.4894327680049,None,296.4894327680049,297.6060078989649,0.06911992156892666,None,,,,,,,,,,27,001,2019_Dec_25_1403,untitled,3.1.0,60.00328584887272,
495,_5,M,270,L,N,495_5M270LN,HLN,0,87,87,190,,,0.7020000000000001,300.0227873157164,300.35606800266396,300.3727374296468,300.6560749479795,300.6894822533832,300.0227873157164,down,300.6894822533832,None,300.6894822533832,301.3561791945067,0.07208069656189764,None,2.5503098011758993,,,,,,,,,27,001,2019_Dec_25_1403,untitled,3.1.0,60.00328584887272,
302,_2,M,225,L,N,302_2M225LN,HLN,0,88,88,157,,,1.195,303.32289376604604,303.6562305497755,303.6728104890317,303.95615001082115,303.9895195844583,None,None,303.9895195844583,None,303.9895195844583,305.1561914823724,0.07174879057856742,None,,,,,,,,,,27,001,2019_Dec_25_1403,untitled,3.1.0,60.00328584887272,
_,_5,M,90,_,_,__5M090__,N,0,89,89,42,,,0.712,307.5229889970178,307.85624029993414,307.8729080573685,308.15624424006455,308.1897126508957,307.5229889970178,up,308.1897126508957,None,308.1897126508957,None,0.07162424236230436,None,0.13342019431001972,,,,,,,,,27,001,2019_Dec_25_1403,untitled,3.1.0,60.00328584887272,
_,G,M,90,_,_,_GM090__,N,0,90,90,10,,,0.726,308.4062545912566,308.73961207737375,308.7562791669916,309.03970517132257,309.0730694024096,None,down,309.0730694024096,None,309.0730694024096,309.7562865129985,0.07235049538576277,None,3.283669090404146,,,,,,,,,27,001,2019_Dec_25_1403,untitled,3.1.0,60.00328584887272,
264,_2,N,315,R,N,264_2N315RN,HRN,0,91,91,247,,,0.8320000000000001,312.4396819312278,312.7730203845058,312.78970383568594,313.0731138123665,313.1064873929172,None,up,313.1064873929172,None,313.1064873929172,313.9063841481184,0.07291346670172061,None,1.7502193785003328,,,,,,,,,27,001,2019_Dec_25_1403,untitled,3.1.0,60.00328584887272,
_,_5,N,45,_,_,__5N045__,N,0,92,92,89,,,1.1500000000000001,314.93979479261543,315.2731082026876,315.28974724391446,315.5731792586157,315.60642461794123,None,up,315.60642461794123,None,315.60642461794123,316.72312396321286,0.07278390983992722,None,2.5002728040090005,,,,,,,,,27,001,2019_Dec_25_1403,untitled,3.1.0,60.00328584887272,
_,R,N,45,_,_,_RN045__,N,0,93,93,65,,,1.329,318.18979178743393,318.52316162819625,318.5398153614369,318.82317892470746,318.85661895323574,None,up,318.85661895323574,None,318.85661895323574,320.15661320999425,0.07257354689500062,None,2.100203217283706,,,,,,,,,27,001,2019_Dec_25_1403,untitled,3.1.0,60.00328584887272,
303,_2,M,270,L,N,303_2M270LN,HLN,0,94,94,158,,,0.802,321.0398527592952,321.3732085758638,321.3898870184057,321.6732779622471,321.7066214909464,None,down,321.7066214909464,None,321.7066214909464,322.47333132097265,0.07399065855133813,None,2.3168633615860017,,,,,,,,,27,001,2019_Dec_25_1403,untitled,3.1.0,60.00328584887272,
270,_2,M,225,R,N,270_2M225RN,HRN,0,95,95,149,,,1.286,324.1066172836872,324.43993403285276,324.45661581448803,324.73996067882763,324.79008983499807,None,down,324.79008983499807,None,324.79008983499807,326.02336330949765,0.07406879335758276,None,2.683486241596256,,,,,,,,,27,001,2019_Dec_25_1403,untitled,3.1.0,60.00328584887272,
429,_4,M,180,L,N,429_4M180LN,HLN,0,96,96,172,,,1.391,327.5566914783667,327.89003427246644,327.90670002644765,328.19003854650873,328.2568381313904,None,None,328.2568381313904,None,328.2568381313904,329.57340765267145,0.07338260946198716,None,,,,,,,,,,27,001,2019_Dec_25_1403,untitled,3.1.0,60.00328584887272,
424,_4,N,315,L,N,424_4N315LN,HLN,0,97,97,271,,,0.904,331.7567716834128,332.09013017125835,332.1068376639196,332.3901384522105,332.42359784748623,331.7567716834128,up,332.42359784748623,None,332.42359784748623,333.29024677243433,0.0738647746911738,None,1.6501260174227355,,,,,,,,,27,001,2019_Dec_25_1403,untitled,3.1.0,60.00328584887272,
045,R,M,180,L,N,045RM180LN,HLN,0,98,98,108,,,0.721,334.1568302511296,334.49018840506324,334.50685148776756,334.79027849383056,334.8235332026197,None,down,334.8235332026197,None,334.8235332026197,335.50689088908257,0.07414125170544139,None,2.5837785459189035,,,,,,,,,27,001,2019_Dec_25_1403,untitled,3.1.0,60.00328584887272,
269,_2,M,180,R,N,269_2M180RN,HRN,0,99,99,148,,,1.133,337.490341335586,337.8235959775957,337.840261397665,338.1236149436518,338.17372573480316,None,down,338.17372573480316,None,338.17372573480316,339.25704515524194,0.07429885696183192,None,2.9835245743961423,,,,,,,,,27,001,2019_Dec_25_1403,untitled,3.1.0,60.00328584887272,
_,R,M,270,_,_,_RM270__,N,0,100,100,22,,,0.757,341.2403633736103,341.5736817923207,341.5903689165061,341.87377722363817,341.90714679727535,None,down,341.90714679727535,None,341.90714679727535,342.62371110956883,0.07388280579834827,None,2.9168311727189575,,,,,,,,,27,001,2019_Dec_25_1403,untitled,3.1.0,60.00328584887272,
136,F,N,315,R,N,136FN315RN,HRN,0,101,101,215,,,1.054,344.9071775169432,345.24043015549614,345.2570955755691,345.540528925907,345.57390016909267,None,up,345.57390016909267,None,345.57390016909267,346.59046842151656,0.07350949505052995,None,2.10014545094964,,,,,,,,,27,001,2019_Dec_25_1403,untitled,3.1.0,60.00328584887272,
206,G,M,225,R,N,206GM225RN,HRN,0,102,102,133,,,0.879,347.757176047744,348.0905245183021,348.1071602204356,348.3905691953878,348.42396681741593,None,down,348.42396681741593,None,348.42396681741593,349.2738711857528,0.07466916252815281,None,2.5168460650784255,,,,,,,,,27,001,2019_Dec_25_1403,untitled,3.1.0,60.00328584887272,
_,G,M,225,_,_,_GM225__,N,0,103,103,13,,,1.237,351.0239797063223,351.35723601787686,351.37400762115067,351.65724129364753,351.6906395834958,None,down,351.6906395834958,None,351.6906395834958,352.8906082627909,0.0722546633805905,None,2.233544275055465,,,,,,,,,27,001,2019_Dec_25_1403,untitled,3.1.0,60.00328584887272,
422,_4,N,225,L,N,422_4N225LN,HLN,0,104,104,269,,,0.8310000000000001,354.00727622057457,354.3406403848785,354.35730580495147,354.6406493336508,354.67412175139543,None,up,354.67412175139543,None,354.67412175139543,355.4740829511211,0.07494964645957225,None,2.616806864109094,,,,,,,,,27,001,2019_Dec_25_1403,untitled,3.1.0,60.00328584887272,
496,_5,M,315,L,N,496_5M315LN,HLN,0,105,105,191,,,1.347,357.3740730673999,357.7073834722869,357.7240475567196,358.0074077808931,358.04080707246976,None,down,358.04080707246976,None,358.04080707246976,359.35742066979583,0.07242228591712774,None,3.2335165605727525,,,,,,,,,27,001,2019_Dec_25_1403,untitled,3.1.0,60.00328584887272,
_,_4,N,90,_,_,__4N090__,N,0,106,106,82,,,1.235,361.35755757266816,361.6908122146742,361.7074759651987,361.9908134835314,362.0242187854783,None,down,362.0242187854783,None,362.0242187854783,363.22417010148274,0.07255484796405653,None,3.2335636418029026,,,,,,,,,27,001,2019_Dec_25_1403,untitled,3.1.0,60.00328584887272,
131,F,N,90,R,N,131FN090RN,HRN,0,107,107,210,,,1.102,365.3408938221437,365.67424963871235,365.69089969894776,365.9742949836145,366.00770529420333,None,None,366.00770529420333,None,366.00770529420333,367.0743556215675,0.07426045737520326,None,,,,,,,,,,27,001,2019_Dec_25_1403,untitled,3.1.0,60.00328584887272,
451,_5,N,90,R,N,451_5N090RN,HRN,0,108,108,274,,,0.932,369.5410067503144,369.87433084548684,369.89108174637295,370.17433378388887,370.2077908417996,369.5410067503144,up,370.2077908417996,None,370.2077908417996,371.1077051606371,0.07363337545029935,None,1.850145117041393,,,,,,,,,27,001,2019_Dec_25_1403,untitled,3.1.0,60.00328584887272,
266,_2,M,45,R,N,266_2M045RN,HRN,0,109,109,145,,,1.149,372.14102531567914,372.47438580698145,372.49105723742105,372.77439809484713,372.82452858665783,None,up,372.82452858665783,None,372.82452858665783,373.9245117576211,0.07438200041360687,None,2.8168202872693655,,,,,,,,,27,001,2019_Dec_25_1403,untitled,3.1.0,60.00328584887272,
_,F,N,270,_,_,_FN270__,N,0,110,110,54,,,1.307,375.72444056812674,376.05782142790486,376.07447349160066,376.3578450686946,376.3911471926258,None,up,376.3911471926258,None,376.3911471926258,377.65793215227677,0.07413357179029845,None,2.7171393043463468,,,,,,,,,27,001,2019_Dec_25_1403,untitled,3.1.0,60.00328584887272,
398,_4,M,225,R,N,398_4M225RN,HRN,0,111,111,165,,,0.987,379.19123093711096,379.52456872257244,379.54121778107947,379.8245549655039,379.8580126912311,None,down,379.8580126912311,None,379.8580126912311,380.8079139208203,0.0740534335236589,None,2.700159675492614,,,,,,,,,27,001,2019_Dec_25_1403,untitled,3.1.0,60.00328584887272,
_,F,M,90,_,_,_FM090__,N,0,112,112,2,,,1.2550000000000001,382.64129177541326,382.97462755741435,382.9913009913107,383.27463650618665,383.30809857273925,None,down,383.30809857273925,None,383.30809857273925,384.5246498625638,0.07312149228164344,None,3.383614195692644,,,,,,,,,27,001,2019_Dec_25_1403,untitled,3.1.0,60.00328584887272,
291,_2,N,90,L,N,291_2N090LN,HLN,0,113,113,250,,,1.28,386.7747376807456,387.1080577690045,387.12472652817087,387.40814852559197,387.4414546564367,None,down,387.4414546564367,None,387.4414546564367,388.691441967876,0.07449118879958405,None,2.23355863316101,,,,,,,,,27,001,2019_Dec_25_1403,untitled,3.1.0,60.00328584887272,
_,_4,N,270,_,_,__4N270__,N,0,114,114,86,,,0.933,389.7581180062698,390.0914855096671,390.10814859237144,390.39148043424575,390.42489141265105,None,down,390.42489141265105,None,390.42489141265105,391.3248254321479,0.07309711689231335,None,3.0501999449734285,,,,,,,,,27,001,2019_Dec_25_1403,untitled,3.1.0,60.00328584887272,
482,_5,N,45,L,N,482_5N045LN,HLN,0,115,115,281,,,1.094,393.55827220564606,393.8915896226317,393.9082951118362,394.19158454720673,394.2248926815082,None,up,394.2248926815082,None,394.2248926815082,395.2915767337254,0.07357727866474306,None,2.867043271991861,,,,,,,,,27,001,2019_Dec_25_1403,untitled,3.1.0,60.00328584887272,
205,G,M,180,R,N,205GM180RN,HRN,0,116,116,132,,,1.225,397.1750346598019,397.50829497827,397.52496140007133,397.8083032592258,397.841756310223,None,down,397.841756310223,None,397.841756310223,399.0250425400627,0.07386844769644085,None,2.6170095471388777,,,,,,,,,27,001,2019_Dec_25_1403,untitled,3.1.0,60.00328584887272,
_,R,M,90,_,_,_RM090__,N,0,117,117,18,,,0.802,400.5417169756911,400.87504073695163,400.89170983002987,401.175061038648,401.2084513146692,None,None,401.2084513146692,None,401.2084513146692,401.97521189893087,0.07306773286109092,None,,,,,,,,,,27,001,2019_Dec_25_1403,untitled,3.1.0,60.00328584887272,
459,_5,M,90,R,N,459_5M090RN,HRN,0,118,118,178,,,1.1440000000000001,404.74188199373384,405.07516535195464,405.0918067305465,405.3751215430384,405.4086046458833,404.74188199373384,None,405.4086046458833,None,405.4086046458833,406.5085023360334,0.073847411400493,None,,,,,,,,,,27,001,2019_Dec_25_1403,untitled,3.1.0,60.00328584887272,
292,_2,N,135,L,N,292_2N135LN,HLN,0,119,119,251,,,0.8150000000000001,408.94187204323316,409.27523487190047,409.2919019615183,409.5752458241295,409.6253739785716,408.94187204323316,up,409.6253739785716,None,409.6253739785716,410.39192787288994,0.07447248986863997,None,2.400312004978332,,,,,,,,,27,001,2019_Dec_25_1403,untitled,3.1.0,60.00328584887272,
390,_4,N,225,R,N,390_4N225RN,HRN,0,120,120,261,,,1.3980000000000001,412.1086344306059,412.4419725499756,412.4586366344083,412.74206330655943,412.7754392244751,None,up,412.7754392244751,None,412.7754392244751,414.1420083450648,0.07465346878234413,None,2.400148055443424,,,,,,,,,27,001,2019_Dec_25_1403,untitled,3.1.0,60.00328584887272,
129,F,N,0,R,N,129FN000RN,HRN,0,121,121,208,,,1.2650000000000001,415.25874208300957,415.59204781316294,415.6087112297755,415.89213523065337,415.92551281811757,None,up,415.92551281811757,None,415.92551281811757,417.1587508982193,0.0735605831941939,None,2.016805328126793,,,,,,,,,27,001,2019_Dec_25_1403,untitled,3.1.0,60.00328584887272,
_,_2,M,135,_,_,__2M135__,N,0,122,122,27,,,1.165,418.0255163575566,418.35878969849364,418.37544076046106,418.65884305722284,418.69213015522837,None,up,418.69213015522837,None,418.69213015522837,419.82550159875973,0.07160888252474251,None,2.666952715753723,,,,,,,,,27,001,2019_Dec_25_1403,untitled,3.1.0,60.00328584887272,
142,F,M,225,R,N,142FM225RN,HRN,0,123,123,117,,,0.794,421.4422740701957,421.77554173467433,421.79218211153784,422.0755273097857,422.1089165840822,None,down,422.1089165840822,None,422.1089165840822,422.8755696495027,0.07352552270094748,None,1.7335916901938617,,,,,,,,,27,001,2019_Dec_25_1403,untitled,3.1.0,60.00328584887272,
_,G,N,45,_,_,_GN045__,N,0,124,124,57,,,0.871,423.9256527261714,424.25890770208935,424.2755747917072,424.5590074742322,424.5923717053156,None,up,424.5923717053156,None,424.5923717053156,425.4256063127614,0.07295954620349221,None,1.716819753015443,,,,,,,,,27,001,2019_Dec_25_1403,untitled,3.1.0,60.00328584887272,
_,G,N,90,_,_,_GN090__,N,0,125,125,58,,,0.934,426.3923799862714,426.7257247838279,426.74233310538693,427.0256412396884,427.0758845928867,None,up,427.0758845928867,None,427.0758845928867,427.959036991826,0.07349246566809597,None,1.6834081067863735,,,,,,,,,27,001,2019_Dec_25_1403,untitled,3.1.0,60.00328584887272,
011,R,M,90,R,N,011RM090RN,HRN,0,126,126,98,,,1.223,428.84239007033466,429.1757258523394,429.19239861841925,429.47573914193345,429.50913208923157,None,down,429.50913208923157,None,429.50913208923157,430.6923899367721,0.07403707196135656,None,3.083526778202213,,,,,,,,,27,001,2019_Dec_25_1403,untitled,3.1.0,60.00328584887272,
041,R,M,0,L,N,041RM000LN,HLN,0,127,127,104,,,0.968,432.6758650925731,433.00911339030426,433.0257881598409,433.3091153269779,433.34251495246644,None,None,433.34251495246644,None,433.34251495246644,434.2758045214032,0.07388147016536095,None,,,,,,,,,,27,001,2019_Dec_25_1403,untitled,3.1.0,60.00328584887272,
481,_5,N,0,L,N,481_5N000LN,HLN,0,128,128,280,,,1.31,436.87588486001187,437.20920194308565,437.22595484743215,437.50921423095497,437.55928795816,436.87588486001187,up,437.55928795816,None,437.55928795816,438.8093303646565,0.07588025206132443,None,2.200369704529294,,,,,,,,,27,001,2019_Dec_25_1403,untitled,3.1.0,60.00328584887272,
168,F,N,315,L,N,168FN315LN,HLN,0,129,129,223,,,0.74,439.84260009937134,440.1760257030146,440.19262734638323,440.4759491709701,440.50935046600716,None,up,440.50935046600716,None,440.50935046600716,441.20931580620527,0.0713060266643879,None,3.1836668866017135,,,,,,,,,27,001,2019_Dec_25_1403,untitled,3.1.0,60.00328584887272,
_,_2,M,180,_,_,__2M180__,N,0,130,130,28,,,1.077,443.7761117180853,444.10936268708974,444.12603111234785,444.40945878622733,444.4427138289284,None,None,444.4427138289284,None,444.4427138289284,445.4760790617438,0.06974533394895843,None,,,,,,,,,,27,001,2019_Dec_25_1403,untitled,3.1.0,60.00328584887272,
002,R,N,45,R,N,002RN045RN,HRN,0,131,131,193,,,1.164,447.9761431723564,448.3094589197899,448.32616574463464,448.60946686683747,448.6428634871372,447.9761431723564,up,448.6428634871372,None,448.6428634871372,449.7761561280422,0.07502878299419535,None,2.1002776790883217,,,,,,,,,27,001,2019_Dec_25_1403,untitled,3.1.0,60.00328584887272,
173,F,M,180,L,N,173FM180LN,HLN,0,132,132,124,,,1.159,450.826278272114,451.1595198916548,451.1762106888418,451.4596123177871,451.49299858689847,None,down,451.49299858689847,None,451.49299858689847,452.6095626988463,0.07156580820810632,None,3.08357753243763,,,,,,,,,27,001,2019_Dec_25_1403,untitled,3.1.0,60.00328584887272,
_,_5,N,225,_,_,__5N225__,N,0,133,133,93,,,0.859,454.6597092183074,454.9930353169366,455.0096139205525,455.2929564475271,455.3264175123513,None,None,455.3264175123513,None,455.3264175123513,456.14296967033806,0.07030530007978086,None,,,,,,,,,,27,001,2019_Dec_25_1403,untitled,3.1.0,60.00328584887272,
134,F,N,225,R,N,134FN225RN,HRN,0,134,134,213,,,1.3920000000000001,458.8597556985005,459.1930457349081,459.20971349234605,459.49305434977214,459.5430606272712,458.8597556985005,up,459.5430606272712,None,459.5430606272712,460.87645551124297,0.07412822923652129,None,2.7836156648918404,,,,,,,,,27,001,2019_Dec_25_1403,untitled,3.1.0,60.00328584887272,
_,G,M,315,_,_,_GM315__,N,0,135,135,15,,,1.114,462.40992592553084,462.7431278098484,462.75981960876743,463.04314544026784,463.0765604255903,None,down,463.0765604255903,None,463.0765604255903,464.1598230814234,0.0719721759960521,None,1.9501954038023541,,,,,,,,,27,001,2019_Dec_25_1403,untitled,3.1.0,60.00328584887272,
299,_2,M,90,L,N,299_2M090LN,HLN,0,136,136,154,,,1.183,465.1099036203814,465.44327880369747,465.45989614080827,465.7431915865527,465.7766028988699,None,down,465.7766028988699,None,465.7766028988699,466.9265569529307,0.07488486802321859,None,2.6168779868203274,,,,,,,,,27,001,2019_Dec_25_1403,untitled,3.1.0,60.00328584887272,
262,_2,N,225,R,N,262_2N225RN,HRN,0,137,137,245,,,1.385,468.47667709354573,468.80993407292044,468.8265978234449,469.1099366774142,469.17673425884277,None,up,469.17673425884277,None,469.17673425884277,470.49330678530896,0.07397496480552945,None,2.300250365296961,,,,,,,,,27,001,2019_Dec_25_1403,untitled,3.1.0,60.00328584887272,
197,G,N,180,R,N,197GN180RN,HRN,0,138,138,228,,,1.27,471.5600008548099,471.8933730329409,471.9100040603407,472.1933442499467,472.2266881125579,None,up,472.2266881125579,None,472.2266881125579,473.4600377184106,0.07434259909859975,None,3.300286093606701,,,,,,,,,27,001,2019_Dec_25_1403,untitled,3.1.0,60.00328584887272,
_,_5,N,90,_,_,__5N090__,N,0,139,139,90,,,0.794,475.61017842785077,475.94348248845563,475.96009648647305,476.24347507566563,476.27689440180984,None,up,476.27689440180984,None,476.27689440180984,477.0434336041144,0.07150870969417156,None,1.6168021893790865,,,,,,,,,27,001,2019_Dec_25_1403,untitled,3.1.0,60.00328584887272,
_,_2,N,45,_,_,__2N045__,N,0,140,140,73,,,0.911,477.9768627471931,478.3101527836043,478.3268071846651,478.6101597289198,478.64358039070066,None,up,478.64358039070066,None,478.64358039070066,479.5269234519292,0.07251778401769116,None,1.4835706539015519,,,,,,,,,27,001,2019_Dec_25_1403,untitled,3.1.0,60.00328584887272,
048,R,M,315,L,N,048RM315LN,HLN,0,141,141,111,,,1.247,480.21028280794053,480.5435317734882,480.5602025361113,480.8435811253039,480.91033195941054,None,down,480.91033195941054,None,480.91033195941054,482.09365091237487,0.07073437370490865,None,1.9503142755638692,,,,,,,,,27,001,2019_Dec_25_1403,untitled,3.1.0,60.00328584887272,
004,R,N,135,R,N,004RN135RN,HRN,0,142,142,195,,,1.212,482.94360603494715,483.27692879448296,483.29360022492256,483.5769537709093,483.61027860068134,None,up,483.61027860068134,None,483.61027860068134,484.79363161241054,0.07452090673905332,None,2.450437488147145,,,,,,,,,27,001,2019_Dec_25_1403,untitled,3.1.0,60.00328584887272,
_,F,M,270,_,_,_FM270__,N,0,143,143,6,,,1.397,486.1437273108568,486.4770046587073,486.49367341787365,486.777098086568,486.81044729172936,None,down,486.81044729172936,None,486.81044729172936,488.1770544779938,0.07179854308560607,None,2.450174701418291,,,,,,,,,27,001,2019_Dec_25_1403,untitled,3.1.0,60.00328584887272,
_,_5,M,0,_,_,__5M000__,N,0,144,144,40,,,0.916,489.34376177030936,489.67708920457517,489.69376731320517,489.9771048315379,490.0104306630383,None,down,490.0104306630383,None,490.0104306630383,490.89378975192085,0.07147197965605301,None,2.0837601808962063,,,,,,,,,27,001,2019_Dec_25_1403,untitled,3.1.0,60.00328584887272,
427,_4,M,90,L,N,427_4M090LN,HLN,0,145,145,170,,,0.716,492.17712326334004,492.5104673930764,492.5271371539711,492.8105651617625,492.84394709004846,None,down,492.84394709004846,None,492.84394709004846,493.5272630378313,0.07397796999066486,None,2.0503128063610347,,,,,,,,,27,001,2019_Dec_25_1403,untitled,3.1.0,60.00328584887272,
492,_5,M,135,L,N,492_5M135LN,HLN,0,146,146,187,,,1.1320000000000001,494.97720266700344,495.3105477984682,495.327205538626,495.6105463960521,495.6440067930562,None,up,495.6440067930562,None,495.6440067930562,496.7439024797459,0.07357694475649623,None,2.4001637491892325,,,,,,,,,27,001,2019_Dec_25_1403,untitled,3.1.0,60.00328584887272,
400,_4,M,315,R,N,400_4M315RN,HRN,0,147,147,167,,,0.731,498.1272962952098,498.4606070340051,498.4772818035417,498.7606376868898,498.82741757111944,None,down,498.82741757111944,None,498.82741757111944,499.49396992945185,0.07345773908673436,None,3.0336590731203614,,,,,,,,,27,001,2019_Dec_25_1403,untitled,3.1.0,60.00328584887272,
265,_2,M,0,R,N,265_2M000RN,HRN,0,148,148,144,,,0.964,501.94407851680444,502.2773859165027,502.2940319698282,502.5773955330951,502.6107641050039,None,down,502.6107641050039,None,502.6107641050039,503.5440656946812,0.07268440482584992,None,2.750209695124795,,,,,,,,,27,001,2019_Dec_25_1403,untitled,3.1.0,60.00328584887272,
201,G,M,0,R,N,201GM000RN,HRN,0,149,149,128,,,0.929,505.4441048956469,505.77744835756675,505.79411277591134,506.0774532994292,506.11092538326193,None,up,506.11092538326193,None,506.11092538326193,507.01082467617744,0.07301831426593708,None,1.7502243871422252,,,,,,,,,27,001,2019_Dec_25_1403,untitled,3.1.0,60.00328584887272,
_,R,N,225,_,_,_RN225__,N,0,150,150,69,,,1.164,507.94417401490136,508.2775031187157,508.2941648657834,508.577509730123,508.61096144548355,None,down,508.61096144548355,None,508.61096144548355,509.74420466778975,0.07141020641211071,None,1.9168174824299058,,,,,,,,,27,001,2019_Dec_25_1403,untitled,3.1.0,60.00328584887272,
397,_4,M,180,R,N,397_4M180RN,HRN,0,151,151,164,,,1.354,510.61086962038826,510.94423077950705,510.9609028777668,511.244238726551,511.27770012528345,None,None,511.27770012528345,None,511.27770012528345,512.5942896811321,0.07353387043986004,None,,,,,,,,,,27,001,2019_Dec_25_1403,untitled,3.1.0,60.00328584887272,
037,R,N,180,L,N,037RN180LN,HLN,0,152,152,204,,,0.898,514.8109885589292,515.1443437076778,515.1609971070102,515.4444194383395,515.4778000309889,514.8109885589292,up,515.4778000309889,None,515.4778000309889,516.3443661463934,0.07344037579605356,None,2.950171362324909,,,,,,,,,27,001,2019_Dec_25_1403,untitled,3.1.0,60.00328584887272,
038,R,N,225,L,N,038RN225LN,HLN,0,153,153,205,,,0.962,518.5110747743456,518.8444412760182,518.8610826546101,519.1444642489841,519.1777673746437,None,up,519.1777673746437,None,519.1777673746437,520.1112008585478,0.07434493646360352,None,2.2336017074776464,,,,,,,,,27,001,2019_Dec_25_1403,untitled,3.1.0,60.00328584887272,
456,_5,N,315,R,N,456_5N315RN,HRN,0,154,154,279,,,1.303,521.4945372415896,521.8278122520751,521.8444880233365,522.1278549257004,522.1611630600019,None,up,522.1611630600019,None,522.1611630600019,523.4278528554605,0.07376693922560662,None,2.1669280064525083,,,,,,,,,27,001,2019_Dec_25_1403,untitled,3.1.0,60.00328584887272,
419,_4,N,90,L,N,419_4N090LN,HLN,0,155,155,266,,,1.066,524.4112258349742,524.7446958485707,524.7612357186954,525.044559546739,525.1113511177973,None,down,525.1113511177973,None,525.1113511177973,526.1112449345965,0.0731755856104428,None,2.0668089343489555,,,,,,,,,27,001,2019_Dec_25_1403,untitled,3.1.0,60.00328584887272,
394,_4,M,45,R,N,394_4M045RN,HRN,0,156,156,161,,,0.784,527.2612974919393,527.594614908925,527.6112853376362,527.8947140132441,527.92808659207,None,up,527.92808659207,None,527.92808659207,528.6779887566045,0.07288074357711594,None,1.6167925060035486,,,,,,,,,27,001,2019_Dec_25_1403,untitled,3.1.0,60.00328584887272,
_,G,N,135,_,_,_GN135__,N,0,157,157,59,,,1.1340000000000001,529.6280005102162,529.9614224408542,529.9780027140187,530.261427382713,530.2947969563502,None,up,530.2947969563502,None,530.2947969563502,531.3947016585953,0.07137881892049336,None,2.183598101259122,,,,,,,,,27,001,2019_Dec_25_1403,untitled,3.1.0,60.00328584887272,
196,G,N,135,R,N,196GN135RN,HRN,0,158,158,227,,,0.9470000000000001,532.5614056118175,532.894737386905,532.9114906251598,533.1947476713176,533.2281456272576,None,up,533.2281456272576,None,533.2281456272576,534.1447831324986,0.0727632074522262,None,2.2669041653207387,,,,,,,,,27,001,2019_Dec_25_1403,untitled,3.1.0,60.00328584887272,
_,_2,M,225,_,_,__2M225__,N,0,159,159,29,,,1.225,535.5781999209321,535.9115196752828,535.9281229881963,536.2115606793595,536.2449386007356,None,down,536.2449386007356,None,536.2449386007356,537.4281740763399,0.07184195131412707,None,3.183684917708888,,,,,,,,,27,001,2019_Dec_25_1403,untitled,3.1.0,60.00328584887272,
271,_2,M,270,R,N,271_2M270RN,HRN,0,160,160,150,,,0.875,539.51164809685,539.8448970624013,539.8615604790139,540.1449203692791,540.1783634029925,None,down,540.1783634029925,None,540.1783634029925,541.0115859896941,0.07221526206558337,None,2.100144783133146,,,,,,,,,27,001,2019_Dec_25_1403,untitled,3.1.0,60.00328584887272,
268,_2,M,135,R,N,268_2M135RN,HRN,0,161,161,147,,,0.734,542.3616639909415,542.6949623750879,542.7116247899721,542.994981341144,543.0283716171652,None,down,543.0283716171652,None,543.0283716171652,543.728315921071,0.07291613797860919,None,2.6836401738437416,,,,,,,,,27,001,2019_Dec_25_1403,untitled,3.1.0,60.00328584887272,
130,F,N,45,R,N,130FN045RN,HRN,0,162,162,209,,,1.274,545.7950928001119,546.1283678105974,546.1450465870475,546.4283837714684,546.4617636962976,None,up,546.4617636962976,None,546.4617636962976,547.6951670615708,0.07351083068715525,None,2.966942297778587,,,,,,,,,27,001,2019_Dec_25_1403,untitled,3.1.0,60.00328584887272,
389,_4,N,180,R,N,389_4N180RN,HRN,0,163,163,260,,,1.25,549.511783664082,549.84511744263,549.8618399612133,550.1452041923003,550.1785881240467,None,None,550.1785881240467,None,550.1785881240467,551.3951998514785,0.07276287354397937,None,,,,,,,,,,27,001,2019_Dec_25_1403,untitled,3.1.0,60.00328584887272,
_,R,N,90,_,_,_RN090__,N,0,164,164,66,,,1.209,553.7118822341508,554.0452233587021,554.0618904483235,554.3452663662392,554.3786930383903,553.7118822341508,up,554.3786930383903,None,554.3786930383903,555.5452944814133,0.07125126551545691,None,2.4336481876744074,,,,,,,,,27,001,2019_Dec_25_1403,untitled,3.1.0,60.00328584887272,
_,G,N,180,_,_,_GN180__,N,0,165,165,60,,,0.979,556.8952920104821,557.2286535035128,557.2452925447396,557.5287192168907,557.562096804355,None,up,557.562096804355,None,557.562096804355,558.512078506119,0.07079581304060412,None,2.1668124737880134,,,,,,,,,27,001,2019_Dec_25_1403,untitled,3.1.0,60.00328584887272,
272,_2,M,315,R,N,272_2M315RN,HRN,0,166,166,151,,,0.776,559.8121081572754,560.1453641349217,560.1621153697197,560.4453697446006,560.4787777178244,None,down,560.4787777178244,None,560.4787777178244,561.2120498566874,0.07319929318327922,None,2.066840321836935,,,,,,,,,27,001,2019_Dec_25_1403,untitled,3.1.0,60.00328584887272,
388,_4,N,135,R,N,388_4N135RN,HRN,0,167,167,259,,,1.264,562.6288352838128,562.9621119638432,562.9787563476202,563.2621776772212,563.3122290324936,None,up,563.3122290324936,None,563.3122290324936,564.528795014332,0.07332083621440688,None,2.1002232518512756,,,,,,,,,27,001,2019_Dec_25_1403,untitled,3.1.0,60.00328584887272,
043,R,M,90,L,N,043RM090LN,HLN,0,168,168,106,,,0.808,565.4955129249684,565.8288283384936,565.8454954281151,566.128829941259,566.1622392501195,None,down,566.1622392501195,None,566.1622392501195,566.9288519125002,0.07344137752443203,None,1.6336946678675304,,,,,,,,,27,001,2019_Dec_25_1403,untitled,3.1.0,60.00328584887272,
_,R,M,315,_,_,_RM315__,N,0,169,169,23,,,1.118,567.8789064065204,568.2122361781549,568.2288795602035,568.5123119088166,568.5456824841822,None,down,568.5456824841822,None,568.5456824841822,569.6289434704704,0.07133507678372553,None,2.3001455177363823,,,,,,,,,27,001,2019_Dec_25_1403,untitled,3.1.0,60.00328584887272,
453,_5,N,180,R,N,453_5N180RN,HRN,0,170,170,276,,,1.222,570.9289457410523,571.2622795196003,571.2789669776939,571.562287132736,571.6124253044618,None,None,571.6124253044618,None,571.6124253044618,572.7789893496265,0.07357894821325317,None,,,,,,,,,,27,001,2019_Dec_25_1403,untitled,3.1.0,60.00328584887272,
013,R,M,180,R,N,013RM180RN,HRN,0,171,171,100,,,1.272,575.1290499875795,575.4624041346033,575.4790825771415,575.762476526168,575.7958531119039,575.1290499875795,down,575.7958531119039,None,575.7958531119039,577.0290918598221,0.07270510720991297,None,2.566824962003011,,,,,,,,,27,001,2019_Dec_25_1403,untitled,3.1.0,60.00328584887272,
232,G,N,315,L,N,232GN315LN,HLN,0,172,172,239,,,1.109,578.4457981504092,578.7791315950453,578.7957930082048,579.0791412116378,579.1291892278168,None,up,579.1291892278168,None,579.1291892278168,580.1791530988157,0.07511793681624113,None,1.9836861865660467,,,,,,,,,27,001,2019_Dec_25_1403,untitled,3.1.0,60.00328584887272,
237,G,M,180,L,N,237GM180LN,HLN,0,173,173,140,,,0.9420000000000001,581.1958662679353,581.529178008459,581.5458781551133,581.8292023170652,581.8625354945762,None,down,581.8625354945762,None,581.8625354945762,582.7625446436941,0.07538606609159615,None,2.1004249331526808,,,,,,,,,27,001,2019_Dec_25_1403,untitled,3.1.0,60.00328584887272,
008,R,N,315,R,N,008RN315RN,HRN,0,174,174,199,,,1.218,584.045978995764,584.3792696999917,584.395922431504,584.6793417576482,584.7292685646971,None,up,584.7292685646971,None,584.7292685646971,585.8959892133898,0.07342368032186641,None,1.983770665658085,,,,,,,,,27,001,2019_Dec_25_1403,untitled,3.1.0,60.00328584887272,
_,_4,N,225,_,_,__4N225__,N,0,175,175,85,,,0.738,586.7960641426689,587.12931177258,587.1459835369315,587.4293354133697,587.5127326347065,None,up,587.5127326347065,None,587.5127326347065,588.1626696593885,0.07009994577310863,None,2.5503017873488716,,,,,,,,,27,001,2019_Dec_25_1403,untitled,3.1.0,60.00328584887272,
166,F,N,225,L,N,166FN225LN,HLN,0,176,176,221,,,0.891,590.1460880505838,590.4794138153047,590.4961463511718,590.7793970530511,590.8127519346745,None,up,590.8127519346745,None,590.8127519346745,591.6628509722141,0.07386577641955228,None,1.783686453694827,,,,,,,,,27,001,2019_Dec_25_1403,untitled,3.1.0,60.00328584887272,
_,_5,N,0,_,_,__5N000__,N,0,177,177,88,,,1.379,592.6794499443058,593.0127893993122,593.0294508124716,593.3128013532696,593.3462577433602,None,up,593.3462577433602,None,593.3462577433602,594.6961571030552,0.0720656706362206,None,2.050176571312477,,,,,,,,,27,001,2019_Dec_25_1403,untitled,3.1.0,60.00328584887272,
235,G,M,90,L,N,235GM090LN,HLN,0,178,178,138,,,0.724,595.4795093134053,595.8128491023199,595.8296030083911,596.1128567154556,596.1463111020894,None,down,596.1463111020894,None,596.1463111020894,596.8296240446871,0.07335389325089636,None,1.7335633078910178,,,,,,,,,27,001,2019_Dec_25_1403,untitled,3.1.0,60.00328584887272,
_,_5,N,315,_,_,__5N315__,N,0,179,179,95,,,1.3980000000000001,597.9628752808203,598.2962521336813,598.3129065347421,598.5962457226233,598.6297144673626,None,up,598.6297144673626,None,598.6297144673626,599.9962942730526,0.07191474357023253,None,2.7502557746302045,,,,,,,,,27,001,2019_Dec_25_1403,untitled,3.1.0,60.00328584887272,
_,R,N,135,_,_,_RN135__,N,0,180,180,67,,,0.8240000000000001,601.4630629379244,601.7963149086572,601.8129840017318,602.0963923088639,602.129788595259,None,up,602.129788595259,None,602.129788595259,602.913011582652,0.0700678904686356,None,2.366963801548991,,,,,,,,,27,001,2019_Dec_25_1403,untitled,3.1.0,60.00328584887272,
144,F,M,315,R,N,144FM315RN,HRN,0,181,181,119,,,1.362,604.5798070270575,604.9130566604254,604.9297220804983,605.2130659431095,605.2464398575685,None,down,605.2464398575685,None,605.2464398575685,606.5797576084624,0.07316189532502904,None,2.1502582455614174,,,,,,,,,27,001,2019_Dec_25_1403,untitled,3.1.0,60.00328584887272,
420,_4,N,135,L,N,420_4N135LN,HLN,0,182,182,267,,,0.724,607.479836544655,607.8131235758774,607.8297956741371,608.1131301872847,608.1465859095588,None,up,608.1465859095588,None,608.1465859095588,608.8298300668102,0.07277689774127793,None,1.683475222584093,,,,,,,,,27,001,2019_Dec_25_1403,untitled,3.1.0,60.00328584887272,
421,_4,N,180,L,N,421_4N180LN,HLN,0,183,183,268,,,1.268,609.9132032466696,610.2465246705651,610.2631790716259,610.5465202629603,610.5798674646685,None,up,610.5798674646685,None,610.5798674646685,611.8132164027011,0.07276454309248948,None,2.4335947621657397,,,,,,,,,27,001,2019_Dec_25_1403,untitled,3.1.0,60.00328584887272,
_,G,M,270,_,_,_GM270__,N,0,184,184,14,,,1.173,613.0966647789683,613.4299224261595,613.4465865105958,613.7300228661188,613.763385427661,None,down,613.763385427661,None,613.763385427661,614.8966246430537,0.07043385521319578,None,2.2336828474726644,,,,,,,,,27,001,2019_Dec_25_1403,untitled,3.1.0,60.00328584887272,
457,_5,M,0,R,N,457_5M000RN,HRN,0,185,185,176,,,1.365,616.0800324159281,616.4133217845192,616.4300239346303,616.7134165480202,616.7467927998441,None,down,616.7467927998441,None,616.7467927998441,618.0800354211133,0.0726136160265014,None,2.3834749554589507,,,,,,,,,27,001,2019_Dec_25_1403,untitled,3.1.0,60.00328584887272,
_,_2,N,270,_,_,__2N270__,N,0,186,186,78,,,1.373,619.2133941760876,619.5467279546319,619.5633917051564,619.8467362355877,619.8967375044413,None,up,619.8967375044413,None,619.8967375044413,621.2135143834857,0.07098480578497401,None,2.5169873087688757,,,,,,,,,27,001,2019_Dec_25_1403,untitled,3.1.0,60.00328584887272,
300,_2,M,135,L,N,300_2M135LN,HLN,0,187,187,155,,,0.902,622.4967951372128,622.8301352600356,622.8468023496571,623.1301605703738,623.1635051008016,None,up,623.1635051008016,None,623.1635051008016,624.0301640430298,0.07304803220540634,None,2.600267661804537,,,,,,,,,27,001,2019_Dec_25_1403,untitled,3.1.0,60.00328584887272,
_,_2,M,0,_,_,__2M000__,N,0,188,188,24,,,1.158,625.8469309047905,626.1802306245736,626.1968790152641,626.480304351775,626.5136779323293,None,down,626.5136779323293,None,626.5136779323293,627.6302457172787,0.07086159320169827,None,2.2503185496025253,,,,,,,,,27,001,2019_Dec_25_1403,untitled,3.1.0,60.00328584887272,
489,_5,M,0,L,N,489_5M000LN,HLN,0,189,189,184,,,1.244,628.8470223959739,629.1802810448971,629.1970322796951,629.4803063552317,629.5303243195594,None,down,629.5303243195594,None,629.5303243195594,630.7303190437924,0.07348912657107576,None,2.433592424797098,,,,,,,,,27,001,2019_Dec_25_1403,untitled,3.1.0,60.00328584887272,
_,_5,N,180,_,_,__5N180__,N,0,190,190,92,,,1.191,632.0470268035788,632.3803549056647,632.3970203257377,632.6803598475235,632.7137544643701,None,None,632.7137544643701,None,632.7137544643701,633.8637652830366,0.0727000985716586,None,,,,,,,,,,27,001,2019_Dec_25_1403,untitled,3.1.0,60.00328584887272,
_,F,N,315,_,_,_FN315__,N,0,191,191,55,,,0.881,636.2472005032687,636.5804508044566,636.5972020392546,636.8804717739695,636.9472559990172,636.2472005032687,up,636.9472559990172,None,636.9472559990172,637.7638271898468,0.07113039030082291,None,2.1169698119156237,,,,,,,,,27,001,2019_Dec_25_1403,untitled,3.1.0,60.00328584887272,
_,_4,M,90,_,_,__4M090__,N,0,192,192,34,,,1.026,639.1472610744422,639.4805223946387,639.4971818043414,639.7806134851344,639.8138708652004,None,down,639.8138708652004,None,639.8138708652004,640.7972161302314,0.07151972870633472,None,1.766937556265475,,,,,,,,,27,001,2019_Dec_25_1403,untitled,3.1.0,60.00328584887272,
289,_2,N,0,L,N,289_2N000LN,HLN,0,193,193,248,,,1.286,641.6639064599476,641.9972425758606,642.0139126706636,642.2973343341728,642.3306137522632,None,up,642.3306137522632,None,642.3306137522632,643.5806127505348,0.07329612691682996,None,2.366920059408585,,,,,,,,,27,001,2019_Dec_25_1403,untitled,3.1.0,60.00328584887272,
163,F,N,90,L,N,163FN090LN,HLN,0,194,194,218,,,1.01,644.7806976303145,645.1139829919921,645.1306470764248,645.4139999545914,645.4640015573568,None,up,645.4640015573568,None,645.4640015573568,646.4140129770567,0.07325772733383928,None,2.4003463976514468,,,,,,,,,27,001,2019_Dec_25_1403,untitled,3.1.0,60.00328584887272,
_,_4,M,180,_,_,__4M180__,N,0,195,195,36,,,0.902,647.9474703688793,648.2807226735204,648.2973663894772,648.5807459803982,648.6641568920277,None,None,648.6641568920277,None,648.6641568920277,649.4807881865527,0.07078813312546117,None,,,,,,,,,,27,001,2019_Dec_25_1403,untitled,3.1.0,60.00328584887272,
_,_5,M,270,_,_,__5M270__,N,0,196,196,46,,,1.065,652.147575283223,652.4808272539558,652.4974859958384,652.7808221785344,652.8142875841804,652.147575283223,down,652.8142875841804,None,652.8142875841804,653.8475155802153,0.0718866951756354,None,2.8668479349726113,,,,,,,,,27,001,2019_Dec_25_1403,untitled,3.1.0,60.00328584887272,
_,F,N,0,_,_,_FN000__,N,0,197,197,48,,,1.227,655.7642045075117,656.0975846994697,656.1142517890876,656.3975806257731,656.4310430262376,None,up,656.4310430262376,None,656.4310430262376,657.6142975346811,0.07014869655176881,None,1.9669713478979247,,,,,,,,,27,001,2019_Dec_25_1403,untitled,3.1.0,60.00328584887272,
200,G,N,315,R,N,200GN315RN,HRN,0,198,198,231,,,1.088,658.480989200034,658.8142945962791,658.8309643571738,659.1143913632332,659.1477676150607,None,up,659.1477676150607,None,659.1477676150607,660.1977518545355,0.07346775637051906,None,2.3336045791002107,,,,,,,,,27,001,2019_Dec_25_1403,untitled,3.1.0,60.00328584887272,
399,_4,M,270,R,N,399_4M270RN,HRN,0,199,199,166,,,1.028,661.5644228175042,661.8976804646954,661.9143665871525,662.1977057750337,662.2311438001052,None,down,662.2311438001052,None,662.2311438001052,663.2310486359165,0.07348912657471374,None,3.0169422309954825,,,,,,,,,27,001,2019_Dec_25_1403,untitled,3.1.0,60.00328584887272,
483,_5,N,90,L,N,483_5N090LN,HLN,0,200,200,282,,,0.8170000000000001,665.3311239658833,665.6644550731544,665.6811184897706,665.9645485010151,665.9978078845379,None,up,665.9978078845379,None,665.9978078845379,666.7812372279659,0.07324804395830142,None,2.600267995716422,,,,,,,,,27,001,2019_Dec_25_1403,untitled,3.1.0,60.00328584887272,
454,_5,N,225,R,N,454_5N225RN,HRN,0,201,201,277,,,0.995,668.68118927857,669.0145320726697,669.031200831836,669.3145393518971,669.3646601603323,None,up,669.3646601603323,None,669.3646601603323,670.3145744123867,0.07305704776081257,None,2.8501761706174875,,,,,,,,,27,001,2019_Dec_25_1403,untitled,3.1.0,60.00328584887272,
_,F,N,45,_,_,_FN045__,N,0,202,202,49,,,0.903,672.2980261945304,672.63128484345,672.6479455887893,672.9313215067086,672.9646510112143,None,up,672.9646510112143,None,672.9646510112143,673.8313957681676,0.07178852580182138,None,2.2503789872098423,,,,,,,,,27,001,2019_Dec_25_1403,untitled,3.1.0,60.00328584887272,
164,F,N,135,L,N,164FN135LN,HLN,0,203,203,219,,,1.352,675.2980702705754,675.6314377739727,675.6480093654936,675.9313592384751,675.9814853894604,None,up,675.9814853894604,None,675.9814853894604,677.2814716323919,0.07197017253565718,None,2.183679241250502,,,,,,,,,27,001,2019_Dec_25_1403,untitled,3.1.0,60.00328584887272,
001,R,N,0,R,N,001RN000RN,HRN,0,204,204,192,,,0.78,678.2480863650089,678.5814158027315,678.5981697088064,678.8814240836873,678.9149305601932,None,up,678.9149305601932,None,678.9149305601932,679.6648574340288,0.07353720953324228,None,1.4335303176412708,,,,,,,,,27,001,2019_Dec_25_1403,untitled,3.1.0,60.00328584887272,
036,R,N,135,L,N,036RN135LN,HLN,0,205,205,203,,,1.097,680.431465421676,680.7648018714972,680.7814652881134,681.0649059844618,681.0981516776956,None,up,681.0981516776956,None,681.0981516776956,682.1649225463698,0.07293550472604693,None,1.666928340364393,,,,,,,,,27,001,2019_Dec_25_1403,untitled,3.1.0,60.00328584887272,
_,G,N,270,_,_,_GN270__,N,0,206,206,62,,,0.9550000000000001,682.8481833990918,683.1815241897384,683.1982083087387,683.4815261264121,683.5149935355148,None,up,683.5149935355148,None,683.5149935355148,684.4316387206745,0.07132038477357128,None,1.6668809252223582,,,,,,,,,27,001,2019_Dec_25_1403,untitled,3.1.0,60.00328584887272,
_,G,M,0,_,_,_GM000__,N,0,207,207,8,,,0.737,685.2649097242465,685.5982762259155,685.614911928049,685.8983302524648,685.9315959802661,None,down,685.9315959802661,None,685.9315959802661,686.6316811939541,0.07054237577904132,None,1.3337504975279444,,,,,,,,,27,001,2019_Dec_25_1403,untitled,3.1.0,60.00328584887272,
_,F,M,225,_,_,_FM225__,N,0,208,208,5,,,1.232,687.3483052760384,687.6816590891503,687.6982911182786,687.9816349808898,688.031705702906,None,down,688.031705702906,None,688.031705702906,689.2150373444347,0.07127497308829334,None,2.3336600080692733,,,,,,,,,27,001,2019_Dec_25_1403,untitled,3.1.0,60.00328584887272,
141,F,M,180,R,N,141FM180RN,HRN,0,209,209,116,,,1.034,690.4484353671542,690.781737090394,690.7984505934255,691.081823840068,691.1150471613691,None,down,691.1150471613691,None,691.1150471613691,692.1151493376601,0.07390784900781,None,2.9336966045411828,,,,,,,,,27,001,2019_Dec_25_1403,untitled,3.1.0,60.00328584887272,
259,_2,N,90,R,N,259_2N090RN,HRN,0,210,210,242,,,1.174,694.1318645102365,694.4650927734001,694.4817852401357,694.7651247619251,694.7984929999257,None,up,694.7984929999257,None,694.7984929999257,695.9318133553097,0.07198185936795198,None,2.9670070762113028,,,,,,,,,27,001,2019_Dec_25_1403,untitled,3.1.0,60.00328584887272,
228,G,N,135,L,N,228GN135LN,HLN,0,211,211,235,,,1.286,697.848621488276,698.1818644434534,698.1985375434415,698.4819084527189,698.5153384639634,None,up,698.5153384639634,None,698.5153384639634,699.765327111043,0.0730500356585253,None,2.5001572713445057,,,,,,,,,27,001,2019_Dec_25_1403,untitled,3.1.0,60.00328584887272,
_,_4,M,270,_,_,__4M270__,N,0,212,212,38,,,0.886,701.0986011198002,701.4319612771906,701.4486096678811,701.7319471862138,701.7820800153895,None,down,701.7820800153895,None,701.7820800153895,702.6153937593663,0.07092269862914691,None,1.766801655125164,,,,,,,,,27,001,2019_Dec_25_1403,untitled,3.1.0,60.00328584887272,
_,_5,M,315,_,_,__5M315__,N,0,213,213,47,,,1.139,703.6319954027349,703.9653338560129,703.9820223158385,704.2653601680795,704.2986863334881,None,down,704.2986863334881,None,704.2986863334881,705.3987015597595,0.07113039030082291,None,2.050267394679395,,,,,,,,,27,001,2019_Dec_25_1403,untitled,3.1.0,60.00328584887272,
203,G,M,90,R,N,203GM090RN,HRN,0,214,214,130,,,0.841,706.4320714673049,706.7653885503823,706.782070332014,707.0654956685285,707.0988338546777,None,down,707.0988338546777,None,707.0988338546777,707.8987633330071,0.07442073390848236,None,2.7335219031228917,,,,,,,,,27,001,2019_Dec_25_1403,untitled,3.1.0,60.00328584887272,
301,_2,M,180,L,N,301_2M180LN,HLN,0,215,215,156,,,1.11,709.9154481198238,710.2488116163113,710.2655621832891,710.5488249059053,710.582188135264,None,down,710.582188135264,None,710.582188135264,711.6488498155486,0.07350949505052995,None,2.90042887328309,,,,,,,,,27,001,2019_Dec_25_1403,untitled,3.1.0,60.00328584887272,
162,F,N,45,L,N,162FN045LN,HLN,0,216,216,217,,,1.306,713.5656455938661,713.8989830454157,713.91564612812,714.1989385686793,714.2323685799238,None,up,714.2323685799238,None,714.2323685799238,715.4990209775278,0.07299093369147158,None,2.7335015346470755,,,,,,,,,27,001,2019_Dec_25_1403,untitled,3.1.0,60.00328584887272,
044,R,M,135,L,N,044RM135LN,HLN,0,217,217,107,,,0.743,717.0489881876201,717.3823246374413,717.3990645193189,717.68231956202,717.7156988190291,None,down,717.7156988190291,None,717.7156988190291,718.4156781834281,0.07362936853678548,None,2.3668970196595183,,,,,,,,,27,001,2019_Dec_25_1403,untitled,3.1.0,60.00328584887272,
_,F,N,90,_,_,_FN090__,N,0,218,218,50,,,1.357,720.1657960534576,720.4990496937389,720.5157247971838,720.7990566390545,720.8325143647853,None,up,720.8325143647853,None,720.8325143647853,722.1491653599696,0.07256519915608806,None,2.0501455177327443,,,,,,,,,27,001,2019_Dec_25_1403,untitled,3.1.0,60.00328584887272,
_,_2,N,135,_,_,__2N135__,N,0,219,219,75,,,0.72,722.9658260385258,723.2992476352556,723.3157824967348,723.5991968142371,723.632579744255,None,up,723.632579744255,None,723.632579744255,724.31583258315,0.07144760426672292,None,2.300325161013461,,,,,,,,,27,001,2019_Dec_25_1403,untitled,3.1.0,60.00328584887272,
458,_5,M,45,R,N,458_5M045RN,HRN,0,220,220,177,,,1.008,726.0159244750284,726.3491837917718,726.365849545753,726.6491867301738,726.6992043605933,None,down,726.6992043605933,None,726.6992043605933,727.6492278010337,0.07216918256381177,None,2.4171073158213403,,,,,,,,,27,001,2019_Dec_25_1403,untitled,3.1.0,60.00328584887272,
461,_5,M,180,R,N,461_5M180RN,HRN,0,221,221,180,,,1.399,729.1993065368806,729.5325905629179,729.5492606577245,729.8326275600848,729.8660552339643,None,down,729.8660552339643,None,729.8660552339643,731.2327155118328,0.07362736508002854,None,3.000165952991665,,,,,,,,,27,001,2019_Dec_25_1403,untitled,3.1.0,60.00328584887272,
290,_2,N,45,L,N,290_2N045LN,HLN,0,222,222,249,,,1.119,732.9493626336662,733.2826740402779,733.2994453096435,733.5827708072356,733.6161410486893,None,up,733.6161410486893,None,733.6161410486893,734.6994130539897,0.07255618360068183,None,1.9334798973141005,,,,,,,,,27,001,2019_Dec_25_1403,untitled,3.1.0,60.00328584887272,
176,F,M,315,L,N,176FM315LN,HLN,0,223,223,127,,,1.036,735.6328184895028,735.9660677889588,735.9828176881201,736.2660900941119,736.299548153751,None,down,736.299548153751,None,736.299548153751,737.2994346245396,0.07276754827762488,None,1.8167868963246292,,,,,,,,,27,001,2019_Dec_25_1403,untitled,3.1.0,60.00328584887272,
_,_2,M,270,_,_,__2M270__,N,0,224,224,30,,,1.3800000000000001,738.1995512924987,738.5327952494044,738.5494653442074,738.8328035303603,738.8662662647293,None,down,738.8662662647293,None,738.8662662647293,740.2162547782464,0.0705937978309521,None,3.2168581525984337,,,,,,,,,27,001,2019_Dec_25_1403,untitled,3.1.0,60.00328584887272,
392,_4,N,315,R,N,392_4N315RN,HRN,0,225,225,263,,,0.755,742.1662545111176,742.4995589056343,742.516309138704,742.7995648492215,742.8330289192309,None,up,742.8330289192309,None,742.8330289192309,743.5495802090554,0.07202059286282747,None,1.4836280863237334,,,,,,,,,27,001,2019_Dec_25_1403,untitled,3.1.0,60.00328584887272,
005,R,N,180,R,N,005RN180RN,HRN,0,226,226,196,,,0.776,744.399668895403,744.732939898975,744.7496059868645,745.0330363320209,745.0664039022013,None,up,745.0664039022013,None,745.0664039022013,745.7997207849294,0.07231009234601515,None,2.8502346047716856,,,,,,,,,27,001,2019_Dec_25_1403,untitled,3.1.0,60.00328584887272,
_,R,M,180,_,_,_RM180__,N,0,227,227,20,,,0.9430000000000001,747.999687794676,748.3330252462256,748.3496896645702,748.6330081500637,748.6664915868205,None,down,748.6664915868205,None,748.6664915868205,749.5664626702637,0.0718526364180434,None,2.650255574284529,,,,,,,,,27,001,2019_Dec_25_1403,untitled,3.1.0,60.00328584887272,
167,F,N,270,L,N,167FN270LN,HLN,0,228,228,222,,,0.8300000000000001,751.3997396842024,751.7330985059561,751.7497686007591,752.0331071208202,752.0665595040009,None,up,752.0665595040009,None,752.0665595040009,752.8664756259495,0.07425277746006032,None,2.917017160270916,,,,,,,,,27,001,2019_Dec_25_1403,untitled,3.1.0,60.00328584887272,
_,_4,N,0,_,_,__4N000__,N,0,229,229,80,,,0.994,755.0666015765892,755.3998542151421,755.4165203030316,755.6998624960943,755.7498694414098,None,up,755.7498694414098,None,755.7498694414098,756.6998805272051,0.06989926620371989,None,1.666924667359126,,,,,,,,,27,001,2019_Dec_25_1403,untitled,3.1.0,60.00328584887272,
_,_2,N,90,_,_,__2N090__,N,0,230,230,74,,,0.9440000000000001,757.4999552561385,757.8332412856325,757.8499090430705,758.1332468953115,758.1666445173432,None,up,758.1666445173432,None,758.1666445173432,759.0832649932017,0.07075173699922743,None,1.9335369958316733,,,,,,,,,27,001,2019_Dec_25_1403,untitled,3.1.0,60.00328584887272,
_,_4,N,45,_,_,__4N045__,N,0,231,231,81,,,1.024,760.1833112730528,760.5166350343134,760.5333024578431,760.8166570055546,760.8499858422401,None,up,760.8499858422401,None,760.8499858422401,761.8333354480965,0.07169636679827818,None,1.7503469319090073,,,,,,,,,27,001,2019_Dec_25_1403,untitled,3.1.0,60.00328584887272,
_,_2,N,0,_,_,__2N000__,N,0,232,232,72,,,0.851,762.6834404960027,763.016751234798,763.0333802587411,763.3166947373211,763.3501117261003,None,up,763.3501117261003,None,763.3501117261003,764.1668451969163,0.06870620777772274,None,1.4835916901974997,,,,,,,,,27,001,2019_Dec_25_1403,untitled,3.1.0,60.00328584887272,
233,G,M,0,L,N,233GM000LN,HLN,0,233,233,136,,,1.176,764.9167099635924,765.2500711227112,765.2668093350403,765.5500847462172,765.5835444754048,None,down,765.5835444754048,None,765.5835444754048,766.7167786821556,0.0752715351554798,None,1.8501501256832853,,,,,,,,,27,001,2019_Dec_25_1403,untitled,3.1.0,60.00328584887272,
_,_5,N,135,_,_,__5N135__,N,0,234,234,91,,,1.235,767.5168944819488,767.8502209144863,767.8668102032061,768.1501467198104,768.1836034438093,None,up,768.1836034438093,None,768.1836034438093,769.3835090142202,0.0724015835330647,None,2.4835202335743816,,,,,,,,,27,001,2019_Dec_25_1403,untitled,3.1.0,60.00328584887272,
425,_4,M,0,L,N,425_4M000LN,HLN,0,235,235,168,,,1.37,770.7502103629486,771.0835484823147,771.1002362743202,771.3835520885368,771.4170134872729,None,up,771.4170134872729,None,771.4170134872729,772.7502517677167,0.07476198935182765,None,2.1003157447667036,,,,,,,,,27,001,2019_Dec_25_1403,untitled,3.1.0,60.00328584887272,
133,F,N,180,R,N,133FN180RN,HRN,0,236,236,212,,,1.2590000000000001,773.6002763434517,773.9336181358267,773.9502885645379,774.2336514599883,774.2669682759333,None,up,774.2669682759333,None,774.2669682759333,775.4837412816269,0.07396728489038651,None,3.133765456666879,,,,,,,,,27,001,2019_Dec_25_1403,untitled,3.1.0,60.00328584887272,
_,_2,N,180,_,_,__2N180__,N,0,237,237,76,,,1.272,777.4837890306771,777.8170323197628,777.8337194439482,778.1170412685387,778.150491648259,None,up,778.150491648259,None,778.150491648259,779.3837340691825,0.07279192366331699,None,3.38351769586734,,,,,,,,,27,001,2019_Dec_25_1403,untitled,3.1.0,60.00328584887272,
_,_5,M,225,_,_,__5M225__,N,0,238,238,45,,,0.728,781.6171848495942,781.9505540225437,781.9671346296163,782.2504848365061,782.2839312093165,None,down,782.2839312093165,None,782.2839312093165,782.9838210859816,0.07228671868506353,None,2.5334904488554457,,,,,,,,,27,001,2019_Dec_25_1403,untitled,3.1.0,60.00328584887272,
304,_2,M,315,L,N,304_2M315LN,HLN,0,239,239,159,,,1.391,784.9005377277608,785.2338735097655,785.2505439384768,785.53389815228,785.5673311687096,None,down,785.5673311687096,None,785.5673311687096,786.9172655888979,0.07454895513001247,None,2.9835048737404577,,,,,,,,,27,001,2019_Dec_25_1403,untitled,3.1.0,60.00328584887272,
455,_5,N,270,R,N,455_5N270RN,HRN,0,240,240,278,,,0.8250000000000001,788.6339935168144,788.9673810547829,788.9839816964231,789.2673886679149,789.300647049713,None,up,789.300647049713,None,789.300647049713,790.0840433361045,0.07452224237204064,None,1.6336866540405026,,,,,,,,,27,001,2019_Dec_25_1403,untitled,3.1.0,60.00328584887272,
238,G,M,225,L,N,238GM225LN,HLN,0,241,241,141,,,1.069,791.0173465953267,791.3506763669611,791.3674259322106,791.6506876530984,791.6841200017116,None,down,791.6841200017116,None,791.6841200017116,792.7173717053156,0.0736657646666572,None,2.283540535270731,,,,,,,,,27,001,2019_Dec_25_1403,untitled,3.1.0,60.00328584887272,
386,_4,N,45,R,N,386_4N045RN,HRN,0,242,242,257,,,1.374,794.050748224272,794.3840836723648,794.4008636233739,794.6840886142236,794.717545338226,None,up,794.717545338226,None,794.717545338226,796.0507906307685,0.07451022163513699,None,2.0501468533693696,,,,,,,,,27,001,2019_Dec_25_1403,untitled,3.1.0,60.00328584887272,
490,_5,M,45,L,N,490_5M045LN,HLN,0,243,243,185,,,1.131,796.8508109324648,797.1842338648312,797.2008298317378,797.4841536597814,797.5176010343203,None,down,797.5176010343203,None,797.5176010343203,798.6176045737593,0.07404875879001338,None,2.3011913220943825,,,,,,,,,27,001,2019_Dec_25_1403,untitled,3.1.0,60.00328584887272,
_,G,M,135,_,_,_GM135__,N,0,244,244,11,,,0.9560000000000001,799.9008799849362,800.2342157669373,800.2509072319444,800.5342220444363,800.5676353602103,None,up,800.5676353602103,None,800.5676353602103,801.4842478222454,0.07191975221212488,None,2.266865431825863,,,,,,,,,27,001,2019_Dec_25_1403,untitled,3.1.0,60.00328584887272,
_,_4,M,0,_,_,__4M000__,N,0,245,245,32,,,0.919,802.9177103562688,803.2509546470865,803.2676284148947,803.5509609245819,803.6176590009964,None,up,803.6176590009964,None,803.6176590009964,804.467677900273,0.06981645666019176,None,3.2336858526578,,,,,,,,,27,001,2019_Dec_25_1403,untitled,3.1.0,60.00328584887272,
171,F,M,90,L,N,171FM090LN,HLN,0,246,246,122,,,1.305,806.9344645962519,807.2677232451751,807.2843819870577,807.5678146695791,807.6012159646125,None,down,807.6012159646125,None,807.6012159646125,808.8677518278237,0.0722833795916813,None,2.1167701340709755,,,,,,,,,27,001,2019_Dec_25_1403,untitled,3.1.0,60.00328584887272,
387,_4,N,90,R,N,387_4N090RN,HRN,0,247,247,258,,,1.043,809.801110182103,810.1345341161978,810.1511140554503,810.4344505720546,810.4679166455207,None,up,810.4679166455207,None,810.4679166455207,811.4678962770449,0.07331048502237536,None,1.7834724177446333,,,,,,,,,27,001,2019_Dec_25_1403,untitled,3.1.0,60.00328584887272,
_,F,M,135,_,_,_FM135__,N,0,248,248,3,,,0.854,812.3345565549098,812.6678375757656,812.6845046653834,812.9678435193528,813.0012434787495,None,down,813.0012434787495,None,813.0012434787495,813.8178690968161,0.07229105950682424,None,3.2502384113395237,,,,,,,,,27,001,2019_Dec_25_1403,untitled,3.1.0,60.00328584887272,
464,_5,M,315,R,N,464_5M315RN,HRN,0,249,249,183,,,0.8250000000000001,816.3345909475829,816.6679357451394,816.6845958226622,816.9679386835451,817.018066170167,None,down,817.018066170167,None,817.018066170167,817.7846257409474,0.07400601838162402,None,1.9834537855967938,,,,,,,,,27,001,2019_Dec_25_1403,untitled,3.1.0,60.00328584887272,
426,_4,M,45,L,N,426_4M045LN,HLN,0,250,250,169,,,0.7020000000000001,819.084742542469,819.417991841925,819.4347490870932,819.718002794154,819.7514154421115,None,down,819.7514154421115,None,819.7514154421115,820.4181060389528,0.07228171004317119,None,1.6835914230687195,,,,,,,,,27,001,2019_Dec_25_1403,untitled,3.1.0,60.00328584887272,
294,_2,N,225,L,N,294_2N225LN,HLN,0,251,251,253,,,0.799,821.5181002289282,821.8513926027044,821.8680713791546,822.1514426223403,822.1848505955641,None,up,822.1848505955641,None,822.1848505955641,822.9514078289758,0.07278090465479181,None,2.000145584512211,,,,,,,,,27,001,2019_Dec_25_1403,untitled,3.1.0,60.00328584887272,
395,_4,M,90,R,N,395_4M090RN,HRN,0,252,252,162,,,0.853,824.268107908847,824.6014430230316,824.6181989325596,824.9014883679338,824.9515884739812,None,down,824.9515884739812,None,824.9515884739812,825.7514725406254,0.0742006875880179,None,1.6169658050021098,,,,,,,,,27,001,2019_Dec_25_1403,untitled,3.1.0,60.00328584887272,
_,F,N,180,_,_,_FN180__,N,0,253,253,52,,,0.875,826.6515868712158,826.984835168947,827.0015009229282,827.2849306002645,827.3181846412372,None,up,827.3181846412372,None,827.3181846412372,828.151528103157,0.07023250782003743,None,2.833607918197231,,,,,,,,,27,001,2019_Dec_25_1403,untitled,3.1.0,60.00328584887272,
449,_5,N,0,R,N,449_5N000RN,HRN,0,254,254,272,,,1.193,830.2348885944557,830.5682524248514,830.5849158414676,830.8682617075356,830.9017274470898,None,up,830.9017274470898,None,830.9017274470898,832.0517075460884,0.07467984763206914,None,1.8835901542115607,,,,,,,,,27,001,2019_Dec_25_1403,untitled,3.1.0,60.00328584887272,
047,R,M,270,L,N,047RM270LN,HLN,0,255,255,110,,,0.859,832.8683087887657,833.2016429012219,833.2183186724833,833.5016508482659,833.5350551484844,None,down,833.5350551484844,None,833.5350551484844,834.3516744222725,0.07281462950777495,None,1.7002798828907544,,,,,,,,,27,001,2019_Dec_25_1403,untitled,3.1.0,60.00328584887272,
_,F,N,135,_,_,_FN135__,N,0,256,256,51,,,0.875,835.3184157065662,835.6516993986988,835.6683718308668,835.9517120204728,835.9851690783835,None,up,835.9851690783835,None,835.9851690783835,836.8183933346336,0.07007423474715324,None,3.0503345104734763,,,,,,,,,27,001,2019_Dec_25_1403,untitled,3.1.0,60.00328584887272,
_,_4,M,225,_,_,__4M225__,N,0,257,257,37,,,1.166,839.1185361810931,839.4517878179176,839.4684776133763,839.7517960988698,839.7851599960486,None,down,839.7851599960486,None,839.7851599960486,840.9185768512616,0.07042450574590475,None,2.233749963270384,,,,,,,,,27,001,2019_Dec_25_1403,untitled,3.1.0,60.00328584887272,
297,_2,M,0,L,N,297_2M000LN,HLN,0,258,258,152,,,0.916,842.1019425515515,842.4351905153708,842.4518622797223,842.73520213542,842.768594414898,None,down,842.768594414898,None,842.768594414898,843.6518837167059,0.07323535540126613,None,1.8335668473337137,,,,,,,,,27,001,2019_Dec_25_1403,untitled,3.1.0,60.00328584887272,
_,R,M,0,_,_,_RM000__,N,0,259,259,16,,,0.9410000000000001,844.6853030428501,845.0185850654343,845.0352551602373,845.3186768237465,845.3519291951743,None,down,845.3519291951743,None,845.3519291951743,846.2520098009118,0.07173042555950815,None,1.6170626387392986,,,,,,,,,27,001,2019_Dec_25_1403,untitled,3.1.0,60.00328584887272,
035,R,N,90,L,N,035RN090LN,HLN,0,260,260,202,,,1.081,847.0520544779938,847.38539326518,847.4019691975227,847.6853197383243,847.7186939866951,None,up,847.7186939866951,None,847.7186939866951,848.7687266430366,0.07289343213415123,None,1.8335438075810089,,,,,,,,,27,001,2019_Dec_25_1403,untitled,3.1.0,60.00328584887272,
225,G,N,0,L,N,225GN000LN,HLN,0,261,261,232,,,1.234,849.6354129658394,849.9687023344304,849.9853664188631,850.2687263091284,850.302125600705,None,up,850.302125600705,None,850.302125600705,851.5021520463306,0.07278591329668416,None,1.933603443805623,,,,,,,,,27,001,2019_Dec_25_1403,untitled,3.1.0,60.00328584887272,
195,G,N,90,R,N,195GN090RN,HRN,0,262,262,226,,,1.367,852.3187579637415,852.6520954152911,852.6687778647429,852.9521020266984,852.9855610880659,None,up,852.9855610880659,None,852.9855610880659,854.3188401054649,0.07244265439294395,None,2.9001670882826147,,,,,,,,,27,001,2019_Dec_25_1403,untitled,3.1.0,60.00328584887272,
296,_2,N,315,L,N,296_2N315LN,HLN,0,263,263,255,,,1.385,855.9689023461833,856.3021750193002,856.3188481192883,856.6022403987699,856.6356440311683,None,down,856.6356440311683,None,856.6356440311683,857.985553742059,0.0731772551589529,None,2.400206489593984,,,,,,,,,27,001,2019_Dec_25_1403,untitled,3.1.0,60.00328584887272,
432,_4,M,315,L,N,432_4M315LN,HLN,0,264,264,175,,,1.167,859.1188907929172,859.4523360972162,859.468917372109,859.7523450459885,859.7856027599628,None,None,859.7856027599628,None,859.7856027599628,860.9190373123784,0.07437465440307278,None,,,,,,,,,,27,001,2019_Dec_25_1403,untitled,3.1.0,60.00328584887272,
207,G,M,270,R,N,207GM270RN,HRN,0,265,265,134,,,0.979,863.3190077280015,863.6523321570821,863.6690159421742,863.9523494535933,863.9858131896908,863.3190077280015,down,863.9858131896908,None,863.9858131896908,864.9357140853717,0.07351083068715525,None,2.2168073983666545,,,,,,,,,27,001,2019_Dec_25_1403,untitled,3.1.0,60.00328584887272,
258,_2,N,45,R,N,258_2N045RN,HRN,0,266,266,241,,,1.119,866.2857483444786,866.6190841264797,866.6357475430959,866.9190910717989,866.9525497992545,None,up,866.9525497992545,None,866.9525497992545,868.0357817354234,0.07301030043527135,None,1.9503132738354907,,,,,,,,,27,001,2019_Dec_25_1403,untitled,3.1.0,60.00328584887272,
_,_4,M,45,_,_,__4M045__,N,0,267,267,33,,,1.172,868.9857844734797,869.319144964782,869.3358083813946,869.6192390604592,869.652496106617,None,down,869.652496106617,None,869.652496106617,870.7859393406761,0.07193477813780191,None,1.967008745756175,,,,,,,,,27,001,2019_Dec_25_1403,untitled,3.1.0,60.00328584887272,
042,R,M,45,L,N,042RM045LN,HLN,0,268,268,105,,,0.852,871.7025427871558,872.0358732266104,872.0525433214134,872.3358995386734,872.3693399011099,None,down,872.3693399011099,None,872.3693399011099,873.1859020763841,0.0717471210336953,None,2.716864830788836,,,,,,,,,27,001,2019_Dec_25_1403,untitled,3.1.0,60.00328584887272,
484,_5,N,135,L,N,484_5N135LN,HLN,0,269,269,283,,,1.298,875.1692606977922,875.5026355472,875.5193804377159,875.8026264648615,875.8360207477999,None,up,875.8360207477999,None,875.8360207477999,877.1027446020234,0.07282498069980647,None,2.466869171610597,,,,,,,,,27,001,2019_Dec_25_1403,untitled,3.1.0,60.00328584887272,
_,F,M,45,_,_,_FM045__,N,0,270,270,1,,,0.886,878.3860564093266,878.7194492898416,878.7360332360113,879.019456569069,879.0528321530765,None,down,879.0528321530765,None,879.0528321530765,879.9027184903025,0.07099682652551564,None,2.033557898561412,,,,,,,,,27,001,2019_Dec_25_1403,untitled,3.1.0,60.00328584887272,
137,F,M,0,R,N,137FM000RN,HRN,0,271,271,112,,,1.212,881.1694253151436,881.502778460439,881.5194258494012,881.8027670407355,881.8361105694385,None,down,881.8361105694385,None,881.8361105694385,883.0194619116191,0.07344838961944333,None,1.9504237978617311,,,,,,,,,27,001,2019_Dec_25_1403,untitled,3.1.0,60.00328584887272,
_,_4,M,135,_,_,__4M135__,N,0,272,272,35,,,0.97,883.869569296894,884.202840300466,884.2195768432503,884.5028308842193,884.5362211602442,None,down,884.5362211602442,None,884.5362211602442,885.4695387775719,0.07094640620198334,None,2.33356450996871,,,,,,,,,27,001,2019_Dec_25_1403,untitled,3.1.0,60.00328584887272,
174,F,M,225,L,N,174FM225LN,HLN,0,273,273,125,,,1.078,886.952978538975,887.2862231637009,887.3028935924121,887.586236453295,887.6195806498145,None,down,887.6195806498145,None,887.6195806498145,888.6695946072323,0.07211408750663395,None,2.183637836482376,,,,,,,,,27,001,2019_Dec_25_1403,untitled,3.1.0,60.00328584887272,
_,R,M,45,_,_,_RM045__,N,0,274,274,17,,,0.989,889.8863689485624,890.2196366130374,890.2362980261969,890.519701324687,890.5530972771703,None,down,890.5530972771703,None,890.5530972771703,891.5029908268407,0.0725832302669005,None,2.7836627461256285,,,,,,,,,27,001,2019_Dec_25_1403,untitled,3.1.0,60.00328584887272,
_,F,M,315,_,_,_FM315__,N,0,275,275,7,,,0.984,893.4197972902584,893.7530352367976,893.769752746739,894.053041514293,894.1198304140744,None,down,894.1198304140744,None,894.1198304140744,895.0364031408863,0.07159819742082618,None,1.7668587536354607,,,,,,,,,27,001,2019_Dec_25_1403,untitled,3.1.0,60.00328584887272,
267,_2,M,90,R,N,267_2M090RN,HRN,0,276,276,146,,,0.759,895.9697645003544,896.303182090167,896.3197683737017,896.6031870320294,896.636567958587,None,down,896.636567958587,None,896.636567958587,897.3531235892333,0.07219522749801399,None,1.7001419782936864,,,,,,,,,27,001,2019_Dec_25_1403,untitled,3.1.0,60.00328584887272,
_,_4,M,315,_,_,__4M315__,N,0,277,277,39,,,0.728,898.4199091499213,898.7531751448514,898.7698218659934,899.0532021247345,899.0866291307939,None,down,899.0866291307939,None,899.0866291307939,899.7865166700976,0.07105125376256183,None,2.6836595405948174,,,,,,,,,27,001,2019_Dec_25_1403,untitled,3.1.0,60.00328584887272,
040,R,N,315,L,N,040RN315LN,HLN,0,278,278,207,,,0.976,901.8532665024723,902.1865698952606,902.2032379866068,902.4866616535728,902.5200015092705,None,up,902.5200015092705,None,902.5200015092705,903.4532630298163,0.07319996099977288,None,2.2336244133221044,,,,,,,,,27,001,2019_Dec_25_1403,untitled,3.1.0,60.00328584887272,
_,_2,M,45,_,_,__2M045__,N,0,279,279,25,,,1.287,904.8367266323512,905.1699745961705,905.1866390145151,905.4699805397613,905.5033237345524,None,down,905.5033237345524,None,905.5033237345524,906.7534155596477,0.07290845805982826,None,2.0836216084826447,,,,,,,,,27,001,2019_Dec_25_1403,untitled,3.1.0,60.00328584887272,
263,_2,N,270,R,N,263_2N270RN,HRN,0,280,280,246,,,0.9440000000000001,907.6700340320531,908.0033851738881,908.0200399088571,908.3034819408422,908.3368445023843,None,up,908.3368445023843,None,908.3368445023843,909.2534008676303,0.07437031358131208,None,2.2668931463085755,,,,,,,,,27,001,2019_Dec_25_1403,untitled,3.1.0,60.00328584887272,
257,_2,N,0,R,N,257_2N000RN,HRN,0,281,281,240,,,1.3760000000000001,910.6868547200102,911.0201096959318,911.0367711090876,911.3201293298043,911.3535496576769,None,up,911.3535496576769,None,911.3535496576769,912.6868149847905,0.07311013936123345,None,1.9668287685672112,,,,,,,,,27,001,2019_Dec_25_1403,untitled,3.1.0,60.00328584887272,
_,G,N,315,_,_,_GN315__,N,0,282,282,63,,,1.141,913.4036167066915,913.736831613478,913.7535120594766,914.0368405622503,914.0703042983514,None,up,914.0703042983514,None,914.0703042983514,915.1702023224098,0.07055439651958295,None,2.0669501780430437,,,,,,,,,27,001,2019_Dec_25_1403,untitled,3.1.0,60.00328584887272,
234,G,M,45,L,N,234GM045LN,HLN,0,283,283,137,,,1.19,916.2202293022929,916.5536352052768,916.5702358469171,916.8535720296095,916.8869215686827,None,down,916.8869215686827,None,916.8869215686827,918.0369530897333,0.07383405502332607,None,1.9836067161231767,,,,,,,,,27,001,2019_Dec_25_1403,untitled,3.1.0,60.00328584887272,
393,_4,M,0,R,N,393_4M000RN,HRN,0,284,284,160,,,0.999,918.9536226502823,919.2869654443821,919.3036301966349,919.5869503516733,919.6203750203713,None,None,919.6203750203713,None,919.6203750203713,920.586999102452,0.07333252304670168,None,,,,,,,,,,27,001,2019_Dec_25_1403,untitled,3.1.0,60.00328584887272,
485,_5,N,180,L,N,485_5N180LN,HLN,0,285,285,284,,,1.1300000000000001,923.1538123776227,923.4870576701687,923.5038165848819,923.7870692902179,923.8205223412151,923.1538123776227,up,923.8205223412151,None,923.8205223412151,924.9205081834552,0.07180221609087312,None,2.783502803500596,,,,,,,,,27,001,2019_Dec_25_1403,untitled,3.1.0,60.00328584887272,
417,_4,N,0,L,N,417_4N000LN,HLN,0,286,286,264,,,1.073,926.6871382091267,927.0204950274237,927.0371664578633,927.3205256803085,927.3872765144151,None,up,927.3872765144151,None,927.3872765144151,928.3872377809203,0.07432623753629741,None,1.766797982116259,,,,,,,,,27,001,2019_Dec_25_1403,untitled,3.1.0,60.00328584887272,
172,F,M,135,L,N,172FM135LN,HLN,0,287,287,123,,,1.288,929.2372850624961,929.5705313567705,929.5872024533019,929.8706304610896,929.9038831664257,None,down,929.9038831664257,None,929.9038831664257,931.1539893496265,0.07397329525701934,None,2.116954118173453,,,,,,,,,27,001,2019_Dec_25_1403,untitled,3.1.0,60.00328584887272,
,,,,,,,,,,,,,,,,,,,,,,,,,,,,,932.0372579490504,None,941.2208530451207,None,942.8875566644347,None,947.6709970268712,None,,,,,,,
