Number,Letter,type,Orientation,human,face_type,image,picture,trials.thisRepN,trials.thisTrialN,trials.thisN,trials.thisIndex,text.started,text.stopped,stimulus_duration,CROSS.started,CROSS.stopped,BLANK.started,BLANK.stopped,TEST.started,TEST.stopped,key_JUDGE.keys,key_JUDGE.started,key_JUDGE.stopped,image_2.started,image_2.stopped,ISI.started,ISI.stopped,key_JUDGE.rt,q1.started,q1.stopped,q2.started,q2.stopped,q3.started,q3.stopped,text_2.started,text_2.stopped,participant,session,date,expName,psychopyVersion,frameRate,
493,_5,M,180,L,N,493_5M180LN,HLN,0,0,0,188,52.05384090001462,None,0.808,76.09272230003262,76.38281530002132,76.38281530002132,76.64966480003204,76.66719520004699,None,None,76.66719520004699,None,76.66719520004699,77.46528790000593,0.14461319998372346,None,,,,,,,,,,28,001,2019_Dec_25_1157,untitled,3.1.0,59.83316122450016,
431,_4,M,270,L,N,431_4M270LN,HLN,0,1,1,174,,,1.118,80.33530670002801,80.66293460002635,80.67958320002072,80.96192890004022,80.97867360000964,80.33530670002801,None,80.97867360000964,None,80.97867360000964,82.07771939999657,0.07633110001916066,None,,,,,,,,,,28,001,2019_Dec_25_1157,untitled,3.1.0,59.83316122450016,
258,_2,N,45,R,N,258_2N045RN,HRN,0,2,2,241,,,0.757,84.64716260001296,84.94213909999235,84.94213909999235,85.15816079999786,85.17479489999823,84.64716260001296,up,85.17479489999823,None,85.17479489999823,85.90833360003307,0.1981427000137046,None,1.8156989000272006,,,,,,,,,28,001,2019_Dec_25_1157,untitled,3.1.0,59.83316122450016,
302,_2,M,225,L,N,302_2M225LN,HLN,0,3,3,157,,,0.991,87.18210810003802,87.47361500002444,87.47361500002444,87.70648610003991,87.72308270004578,None,up,87.72308270004578,None,87.72308270004578,88.68918040004792,0.18408370000543073,None,2.531508899992332,,,,,,,,,28,001,2019_Dec_25_1157,untitled,3.1.0,59.83316122450016,
487,_5,N,270,L,N,487_5N270LN,HLN,0,4,4,286,,,1.179,90.44130160001805,90.73666230001254,90.73666230001254,90.97020420001354,90.98739419999765,None,up,90.98739419999765,None,90.98739419999765,92.15239590004785,0.1756588999996893,None,2.2149139000102878,,,,,,,,,28,001,2019_Dec_25_1157,untitled,3.1.0,59.83316122450016,
_,G,M,0,_,_,_GM000__,N,0,5,5,8,,,0.899,93.39572420000331,93.68475920002675,93.68475920002675,93.91951460001292,93.93456349999178,None,down,93.93456349999178,None,93.93456349999178,94.81672870001057,0.18386779999127612,None,2.8987063000095077,,,,,,,,,28,001,2019_Dec_25_1157,untitled,3.1.0,59.83316122450016,
194,G,N,45,R,N,194GN045RN,HRN,0,6,6,225,,,1.324,97.01069660001667,97.31458310002927,97.31458310002927,97.550355400017,97.56491380004445,None,up,97.56491380004445,None,97.56491380004445,98.8642722000368,0.17027319996850565,None,2.765314699965529,,,,,,,,,28,001,2019_Dec_25_1157,untitled,3.1.0,59.83316122450016,
430,_4,M,225,L,N,430_4M225LN,HLN,0,7,7,173,,,1.298,100.4928149000043,100.78014059999259,100.78014059999259,101.0448554000468,101.06168079999043,None,down,101.06168079999043,None,101.06168079999043,102.34336780000012,0.1531352999736555,None,2.2811770999687724,,,,,,,,,28,001,2019_Dec_25_1157,untitled,3.1.0,59.83316122450016,
427,_4,M,90,L,N,427_4M090LN,HLN,0,8,8,170,,,1.343,103.41525449999608,103.75862330000382,103.77591590001248,104.05873250000877,104.07558840001002,None,down,104.07558840001002,None,104.07558840001002,105.40732210001443,0.06554709997726604,None,2.8472788999788463,,,,,,,,,28,001,2019_Dec_25_1157,untitled,3.1.0,59.83316122450016,
239,G,M,270,L,N,239GM270LN,HLN,0,9,9,142,,,1.306,107.1165244000149,107.40630249999231,107.40630249999231,107.63912300002994,107.65559080004459,None,down,107.65559080004459,None,107.65559080004459,108.93778620002558,0.18313099996885285,None,2.8977332999929786,,,,,,,,,28,001,2019_Dec_25_1157,untitled,3.1.0,59.83316122450016,
417,_4,N,0,L,N,417_4N000LN,HLN,0,10,10,264,,,1.048,110.69367830001283,110.98657250002725,110.98657250002725,111.26894490001723,111.28672979999101,None,up,111.28672979999101,None,111.28672979999101,112.31786670000292,0.1321182000101544,None,2.997954899969045,,,,,,,,,28,001,2019_Dec_25_1157,untitled,3.1.0,59.83316122450016,
_,F,M,315,_,_,_FM315__,N,0,11,11,7,,,1.1260000000000001,114.39666690002196,114.69764600001508,114.71627750003245,114.99935749999713,115.01627490000101,None,down,115.01627490000101,None,115.01627490000101,116.13120360003086,0.1034429999999702,None,2.564178000029642,,,,,,,,,28,001,2019_Dec_25_1157,untitled,3.1.0,59.83316122450016,
_,_4,N,45,_,_,__4N045__,N,0,12,12,81,,,0.919,117.74232499999925,118.03138770000078,118.03138770000078,118.29643170000054,118.31315030000405,None,up,118.31315030000405,None,118.31315030000405,119.2121812000405,0.15503819996956736,None,1.8836111000273377,,,,,,,,,28,001,2019_Dec_25_1157,untitled,3.1.0,59.83316122450016,
301,_2,M,180,L,N,301_2M180LN,HLN,0,13,13,156,,,0.754,120.35248800000409,120.64404849999119,120.64404849999119,120.9104129000334,120.92723490000935,None,down,120.92723490000935,None,120.92723490000935,121.65961380000226,0.1467368000303395,None,2.0163872000412084,,,,,,,,,28,001,2019_Dec_25_1157,untitled,3.1.0,59.83316122450016,
295,_2,N,270,L,N,295_2N270LN,HLN,0,14,14,254,,,0.932,123.13529470004141,123.42706509999698,123.42706509999698,123.65870880003786,123.67504360002931,None,up,123.67504360002931,None,123.67504360002931,124.59054110001307,0.18138500000350177,None,1.9175016999943182,,,,,,,,,28,001,2019_Dec_25_1157,untitled,3.1.0,59.83316122450016,
007,R,N,270,R,N,007RN270RN,HRN,0,15,15,198,,,1.28,125.78570000000764,126.07426399999531,126.07426399999531,126.30644130002474,126.32258040003944,None,up,126.32258040003944,None,126.32258040003944,127.58813139999984,0.18621019995771348,None,1.9153327000094578,,,,,,,,,28,001,2019_Dec_25_1157,untitled,3.1.0,59.83316122450016,
389,_4,N,180,R,N,389_4N180RN,HRN,0,16,16,260,,,0.909,128.31138660002034,128.6538494999986,128.67152329999954,128.95362370001385,128.97019459999865,None,up,128.97019459999865,None,128.97019459999865,129.8526233000448,0.06660780002130195,None,3.299389499996323,,,,,,,,,28,001,2019_Dec_25_1157,untitled,3.1.0,59.83316122450016,
304,_2,M,315,L,N,304_2M315LN,HLN,0,17,17,159,,,1.2550000000000001,132.3416039000149,132.6837693999987,132.70038340002066,132.9837432000204,133.000127300038,None,up,133.000127300038,None,133.000127300038,134.23230920004426,0.06472299998858944,None,2.9997970000258647,,,,,,,,,28,001,2019_Dec_25_1157,untitled,3.1.0,59.83316122450016,
_,G,M,315,_,_,_GM315__,N,0,18,18,15,,,1.113,136.16408800001955,136.463978600048,136.463978600048,136.71327549999114,136.73002910002833,None,down,136.73002910002833,None,136.73002910002833,137.82923760003177,0.15716979996068403,None,2.947963799990248,,,,,,,,,28,001,2019_Dec_25_1157,untitled,3.1.0,59.83316122450016,
_,F,N,45,_,_,_FN045__,N,0,19,19,49,,,0.758,139.84479930001544,140.1440026999917,140.1440026999917,140.39369500003522,140.4098900000099,None,up,140.4098900000099,None,140.4098900000099,141.14416660001734,0.15828350000083447,None,1.5662804000312462,,,,,,,,,28,001,2019_Dec_25_1157,untitled,3.1.0,59.83316122450016,
131,F,N,90,R,N,131FN090RN,HRN,0,20,20,210,,,1.3820000000000001,142.04931630002102,142.39346019999357,142.40822080004727,142.69221810001181,142.7085839000065,None,None,142.7085839000065,None,142.7085839000065,144.07447250001132,0.06634009996196255,None,,,,,,,,,,28,001,2019_Dec_25_1157,untitled,3.1.0,59.83316122450016,
_,R,N,135,_,_,_RN135__,N,0,21,21,67,,,1.178,146.3597820000141,146.6558715000283,146.6558715000283,146.88835150003433,146.90464090002934,146.3597820000141,up,146.90464090002934,None,146.90464090002934,148.0702045999933,0.18050030001904815,None,1.968162700009998,,,,,,,,,28,001,2019_Dec_25_1157,untitled,3.1.0,59.83316122450016,
195,G,N,90,R,N,195GN090RN,HRN,0,22,22,226,,,0.875,148.966167400009,149.28608420002274,149.30284930003108,149.58637999999337,149.602193800034,None,up,149.602193800034,None,149.602193800034,150.4691399000003,0.08529309998266399,None,1.9849879000103101,,,,,,,,,28,001,2019_Dec_25_1157,untitled,3.1.0,59.83316122450016,
196,G,N,135,R,N,196GN135RN,HRN,0,23,23,227,,,0.921,151.66777880000882,151.99999490001937,152.01747860002797,152.30002120003337,152.31714009999996,None,None,152.31714009999996,None,152.31714009999996,153.21571210003458,0.07316309999441728,None,,,,,,,,,,28,001,2019_Dec_25_1157,untitled,3.1.0,59.83316122450016,
_,_4,M,0,_,_,__4M000__,N,0,24,24,32,,,0.967,155.87493009999162,156.19821250002133,156.21478300000308,156.49638890003553,156.51309680001577,155.87493009999162,down,156.51309680001577,None,156.51309680001577,157.46214560000226,0.08696409995900467,None,2.5314650000073016,,,,,,,,,28,001,2019_Dec_25_1157,untitled,3.1.0,59.83316122450016,
010,R,M,45,R,N,010RM045RN,HRN,0,25,25,97,,,0.863,159.11881840002025,159.46057719999226,159.4771687000175,159.7603294000146,159.77820540004177,None,down,159.77820540004177,None,159.77820540004177,160.62688860000344,0.06723259994760156,None,1.9141338000190444,,,,,,,,,28,001,2019_Dec_25_1157,untitled,3.1.0,59.83316122450016,
_,_5,N,90,_,_,__5N090__,N,0,26,26,90,,,0.8280000000000001,161.83936220000032,162.1415919000283,162.1415919000283,162.40815339999972,162.42457450000802,None,up,162.42457450000802,None,162.42457450000802,163.24045500002103,0.1383223999873735,None,2.1182721000513993,,,,,,,,,28,001,2019_Dec_25_1157,untitled,3.1.0,59.83316122450016,
009,R,M,0,R,N,009RM000RN,HRN,0,27,27,96,,,0.842,164.63339390000328,164.95506840001326,164.97252310003387,165.25528969999868,165.2719206000329,None,down,165.2719206000329,None,165.2719206000329,166.106611300027,0.08185239997692406,None,3.299191099999007,,,,,,,,,28,001,2019_Dec_25_1157,untitled,3.1.0,59.83316122450016,
_,_2,N,180,_,_,__2N180__,N,0,28,28,76,,,1.0110000000000001,168.64598289999412,168.98541970003862,169.0028840000159,169.2851141000283,169.30224809999345,None,None,169.30224809999345,None,169.30224809999345,170.30081919999793,0.06726979999803007,None,,,,,,,,,,28,001,2019_Dec_25_1157,untitled,3.1.0,59.83316122450016,
_,F,M,45,_,_,_FM045__,N,0,29,29,1,,,1.1460000000000001,172.85614680004073,173.18176860001404,173.19801350001944,173.48166420002235,173.4979830000084,172.85614680004073,down,173.4979830000084,None,173.4979830000084,174.63053060002858,0.0834566000266932,None,2.550641700043343,,,,,,,,,28,001,2019_Dec_25_1157,untitled,3.1.0,59.83316122450016,
_,_5,N,45,_,_,__5N045__,N,0,30,30,89,,,1.266,176.239403100044,176.52923849999206,176.52923849999206,176.7615422999952,176.77934070001356,None,up,176.77934070001356,None,176.77934070001356,178.02740210003685,0.1842742000008002,None,2.499928200035356,,,,,,,,,28,001,2019_Dec_25_1157,untitled,3.1.0,59.83316122450016,
394,_4,M,45,R,N,394_4M045RN,HRN,0,31,31,161,,,0.751,179.3516039000242,179.69287910003914,179.70953620004002,179.99272520001978,180.00916300003882,None,down,180.00916300003882,None,180.00916300003882,180.74186470004497,0.06522819999372587,None,2.0501942000119016,,,,,,,,,28,001,2019_Dec_25_1157,untitled,3.1.0,59.83316122450016,
449,_5,N,0,R,N,449_5N000RN,HRN,0,32,32,272,,,0.937,182.25695280003129,182.54205059999367,182.54205059999367,182.7734114000341,182.78996740002185,None,up,182.78996740002185,None,182.78996740002185,183.70596310001565,0.1881087999790907,None,1.7003960000001825,,,,,,,,,28,001,2019_Dec_25_1157,untitled,3.1.0,59.83316122450016,
_,_2,N,45,_,_,__2N045__,N,0,33,33,73,,,1.32,184.5628100000322,184.9048322000308,184.92095840000547,185.2055847000447,185.22160029999213,None,up,185.22160029999213,None,185.22160029999213,186.5241415000055,0.06520090001868084,None,2.1679210999864154,,,,,,,,,28,001,2019_Dec_25_1157,untitled,3.1.0,59.83316122450016,
_,_2,M,45,_,_,__2M045__,N,0,34,34,25,,,0.9500000000000001,187.46024680003757,187.80243770004017,187.8191744000069,188.10236000001896,188.11880130000645,None,None,188.11880130000645,None,188.11880130000645,189.05297770001926,0.06431069999234751,None,,,,,,,,,,28,001,2019_Dec_25_1157,untitled,3.1.0,59.83316122450016,
_,G,M,135,_,_,_GM135__,N,0,35,35,11,,,1.3840000000000001,191.78495440003462,192.08207100001164,192.08207100001164,192.29841950000264,192.31527960003586,191.78495440003462,down,192.31527960003586,None,192.31527960003586,193.6805663999985,0.19584040000336245,None,2.548191800015047,,,,,,,,,28,001,2019_Dec_25_1157,untitled,3.1.0,59.83316122450016,
_,_5,N,315,_,_,__5N315__,N,0,36,36,95,,,1.3860000000000001,194.93466660002014,195.27958970004693,195.29714179999428,195.5790646999958,195.59641830000328,None,up,195.59641830000328,None,195.59641830000328,196.96061990002636,0.06456049997359514,None,2.200531000038609,,,,,,,,,28,001,2019_Dec_25_1157,untitled,3.1.0,59.83316122450016,
232,G,N,315,L,N,232GN315LN,HLN,0,37,37,239,,,0.9420000000000001,197.87567110004602,198.21010990004288,198.22690160002094,198.50988890003646,198.52635190001456,None,None,198.52635190001456,None,198.52635190001456,199.4590020000469,0.07153670000843704,None,,,,,,,,,,28,001,2019_Dec_25_1157,untitled,3.1.0,59.83316122450016,
263,_2,N,270,R,N,263_2N270RN,HRN,0,38,38,246,,,0.917,202.06246260000626,202.406243800011,202.406243800011,202.70694990002085,202.72275420004735,202.06246260000626,up,202.72275420004735,None,202.72275420004735,203.62187030003406,0.06548220000695437,None,2.167449000000488,,,,,,,,,28,001,2019_Dec_25_1157,untitled,3.1.0,59.83316122450016,
_,R,N,225,_,_,_RN225__,N,0,39,39,69,,,1.178,204.96266570000444,205.30381750001106,205.32066770002712,205.60366190003697,205.62013779999688,None,up,205.62013779999688,None,205.62013779999688,206.78583120001713,0.06565449998015538,None,2.365165800030809,,,,,,,,,28,001,2019_Dec_25_1157,untitled,3.1.0,59.83316122450016,
162,F,N,45,L,N,162FN045LN,HLN,0,40,40,217,,,1.044,208.14371670002583,208.43430409999564,208.43430409999564,208.70089279999956,208.71852640004363,None,up,208.71852640004363,None,208.71852640004363,209.74994529999094,0.14944529999047518,None,1.7009544000029564,,,,,,,,,28,001,2019_Dec_25_1157,untitled,3.1.0,59.83316122450016,
_,F,N,225,_,_,_FN225__,N,0,41,41,53,,,1.395,210.50716350000584,210.83218550001038,210.8491100000101,211.1320485000033,211.1484572000336,None,up,211.1484572000336,None,211.1484572000336,212.53177450003568,0.08105540001997724,None,2.3986910000094213,,,,,,,,,28,001,2019_Dec_25_1157,untitled,3.1.0,59.83316122450016,
_,_5,M,45,_,_,__5M045__,N,0,42,42,41,,,1.102,213.61755170003744,213.96325010003056,213.9806144000031,214.26222940004664,214.279669200012,None,down,214.279669200012,None,214.279669200012,215.36184910003794,0.06380409997655079,None,2.552622799994424,,,,,,,,,28,001,2019_Dec_25_1157,untitled,3.1.0,59.83316122450016,
_,G,N,0,_,_,_GN000__,N,0,43,43,56,,,0.995,216.99244020000333,217.29487979999976,217.29487979999976,217.5431794000324,217.55975170002785,None,up,217.55975170002785,None,217.55975170002785,218.54229820001638,0.1522986000054516,None,1.6489007000345737,,,,,,,,,28,001,2019_Dec_25_1157,untitled,3.1.0,59.83316122450016,
040,R,N,315,L,N,040RN315LN,HLN,0,44,44,207,,,0.88,219.30349260004004,219.62469840003178,219.64163010002812,219.92431370000122,219.94175330002327,None,up,219.94175330002327,None,219.94175330002327,220.80776310001966,0.08783550001680851,None,2.0842693999875337,,,,,,,,,28,001,2019_Dec_25_1157,untitled,3.1.0,59.83316122450016,
_,_4,M,315,_,_,__4M315__,N,0,45,45,39,,,1.096,222.09670170000754,222.43883080000523,222.4559239000082,222.73961879999842,222.7553168000304,None,down,222.7553168000304,None,222.7553168000304,223.8373419000418,0.06311630003619939,None,2.2982600000104867,,,,,,,,,28,001,2019_Dec_25_1157,untitled,3.1.0,59.83316122450016,
003,R,N,90,R,N,003RN090RN,HRN,0,46,46,194,,,1.167,225.12767610000446,225.47020280000288,225.48696920002112,225.7701064000139,225.78673180000624,None,up,225.78673180000624,None,225.78673180000624,226.93549609999172,0.06500449997838587,None,2.7807787000201643,,,,,,,,,28,001,2019_Dec_25_1157,untitled,3.1.0,59.83316122450016,
_,G,M,225,_,_,_GM225__,N,0,47,47,13,,,0.712,228.64493970002513,228.98368380003376,229.00030459999107,229.28295459999936,229.29992499999935,None,down,229.29992499999935,None,229.29992499999935,229.99866570002632,0.06955890002427623,None,2.9994641999946907,,,,,,,,,28,001,2019_Dec_25_1157,untitled,3.1.0,59.83316122450016,
425,_4,M,0,L,N,425_4M000LN,HLN,0,48,48,168,,,0.968,232.3714680999983,232.7136143000098,232.73056510003516,233.0130313000409,233.03063350002049,None,down,233.03063350002049,None,233.03063350002049,233.9786918000318,0.06520950002595782,None,2.0987774000386707,,,,,,,,,28,001,2019_Dec_25_1157,untitled,3.1.0,59.83316122450016,
_,G,M,180,_,_,_GM180__,N,0,49,49,12,,,0.779,235.1992925000377,235.54451510001672,235.56306080002105,235.84470509999665,235.86043739999877,None,down,235.86043739999877,None,235.86043739999877,236.62645590002649,0.06310900003882125,None,1.4519540999899618,,,,,,,,,28,001,2019_Dec_25_1157,untitled,3.1.0,59.83316122450016,
419,_4,N,90,L,N,419_4N090LN,HLN,0,50,50,266,,,1.178,237.38634760002606,237.72553240001434,237.74233480001567,238.02536329999566,238.04182919999585,None,up,238.04182919999585,None,238.04182919999585,239.2071225999971,0.06690240005264059,None,2.431929800019134,,,,,,,,,28,001,2019_Dec_25_1157,untitled,3.1.0,59.83316122450016,
_,_2,M,135,_,_,__2M135__,N,0,51,51,27,,,1.111,240.54464199999347,240.88975790003315,240.90606130001834,241.18941859999904,241.20604479999747,None,down,241.20604479999747,None,241.20604479999747,242.30498600000283,0.06383030000142753,None,2.1503157999832183,,,,,,,,,28,001,2019_Dec_25_1157,untitled,3.1.0,59.83316122450016,
260,_2,N,135,R,N,260_2N135RN,HRN,0,52,52,243,,,0.757,243.42994140001247,243.7702001000289,243.78711700002896,244.07044770003995,244.0865458000335,None,up,244.0865458000335,None,244.0865458000335,244.8193309000344,0.06679990002885461,None,2.6811328000039794,,,,,,,,,28,001,2019_Dec_25_1157,untitled,3.1.0,59.83316122450016,
423,_4,N,270,L,N,423_4N270LN,HLN,0,53,53,270,,,1.01,246.87223510001786,247.18425160000334,247.2012733000447,247.48341550002806,247.5000757999951,None,up,247.5000757999951,None,247.5000757999951,248.50022420001915,0.09691129997372627,None,2.565287800040096,,,,,,,,,28,001,2019_Dec_25_1157,untitled,3.1.0,59.83316122450016,
385,_4,N,0,R,N,385_4N000RN,HRN,0,54,54,256,,,0.744,250.13714960002108,250.48088119999738,250.49830969999311,250.7813913000282,250.7977549000061,None,up,250.7977549000061,None,250.7977549000061,251.52992390003055,0.06429070001468062,None,1.4826913000433706,,,,,,,,,28,001,2019_Dec_25_1157,untitled,3.1.0,59.83316122450016,
037,R,N,180,L,N,037RN180LN,HLN,0,55,55,204,,,1.091,252.35360140004195,252.6960468000034,252.7125284000067,252.9955308000208,253.01232939999318,None,down,253.01232939999318,None,253.01232939999318,254.0777162000304,0.06688980001490563,None,3.0645622999873012,,,,,,,,,28,001,2019_Dec_25_1157,untitled,3.1.0,59.83316122450016,
044,R,M,135,L,N,044RM135LN,HLN,0,56,56,107,,,1.323,256.1696997000254,256.4926279000356,256.50923770002555,256.7920126999961,256.80846140003996,None,up,256.80846140003996,None,256.80846140003996,258.1076345000183,0.08514999999897555,None,3.2981099000317045,,,,,,,,,28,001,2019_Dec_25_1157,untitled,3.1.0,59.83316122450016,
386,_4,N,45,R,N,386_4N045RN,HRN,0,57,57,257,,,1.346,260.1835976000293,260.5226698000333,260.5394433000474,260.8224988000002,260.8399951000465,None,up,260.8399951000465,None,260.8399951000465,262.15568740002345,0.06925780000165105,None,2.3986175000318326,,,,,,,,,28,001,2019_Dec_25_1157,untitled,3.1.0,59.83316122450016,
170,F,M,45,L,N,170FM045LN,HLN,0,58,58,121,,,0.793,263.4453748000087,263.73614430002635,263.73614430002635,263.95277120004175,263.9703015999985,None,down,263.9703015999985,None,263.9703015999985,264.7525985999964,0.1936866999603808,None,2.2309089999762364,,,,,,,,,28,001,2019_Dec_25_1157,untitled,3.1.0,59.83316122450016,
489,_5,M,0,L,N,489_5M000LN,HLN,0,59,59,184,,,1.286,266.3033911000239,266.617104200006,266.6344337000046,266.91720309999073,266.9337458999944,None,down,266.9337458999944,None,266.9337458999944,268.1997888000333,0.09520889999112114,None,2.966233299986925,,,,,,,,,28,001,2019_Dec_25_1157,untitled,3.1.0,59.83316122450016,
_,R,M,225,_,_,_RM225__,N,0,60,60,21,,,1.195,269.9699185999925,270.3138692000066,270.33217010000953,270.61369040003046,270.6302596000023,None,up,270.6302596000023,None,270.6302596000023,271.8125461000018,0.06335490004858002,None,3.0996177999768406,,,,,,,,,28,001,2019_Dec_25_1157,untitled,3.1.0,59.83316122450016,
046,R,M,225,L,N,046RM225LN,HLN,0,61,61,109,,,1.36,273.90040840004804,274.193711000029,274.193711000029,274.4435350000276,274.4602334999945,None,up,274.4602334999945,None,274.4602334999945,275.80917910003336,0.1635761999641545,None,3.3671755000250414,,,,,,,,,28,001,2019_Dec_25_1157,untitled,3.1.0,59.83316122450016,
038,R,N,225,L,N,038RN225LN,HLN,0,62,62,205,,,0.756,277.99141640000744,278.29018400004134,278.29018400004134,278.5399450000259,278.55669970001327,None,None,278.55669970001327,None,278.55669970001327,279.28903370001353,0.1567477000062354,None,,,,,,,,,,28,001,2019_Dec_25_1157,untitled,3.1.0,59.83316122450016,
_,F,M,90,_,_,_FM090__,N,0,63,63,2,,,1.191,282.217804600019,282.5198284999933,282.5198284999933,282.73585789999925,282.7534731000196,282.217804600019,down,282.7534731000196,None,282.7534731000196,283.9184643000481,0.19076800002949312,None,3.132380600029137,,,,,,,,,28,001,2019_Dec_25_1157,untitled,3.1.0,59.83316122450016,
_,G,N,45,_,_,_GN045__,N,0,64,64,57,,,1.1400000000000001,285.97284860000946,286.2998747000238,286.3162094000145,286.5993783000158,286.6163642000174,None,up,286.6163642000174,None,286.6163642000174,287.7327947000158,0.07990190002601594,None,2.1182016000384465,,,,,,,,,28,001,2019_Dec_25_1157,untitled,3.1.0,59.83316122450016,
392,_4,N,315,R,N,392_4N315RN,HRN,0,65,65,263,,,1.331,288.81040290003875,289.1471137999906,289.1639365000301,289.44673900003545,289.46355650003534,None,up,289.46355650003534,None,289.46355650003534,290.7797039000434,0.0692579000024125,None,2.1319590999628417,,,,,,,,,28,001,2019_Dec_25_1157,untitled,3.1.0,59.83316122450016,
015,R,M,270,R,N,015RM270RN,HRN,0,66,66,102,,,1.332,291.6704797000275,292.01188780000666,292.0281906000455,292.31318860000465,292.31318860000465,None,down,292.31318860000465,None,292.31318860000465,293.6434211000451,0.06777449999935925,None,3.411892300006002,,,,,,,,,28,001,2019_Dec_25_1157,untitled,3.1.0,59.83316122450016,
_,_5,M,90,_,_,__5M090__,N,0,67,67,42,,,1.3820000000000001,295.8171734000207,296.1417455000337,296.15886070003035,296.4415873000398,296.4581609000452,None,down,296.4581609000452,None,296.4581609000452,297.82302230002824,0.08464820001972839,None,2.882858800003305,,,,,,,,,28,001,2019_Dec_25_1157,untitled,3.1.0,59.83316122450016,
462,_5,M,225,R,N,462_5M225RN,HRN,0,68,68,181,,,0.7030000000000001,299.41980100004,299.75492780003697,299.77141730004223,300.0550948000164,300.0718147000298,None,down,300.0718147000298,None,300.0718147000298,300.75409270002274,0.07059259997913614,None,2.266811100009363,,,,,,,,,28,001,2019_Dec_25_1157,untitled,3.1.0,59.83316122450016,
_,G,N,90,_,_,_GN090__,N,0,69,69,58,,,1.188,302.5091017000377,302.8021740000113,302.8021740000113,303.0520619000308,303.0689299000078,None,up,303.0689299000078,None,303.0689299000078,304.23564570001327,0.16345709998859093,None,2.71417280001333,,,,,,,,,28,001,2019_Dec_25_1157,untitled,3.1.0,59.83316122450016,
041,R,M,0,L,N,041RM000LN,HLN,0,70,70,104,,,1.187,305.8761314000003,306.19929860002594,306.21575299999677,306.4988388000056,306.51633920002496,None,down,306.51633920002496,None,306.51633920002496,307.6810536000412,0.08241400000406429,None,2.2829905999824405,,,,,,,,,28,001,2019_Dec_25_1157,untitled,3.1.0,59.83316122450016,
460,_5,M,135,R,N,460_5M135RN,HRN,0,71,71,179,,,0.882,308.8757550000446,309.2135168000241,309.2309957999969,309.5128448000178,309.53031610004837,None,down,309.53031610004837,None,309.53031610004837,310.39666150003904,0.06989369995426387,None,3.030326400010381,,,,,,,,,28,001,2019_Dec_25_1157,untitled,3.1.0,59.83316122450016,
002,R,N,45,R,N,002RN045RN,HRN,0,72,72,193,,,1.1320000000000001,312.6332389000454,312.97682630002964,312.99365200003376,313.27647949999664,313.2942192000337,None,up,313.2942192000337,None,313.2942192000337,314.4086038999958,0.06509619997814298,None,2.197328300040681,,,,,,,,,28,001,2019_Dec_25_1157,untitled,3.1.0,59.83316122450016,
_,_2,M,225,_,_,__2M225__,N,0,73,73,29,,,0.807,315.56313920003595,315.90716649999376,315.92391440004576,316.20702650002204,316.22387290000916,None,down,316.22387290000916,None,316.22387290000916,317.00640720000956,0.06470429996261373,None,1.9487913000048138,,,,,,,,,28,001,2019_Dec_25_1157,untitled,3.1.0,59.83316122450016,
236,G,M,135,L,N,236GM135LN,HLN,0,74,74,139,,,1.367,318.24817949999124,318.58813470002497,318.6053650000249,318.8881819000235,318.9046593999956,None,down,318.9046593999956,None,318.9046593999956,320.25346470001386,0.06872540002223104,None,3.0006141999620013,,,,,,,,,28,001,2019_Dec_25_1157,untitled,3.1.0,59.83316122450016,
272,_2,M,315,R,N,272_2M315RN,HRN,0,75,75,151,,,1.032,321.97868649999145,322.3186942000175,322.33539480000036,322.61776019999525,322.6347989999922,None,down,322.6347989999922,None,322.6347989999922,323.6507117000292,0.06668349995743483,None,2.149080300005153,,,,,,,,,28,001,2019_Dec_25_1157,untitled,3.1.0,59.83316122450016,
_,_2,N,270,_,_,__2N270__,N,0,76,76,78,,,0.895,324.87441570003284,325.19968640001025,325.21623530000215,325.49931550002657,325.51541809999617,None,up,325.51541809999617,None,325.51541809999617,326.39857170003233,0.08190520002972335,None,1.7184346999856643,,,,,,,,,28,001,2019_Dec_25_1157,untitled,3.1.0,59.83316122450016,
455,_5,N,270,R,N,455_5N270RN,HRN,0,77,77,278,,,1.158,327.3055904000066,327.6470567000215,327.66378430003533,327.94819850003114,327.96349440002814,None,up,327.96349440002814,None,327.96349440002814,329.11244390002685,0.06456940004136413,None,1.8822185000171885,,,,,,,,,28,001,2019_Dec_25_1157,untitled,3.1.0,59.83316122450016,
_,G,M,45,_,_,_GM045__,N,0,78,78,9,,,1.362,330.0109547000029,330.31181450001895,330.31181450001895,330.56581780000124,330.56581780000124,None,down,330.56581780000124,None,330.56581780000124,331.92667240003357,0.15799669997068122,None,2.3437344999983907,,,,,,,,,28,001,2019_Dec_25_1157,untitled,3.1.0,59.83316122450016,
134,F,N,225,R,N,134FN225RN,HRN,0,79,79,213,,,0.986,332.98674900003243,333.32567550003296,333.34298950002994,333.62600560003193,333.64219820004655,None,up,333.64219820004655,None,333.64219820004655,334.6074625000474,0.07051209994824603,None,2.167679100006353,,,,,,,,,28,001,2019_Dec_25_1157,untitled,3.1.0,59.83316122450016,
_,F,N,315,_,_,_FN315__,N,0,80,80,55,,,0.896,335.9716734000249,336.27289690001635,336.27289690001635,336.5228828000254,336.5394491000334,None,up,336.5394491000334,None,336.5394491000334,337.4217099000234,0.1545547000132501,None,1.584758100041654,,,,,,,,,28,001,2019_Dec_25_1157,untitled,3.1.0,59.83316122450016,
130,F,N,45,R,N,130FN045RN,HRN,0,81,81,209,,,1.344,338.1985676000477,338.53790660004597,338.5546561999945,338.8376968000084,338.85437910002656,None,up,338.85437910002656,None,338.85437910002656,340.1866618000204,0.0678569000447169,None,2.316355500021018,,,,,,,,,28,001,2019_Dec_25_1157,untitled,3.1.0,59.83316122450016,
_,_4,N,225,_,_,__4N225__,N,0,82,82,85,,,0.993,341.2397935000481,341.5850987000158,341.60186660004547,341.8850407000282,341.9015463000396,None,up,341.9015463000396,None,341.9015463000396,342.8838529000059,0.062262399995233864,None,2.4836680999724194,,,,,,,,,28,001,2019_Dec_25_1157,untitled,3.1.0,59.83316122450016,
_,F,N,90,_,_,_FN090__,N,0,83,83,50,,,1.29,344.5559139000252,344.84897540003294,344.84897540003294,345.098953000037,345.11544620001223,None,up,345.11544620001223,None,345.11544620001223,346.3973682000069,0.16329679999034852,None,2.549645100021735,,,,,,,,,28,001,2019_Dec_25_1157,untitled,3.1.0,59.83316122450016,
464,_5,M,315,R,N,464_5M315RN,HRN,0,84,84,183,,,0.9380000000000001,347.8673503000173,348.16304640000453,348.16304640000453,348.3793523000204,348.3959290999919,None,down,348.3959290999919,None,348.3959290999919,349.31113720004214,0.19455200002994388,None,2.317020899965428,,,,,,,,,28,001,2019_Dec_25_1157,untitled,3.1.0,59.83316122450016,
136,F,N,315,R,N,136FN315RN,HRN,0,85,85,215,,,1.228,350.7851329999976,351.1264166000183,351.14431250002235,351.42672859999584,351.44304330000887,None,up,351.44304330000887,None,351.44304330000887,352.65924180002185,0.06561119999969378,None,2.149186299997382,,,,,,,,,28,001,2019_Dec_25_1157,untitled,3.1.0,59.83316122450016,
014,R,M,225,R,N,014RM225RN,HRN,0,86,86,101,,,1.252,353.6665497000213,354.00747810001485,354.024339399999,354.30747070000507,354.3237256000284,None,up,354.3237256000284,None,354.3237256000284,355.5563094000099,0.0672655999660492,None,2.799096799979452,,,,,,,,,28,001,2019_Dec_25_1157,untitled,3.1.0,59.83316122450016,
168,F,N,315,L,N,168FN315LN,HLN,0,87,87,223,,,1.008,357.3041823999956,357.60467670002254,357.60467670002254,357.8378071000334,357.85432640003273,None,up,357.85432640003273,None,357.85432640003273,358.83667140000034,0.17414680001093075,None,1.6824489000136964,,,,,,,,,28,001,2019_Dec_25_1157,untitled,3.1.0,59.83316122450016,
_,_2,M,270,_,_,__2M270__,N,0,88,88,30,,,0.855,359.6073347000056,359.9523842000053,359.97056839999277,360.2522236999939,360.268928400008,None,down,360.268928400008,None,360.268928400008,361.1014417000115,0.06355040002381429,None,3.449840499961283,,,,,,,,,28,001,2019_Dec_25_1157,untitled,3.1.0,59.83316122450016,
259,_2,N,90,R,N,259_2N090RN,HRN,0,89,89,242,,,1.249,363.7912069000304,364.1319592000218,364.14863529999275,364.43182009999873,364.4483234999934,None,up,364.4483234999934,None,364.4483234999934,365.6809301000321,0.06561749998945743,None,3.4527754000155255,,,,,,,,,28,001,2019_Dec_25_1157,untitled,3.1.0,59.83316122450016,
138,F,M,45,R,N,138FM045RN,HRN,0,90,90,113,,,0.737,367.98970490001375,368.3118339999928,368.32978020003065,368.61203800002113,368.6285738000297,None,down,368.6285738000297,None,368.6285738000297,369.361218200007,0.08031029999256134,None,1.882225799956359,,,,,,,,,28,001,2019_Dec_25_1157,untitled,3.1.0,59.83316122450016,
486,_5,N,225,L,N,486_5N225LN,HLN,0,91,91,285,,,1.1320000000000001,370.5819319000002,370.92646620003507,370.9429920000257,371.2263442000258,371.24260880000656,None,up,371.24260880000656,None,371.24260880000656,372.35933970002225,0.06444550002925098,None,2.850834599987138,,,,,,,,,28,001,2019_Dec_25_1157,untitled,3.1.0,59.83316122450016,
006,R,N,225,R,N,006RN225RN,HRN,0,92,92,197,,,1.2730000000000001,374.16747700003907,374.50660280004377,374.5230725000147,374.80629199999385,374.8225301000057,None,up,374.8225301000057,None,374.8225301000057,376.08835650002584,0.06664999999338761,None,2.117070300038904,,,,,,,,,28,001,2019_Dec_25_1157,untitled,3.1.0,59.83316122450016,
039,R,N,270,L,N,039RN270LN,HLN,0,93,93,206,,,1.248,377.0108533000457,377.3539880000171,377.3707688000286,377.6549323000363,377.67045530001633,None,up,377.67045530001633,None,377.67045530001633,378.902602999995,0.06435919995419681,None,1.8828423999948427,,,,,,,,,28,001,2019_Dec_25_1157,untitled,3.1.0,59.83316122450016,
298,_2,M,45,L,N,298_2M045LN,HLN,0,94,94,153,,,0.887,379.71227519999957,380.0023273000261,380.0023273000261,380.2684097000165,380.28443840000546,None,up,380.28443840000546,None,380.28443840000546,381.1517252000049,0.1503466999856755,None,1.8339927000342868,,,,,,,,,28,001,2019_Dec_25_1157,untitled,3.1.0,59.83316122450016,
421,_4,N,180,L,N,421_4N180LN,HLN,0,95,95,268,,,1.07,382.19067600002745,382.53281910001533,382.5506705000298,382.83247660001507,382.8499656000058,None,up,382.8499656000058,None,382.8499656000058,383.8980331000057,0.06488679995527491,None,2.031951899989508,,,,,,,,,28,001,2019_Dec_25_1157,untitled,3.1.0,59.83316122450016,
452,_5,N,135,R,N,452_5N135RN,HRN,0,96,96,275,,,1.2670000000000001,384.9734197999933,385.29677730001276,385.31428610003786,385.5972472000285,385.6133998000296,None,None,385.6133998000296,None,385.6133998000296,386.86241100000916,0.08154029998695478,None,,,,,,,,,,28,001,2019_Dec_25_1157,untitled,3.1.0,59.83316122450016,
206,G,M,225,R,N,206GM225RN,HRN,0,97,97,133,,,1.103,389.15125330002047,389.49344320001546,389.5103645999916,389.7930480000214,389.80971669999417,389.15125330002047,down,389.80971669999417,None,389.80971669999417,390.89205620001303,0.06412140000611544,None,2.8484843999613076,,,,,,,,,28,001,2019_Dec_25_1157,untitled,3.1.0,59.83316122450016,
_,_4,N,270,_,_,__4N270__,N,0,98,98,86,,,1.035,392.7383609000244,393.07366990001174,393.0899170000339,393.3732782000443,393.3898512000451,None,up,393.3898512000451,None,393.3898512000451,394.40513810003176,0.07266259996686131,None,1.9669411000213586,,,,,,,,,28,001,2019_Dec_25_1157,untitled,3.1.0,59.83316122450016,
268,_2,M,135,R,N,268_2M135RN,HRN,0,99,99,147,,,1.156,395.4399719000212,395.7717304000398,395.7885110999923,396.0714713000343,396.0883331000223,None,down,396.0883331000223,None,396.0883331000223,397.22224060003646,0.07493559998692945,None,2.7490475000231527,,,,,,,,,28,001,2019_Dec_25_1157,untitled,3.1.0,59.83316122450016,
_,_2,M,90,_,_,__2M090__,N,0,100,100,26,,,1.345,398.9078564000083,399.25284380000085,399.2681695999927,399.5512894000276,399.56789920001756,None,down,399.56789920001756,None,399.56789920001756,400.90008730004774,0.0636235999991186,None,2.9810226999688894,,,,,,,,,28,001,2019_Dec_25_1157,untitled,3.1.0,59.83316122450016,
496,_5,M,315,L,N,496_5M315LN,HLN,0,101,101,191,,,1.052,402.6195329000475,402.9651720999973,402.9818455000059,403.26480830000946,403.281510300003,None,down,403.281510300003,None,403.281510300003,404.31391050003003,0.06381800002418458,None,2.417469499981962,,,,,,,,,28,001,2019_Dec_25_1157,untitled,3.1.0,59.83316122450016,
_,_5,M,225,_,_,__5M225__,N,0,102,102,45,,,0.98,405.86347000004025,406.1624939000467,406.1624939000467,406.41193900001235,406.42890860000625,None,down,406.42890860000625,None,406.42890860000625,407.3953504000092,0.15567469998495653,None,2.6316428999998607,,,,,,,,,28,001,2019_Dec_25_1157,untitled,3.1.0,59.83316122450016,
429,_4,M,180,L,N,429_4M180LN,HLN,0,103,103,172,,,0.738,409.22941040003207,409.52610200003255,409.52610200003255,409.77602099999785,409.7922712000436,None,up,409.7922712000436,None,409.7922712000436,410.50852960004704,0.1622116999933496,None,3.0489859000081196,,,,,,,,,28,001,2019_Dec_25_1157,untitled,3.1.0,59.83316122450016,
271,_2,M,270,R,N,271_2M270RN,HRN,0,104,104,150,,,0.711,412.91655650001485,413.25540960003855,413.27187080000294,413.55615930003114,413.5722558000125,None,down,413.5722558000125,None,413.5722558000125,414.27170600002864,0.06799700000556186,None,3.1977919999626465,,,,,,,,,28,001,2019_Dec_25_1157,untitled,3.1.0,59.83316122450016,
200,G,N,315,R,N,200GN315RN,HRN,0,105,105,231,,,1.361,416.84179340000264,417.18586910003796,417.20351170003414,417.4851512000314,417.5027171000256,None,up,417.5027171000256,None,417.5027171000256,418.85102760000154,0.06432039994979277,None,2.4649582999991253,,,,,,,,,28,001,2019_Dec_25_1157,untitled,3.1.0,59.83316122450016,
458,_5,M,45,R,N,458_5M045RN,HRN,0,106,106,177,,,1.337,420.03915090003284,420.38330190000124,420.3999254000373,420.6831170000369,420.6995564000099,None,down,420.6995564000099,None,420.6995564000099,422.0147026000195,0.06453919998602942,None,2.716203999996651,,,,,,,,,28,001,2019_Dec_25_1157,untitled,3.1.0,59.83316122450016,
492,_5,M,135,L,N,492_5M135LN,HLN,0,107,107,187,,,1.383,423.500241700036,423.8302675000159,423.84708620002493,424.13048360001994,424.14698880002834,None,None,424.14698880002834,None,424.14698880002834,425.5121077999938,0.07718239998212084,None,,,,,,,,,,28,001,2019_Dec_25_1157,untitled,3.1.0,59.83316122450016,
169,F,M,0,L,N,169FM000LN,HLN,0,108,108,120,,,1.17,427.68502000003355,428.02670460002264,428.0433910000138,428.3281857999973,428.3469437000458,427.68502000003355,down,428.3469437000458,None,428.3469437000458,429.4918824000051,0.06622700003208593,None,2.344274699978996,,,,,,,,,28,001,2019_Dec_25_1157,untitled,3.1.0,59.83316122450016,
141,F,M,180,R,N,141FM180RN,HRN,0,109,109,116,,,0.907,430.7628408000455,431.1068002000102,431.1244054000126,431.40720250003505,431.4254405000247,None,up,431.4254405000247,None,431.4254405000247,432.30656470003305,0.06512649997603148,None,2.5466398000135086,,,,,,,,,28,001,2019_Dec_25_1157,untitled,3.1.0,59.83316122450016,
418,_4,N,45,L,N,418_4N045LN,HLN,0,110,110,265,,,1.127,434.05054490000475,434.3875756000052,434.40406620001886,434.68732780002756,434.70415310002863,None,up,434.70415310002863,None,434.70415310002863,435.8196944000083,0.07149439997738227,None,2.26445119996788,,,,,,,,,28,001,2019_Dec_25_1157,untitled,3.1.0,59.83316122450016,
300,_2,M,135,L,N,300_2M135LN,HLN,0,111,111,155,,,0.841,437.04124109999975,437.38573360000737,437.40178580000065,437.6850781000103,437.70240170002216,None,up,437.70240170002216,None,437.70240170002216,438.5171507000341,0.06556179997278377,None,2.2639057000051253,,,,,,,,,28,001,2019_Dec_25_1157,untitled,3.1.0,59.83316122450016,
490,_5,M,45,L,N,490_5M045LN,HLN,0,112,112,185,,,1.369,440.0363236000412,440.38271070003975,440.39906810002867,440.6821171999909,440.6986940000206,None,down,440.6986940000206,None,440.6986940000206,442.0474695000448,0.062036999966949224,None,3.3471472000237554,,,,,,,,,28,001,2019_Dec_25_1157,untitled,3.1.0,59.83316122450016,
198,G,N,225,R,N,198GN225RN,HRN,0,113,113,229,,,0.715,444.11943310004426,444.46244450000813,444.47898870002246,444.7614856000291,444.77870810002787,None,up,444.77870810002787,None,444.77870810002787,445.47842699999455,0.06641600001603365,None,2.398864599992521,,,,,,,,,28,001,2019_Dec_25_1157,untitled,3.1.0,59.83316122450016,
193,G,N,0,R,N,193GN000RN,HRN,0,114,114,224,,,0.987,447.24995800002944,447.59318379999604,447.6096226000227,447.8938347999938,447.90931860002456,None,up,447.90931860002456,None,447.90931860002456,448.8751180000254,0.06431630003498867,None,1.6683242000290193,,,,,,,,,28,001,2019_Dec_25_1157,untitled,3.1.0,59.83316122450016,
237,G,M,180,L,N,237GM180LN,HLN,0,115,115,140,,,1.086,449.7590681000147,450.0573112000129,450.0573112000129,450.29046680004103,450.3068944000406,None,up,450.3068944000406,None,450.3068944000406,451.3727668999927,0.17300549999345094,None,2.8991269000107422,,,,,,,,,28,001,2019_Dec_25_1157,untitled,3.1.0,59.83316122450016,
485,_5,N,180,L,N,485_5N180LN,HLN,0,116,116,284,,,1.137,453.2904142999905,453.6208844000357,453.63960110000335,453.9217520999955,453.9369455000269,None,up,453.9369455000269,None,453.9369455000269,455.0527554000146,0.07692390005104244,None,2.1677554000052623,,,,,,,,,28,001,2019_Dec_25_1157,untitled,3.1.0,59.83316122450016,
175,F,M,270,L,N,175FM270LN,HLN,0,117,117,126,,,1.372,456.17460680002114,456.5182565000141,456.53494480001973,456.8182036000071,456.8349601000082,None,down,456.8349601000082,None,456.8349601000082,458.1841860000277,0.06271820003166795,None,2.7819009000086226,,,,,,,,,28,001,2019_Dec_25_1157,untitled,3.1.0,59.83316122450016,
043,R,M,90,L,N,043RM090LN,HLN,0,118,118,106,,,0.929,459.7758561000228,460.0663065999979,460.0663065999979,460.3316377000301,460.3489711000002,None,down,460.3489711000002,None,460.3489711000002,461.26366560003953,0.14719599997624755,None,3.014075899962336,,,,,,,,,28,001,2019_Dec_25_1157,untitled,3.1.0,59.83316122450016,
238,G,M,225,L,N,238GM225LN,HLN,0,119,119,141,,,0.837,463.43672160001006,463.77874380000867,463.79551170003833,464.0783255000133,464.0949820000096,None,down,464.0949820000096,None,464.0949820000096,464.91078969999216,0.06650830002035946,None,2.79994950001128,,,,,,,,,28,001,2019_Dec_25_1157,untitled,3.1.0,59.83316122450016,
_,R,N,0,_,_,_RN000__,N,0,120,120,64,,,1.356,466.988376000023,467.3090036000358,467.3253849000321,467.6090102000162,467.6254835000145,None,up,467.6254835000145,None,467.6254835000145,468.95757010002853,0.08680819999426603,None,2.298779899952933,,,,,,,,,28,001,2019_Dec_25_1157,untitled,3.1.0,59.83316122450016,
161,F,N,0,L,N,161FN000LN,HLN,0,121,121,216,,,1.364,469.9957452000235,470.3401115000015,470.35630280000623,470.64013870002236,470.6564575000084,None,up,470.6564575000084,None,470.6564575000084,472.00505440001143,0.06420570000773296,None,1.9835924000362866,,,,,,,,,28,001,2019_Dec_25_1157,untitled,3.1.0,59.83316122450016,
240,G,M,315,L,N,240GM315LN,HLN,0,122,122,143,,,0.851,472.837783200026,473.13756030000513,473.13756030000513,473.35614420002094,473.3710444000317,None,down,473.3710444000317,None,473.3710444000317,474.20235150004737,0.19046610000077635,None,2.314138100016862,,,,,,,,,28,001,2019_Dec_25_1157,untitled,3.1.0,59.83316122450016,
034,R,N,45,L,N,034RN045LN,HLN,0,123,123,201,,,0.894,475.7860082000261,476.10139140003594,476.1181383000221,476.4016434000223,476.41778080002405,None,up,476.41778080002405,None,476.41778080002405,477.30096480000066,0.09421370003838092,None,1.7515527000068687,,,,,,,,,28,001,2019_Dec_25_1157,untitled,3.1.0,59.83316122450016,
140,F,M,135,R,N,140FM135RN,HRN,0,124,124,115,,,1.335,478.2405040000449,478.5825383000192,478.5991922999965,478.88242450001417,478.89871600002516,None,down,478.89871600002516,None,478.89871600002516,480.2141656000167,0.06416979996720329,None,2.7996525000198744,,,,,,,,,28,001,2019_Dec_25_1157,untitled,3.1.0,59.83316122450016,
176,F,M,315,L,N,176FM315LN,HLN,0,125,125,127,,,0.77,481.76927240000805,482.1126955000218,482.1296635000035,482.412577900046,482.42942430003313,None,down,482.42942430003313,None,482.42942430003313,483.1784236000385,0.06433520000427961,None,1.783700099971611,,,,,,,,,28,001,2019_Dec_25_1157,untitled,3.1.0,59.83316122450016,
257,_2,N,0,R,N,257_2N000RN,HRN,0,126,126,240,,,0.98,484.2851767000393,484.6273260000162,484.6437796000391,484.9267356999917,484.9433822000283,None,up,484.9433822000283,None,484.9433822000283,485.9092001999961,0.06546140002319589,None,1.9666393999941647,,,,,,,,,28,001,2019_Dec_25_1157,untitled,3.1.0,59.83316122450016,
_,_5,N,135,_,_,__5N135__,N,0,127,127,91,,,1.18,486.979478400026,487.32722920004744,487.34159190003993,487.62594729999546,487.64138970000204,None,up,487.64138970000204,None,487.64138970000204,488.80802310002036,0.06284839997533709,None,2.8477951000095345,,,,,,,,,28,001,2019_Dec_25_1157,untitled,3.1.0,59.83316122450016,
205,G,M,180,R,N,205GM180RN,HRN,0,128,128,132,,,1.315,490.560425600037,490.9053044000175,490.92194810003275,491.2048606000026,491.22138890001224,None,up,491.22138890001224,None,491.22138890001224,492.52023310004734,0.06469819997437298,None,2.548272199986968,,,,,,,,,28,001,2019_Dec_25_1157,untitled,3.1.0,59.83316122450016,
491,_5,M,90,L,N,491_5M090LN,HLN,0,129,129,186,,,1.241,493.8584465000313,494.18519899999956,494.20184130000416,494.48515600000974,494.5018345999997,None,down,494.5018345999997,None,494.5018345999997,495.73380340001313,0.08033099997555837,None,2.650311800010968,,,,,,,,,28,001,2019_Dec_25_1157,untitled,3.1.0,59.83316122450016,
132,F,N,135,R,N,132FN135RN,HRN,0,130,130,211,,,1.111,497.22277640004177,497.5658912000363,497.5826500999974,497.86545929999556,497.8824187000282,None,up,497.8824187000282,None,497.8824187000282,498.98083240003325,0.06416379997972399,None,2.8986787000321783,,,,,,,,,28,001,2019_Dec_25_1157,untitled,3.1.0,59.83316122450016,
048,R,M,315,L,N,048RM315LN,HLN,0,131,131,111,,,1.076,500.8752727000392,501.1960828000447,501.21242009999696,501.4969845000305,501.51363659999333,None,down,501.51363659999333,None,501.51363659999333,502.5780758000328,0.08609540003817528,None,2.216722799988929,,,,,,,,,28,001,2019_Dec_25_1157,untitled,3.1.0,59.83316122450016,
013,R,M,180,R,N,013RM180RN,HRN,0,132,132,100,,,1.232,503.8147605000413,504.14348820003215,504.16007610003,504.44304770004237,504.4596935000154,None,down,504.4596935000154,None,504.4596935000154,505.675190900045,0.07627369998954237,None,2.118293499981519,,,,,,,,,28,001,2019_Dec_25_1157,untitled,3.1.0,59.83316122450016,
_,G,M,90,_,_,_GM090__,N,0,133,133,10,,,1.319,506.7184447000036,507.0077874000417,507.0077874000417,507.2907628000248,507.3076126000378,None,down,507.3076126000378,None,507.3076126000378,508.60630169999786,0.13187950005521998,None,3.0169818000285886,,,,,,,,,28,001,2019_Dec_25_1157,untitled,3.1.0,59.83316122450016,
011,R,M,90,R,N,011RM090RN,HRN,0,134,134,98,,,1.163,510.39953570003854,510.7376662000315,510.754688200017,511.03755890001776,511.05426380003337,None,down,511.05426380003337,None,511.05426380003337,512.2029585000128,0.0665339000406675,None,3.0145473000011407,,,,,,,,,28,001,2019_Dec_25_1157,untitled,3.1.0,59.83316122450016,
420,_4,N,135,L,N,420_4N135LN,HLN,0,135,135,267,,,0.742,514.1507617000025,514.4844220000086,514.502059600025,514.7846683000098,514.8015168000129,None,up,514.8015168000129,None,514.8015168000129,515.5167186000035,0.07479030004469678,None,2.3825241000158712,,,,,,,,,28,001,2019_Dec_25_1157,untitled,3.1.0,59.83316122450016,
481,_5,N,0,L,N,481_5N000LN,HLN,0,136,136,280,,,1.187,517.2568445000215,517.5983722000383,517.6153505000402,517.8988825000124,517.9149751000223,None,up,517.9149751000223,None,517.9149751000223,519.0824163000216,0.0658741999650374,None,1.9151061000302434,,,,,,,,,28,001,2019_Dec_25_1157,untitled,3.1.0,59.83316122450016,
459,_5,M,90,R,N,459_5M090RN,HRN,0,137,137,178,,,1.3840000000000001,519.9159086000291,520.2462441000389,520.2635863000178,520.5476969000301,520.5627781000221,None,down,520.5627781000221,None,520.5627781000221,521.927786300017,0.07915459998184815,None,2.7176157999783754,,,,,,,,,28,001,2019_Dec_25_1157,untitled,3.1.0,59.83316122450016,
172,F,M,135,L,N,172FM135LN,HLN,0,138,138,123,,,1.244,523.3503372000414,523.69337610004,523.7099629000295,523.9929928000201,524.009643300029,None,up,524.009643300029,None,524.009643300029,525.2421499000047,0.06295499997213483,None,2.317224600003101,,,,,,,,,28,001,2019_Dec_25_1157,untitled,3.1.0,59.83316122450016,
202,G,M,45,R,N,202GM045RN,HRN,0,139,139,129,,,1.129,526.4001907000202,526.7408847000333,526.7570475999964,527.0398949999944,527.0570116000017,None,down,527.0570116000017,None,527.0570116000017,528.1734827000182,0.06648500001756474,None,3.2308460000203922,,,,,,,,,28,001,2019_Dec_25_1157,untitled,3.1.0,59.83316122450016,
_,F,N,270,_,_,_FN270__,N,0,140,140,54,,,1.3,530.4628657000139,530.7535845999955,530.7535845999955,531.0047454000451,531.0201096000383,None,up,531.0201096000383,None,531.0201096000383,532.3024408000056,0.16752690001158044,None,2.117690399987623,,,,,,,,,28,001,2019_Dec_25_1157,untitled,3.1.0,59.83316122450016,
204,G,M,135,R,N,204GM135RN,HRN,0,141,141,131,,,1.107,533.2058657000307,533.5530240000226,533.5677493000403,533.8518322000164,533.8682366000139,None,down,533.8682366000139,None,533.8682366000139,534.9661909000133,0.06054679997032508,None,2.897183400054928,,,,,,,,,28,001,2019_Dec_25_1157,untitled,3.1.0,59.83316122450016,
227,G,N,90,L,N,227GN090LN,HLN,0,142,142,234,,,1.049,536.9293955000467,537.231191000028,537.231191000028,537.4811762000318,537.4979082000209,None,up,537.4979082000209,None,537.4979082000209,538.5306218000478,0.15694000001531094,None,1.9517295999685302,,,,,,,,,28,001,2019_Dec_25_1157,untitled,3.1.0,59.83316122450016,
_,F,M,0,_,_,_FM000__,N,0,143,143,0,,,0.726,539.6501549000386,539.945431500033,539.945431500033,540.1617808000301,540.1789036000264,None,down,540.1789036000264,None,540.1789036000264,540.8947886000387,0.1915411000372842,None,2.2481834999634884,,,,,,,,,28,001,2019_Dec_25_1157,untitled,3.1.0,59.83316122450016,
_,G,N,315,_,_,_GN315__,N,0,144,144,63,,,1.16,542.6083782000351,542.9079884000239,542.9079884000239,543.1430271000136,543.1594312000088,None,up,543.1594312000088,None,543.1594312000088,544.3084232000401,0.17252110003028065,None,2.1509062999975868,,,,,,,,,28,001,2019_Dec_25_1157,untitled,3.1.0,59.83316122450016,
035,R,N,90,L,N,035RN090LN,HLN,0,145,145,202,,,0.927,545.3826745999977,545.7241150999907,545.7403473000159,546.023671300034,546.0401582000195,None,up,546.0401582000195,None,546.0401582000195,546.9560528000002,0.06551690003834665,None,2.049313399998937,,,,,,,,,28,001,2019_Dec_25_1157,untitled,3.1.0,59.83316122450016,
428,_4,M,135,L,N,428_4M135LN,HLN,0,146,146,171,,,0.864,548.1779428000445,548.5047234999947,548.5216519000242,548.8043589000008,548.8213466000161,None,up,548.8213466000161,None,548.8213466000161,549.6705059999949,0.08179009996820241,None,2.248112500004936,,,,,,,,,28,001,2019_Dec_25_1157,untitled,3.1.0,59.83316122450016,
395,_4,M,90,R,N,395_4M090RN,HRN,0,147,147,162,,,1.044,551.1437514999998,551.4854483000236,551.5024608999956,551.7849806000013,551.8021108999965,None,down,551.8021108999965,None,551.8021108999965,552.8342696000473,0.0670918999821879,None,3.2641553999856114,,,,,,,,,28,001,2019_Dec_25_1157,untitled,3.1.0,59.83316122450016,
228,G,N,135,L,N,228GN135LN,HLN,0,148,148,235,,,1.129,555.1371686999919,555.4822101000464,555.4996451000334,555.7826963000116,555.799449800048,None,up,555.799449800048,None,555.799449800048,556.914067100035,0.06306849996326491,None,2.116534800035879,,,,,,,,,28,001,2019_Dec_25_1157,untitled,3.1.0,59.83316122450016,
_,R,M,180,_,_,_RM180__,N,0,149,149,20,,,1.2570000000000001,557.9880263000377,558.3294118000194,558.3473919000244,558.6296878000139,558.6464703000383,None,up,558.6464703000383,None,558.6464703000383,559.8963541000267,0.06534879998071119,None,2.231832499965094,,,,,,,,,28,001,2019_Dec_25_1157,untitled,3.1.0,59.83316122450016,
135,F,N,270,R,N,135FN270RN,HRN,0,150,150,214,,,0.766,560.9526175000356,561.2936502000084,561.3104172000312,561.593600000022,561.6102354000323,None,up,561.6102354000323,None,561.6102354000323,562.3602348000277,0.0665828000055626,None,1.9013042000005953,,,,,,,,,28,001,2019_Dec_25_1157,untitled,3.1.0,59.83316122450016,
269,_2,M,180,R,N,269_2M180RN,HRN,0,151,151,148,,,0.746,563.5840749000199,563.9246483000461,563.9419377000304,564.2243190000299,564.2409449000261,None,down,564.2409449000261,None,564.2409449000261,564.9740445000352,0.06571970001095906,None,2.599726999993436,,,,,,,,,28,001,2019_Dec_25_1157,untitled,3.1.0,59.83316122450016,
289,_2,N,0,L,N,289_2N000LN,HLN,0,152,152,248,,,1.214,566.9127663000254,567.2550218999968,567.2718009999953,567.5551722000237,567.5719030000037,None,up,567.5719030000037,None,567.5719030000037,568.7702340999967,0.06478419998893514,None,2.284267099981662,,,,,,,,,28,001,2019_Dec_25_1157,untitled,3.1.0,59.83316122450016,
137,F,M,0,R,N,137FM000RN,HRN,0,153,153,112,,,0.858,569.9299349000212,570.2692583000171,570.2859423999907,570.5694975000224,570.5858512000414,None,down,570.5858512000414,None,570.5858512000414,571.4349922999972,0.06682419998105615,None,1.8171167999971658,,,,,,,,,28,001,2019_Dec_25_1157,untitled,3.1.0,59.83316122450016,
461,_5,M,180,R,N,461_5M180RN,HRN,0,154,154,180,,,0.85,572.475077900046,572.8168140000198,572.8333251000149,573.1168493000441,573.1333321999991,None,up,573.1333321999991,None,573.1333321999991,573.9655425000237,0.06508630001917481,None,2.6643306000041775,,,,,,,,,28,001,2019_Dec_25_1157,untitled,3.1.0,59.83316122450016,
457,_5,M,0,R,N,457_5M000RN,HRN,0,155,155,176,,,0.961,575.8776273000403,576.2139569999999,576.2303914999939,576.5134090000065,576.5308037000359,None,None,576.5308037000359,None,576.5308037000359,577.48040520004,0.07292930001858622,None,,,,,,,,,,28,001,2019_Dec_25_1157,untitled,3.1.0,59.83316122450016,
_,_2,M,0,_,_,__2M000__,N,0,156,156,24,,,0.985,580.1463634000393,580.4440855000285,580.4440855000285,580.7102376000257,580.7267216000473,580.1463634000393,down,580.7267216000473,None,580.7267216000473,581.6923689999967,0.14521260000765324,None,2.9479393999790773,,,,,,,,,28,001,2019_Dec_25_1157,untitled,3.1.0,59.83316122450016,
_,F,N,135,_,_,_FN135__,N,0,157,157,51,,,1.323,583.8547968000057,584.1427908000187,584.1427908000187,584.3916533000302,584.4075509000104,None,up,584.4075509000104,None,584.4075509000104,585.7061418000376,0.1703552000108175,None,2.2488829000503756,,,,,,,,,28,001,2019_Dec_25_1157,untitled,3.1.0,59.83316122450016,
261,_2,N,180,R,N,261_2N180RN,HRN,0,158,158,244,,,1.057,586.8314610000234,587.1213946000207,587.1213946000207,587.3705704000313,587.388427500031,None,up,587.388427500031,None,587.388427500031,588.4200121000176,0.16852639999706298,None,1.864920100022573,,,,,,,,,28,001,2019_Dec_25_1157,untitled,3.1.0,59.83316122450016,
_,R,M,90,_,_,_RM090__,N,0,159,159,18,,,0.888,589.3249948000303,589.6688709000009,589.6857456000289,589.9683591999928,589.9852135000401,None,down,589.9852135000401,None,589.9852135000401,590.8509004000225,0.06522300001233816,None,2.5820252999546938,,,,,,,,,28,001,2019_Dec_25_1157,untitled,3.1.0,59.83316122450016,
_,_2,N,315,_,_,__2N315__,N,0,160,160,79,,,0.8150000000000001,592.658489399997,592.9834042000002,592.9997155000456,593.2826321000466,593.2994222000125,None,up,593.2994222000125,None,593.2994222000125,594.0986149000237,0.08146810001926497,None,2.3507877999800257,,,,,,,,,28,001,2019_Dec_25_1157,untitled,3.1.0,59.83316122450016,
143,F,M,270,R,N,143FM270RN,HRN,0,161,161,118,,,1.174,595.7391387000098,596.0641803000472,596.0800389000215,596.3636140000308,596.3799292000476,None,down,596.3799292000476,None,596.3799292000476,597.5452354000299,0.07941040000878274,None,2.1651132999686524,,,,,,,,,28,001,2019_Dec_25_1157,untitled,3.1.0,59.83316122450016,
047,R,M,270,L,N,047RM270LN,HLN,0,162,162,110,,,0.997,598.6283616000437,598.9609525999986,598.9780647000298,599.2606784999953,599.2772170000244,None,down,599.2772170000244,None,599.2772170000244,600.2595917000435,0.07382769999094307,None,3.381384900014382,,,,,,,,,28,001,2019_Dec_25_1157,untitled,3.1.0,59.83316122450016,
166,F,N,225,L,N,166FN225LN,HLN,0,163,163,221,,,0.931,602.8175014000153,603.1078519000439,603.1078519000439,603.373848200019,603.3902418999933,None,up,603.3902418999933,None,603.3902418999933,604.3065342000336,0.1521799000329338,None,2.783266599988565,,,,,,,,,28,001,2019_Dec_25_1157,untitled,3.1.0,59.83316122450016,
393,_4,M,0,R,N,393_4M000RN,HRN,0,164,164,160,,,0.965,606.2656335000065,606.587603299995,606.6058144000126,606.8888381000143,606.9040270000114,None,down,606.9040270000114,None,606.9040270000114,607.8532669999986,0.08333650004351512,None,2.2829010999994352,,,,,,,,,28,001,2019_Dec_25_1157,untitled,3.1.0,59.83316122450016,
008,R,N,315,R,N,008RN315RN,HRN,0,165,165,199,,,0.803,609.2580246000434,609.6018145999988,609.6182701000362,609.9025176000432,609.9202866000123,None,up,609.9202866000123,None,609.9202866000123,610.7011371999979,0.06421699997736141,None,1.5467303000041284,,,,,,,,,28,001,2019_Dec_25_1157,untitled,3.1.0,59.83316122450016,
042,R,M,45,L,N,042RM045LN,HLN,0,166,166,105,,,1.167,611.5376629999955,611.8833819000283,611.899897700001,612.1840789000271,612.1992682000273,None,down,612.1992682000273,None,612.1992682000273,613.3482469000155,0.06418960000155494,None,2.017329599999357,,,,,,,,,28,001,2019_Dec_25_1157,untitled,3.1.0,59.83316122450016,
_,G,N,180,_,_,_GN180__,N,0,167,167,60,,,1.375,614.4484223000472,614.747219300014,614.747219300014,614.9306915000197,614.9473552000127,None,up,614.9473552000127,None,614.9473552000127,616.3131888000062,0.2248632999835536,None,2.9479486999916844,,,,,,,,,28,001,2019_Dec_25_1157,untitled,3.1.0,59.83316122450016,
231,G,N,270,L,N,231GN270LN,HLN,0,168,168,238,,,1.274,617.9729521000409,618.3110873000114,618.3293216000311,618.610520599992,618.62689710001,None,up,618.62689710001,None,618.62689710001,619.876345800003,0.07079010002780706,None,2.0652593999984674,,,,,,,,,28,001,2019_Dec_25_1157,untitled,3.1.0,59.83316122450016,
_,R,N,90,_,_,_RN090__,N,0,169,169,66,,,0.9510000000000001,620.7869669999927,621.1081919000135,621.1259560000035,621.4085159000242,621.4248145000311,None,up,621.4248145000311,None,621.4248145000311,622.3570420000469,0.08795519999694079,None,2.6509563000290655,,,,,,,,,28,001,2019_Dec_25_1157,untitled,3.1.0,59.83316122450016,
197,G,N,180,R,N,197GN180RN,HRN,0,170,170,228,,,0.727,624.1485076000099,624.4885536000365,624.5054895000067,624.7887361000176,624.8051700000069,None,None,624.8051700000069,None,624.8051700000069,625.521519300004,0.06582449999405071,None,,,,,,,,,,28,001,2019_Dec_25_1157,untitled,3.1.0,59.83316122450016,
400,_4,M,315,R,N,400_4M315RN,HRN,0,171,171,167,,,1.162,628.3421886000433,628.6852284999914,628.7015795999905,628.9857249000343,629.0011612999951,628.3421886000433,down,629.0011612999951,None,629.0011612999951,630.150016300031,0.06551970000145957,None,2.7148099999758415,,,,,,,,,28,001,2019_Dec_25_1157,untitled,3.1.0,59.83316122450016,
174,F,M,225,L,N,174FM225LN,HLN,0,172,172,125,,,0.719,631.7865997999907,632.1321026000078,632.1488994000247,632.4323889000225,632.4485706000123,None,down,632.4485706000123,None,632.4485706000123,633.1478437000187,0.06311089999508113,None,2.831030200002715,,,,,,,,,28,001,2019_Dec_25_1157,untitled,3.1.0,59.83316122450016,
293,_2,N,180,L,N,293_2N180LN,HLN,0,173,173,252,,,1.295,635.3565120000276,635.6953595000086,635.7116950000054,635.9960300000384,636.0118709999952,None,up,636.0118709999952,None,636.0118709999952,637.2942375999992,0.0695306999841705,None,2.947604599990882,,,,,,,,,28,001,2019_Dec_25_1157,untitled,3.1.0,59.83316122450016,
_,G,M,270,_,_,_GM270__,N,0,174,174,14,,,1.079,639.030261100037,639.3759905000334,639.3923454000033,639.6756147000124,639.6922795000137,None,down,639.6922795000137,None,639.6922795000137,640.75742790004,0.0635037999600172,None,2.4487353999866173,,,,,,,,,28,001,2019_Dec_25_1157,untitled,3.1.0,59.83316122450016,
_,R,N,315,_,_,_RN315__,N,0,175,175,71,,,1.3800000000000001,642.2092845000443,642.5565130000468,642.5732736000209,642.8560352000059,642.8728657000465,None,up,642.8728657000465,None,642.8728657000465,644.238196899998,0.06060189998243004,None,2.216488100006245,,,,,,,,,28,001,2019_Dec_25_1157,untitled,3.1.0,59.83316122450016,
_,_2,N,225,_,_,__2N225__,N,0,176,176,77,,,1.1,645.1598984000157,645.5040234000189,645.5206963000237,645.8039534999989,645.8207167999935,None,up,645.8207167999935,None,645.8207167999935,646.9023032000405,0.06387449998874217,None,2.0340253000031225,,,,,,,,,28,001,2019_Dec_25_1157,untitled,3.1.0,59.83316122450016,
001,R,N,0,R,N,001RN000RN,HRN,0,177,177,192,,,0.728,648.0301588000148,648.3184878000175,648.3184878000175,648.5676690000109,648.585011200048,None,up,648.585011200048,None,648.585011200048,649.3003162000095,0.16649589996086434,None,1.5496468999772333,,,,,,,,,28,001,2019_Dec_25_1157,untitled,3.1.0,59.83316122450016,
_,G,N,225,_,_,_GN225__,N,0,178,178,61,,,0.914,650.3075971000362,650.5991958000232,650.5991958000232,650.849113800039,650.8655180000351,None,down,650.8655180000351,None,650.8655180000351,651.7648371999967,0.16589040000690147,None,2.6813495999667794,,,,,,,,,28,001,2019_Dec_25_1157,untitled,3.1.0,59.83316122450016,
230,G,N,225,L,N,230GN225LN,HLN,0,179,179,237,,,0.884,653.6300427000388,653.9631489000167,653.9794955000398,654.2624164000154,654.2797162000206,None,down,654.2797162000206,None,654.2797162000206,655.1451691000257,0.07566830003634095,None,2.2008298000437208,,,,,,,,,28,001,2019_Dec_25_1157,untitled,3.1.0,59.83316122450016,
_,_4,M,225,_,_,__4M225__,N,0,180,180,37,,,1.33,656.5490007000044,656.8933864000137,656.9118564000237,657.1935341000208,657.2100810999982,None,up,657.2100810999982,None,657.2100810999982,658.5255882000201,0.061644200002774596,None,3.0151547999703325,,,,,,,,,28,001,2019_Dec_25_1157,untitled,3.1.0,59.83316122450016,
167,F,N,270,L,N,167FN270LN,HLN,0,181,181,222,,,0.872,660.305989800021,660.6420889000292,660.6570655000396,660.940384800022,660.9568829000345,None,up,660.9568829000345,None,660.9568829000345,661.8061508000246,0.07278829999268055,None,1.915546300006099,,,,,,,,,28,001,2019_Dec_25_1157,untitled,3.1.0,59.83316122450016,
_,_5,M,270,_,_,__5M270__,N,0,182,182,46,,,0.785,662.9600285000051,663.2883127999958,663.3049685000442,663.588124700007,663.6049271000084,None,down,663.6049271000084,None,663.6049271000084,664.3708961000084,0.08102420001523569,None,2.233673299953807,,,,,,,,,28,001,2019_Dec_25_1157,untitled,3.1.0,59.83316122450016,
_,F,M,135,_,_,_FM135__,N,0,183,183,3,,,0.915,666.0293238000013,666.3189079000149,666.3189079000149,666.5522215000237,666.5688402000233,None,down,666.5688402000233,None,666.5688402000233,667.4685002000188,0.18364140001358464,None,2.550068399985321,,,,,,,,,28,001,2019_Dec_25_1157,untitled,3.1.0,59.83316122450016,
495,_5,M,270,L,N,495_5M270LN,HLN,0,184,184,190,,,1.0130000000000001,669.2120951000252,669.5329670000356,669.549187000026,669.8321989999968,669.8489294000319,None,down,669.8489294000319,None,669.8489294000319,670.848161300004,0.08635130000766367,None,2.117575599986594,,,,,,,,,28,001,2019_Dec_25_1157,untitled,3.1.0,59.83316122450016,
424,_4,N,315,L,N,424_4N315LN,HLN,0,185,185,271,,,0.78,672.0564900000463,672.3802721000393,672.3969946000143,672.6803429000429,672.6968154000351,None,up,672.6968154000351,None,672.6968154000351,673.4626675000181,0.08168260002275929,None,1.9148598000174388,,,,,,,,,28,001,2019_Dec_25_1157,untitled,3.1.0,59.83316122450016,
163,F,N,90,L,N,163FN090LN,HLN,0,186,186,218,,,0.912,674.8021484999917,675.0942327000084,675.0942327000084,675.3297463000054,675.3445424000383,None,up,675.3445424000383,None,675.3445424000383,676.244070100016,0.1807540999725461,None,1.7658570999628864,,,,,,,,,28,001,2019_Dec_25_1157,untitled,3.1.0,59.83316122450016,
016,R,M,315,R,N,016RM315RN,HRN,0,187,187,103,,,1.064,677.1899682999938,677.5257718000212,677.5423358000116,677.8261780000175,677.8423898000037,None,down,677.8423898000037,None,677.8423898000037,678.8912232000148,0.07233460003044456,None,1.881654700031504,,,,,,,,,28,001,2019_Dec_25_1157,untitled,3.1.0,59.83316122450016,
_,_2,N,0,_,_,__2N000__,N,0,188,188,72,,,0.747,679.7945225000149,680.1402900000103,680.156891199993,680.4398363000364,680.4567618000438,None,up,680.4567618000438,None,680.4567618000438,681.1891364000039,0.0638650999753736,None,1.417895500024315,,,,,,,,,28,001,2019_Dec_25_1157,untitled,3.1.0,59.83316122450016,
_,_2,M,180,_,_,__2M180__,N,0,189,189,28,,,1.307,681.9549665999948,682.2884456000174,682.3051705000107,682.5884358000476,682.6050399999949,None,up,682.6050399999949,None,682.6050399999949,683.9042039000196,0.07302230002824217,None,3.033031700004358,,,,,,,,,28,001,2019_Dec_25_1157,untitled,3.1.0,59.83316122450016,
_,R,N,180,_,_,_RN180__,N,0,190,190,68,,,1.057,685.7404681000044,686.0525031000143,686.068494600011,686.351647500007,686.3683053000132,None,up,686.3683053000132,None,686.3683053000132,687.4170920000179,0.09518900001421571,None,2.8822101000114344,,,,,,,,,28,001,2019_Dec_25_1157,untitled,3.1.0,59.83316122450016,
_,_4,M,90,_,_,__4M090__,N,0,191,191,34,,,1.321,689.3218064000248,689.6652659000247,689.6819899000111,689.9651284000138,689.9815116000245,None,up,689.9815116000245,None,689.9815116000245,691.2805735000293,0.06480690004536882,None,2.7816871000104584,,,,,,,,,28,001,2019_Dec_25_1157,untitled,3.1.0,59.83316122450016,
_,_5,M,180,_,_,__5M180__,N,0,192,192,44,,,1.192,692.934203700046,693.2289059000323,693.2289059000323,693.4806456000078,693.4955922000227,None,None,693.4955922000227,None,693.4955922000227,694.6608676000033,0.16409490001387894,None,,,,,,,,,,28,001,2019_Dec_25_1157,untitled,3.1.0,59.83316122450016,
450,_5,N,45,R,N,450_5N045RN,HRN,0,193,193,273,,,1.337,697.0511040000129,697.375772600004,697.3922315000091,697.675534500042,697.6920456000371,697.0511040000129,up,697.6920456000371,None,697.6920456000371,699.0070083000464,0.08431710000149906,None,2.2160677000065334,,,,,,,,,28,001,2019_Dec_25_1157,untitled,3.1.0,59.83316122450016,
432,_4,M,315,L,N,432_4M315LN,HLN,0,194,194,175,,,1.149,699.9793678999995,700.3225083000143,700.3395784000168,700.6224574000225,700.6392420000047,None,down,700.6392420000047,None,700.6392420000047,701.771161200013,0.06459610001184046,None,2.216713100031484,,,,,,,,,28,001,2019_Dec_25_1157,untitled,3.1.0,59.83316122450016,
294,_2,N,225,L,N,294_2N225LN,HLN,0,195,195,253,,,0.709,702.9265986999962,703.2699379000114,703.287173699995,703.5696375000407,703.5872822999954,None,up,703.5872822999954,None,703.5872822999954,704.2859777000267,0.06388790003256872,None,1.997859700000845,,,,,,,,,28,001,2019_Dec_25_1157,untitled,3.1.0,59.83316122450016,
171,F,M,90,L,N,171FM090LN,HLN,0,196,196,122,,,1.28,705.6844620000338,706.0009872000082,706.0193421000149,706.3017221000046,706.3172866000095,None,up,706.3172866000095,None,706.3172866000095,707.5831285000313,0.09031450003385544,None,2.4344110999954864,,,,,,,,,28,001,2019_Dec_25_1157,untitled,3.1.0,59.83316122450016,
_,R,M,315,_,_,_RM315__,N,0,197,197,23,,,1.218,708.8198928000056,709.1648070000228,709.1812319000019,709.4644905000459,709.4810243000393,None,down,709.4810243000393,None,709.4810243000393,710.6799530000426,0.061659300001338124,None,2.2674285999964923,,,,,,,,,28,001,2019_Dec_25_1157,untitled,3.1.0,59.83316122450016,
390,_4,N,225,R,N,390_4N225RN,HRN,0,198,198,261,,,1.352,711.8360400000238,712.1622822000063,712.178971300018,712.4621943000238,712.478522200021,None,up,712.478522200021,None,712.478522200021,713.8107358000125,0.0792001000372693,None,2.11551569995936,,,,,,,,,28,001,2019_Dec_25_1157,untitled,3.1.0,59.83316122450016,
033,R,N,0,L,N,033RN000LN,HLN,0,199,199,200,,,1.327,714.7795129000442,715.0773456000024,715.0773456000024,715.3106484000455,715.3268607000355,None,up,715.3268607000355,None,715.3268607000355,716.6411434000474,0.17816920002223924,None,2.032884699990973,,,,,,,,,28,001,2019_Dec_25_1157,untitled,3.1.0,59.83316122450016,
265,_2,M,0,R,N,265_2M000RN,HRN,0,200,200,144,,,0.994,717.4504705000436,717.7741409000009,717.7907566000358,718.0739085000241,718.0899916000199,None,down,718.0899916000199,None,718.0899916000199,719.0731633999967,0.08191119995899498,None,2.398933599994052,,,,,,,,,28,001,2019_Dec_25_1157,untitled,3.1.0,59.83316122450016,
_,_4,N,135,_,_,__4N135__,N,0,201,201,83,,,0.843,720.5607652000035,720.9044455999974,720.9206048999913,721.2045837000478,721.2214389000437,None,up,721.2214389000437,None,721.2214389000437,722.0532124000019,0.06503060000250116,None,2.231423400051426,,,,,,,,,28,001,2019_Dec_25_1157,untitled,3.1.0,59.83316122450016,
_,_5,N,0,_,_,__5N000__,N,0,202,202,88,,,0.721,723.6205637000385,723.9183915000176,723.9183915000176,724.168515300029,724.186148800014,None,up,724.186148800014,None,724.186148800014,724.8848511000397,0.16028489999007434,None,1.4171293000108562,,,,,,,,,28,001,2019_Dec_25_1157,untitled,3.1.0,59.83316122450016,
267,_2,M,90,R,N,267_2M090RN,HRN,0,203,203,146,,,1.234,725.6779341000365,726.016983700043,726.0342937000096,726.3165003000177,726.332815700036,None,down,726.332815700036,None,726.332815700036,727.5483414000482,0.06811649998417124,None,2.3997210999950767,,,,,,,,,28,001,2019_Dec_25_1157,untitled,3.1.0,59.83316122450016,
262,_2,N,225,R,N,262_2N225RN,HRN,0,204,204,245,,,1.319,728.8031611000188,729.1474705000292,729.1644577000407,729.4476133999997,729.4640750000253,None,up,729.4640750000253,None,729.4640750000253,730.762567400001,0.06324709998443723,None,2.149546400003601,,,,,,,,,28,001,2019_Dec_25_1157,untitled,3.1.0,59.83316122450016,
229,G,N,180,L,N,229GN180LN,HLN,0,205,205,236,,,0.767,731.6905198000022,732.028499100008,732.0449813000159,732.3277889000019,732.3444271000335,None,up,732.3444271000335,None,732.3444271000335,733.0940326999989,0.0693005999783054,None,2.668060299998615,,,,,,,,,28,001,2019_Dec_25_1157,untitled,3.1.0,59.83316122450016,
266,_2,M,45,R,N,266_2M045RN,HRN,0,206,206,145,,,1.239,735.1173808000167,735.425630200014,735.4419461000361,735.7250825000228,735.7415305000031,None,None,735.7415305000031,None,735.7415305000031,736.9740764000453,0.09557750000385568,None,,,,,,,,,,28,001,2019_Dec_25_1157,untitled,3.1.0,59.83316122450016,
399,_4,M,270,R,N,399_4M270RN,HRN,0,207,207,166,,,1.093,739.2770769000053,739.6222094999976,739.6387678000028,739.9211022999953,739.9385704000015,739.2770769000053,down,739.9385704000015,None,739.9385704000015,741.0037037000293,0.06525909999618307,None,2.4340500000398606,,,,,,,,,28,001,2019_Dec_25_1157,untitled,3.1.0,59.83316122450016,
297,_2,M,0,L,N,297_2M000LN,HLN,0,208,208,152,,,1.047,742.4443702000426,742.7858541000169,742.8023325999966,743.0855268000159,743.1022580999997,None,down,743.1022580999997,None,743.1022580999997,744.1343151000328,0.06493500003125519,None,2.5320477999630384,,,,,,,,,28,001,2019_Dec_25_1157,untitled,3.1.0,59.83316122450016,
164,F,N,135,L,N,164FN135LN,HLN,0,209,209,219,,,0.924,745.7094231999945,746.0497419000021,746.0658987000352,746.3508405000321,746.3668514000019,None,up,746.3668514000019,None,746.3668514000019,747.2647220999934,0.06802929996047169,None,2.0662707000155933,,,,,,,,,28,001,2019_Dec_25_1157,untitled,3.1.0,59.83316122450016,
391,_4,N,270,R,N,391_4N270RN,HRN,0,210,210,262,,,1.383,748.5255096000037,748.8468675000477,748.8640945000225,749.146569500037,749.1633520000032,None,up,749.1633520000032,None,749.1633520000032,750.5287469000323,0.0836233000154607,None,2.402567899960559,,,,,,,,,28,001,2019_Dec_25_1157,untitled,3.1.0,59.83316122450016,
_,_2,N,135,_,_,__2N135__,N,0,211,211,75,,,1.2510000000000001,751.6700536000426,751.977868499991,751.9940521999961,752.2783750999952,752.2938670000294,None,up,752.2938670000294,None,752.2938670000294,753.5263354000053,0.09361930005252361,None,2.664672899991274,,,,,,,,,28,001,2019_Dec_25_1157,untitled,3.1.0,59.83316122450016,
208,G,M,315,R,N,208GM315RN,HRN,0,212,212,135,,,0.936,755.047956400027,755.3751517999917,755.3909427000326,755.6744648000458,755.6911203000345,None,down,755.6911203000345,None,755.6911203000345,756.6065271000261,0.0829776999889873,None,2.634078999981284,,,,,,,,,28,001,2019_Dec_25_1157,untitled,3.1.0,59.83316122450016,
_,F,M,225,_,_,_FM225__,N,0,213,213,5,,,0.8310000000000001,758.514369200042,758.8051979000447,758.8051979000447,759.0382915000082,759.054591400025,None,up,759.054591400025,None,759.054591400025,759.8706345999963,0.1796833000262268,None,2.850597699987702,,,,,,,,,28,001,2019_Dec_25_1157,untitled,3.1.0,59.83316122450016,
_,_5,N,270,_,_,__5N270__,N,0,214,214,94,,,0.916,761.9769924000138,762.3186436000396,762.3355088999961,762.6184731000103,762.635595300002,None,up,762.635595300002,None,762.635595300002,763.5351742000203,0.06521649996284395,None,1.8992059999727644,,,,,,,,,28,001,2019_Dec_25_1157,untitled,3.1.0,59.83316122450016,
203,G,M,90,R,N,203GM090RN,HRN,0,215,215,130,,,1.11,764.7051545000286,765.0002332000295,765.0002332000295,765.2491718000383,765.2666706000455,None,down,765.2666706000455,None,765.2666706000455,766.3650342000183,0.1598418999928981,None,2.5808571000234224,,,,,,,,,28,001,2019_Dec_25_1157,untitled,3.1.0,59.83316122450016,
_,_2,N,90,_,_,__2N090__,N,0,216,216,74,,,0.862,767.9341827000026,768.2632254000055,768.280539600004,768.563047600037,768.5799358999939,None,up,768.5799358999939,None,768.5799358999939,769.4289438000415,0.07852749997982755,None,1.7336050000158139,,,,,,,,,28,001,2019_Dec_25_1157,untitled,3.1.0,59.83316122450016,
422,_4,N,225,L,N,422_4N225LN,HLN,0,217,217,269,,,1.1480000000000001,770.3896895000362,770.72818070004,770.7444906000164,771.0285037000431,771.0441733000334,None,up,771.0441733000334,None,771.0441733000334,772.1768854000256,0.06822590000228956,None,2.316248400020413,,,,,,,,,28,001,2019_Dec_25_1157,untitled,3.1.0,59.83316122450016,
397,_4,M,180,R,N,397_4M180RN,HRN,0,218,218,164,,,0.9550000000000001,773.432399900048,773.7753040000098,773.7920883999905,774.0752734999987,774.091746399994,None,up,774.091746399994,None,774.091746399994,775.0241834000335,0.06507359998067841,None,2.131781200005207,,,,,,,,,28,001,2019_Dec_25_1157,untitled,3.1.0,59.83316122450016,
426,_4,M,45,L,N,426_4M045LN,HLN,0,219,219,169,,,0.806,776.3005752000026,776.6397322000121,776.6567833000445,776.9403068000101,776.9557196000242,None,down,776.9557196000242,None,776.9557196000242,777.7383042000001,0.07028879999415949,None,2.7324350000126287,,,,,,,,,28,001,2019_Dec_25_1157,untitled,3.1.0,59.83316122450016,
233,G,M,0,L,N,233GM000LN,HLN,0,220,220,136,,,1.299,779.7867260000203,780.1030236000079,780.1200757999904,780.4029011999955,780.4197039999999,None,up,780.4197039999999,None,780.4197039999999,781.7015559000429,0.09136670001316816,None,2.631298299995251,,,,,,,,,28,001,2019_Dec_25_1157,untitled,3.1.0,59.83316122450016,
012,R,M,135,R,N,012RM135RN,HRN,0,221,221,99,,,1.2730000000000001,783.1420964000281,783.4670006000088,783.4837075000396,783.7667823000229,783.7834402000299,None,up,783.7834402000299,None,783.7834402000299,785.0320250000223,0.08252160000847653,None,3.114467000006698,,,,,,,,,28,001,2019_Dec_25_1157,untitled,3.1.0,59.83316122450016,
_,F,M,270,_,_,_FM270__,N,0,222,222,6,,,0.755,787.0737369999988,787.3631948000402,787.3631948000402,787.6130990000092,787.6296536000445,None,down,787.6296536000445,None,787.6296536000445,788.3624616000452,0.16826069995295256,None,2.566225500020664,,,,,,,,,28,001,2019_Dec_25_1157,untitled,3.1.0,59.83316122450016,
264,_2,N,315,R,N,264_2N315RN,HRN,0,223,223,247,,,1.268,790.2790842000395,790.610922300024,790.6290811999934,790.9104671000387,790.9272222000291,None,up,790.9272222000291,None,790.9272222000291,792.1751257000142,0.07521860004635528,None,2.514178399986122,,,,,,,,,28,001,2019_Dec_25_1157,untitled,3.1.0,59.83316122450016,
_,_5,M,315,_,_,__5M315__,N,0,224,224,47,,,0.838,793.6384266000241,793.9256581999944,793.9256581999944,794.1574687000248,794.1574687000248,None,down,794.1574687000248,None,794.1574687000248,794.9902976000449,0.18848289997549728,None,2.3156935999868438,,,,,,,,,28,001,2019_Dec_25_1157,untitled,3.1.0,59.83316122450016,
_,_4,N,0,_,_,__4N000__,N,0,225,225,80,,,1.205,796.5438950000098,796.8904863999924,796.9052761000348,797.188314900035,797.204899400007,None,up,797.204899400007,None,797.204899400007,798.3872771000024,0.06311580003239214,None,1.934069200011436,,,,,,,,,28,001,2019_Dec_25_1157,untitled,3.1.0,59.83316122450016,
484,_5,N,135,L,N,484_5N135LN,HLN,0,226,226,283,,,1.062,799.2100037999917,799.552915200009,799.5696333000087,799.8523349000025,799.8690138999955,None,up,799.8690138999955,None,799.8690138999955,800.9182770000189,0.06445030000759289,None,2.532466399949044,,,,,,,,,28,001,2019_Dec_25_1157,untitled,3.1.0,59.83316122450016,
451,_5,N,90,R,N,451_5N090RN,HRN,0,227,227,274,,,1.025,802.4907615000266,802.8167647999944,802.8329692000407,803.1159449000261,803.1328816000023,None,up,803.1328816000023,None,803.1328816000023,804.1487603000132,0.08067009999649599,None,1.598928099963814,,,,,,,,,28,001,2019_Dec_25_1157,untitled,3.1.0,59.83316122450016,
005,R,N,180,R,N,005RN180RN,HRN,0,228,228,196,,,0.743,804.8045641999925,805.1481574000209,805.1647973000072,805.447859900014,805.464676500007,None,up,805.464676500007,None,805.464676500007,806.1804011000204,0.06570440001087263,None,1.5851835000212304,,,,,,,,,28,001,2019_Dec_25_1157,untitled,3.1.0,59.83316122450016,
_,_2,M,315,_,_,__2M315__,N,0,229,229,31,,,0.795,807.2128934999928,807.5125515999971,807.5125515999971,807.7622164000059,807.7791920000454,None,down,807.7791920000454,None,807.7791920000454,808.562894200033,0.15425070002675056,None,2.3329933999921195,,,,,,,,,28,001,2019_Dec_25_1157,untitled,3.1.0,59.83316122450016,
_,_4,M,270,_,_,__4M270__,N,0,230,230,38,,,1.166,810.1832169000409,810.5266234000446,810.5443592999945,810.8264686000184,810.8431854000082,None,up,810.8431854000082,None,810.8431854000082,811.9922253999976,0.06414619996212423,None,2.948684200004209,,,,,,,,,28,001,2019_Dec_25_1157,untitled,3.1.0,59.83316122450016,
_,R,M,0,_,_,_RM000__,N,0,231,231,16,,,0.85,813.9628171999939,814.2565955000464,814.2565955000464,814.5066571999923,814.5232629000093,None,down,814.5232629000093,None,814.5232629000093,815.3556084000156,0.1603124999674037,None,2.764471800008323,,,,,,,,,28,001,2019_Dec_25_1157,untitled,3.1.0,59.83316122450016,
165,F,N,180,L,N,165FN180LN,HLN,0,232,232,220,,,0.782,817.3648723000078,817.7034553000121,817.7203207000275,818.0032219000277,818.0199486000347,None,up,818.0199486000347,None,818.0199486000347,818.7867458999972,0.0701932999654673,None,2.7148868999793194,,,,,,,,,28,001,2019_Dec_25_1157,untitled,3.1.0,59.83316122450016,
_,_4,N,90,_,_,__4N090__,N,0,233,233,82,,,1.188,820.8052796000266,821.1505130000296,821.1677490000147,821.4504543000367,821.4678091999958,None,up,821.4678091999958,None,821.4678091999958,822.6329850000329,0.06390559999272227,None,2.1831419999944046,,,,,,,,,28,001,2019_Dec_25_1157,untitled,3.1.0,59.83316122450016,
483,_5,N,90,L,N,483_5N090LN,HLN,0,234,234,282,,,1.16,823.745932299993,824.0655625000363,824.0816165000433,824.3643171000294,824.3809599000379,None,up,824.3809599000379,None,824.3809599000379,825.5303304000408,0.0863586999475956,None,1.7328659999766387,,,,,,,,,28,001,2019_Dec_25_1157,untitled,3.1.0,59.83316122450016,
456,_5,N,315,R,N,456_5N315RN,HRN,0,235,235,279,,,1.389,826.1902848000173,826.5300656000036,826.5458080000244,826.8291473000427,826.8455824000412,None,up,826.8455824000412,None,826.8455824000412,828.2110564000322,0.06966799998190254,None,2.049109000014141,,,,,,,,,28,001,2019_Dec_25_1157,untitled,3.1.0,59.83316122450016,
_,R,M,45,_,_,_RM045__,N,0,236,236,17,,,0.758,828.9656678000465,829.3103556000278,829.3271685999935,829.6102033000207,829.6265453000087,None,up,829.6265453000087,None,829.6265453000087,830.3590091000078,0.06344739999622107,None,1.8331465999945067,,,,,,,,,28,001,2019_Dec_25_1157,untitled,3.1.0,59.83316122450016,
270,_2,M,225,R,N,270_2M225RN,HRN,0,237,237,149,,,0.987,831.5296096000238,831.8751904999954,831.8914231000235,832.1745449000155,832.1911688999971,None,down,832.1911688999971,None,832.1911688999971,833.1567445000401,0.063220200012438,None,2.3834897999768145,,,,,,,,,28,001,2019_Dec_25_1157,untitled,3.1.0,59.83316122450016,
_,R,M,270,_,_,_RM270__,N,0,238,238,22,,,1.383,834.6533518999931,834.9883736000047,835.0052342000417,835.2887979000225,835.3053196000401,None,down,835.3053196000401,None,835.3053196000401,836.6705760000041,0.07032020000042394,None,2.5646998999873176,,,,,,,,,28,001,2019_Dec_25_1157,untitled,3.1.0,59.83316122450016,
_,_5,N,225,_,_,__5N225__,N,0,239,239,93,,,1.311,837.9470658000209,838.2859673000057,838.3025958000217,838.5860370000009,838.6026017999975,None,up,838.6026017999975,None,838.6026017999975,839.9008779000142,0.07018019998213276,None,2.5331302999984473,,,,,,,,,28,001,2019_Dec_25_1157,untitled,3.1.0,59.83316122450016,
144,F,M,315,R,N,144FM315RN,HRN,0,240,240,119,,,1.338,841.2078118000063,841.5496491999947,841.5663825999945,841.8496219000081,841.8656580999959,None,down,841.8656580999959,None,841.8656580999959,843.181133200007,0.06555040000239387,None,2.2486526000429876,,,,,,,,,28,001,2019_Dec_25_1157,untitled,3.1.0,59.83316122450016,
488,_5,N,315,L,N,488_5N315LN,HLN,0,241,241,287,,,0.845,844.1854051999981,844.5314202000154,844.5484470000374,844.8302408000454,844.846992900013,None,up,844.846992900013,None,844.846992900013,845.6792325000279,0.06384570000227541,None,1.8663744000368752,,,,,,,,,28,001,2019_Dec_25_1157,untitled,3.1.0,59.83316122450016,
387,_4,N,90,R,N,387_4N090RN,HRN,0,242,242,258,,,1.1300000000000001,846.7841236999957,847.128128500015,847.1450193999917,847.4276768999989,847.4443954000017,None,up,847.4443954000017,None,847.4443954000017,848.5602251000237,0.0640146000077948,None,2.697671200032346,,,,,,,,,28,001,2019_Dec_25_1157,untitled,3.1.0,59.83316122450016,
398,_4,M,225,R,N,398_4M225RN,HRN,0,243,243,165,,,1.124,850.2122588999919,850.5584008000442,850.5751414000406,850.8581593999988,850.8758155000396,None,up,850.8758155000396,None,850.8758155000396,851.9737078000326,0.06346380000468343,None,2.5641100999782793,,,,,,,,,28,001,2019_Dec_25_1157,untitled,3.1.0,59.83316122450016,
_,_5,M,0,_,_,__5M000__,N,0,244,244,40,,,1.399,853.5318754000473,853.8556414000341,853.8723640000098,854.1551008000388,854.1725866000052,None,down,854.1725866000052,None,854.1725866000052,855.5537227000459,0.08363840001402423,None,3.0803236999781802,,,,,,,,,28,001,2019_Dec_25_1157,untitled,3.1.0,59.83316122450016,
142,F,M,225,R,N,142FM225RN,HRN,0,245,245,117,,,1.268,857.3371651000343,857.6699470000458,857.6857126000104,857.9695484000258,857.9852506000316,None,up,857.9852506000316,None,857.9852506000316,859.2343350000447,0.07760819996474311,None,2.5337736000074074,,,,,,,,,28,001,2019_Dec_25_1157,untitled,3.1.0,59.83316122450016,
_,G,N,270,_,_,_GN270__,N,0,246,246,62,,,1.108,860.6943874999997,860.9845751000103,860.9845751000103,861.2325658000191,861.2493240000331,None,up,861.2493240000331,None,861.2493240000331,862.3485972000053,0.16841500002192333,None,2.315222300007008,,,,,,,,,28,001,2019_Dec_25_1157,untitled,3.1.0,59.83316122450016,
199,G,N,270,R,N,199GN270RN,HRN,0,247,247,230,,,0.754,863.6519734000321,863.9800402999972,863.9964687000029,864.2792834000429,864.2963261000114,None,up,864.2963261000114,None,864.2963261000114,865.0291641000076,0.079974599997513,None,2.4846136000123806,,,,,,,,,28,001,2019_Dec_25_1157,untitled,3.1.0,59.83316122450016,
_,G,N,135,_,_,_GN135__,N,0,248,248,59,,,1.32,866.9781369999982,867.2772020000266,867.2772020000266,867.4936028000084,867.5103049000027,None,up,867.5103049000027,None,867.5103049000027,868.8090499000391,0.18803630000911653,None,3.066731599974446,,,,,,,,,28,001,2019_Dec_25_1157,untitled,3.1.0,59.83316122450016,
_,R,M,135,_,_,_RM135__,N,0,249,249,19,,,0.707,870.6621690000175,870.9907498999964,871.0073099000147,871.2909320000326,871.307438399992,None,down,871.307438399992,None,871.307438399992,872.0063300000038,0.07690400001592934,None,1.8155542999738827,,,,,,,,,28,001,2019_Dec_25_1157,untitled,3.1.0,59.83316122450016,
_,_4,M,180,_,_,__4M180__,N,0,250,250,36,,,1.113,873.1964823000017,873.5381480000215,873.5547263000044,873.8382668000413,873.8542356000398,None,up,873.8542356000398,None,873.8542356000398,874.9536721000331,0.06684449996100739,None,2.7508825000259094,,,,,,,,,28,001,2019_Dec_25_1157,untitled,3.1.0,59.83316122450016,
_,_4,M,135,_,_,__4M135__,N,0,251,251,35,,,0.925,876.6806007000268,877.0189021000406,877.0361830000184,877.3182988000335,877.335035199998,None,down,877.335035199998,None,877.335035199998,878.2513394000125,0.06866510002873838,None,3.349678499973379,,,,,,,,,28,001,2019_Dec_25_1157,untitled,3.1.0,59.83316122450016,
133,F,N,180,R,N,133FN180RN,HRN,0,252,252,212,,,0.926,880.8563061000314,881.1489645999973,881.1489645999973,881.3987301000161,881.4150104,None,up,881.4150104,None,881.4150104,882.3303791999933,0.16474279999965802,None,2.3160617999965325,,,,,,,,,28,001,2019_Dec_25_1157,untitled,3.1.0,59.83316122450016,
_,R,N,45,_,_,_RN045__,N,0,253,253,65,,,0.805,883.9133550000261,884.2124198999954,884.2124198999954,884.4460424000281,884.4621742000454,None,up,884.4621742000454,None,884.4621742000454,885.2447665000218,0.1750591000309214,None,1.9149642999982461,,,,,,,,,28,001,2019_Dec_25_1157,untitled,3.1.0,59.83316122450016,
291,_2,N,90,L,N,291_2N090LN,HLN,0,254,254,250,,,1.355,886.4550079000182,886.793515700032,886.8101529999985,887.0930578000261,887.1097782000434,None,up,887.1097782000434,None,887.1097782000434,888.4416308000218,0.07050309999613091,None,2.364530199964065,,,,,,,,,28,001,2019_Dec_25_1157,untitled,3.1.0,59.83316122450016,
396,_4,M,135,R,N,396_4M135RN,HRN,0,255,255,163,,,1.053,889.5465503000305,889.8912047999911,889.9075390000362,890.1916689000209,890.2069699999993,None,down,890.2069699999993,None,890.2069699999993,891.2394718000432,0.0658636000007391,None,2.599087900016457,,,,,,,,,28,001,2019_Dec_25_1157,untitled,3.1.0,59.83316122450016,
_,F,N,0,_,_,_FN000__,N,0,256,256,48,,,1.297,892.9737820000155,893.2704334000009,893.2704334000009,893.5206151000457,893.537718800013,None,up,893.537718800013,None,893.537718800013,894.8191793000442,0.15936699998565018,None,2.198473600030411,,,,,,,,,28,001,2019_Dec_25_1157,untitled,3.1.0,59.83316122450016,
296,_2,N,315,L,N,296_2N315LN,HLN,0,257,257,255,,,1.0,895.8158763000392,896.1524082000251,896.1689351000241,896.4521339000203,896.4689171999926,None,up,896.4689171999926,None,896.4689171999926,897.4512689000112,0.07211040001129732,None,1.9161575000034645,,,,,,,,,28,001,2019_Dec_25_1157,untitled,3.1.0,59.83316122450016,
388,_4,N,135,R,N,388_4N135RN,HRN,0,258,258,259,,,1.326,898.4947272000136,898.7837030999945,898.8163300000015,899.0993168000132,899.1157447000151,None,up,899.1157447000151,None,899.1157447000151,900.4317128999974,0.10062300000572577,None,2.73184379999293,,,,,,,,,28,001,2019_Dec_25_1157,untitled,3.1.0,59.83316122450016,
129,F,N,0,R,N,129FN000RN,HRN,0,259,259,208,,,0.722,901.918986500008,902.2636779000168,902.2814314000425,902.5631928000366,902.5796057000407,None,up,902.5796057000407,None,902.5796057000407,903.2789545000414,0.06440670002484694,None,1.733301299973391,,,,,,,,,28,001,2019_Dec_25_1157,untitled,3.1.0,59.83316122450016,
_,_4,N,315,_,_,__4N315__,N,0,260,260,87,,,1.395,904.3836487000226,904.728466200002,904.7448837000411,905.0275854000356,905.0440397000057,None,up,905.0440397000057,None,905.0440397000057,906.4263393000001,0.0641689999611117,None,2.5987792999949306,,,,,,,,,28,001,2019_Dec_25_1157,untitled,3.1.0,59.83316122450016,
234,G,M,45,L,N,234GM045LN,HLN,0,261,261,137,,,1.196,907.7282489000354,908.0586565000121,908.0753475000383,908.3583332000417,908.3751144999987,None,down,908.3751144999987,None,908.3751144999987,909.5569520000136,0.0767409999971278,None,2.666959499998484,,,,,,,,,28,001,2019_Dec_25_1157,untitled,3.1.0,59.83316122450016,
292,_2,N,135,L,N,292_2N135LN,HLN,0,262,262,251,,,1.299,911.1140750999912,911.4563355999999,911.4715682000387,911.7553111000452,911.7718652000185,None,up,911.7718652000185,None,911.7718652000185,913.054181500047,0.06434159999480471,None,2.683692599995993,,,,,,,,,28,001,2019_Dec_25_1157,untitled,3.1.0,59.83316122450016,
_,_4,M,45,_,_,__4M045__,N,0,263,263,33,,,1.201,914.5257771000033,914.8692573000444,914.8865175000392,915.168850600021,915.1853015000233,None,down,915.1853015000233,None,915.1853015000233,916.3679077000124,0.06309760001022369,None,2.5006230999715626,,,,,,,,,28,001,2019_Dec_25_1157,untitled,3.1.0,59.83316122450016,
_,F,M,180,_,_,_FM180__,N,0,264,264,4,,,1.26,917.906864300021,918.1996172000072,918.1996172000072,918.3995254000183,918.4160447000177,None,up,918.4160447000177,None,918.4160447000177,919.6647144000162,0.2117506999638863,None,2.617332499998156,,,,,,,,,28,001,2019_Dec_25_1157,untitled,3.1.0,59.83316122450016,
494,_5,M,225,L,N,494_5M225LN,HLN,0,265,265,189,,,1.3920000000000001,921.1056858000229,921.4470356000238,921.46369340003,921.7469877999974,921.7628713000449,None,down,921.7628713000449,None,921.7628713000449,923.1457957000239,0.06562000000849366,None,2.8153681000112556,,,,,,,,,28,001,2019_Dec_25_1157,untitled,3.1.0,59.83316122450016,
207,G,M,270,R,N,207GM270RN,HRN,0,266,266,134,,,0.893,924.666009800043,924.9933426000061,925.0101159000187,925.2945818000007,925.3101731000352,None,down,925.3101731000352,None,925.3101731000352,926.1923128000344,0.08027410000795498,None,1.9828935000114143,,,,,,,,,28,001,2019_Dec_25_1157,untitled,3.1.0,59.83316122450016,
036,R,N,135,L,N,036RN135LN,HLN,0,267,267,203,,,0.805,927.3644421999925,927.7075430999976,927.724559299997,928.0082679000334,928.0241338000051,None,up,928.0241338000051,None,928.0241338000051,928.8069816000061,0.06455840001581237,None,2.4155103000230156,,,,,,,,,28,001,2019_Dec_25_1157,untitled,3.1.0,59.83316122450016,
453,_5,N,180,R,N,453_5N180RN,HRN,0,268,268,276,,,0.765,930.5183448000462,930.8547316000331,930.8724837000482,931.1545071,931.1721818000078,None,up,931.1721818000078,None,931.1721818000078,931.9208099000389,0.07088129996554926,None,1.9176455999840982,,,,,,,,,28,001,2019_Dec_25_1157,untitled,3.1.0,59.83316122450016,
004,R,N,135,R,N,004RN135RN,HRN,0,269,269,195,,,0.756,933.1590959000168,933.5028318000259,933.5196150999982,933.8024381000432,933.8192318000365,None,up,933.8192318000365,None,933.8192318000365,934.5523247999954,0.06282829999690875,None,1.9659305000095628,,,,,,,,,28,001,2019_Dec_25_1157,untitled,3.1.0,59.83316122450016,
290,_2,N,45,L,N,290_2N045LN,HLN,0,270,270,249,,,1.379,935.8590757999918,936.2007591000292,936.2181852000067,936.5000842000009,936.5165085000335,None,up,936.5165085000335,None,936.5165085000335,937.8822192000225,0.06648610002594069,None,3.081322200014256,,,,,,,,,28,001,2019_Dec_25_1157,untitled,3.1.0,59.83316122450016,
299,_2,M,90,L,N,299_2M090LN,HLN,0,271,271,154,,,0.806,939.692584000004,940.0138242000248,940.0305723000201,940.3133964000153,940.3300154000171,None,up,940.3300154000171,None,940.3300154000171,941.1130375000066,0.08646560000488535,None,1.8680285000009462,,,,,,,,,28,001,2019_Dec_25_1157,untitled,3.1.0,59.83316122450016,
173,F,M,180,L,N,173FM180LN,HLN,0,272,272,124,,,1.354,942.2695464999997,942.6126351000275,942.6281558999908,942.9117342000245,942.9281116999919,None,up,942.9281116999919,None,942.9281116999919,944.261885999993,0.06500349997077137,None,2.182816299959086,,,,,,,,,28,001,2019_Dec_25_1157,untitled,3.1.0,59.83316122450016,
201,G,M,0,R,N,201GM000RN,HRN,0,273,273,128,,,1.332,945.180978599994,945.5258149000001,945.5424988000304,945.8252233000239,945.8418753000442,None,down,945.8418753000442,None,945.8418753000442,947.1571400000248,0.06343259999994189,None,2.484631800034549,,,,,,,,,28,001,2019_Dec_25_1157,untitled,3.1.0,59.83316122450016,
139,F,M,90,R,N,139FM090RN,HRN,0,274,274,114,,,0.973,948.4014157000347,948.7400050000288,948.7561306999996,949.0393482000218,949.055754400033,None,up,949.055754400033,None,949.055754400033,950.0049438000424,0.06809670000802726,None,3.06647309998516,,,,,,,,,28,001,2019_Dec_25_1157,untitled,3.1.0,59.83316122450016,
225,G,N,0,L,N,225GN000LN,HLN,0,275,275,232,,,1.2690000000000001,952.1940675000078,952.5365944000077,952.5530845000176,952.8364283000119,952.8525301000336,None,up,952.8525301000336,None,952.8525301000336,954.1014144000364,0.06510489998618141,None,2.1654215999878943,,,,,,,,,28,001,2019_Dec_25_1157,untitled,3.1.0,59.83316122450016,
235,G,M,90,L,N,235GM090LN,HLN,0,276,276,138,,,0.961,955.1047756000189,955.4338017000118,955.450184700021,955.7331195000443,955.7509178000037,None,down,955.7509178000037,None,955.7509178000037,956.6991677000187,0.07901089999359101,None,2.4493519999668933,,,,,,,,,28,001,2019_Dec_25_1157,untitled,3.1.0,59.83316122450016,
_,F,N,180,_,_,_FN180__,N,0,277,277,52,,,0.97,958.3771630999981,958.6647016000352,958.6647016000352,958.9139369000331,958.9302138999919,None,up,958.9302138999919,None,958.9302138999919,959.8791832000134,0.16997649997938424,None,1.8651469000033103,,,,,,,,,28,001,2019_Dec_25_1157,untitled,3.1.0,59.83316122450016,
303,_2,M,270,L,N,303_2M270LN,HLN,0,278,278,158,,,1.0170000000000001,960.8655337000382,961.2116212000255,961.2284703000332,961.5115436000051,961.5279066000367,None,down,961.5279066000367,None,961.5279066000367,962.5271635000245,0.06442910002078861,None,2.518569700012449,,,,,,,,,28,001,2019_Dec_25_1157,untitled,3.1.0,59.83316122450016,
463,_5,M,270,R,N,463_5M270RN,HRN,0,279,279,182,,,0.8310000000000001,964.2266671000398,964.5266722000088,964.5266722000088,964.7586133000441,964.775182500016,None,down,964.775182500016,None,964.775182500016,965.5937601000187,0.1728243000106886,None,1.8492329999571666,,,,,,,,,28,001,2019_Dec_25_1157,untitled,3.1.0,59.83316122450016,
482,_5,N,45,L,N,482_5N045LN,HLN,0,280,280,281,,,0.803,966.7134879000369,967.0401866000029,967.0568494000472,967.3400929000345,967.3567896000459,None,up,967.3567896000459,None,967.3567896000459,968.1394671000307,0.08221610001055524,None,1.6156271999934688,,,,,,,,,28,001,2019_Dec_25_1157,untitled,3.1.0,59.83316122450016,
_,_4,N,180,_,_,__4N180__,N,0,281,281,84,,,0.718,969.0580247000325,969.3905660000164,969.4046235000133,969.6882443000213,969.7062884999905,None,down,969.7062884999905,None,969.7062884999905,970.4036894000019,0.07716420001816005,None,2.8294668000307865,,,,,,,,,28,001,2019_Dec_25_1157,untitled,3.1.0,59.83316122450016,
_,_5,N,180,_,_,__5N180__,N,0,282,282,92,,,1.0210000000000001,972.6080204000464,972.952112900035,972.9683730000397,973.2518424000009,973.2679969000164,None,up,973.2679969000164,None,973.2679969000164,974.2670626000036,0.06483769998885691,None,2.565064699971117,,,,,,,,,28,001,2019_Dec_25_1157,untitled,3.1.0,59.83316122450016,
_,_5,M,135,_,_,__5M135__,N,0,283,283,43,,,1.24,976.0221345000318,976.3155401000404,976.3155401000404,976.5483866000432,976.5652782000252,None,down,976.5652782000252,None,976.5652782000252,977.7808886000421,0.178812799975276,None,3.066293500014581,,,,,,,,,28,001,2019_Dec_25_1157,untitled,3.1.0,59.83316122450016,
045,R,M,180,L,N,045RM180LN,HLN,0,284,284,108,,,0.922,979.8368483000086,980.1289325000253,980.1289325000253,980.3454134000349,980.3622001000331,None,down,980.3622001000331,None,980.3622001000331,981.2782258000225,0.19179620000068098,None,2.9503969000070356,,,,,,,,,28,001,2019_Dec_25_1157,untitled,3.1.0,59.83316122450016,
454,_5,N,225,R,N,454_5N225RN,HRN,0,285,285,277,,,1.314,983.3880070000305,983.7259717000416,983.7426446000463,984.0257372999913,984.0426311000483,None,up,984.0426311000483,None,984.0426311000483,985.3405473000021,0.06851379998261109,None,2.481376999989152,,,,,,,,,28,001,2019_Dec_25_1157,untitled,3.1.0,59.83316122450016,
226,G,N,45,L,N,226GN045LN,HLN,0,286,286,233,,,0.9580000000000001,986.6198892000248,986.9396874000086,986.956147000019,987.2391332000261,987.2560956000234,None,up,987.2560956000234,None,987.2560956000234,988.1887701000087,0.08837160002440214,None,2.5311867000418715,,,,,,,,,28,001,2019_Dec_25_1157,untitled,3.1.0,59.83316122450016,
_,R,N,270,_,_,_RN270__,N,0,287,287,70,,,0.964,989.8702648000326,990.2031196000171,990.2203652000171,990.5033339000074,990.5201308000251,None,up,990.5201308000251,None,990.5201308000251,991.4694132000441,0.07528999994974583,None,2.0485299000283703,,,,,,,,,28,001,2019_Dec_25_1157,untitled,3.1.0,59.83316122450016,
,,,,,,,,,,,,,,,,,,,,,,,,,,,,,992.5848034000373,None,1005.6064619999961,None,1007.9878502000356,None,1012.6171131000156,None,,,,,,,
