Number,Letter,type,Orientation,human,face_type,image,picture,trials.thisRepN,trials.thisTrialN,trials.thisN,trials.thisIndex,text.started,text.stopped,stimulus_duration,CROSS.started,CROSS.stopped,BLANK.started,BLANK.stopped,TEST.started,TEST.stopped,key_JUDGE.keys,key_JUDGE.started,key_JUDGE.stopped,image_2.started,image_2.stopped,ISI.started,ISI.stopped,key_JUDGE.rt,q1.started,q1.stopped,q2.started,q2.stopped,q3.started,q3.stopped,text_2.started,text_2.stopped,participant,session,date,expName,psychopyVersion,frameRate,
452,_5,N,135,R,N,452_5N135RN,HRN,0,0,0,275,184.00349350000033,None,0.874,229.4764149999828,229.81591319997096,229.8321833999944,230.1155587999965,230.13232279999647,None,None,230.13232279999647,None,230.13232279999647,230.99807939998573,0.06642320001265034,None,,,,,,,,,,29,001,2019_Dec_25_1255,untitled,3.1.0,60.30511979773647,
233,G,M,0,L,N,233GM000LN,HLN,0,1,1,136,,,1.187,233.7098743999959,234.06253739999374,234.06253739999374,234.36157989996718,234.36157989996718,233.7098743999959,down,234.36157989996718,None,234.36157989996718,235.54591210000217,0.06073129997821525,None,2.4176422000164166,,,,,,,,,29,001,2019_Dec_25_1255,untitled,3.1.0,60.30511979773647,
206,G,M,225,R,N,206GM225RN,HRN,0,2,2,133,,,0.788,236.8674086999963,237.19342159997905,237.21101139998063,237.49250950000715,237.50898029998643,None,down,237.50898029998643,None,237.50898029998643,238.29126849997556,0.07892060000449419,None,2.2318717000307515,,,,,,,,,29,001,2019_Dec_25_1255,untitled,3.1.0,60.30511979773647,
_,_5,N,315,_,_,__5N315__,N,0,3,3,95,,,1.095,239.82693209999707,240.15723119996255,240.17328290001024,240.4571962999762,240.4733793999767,None,up,240.4733793999767,None,240.4733793999767,241.5551660999772,0.0776859000325203,None,2.083335099974647,,,,,,,,,29,001,2019_Dec_25_1255,untitled,3.1.0,60.30511979773647,
424,_4,N,315,L,N,424_4N315LN,HLN,0,4,4,271,,,1.164,242.6253264999832,242.97079569997732,242.98709979996784,243.27094099996611,243.287675199972,None,up,243.287675199972,None,243.287675199972,244.4368986999616,0.06186249997699633,None,2.133764299971517,,,,,,,,,29,001,2019_Dec_25_1255,untitled,3.1.0,60.30511979773647,
_,G,M,225,_,_,_GM225__,N,0,5,5,13,,,1.389,245.49586859997362,245.83565169997746,245.85175919998437,246.1350325999665,246.15110799996182,None,down,246.15110799996182,None,246.15110799996182,247.51708219997818,0.06791160005377606,None,2.597975899989251,,,,,,,,,29,001,2019_Dec_25_1255,untitled,3.1.0,60.30511979773647,
484,_5,N,135,L,N,484_5N135LN,HLN,0,6,6,283,,,1.121,248.8172814999707,249.165826499986,249.1824674999807,249.46565450000344,249.48443959996803,None,up,249.48443959996803,None,249.48443959996803,250.58057039999403,0.061438199947588146,None,2.5154681999702007,,,,,,,,,29,001,2019_Dec_25_1255,untitled,3.1.0,60.30511979773647,
129,F,N,0,R,N,129FN000RN,HRN,0,7,7,208,,,0.962,252.06778819998726,252.41237029997865,252.42930219997652,252.71189999999478,252.7285455999663,None,down,252.7285455999663,None,252.7285455999663,253.67835419997573,0.061296199972275645,None,1.9493854000465944,,,,,,,,,29,001,2019_Dec_25_1255,untitled,3.1.0,60.30511979773647,
142,F,M,225,R,N,142FM225RN,HRN,0,8,8,117,,,0.718,254.76667499996256,255.09347429999616,255.11100099998293,255.39363359997515,255.41038839996327,None,down,255.41038839996327,None,255.41038839996327,256.1090843999991,0.07908469997346401,None,1.8341958000091836,,,,,,,,,29,001,2019_Dec_25_1255,untitled,3.1.0,60.30511979773647,
_,G,N,270,_,_,_GN270__,N,0,9,9,62,,,0.852,257.3205300999689,257.6584361999994,257.67494799999986,257.9580759999808,257.97488120000344,None,down,257.97488120000344,None,257.97488120000344,258.80698769999435,0.06757850002031773,None,1.9652681999723427,,,,,,,,,29,001,2019_Dec_25_1255,untitled,3.1.0,60.30511979773647,
_,G,N,315,_,_,_GN315__,N,0,10,10,63,,,0.871,260.0229474999942,260.3563142999774,260.3726263999706,260.65563589998055,260.67167539999355,None,up,260.67167539999355,None,260.67167539999355,261.5208377999952,0.0737440999946557,None,2.1338480999693274,,,,,,,,,29,001,2019_Dec_25_1255,untitled,3.1.0,60.30511979773647,
455,_5,N,270,R,N,455_5N270RN,HRN,0,11,11,278,,,1.121,262.8822137999814,263.2202013999922,263.2365363999852,263.519548799959,263.53602850000607,None,up,263.53602850000607,None,263.53602850000607,264.6353891000035,0.06997630000114441,None,1.9006057999795303,,,,,,,,,29,001,2019_Dec_25_1255,untitled,3.1.0,60.30511979773647,
_,R,N,315,_,_,_RN315__,N,0,12,12,71,,,0.9550000000000001,265.515662699996,265.85085940000135,265.8677118999767,266.1507480999571,266.167246899975,None,up,266.167246899975,None,266.167246899975,267.0999501000042,0.07038940000347793,None,1.717078700021375,,,,,,,,,29,001,2019_Dec_25_1255,untitled,3.1.0,60.30511979773647,
302,_2,M,225,L,N,302_2M225LN,HLN,0,13,13,157,,,0.744,267.97218499996234,268.2999525999767,268.3154227999621,268.59846589999506,268.615000699996,None,up,268.615000699996,None,268.615000699996,269.3476193000097,0.07897799997590482,None,2.269691599998623,,,,,,,,,29,001,2019_Dec_25_1255,untitled,3.1.0,60.30511979773647,
451,_5,N,90,R,N,451_5N090RN,HRN,0,14,14,274,,,1.085,270.98790700000245,271.29599159996724,271.3130000999663,271.5970301000052,271.6125503999647,None,up,271.6125503999647,None,271.6125503999647,272.6948994999984,0.0924539000261575,None,1.8674359999713488,,,,,,,,,29,001,2019_Dec_25_1255,untitled,3.1.0,60.30511979773647,
_,_4,M,270,_,_,__4M270__,N,0,15,15,38,,,0.9,273.5583911999711,273.8935876999749,273.91126729996176,274.19353729998693,274.21010809997097,None,down,274.21010809997097,None,274.21010809997097,275.0928184000077,0.0700453000026755,None,2.1834519000258297,,,,,,,,,29,001,2019_Dec_25_1255,untitled,3.1.0,60.30511979773647,
_,F,N,180,_,_,_FN180__,N,0,16,16,52,,,0.924,276.4809652999975,276.8084247999941,276.8253718999913,277.10846079996554,277.1248076999909,None,down,277.1248076999909,None,277.1248076999909,278.04066850000527,0.07771889999276027,None,2.4665088999900036,,,,,,,,,29,001,2019_Dec_25_1255,untitled,3.1.0,60.30511979773647,
432,_4,M,315,L,N,432_4M315LN,HLN,0,17,17,175,,,0.9560000000000001,279.67826389998663,280.00563959998544,280.0219790999545,280.30548839998664,280.3215462999651,None,up,280.3215462999651,None,280.3215462999651,281.27116569998907,0.07850970001891255,None,2.5170794999576174,,,,,,,,,29,001,2019_Dec_25_1255,untitled,3.1.0,60.30511979773647,
453,_5,N,180,R,N,453_5N180RN,HRN,0,18,18,276,,,0.922,282.9082775999559,283.2523913999903,283.2693138999748,283.55243799998425,283.5693065999658,None,up,283.5693065999658,None,283.5693065999658,284.467916900001,0.0626866000238806,None,2.4474313000100665,,,,,,,,,29,001,2019_Dec_25_1255,untitled,3.1.0,60.30511979773647,
174,F,M,225,L,N,174FM225LN,HLN,0,19,19,125,,,1.3940000000000001,286.0854565000045,286.4329926999635,286.44951999996556,286.73344889999134,286.74920299998485,None,down,286.74920299998485,None,286.74920299998485,288.1317865999881,0.06189700000686571,None,2.848258300044108,,,,,,,,,29,001,2019_Dec_25_1255,untitled,3.1.0,60.30511979773647,
461,_5,M,180,R,N,461_5M180RN,HRN,0,20,20,180,,,1.143,289.688030899968,290.0129575000028,290.02949489996536,290.3125876999693,290.3299129999941,None,up,290.3299129999941,None,290.3299129999941,291.4620073999977,0.08098079997580498,None,2.9666726000141352,,,,,,,,,29,001,2019_Dec_25_1255,untitled,3.1.0,60.30511979773647,
_,F,N,225,_,_,_FN225__,N,0,21,21,53,,,0.746,293.3878288999549,293.70956250000745,293.72680579998996,294.01002029998926,294.02680339996004,None,up,294.02680339996004,None,294.02680339996004,294.7587040999788,0.08278190001146868,None,1.7497671999735758,,,,,,,,,29,001,2019_Dec_25_1255,untitled,3.1.0,60.30511979773647,
_,_2,N,315,_,_,__2N315__,N,0,22,22,79,,,0.896,295.8516333999578,296.1911756999907,296.20845689997077,296.4911196999601,296.50788319995627,None,up,296.50788319995627,None,296.50788319995627,297.3900042999885,0.06776509998599067,None,2.617380600015167,,,,,,,,,29,001,2019_Dec_25_1255,untitled,3.1.0,60.30511979773647,
167,F,N,270,L,N,167FN270LN,HLN,0,23,23,222,,,1.319,299.2063813999994,299.53808669996215,299.5549489999539,299.83823509997455,299.85467249999056,None,up,299.85467249999056,None,299.85467249999056,301.15465280000353,0.07261779997497797,None,2.415279400011059,,,,,,,,,29,001,2019_Dec_25_1255,untitled,3.1.0,60.30511979773647,
_,F,M,225,_,_,_FM225__,N,0,24,24,5,,,1.215,302.3356355999713,302.6858721000026,302.70243429997936,302.98526619997574,303.00163089996204,None,down,303.00163089996204,None,303.00163089996204,304.2009093000088,0.05848629999672994,None,2.621053600043524,,,,,,,,,29,001,2019_Dec_25_1255,untitled,3.1.0,60.30511979773647,
419,_4,N,90,L,N,419_4N090LN,HLN,0,25,25,266,,,1.322,305.7134087999584,306.03222759999335,306.0492913000053,306.3324461999582,306.3487887000083,None,up,306.3487887000083,None,306.3487887000083,307.66427690000273,0.07982769998488948,None,2.3338805999956094,,,,,,,,,29,001,2019_Dec_25_1255,untitled,3.1.0,60.30511979773647,
457,_5,M,0,R,N,457_5M000RN,HRN,0,26,26,176,,,0.856,308.7688098999788,309.0966100000078,309.11332279996714,309.39634249999654,309.41287070000544,None,down,309.41287070000544,None,309.41287070000544,310.26211630000034,0.07830230001127347,None,2.464786200027447,,,,,,,,,29,001,2019_Dec_25_1255,untitled,3.1.0,60.30511979773647,
494,_5,M,225,L,N,494_5M225LN,HLN,0,27,27,189,,,0.991,311.9534292999888,312.2942516999901,312.3103879999835,312.59426419995725,312.61175360000925,None,down,312.61175360000925,None,312.61175360000925,313.5760051999823,0.0683398999972269,None,3.0803928999812342,,,,,,,,,29,001,2019_Dec_25_1255,untitled,3.1.0,60.30511979773647,
463,_5,M,270,R,N,463_5M270RN,HRN,0,28,28,182,,,0.988,315.7694308999926,316.10736769996583,316.1252925999579,316.40694219997386,316.42397649999475,None,down,316.42397649999475,None,316.42397649999475,317.3899780999636,0.06900840002344921,None,2.7163002000306733,,,,,,,,,29,001,2019_Dec_25_1255,untitled,3.1.0,60.30511979773647,
205,G,M,180,R,N,205GM180RN,HRN,0,29,29,132,,,0.752,319.21792169997934,319.5539198999759,319.57094989996403,319.8541831999901,319.87064579996513,None,up,319.87064579996513,None,319.87064579996513,320.603820099961,0.06908730004215613,None,2.998836899991147,,,,,,,,,29,001,2019_Dec_25_1255,untitled,3.1.0,60.30511979773647,
_,G,M,315,_,_,_GM315__,N,0,30,30,15,,,1.371,322.94310619996395,323.28396079997765,323.30129879998276,323.5836021999712,323.6006944999681,None,down,323.6006944999681,None,323.6006944999681,324.9492112000007,0.0660803000209853,None,2.901671500003431,,,,,,,,,29,001,2019_Dec_25_1255,untitled,3.1.0,60.30511979773647,
_,_4,N,90,_,_,__4N090__,N,0,31,31,82,,,1.076,326.6045465999632,326.9143608000013,326.93110129999695,327.2143715999555,327.23045929998625,None,up,327.23045929998625,None,327.23045929998625,328.2963039999595,0.09115340001881123,None,2.1655042999773286,,,,,,,,,29,001,2019_Dec_25_1255,untitled,3.1.0,60.30511979773647,
197,G,N,180,R,N,197GN180RN,HRN,0,32,32,228,,,1.311,329.4788871000055,329.8119499000022,329.82959489995847,330.1115826999885,330.1281888000085,None,up,330.1281888000085,None,330.1281888000085,331.4268916999572,0.07403030002024025,None,3.214014299970586,,,,,,,,,29,001,2019_Dec_25_1255,untitled,3.1.0,60.30511979773647,
139,F,M,90,R,N,139FM090RN,HRN,0,33,33,114,,,0.971,333.42774429998826,333.7585074999952,333.7753385999822,334.0584118000115,334.07509959995514,None,down,334.07509959995514,None,334.07509959995514,335.02407669997774,0.07826750003732741,None,2.952023299993016,,,,,,,,,29,001,2019_Dec_25_1255,untitled,3.1.0,60.30511979773647,
_,_2,N,90,_,_,__2N090__,N,0,34,34,74,,,1.2570000000000001,337.1181638999842,337.4388329999638,337.4556006999919,337.73888959997566,337.75475319998804,None,None,337.75475319998804,None,337.75475319998804,339.00376819999656,0.08064780000131577,None,,,,,,,,,,29,001,2019_Dec_25_1255,untitled,3.1.0,60.30511979773647,
388,_4,N,135,R,N,388_4N135RN,HRN,0,35,35,259,,,0.9390000000000001,341.3241726999986,341.65195009997115,341.66759189998265,341.9511782999616,341.9681279999786,341.3241726999986,up,341.9681279999786,None,341.9681279999786,342.8850892999908,0.07958230003714561,None,2.0007761000306346,,,,,,,,,29,001,2019_Dec_25_1255,untitled,3.1.0,60.30511979773647,
_,_2,M,90,_,_,__2M090__,N,0,36,36,26,,,1.395,344.0562447999837,344.3824678999954,344.39883299998473,344.682490599982,344.6992244999856,None,None,344.6992244999856,None,344.6992244999856,346.0810633999645,0.07756700000027195,None,,,,,,,,,,29,001,2019_Dec_25_1255,untitled,3.1.0,60.30511979773647,
194,G,N,45,R,N,194GN045RN,HRN,0,37,37,225,,,1.276,348.26701239997055,348.57892239996,348.59544249996543,348.8793701999821,348.895429999975,348.26701239997055,up,348.895429999975,None,348.895429999975,350.1608680000063,0.09325500001432374,None,2.3838845000136644,,,,,,,,,29,001,2019_Dec_25_1255,untitled,3.1.0,60.30511979773647,
491,_5,M,90,L,N,491_5M090LN,HLN,0,38,38,186,,,1.071,351.37508500000695,351.69284769997466,351.7098637999734,351.9927771000075,352.0090734999976,None,down,352.0090734999976,None,352.0090734999976,353.05787799996324,0.08698339998954907,None,2.3983216999913566,,,,,,,,,29,001,2019_Dec_25_1255,untitled,3.1.0,60.30511979773647,
490,_5,M,45,L,N,490_5M045LN,HLN,0,39,39,185,,,1.202,354.47868289996404,354.82325819996186,354.84024699998554,355.12305190000916,355.14103880000766,None,down,355.14103880000766,None,355.14103880000766,356.32147349999286,0.06344030000036582,None,2.7645590000320226,,,,,,,,,29,001,2019_Dec_25_1255,untitled,3.1.0,60.30511979773647,
271,_2,M,270,R,N,271_2M270RN,HRN,0,40,40,150,,,0.889,358.0095250000013,358.3202902000048,358.33705009997357,358.6196953000035,358.63742909999564,None,up,358.63742909999564,None,358.63742909999564,359.5024293999886,0.09481009998125955,None,2.2169336000224575,,,,,,,,,29,001,2019_Dec_25_1255,untitled,3.1.0,60.30511979773647,
_,_5,M,45,_,_,__5M045__,N,0,41,41,41,,,1.209,360.926036299963,361.26785090001067,361.2841994999908,361.5683932999964,361.5848746999982,None,down,361.5848746999982,None,361.5848746999982,362.78340139996726,0.06502919999184087,None,2.3653218000545166,,,,,,,,,29,001,2019_Dec_25_1255,untitled,3.1.0,60.30511979773647,
_,R,N,90,_,_,_RN090__,N,0,42,42,66,,,1.031,364.0326875000028,364.36492590000853,364.3817713999888,364.66478579997784,364.6817826000042,None,up,364.6817826000042,None,364.6817826000042,365.6975380000076,0.07236150000244379,None,1.9496655000257306,,,,,,,,,29,001,2019_Dec_25_1255,untitled,3.1.0,60.30511979773647,
449,_5,N,0,R,N,449_5N000RN,HRN,0,43,43,272,,,1.219,366.7269471999607,367.04619159997674,367.0627292999998,367.34641840000404,367.36287829995854,None,up,367.36287829995854,None,367.36287829995854,368.5613855999545,0.08510650001699105,None,1.866693799966015,,,,,,,,,29,001,2019_Dec_25_1255,untitled,3.1.0,60.30511979773647,
_,_4,M,0,_,_,__4M000__,N,0,44,44,32,,,0.9460000000000001,369.31263719999697,369.64375599997584,369.660401000001,369.94349509995664,369.9600495999912,None,up,369.9600495999912,None,369.9600495999912,370.89365759998327,0.07489579997491091,None,1.6327743000001647,,,,,,,,,29,001,2019_Dec_25_1255,untitled,3.1.0,60.30511979773647,
_,_4,M,135,_,_,__4M135__,N,0,45,45,35,,,1.354,371.67171809996944,372.00877949997084,372.02565520000644,372.30811189999804,372.32478520000586,None,down,372.32478520000586,None,372.32478520000586,373.65652829996543,0.07216310000512749,None,2.648451399989426,,,,,,,,,29,001,2019_Dec_25_1255,untitled,3.1.0,60.30511979773647,
_,R,N,225,_,_,_RN225__,N,0,46,46,69,,,1.061,375.0406352999853,375.39013690000866,375.4059244999662,375.6886613999959,375.7050022999756,None,up,375.7050022999756,None,375.7050022999756,376.75418789999094,0.06027430004905909,None,1.8505767999449745,,,,,,,,,29,001,2019_Dec_25_1255,untitled,3.1.0,60.30511979773647,
_,_5,N,180,_,_,__5N180__,N,0,47,47,92,,,1.222,377.64061609999044,377.9699951999937,377.9870336999884,378.2692712999997,378.28589319996536,None,up,378.28589319996536,None,378.28589319996536,379.4854281999869,0.07597450003959239,None,2.183762900007423,,,,,,,,,29,001,2019_Dec_25_1255,untitled,3.1.0,60.30511979773647,
009,R,M,0,R,N,009RM000RN,HRN,0,48,48,96,,,1.0030000000000001,380.56309389998205,380.8843937999918,380.9002519999631,381.1840144000016,381.2000391999609,None,down,381.2000391999609,None,381.2000391999609,382.18281510000816,0.08239350002259016,None,2.0498599999700673,,,,,,,,,29,001,2019_Dec_25_1255,untitled,3.1.0,60.30511979773647,
_,R,N,0,_,_,_RN000__,N,0,49,49,64,,,0.873,383.3237860999652,383.6648731000023,383.681803399988,383.9646265999763,383.98112159996526,None,up,383.98112159996526,None,383.98112159996526,384.83048289996805,0.06655320001300424,None,1.534044099971652,,,,,,,,,29,001,2019_Dec_25_1255,untitled,3.1.0,60.30511979773647,
303,_2,M,270,L,N,303_2M270LN,HLN,0,50,50,158,,,0.8320000000000001,385.600043799961,385.9292173999711,385.9458098000032,386.22960989997955,386.2469699999783,None,up,386.2469699999783,None,386.2469699999783,387.06223929999396,0.07669549999991432,None,1.8311869000317529,,,,,,,,,29,001,2019_Dec_25_1255,untitled,3.1.0,60.30511979773647,
034,R,N,45,L,N,034RN045LN,HLN,0,51,51,201,,,1.211,388.1769698999706,388.4940232000081,388.51163299998734,388.7939320000005,388.81067789997905,None,up,388.81067789997905,None,388.81067789997905,390.0092294999631,0.09071969997603446,None,1.8812996000051498,,,,,,,,,29,001,2019_Dec_25_1255,untitled,3.1.0,60.30511979773647,
165,F,N,180,L,N,165FN180LN,HLN,0,52,52,220,,,1.158,390.7641502000042,391.1088973999722,391.1250078000012,391.408155299956,391.42512889998034,None,up,391.42512889998034,None,391.42512889998034,392.5578239999595,0.06537520000711083,None,2.633788699982688,,,,,,,,,29,001,2019_Dec_25_1255,untitled,3.1.0,60.30511979773647,
295,_2,N,270,L,N,295_2N270LN,HLN,0,53,53,254,,,0.736,394.14899149996927,394.4725180999958,394.48877729999367,394.77226870000595,394.789378699963,None,down,394.789378699963,None,394.789378699963,395.50437569996575,0.08160050003789365,None,2.0150154000148177,,,,,,,,,29,001,2019_Dec_25_1255,untitled,3.1.0,60.30511979773647,
037,R,N,180,L,N,037RN180LN,HLN,0,54,54,204,,,1.214,396.8801370000001,397.2199838999659,397.23650339996675,397.5210357999895,397.53612010000506,None,up,397.53612010000506,None,397.53612010000506,398.73523409996415,0.06711890001315624,None,1.8998710999730974,,,,,,,,,29,001,2019_Dec_25_1255,untitled,3.1.0,60.30511979773647,
010,R,M,45,R,N,010RM045RN,HRN,0,55,55,97,,,0.724,399.50431799999205,399.8507660999894,399.8677049999824,400.1505470999982,400.1673922999762,None,down,400.1673922999762,None,400.1673922999762,400.8663986999891,0.060879800003021955,None,2.2659048999776132,,,,,,,,,29,001,2019_Dec_25_1255,untitled,3.1.0,60.30511979773647,
_,_4,N,270,_,_,__4N270__,N,0,56,56,86,,,1.0,402.5099534000037,402.848208899959,402.864779800002,403.14836230000947,403.1646141000092,None,up,403.1646141000092,None,403.1646141000092,404.14710880001076,0.06905329995788634,None,1.866107700043358,,,,,,,,,29,001,2019_Dec_25_1255,untitled,3.1.0,60.30511979773647,
208,G,M,315,R,N,208GM315RN,HRN,0,57,57,135,,,0.863,405.12033659999724,405.4457753999741,405.46284210000886,405.7460512999678,405.76294549996965,None,down,405.76294549996965,None,405.76294549996965,406.61222059995634,0.08017949998611584,None,2.234782199957408,,,,,,,,,29,001,2019_Dec_25_1255,untitled,3.1.0,60.30511979773647,
014,R,M,225,R,N,014RM225RN,HRN,0,58,58,101,,,0.861,408.06717200001003,408.41007569996873,408.4266955999774,408.7099111999851,408.72706090001157,None,down,408.72706090001157,None,408.72706090001157,409.576013199985,0.06272099999478087,None,2.4147927000303753,,,,,,,,,29,001,2019_Dec_25_1255,untitled,3.1.0,60.30511979773647,
_,_5,N,0,_,_,__5N000__,N,0,59,59,88,,,1.025,411.21493779995944,411.557740499964,411.57429650000995,411.85772159998305,411.87320400000317,None,up,411.87320400000317,None,411.87320400000317,412.8732192000025,0.06591469998238608,None,1.733630099974107,,,,,,,,,29,001,2019_Dec_25_1255,untitled,3.1.0,60.30511979773647,
_,R,M,90,_,_,_RM090__,N,0,60,60,18,,,0.794,413.68240970000625,414.0216502000112,414.038276999956,414.32173999998486,414.3385642999783,None,down,414.3385642999783,None,414.3385642999783,415.1215457000071,0.0684012999990955,None,1.9668666999787092,,,,,,,,,29,001,2019_Dec_25_1255,untitled,3.1.0,60.30511979773647,
173,F,M,180,L,N,173FM180LN,HLN,0,61,61,124,,,1.056,416.37655429996084,416.7199468999752,416.7364551000064,417.0194116999628,417.0361639999901,None,down,417.0361639999901,None,417.0361639999901,418.0849137000041,0.06293050001841038,None,2.4483469999977387,,,,,,,,,29,001,2019_Dec_25_1255,untitled,3.1.0,60.30511979773647,
298,_2,M,45,L,N,298_2M045LN,HLN,0,62,62,153,,,0.73,419.56786640000064,419.8999492999865,419.9170046999934,420.1996186999604,420.2172051999951,None,up,420.2172051999951,None,420.2172051999951,420.9320708999876,0.07420959998853505,None,1.9991116999881342,,,,,,,,,29,001,2019_Dec_25_1255,untitled,3.1.0,60.30511979773647,
456,_5,N,315,R,N,456_5N315RN,HRN,0,63,63,279,,,0.723,422.2854315000004,422.6312456000014,422.6478866999969,422.9306818000041,422.94811229995685,None,up,422.94811229995685,None,422.94811229995685,423.6469525999855,0.061982199957128614,None,1.3491507999715395,,,,,,,,,29,001,2019_Dec_25_1255,untitled,3.1.0,60.30511979773647,
396,_4,M,135,R,N,396_4M135RN,HRN,0,64,64,163,,,0.716,424.39066759997513,424.7126033999957,424.7291649999679,425.01253329997417,425.0290518999682,None,down,425.0290518999682,None,425.0290518999682,425.72774709999794,0.08503229997586459,None,2.3317510000197217,,,,,,,,,29,001,2019_Dec_25_1255,untitled,3.1.0,60.30511979773647,
460,_5,M,135,R,N,460_5M135RN,HRN,0,65,65,179,,,1.297,427.42834280000534,427.77681760000996,427.7933172999765,428.0760156000033,428.09337239997694,None,up,428.09337239997694,None,428.09337239997694,429.3752716999734,0.060641299991402775,None,2.5981761000002734,,,,,,,,,29,001,2019_Dec_25_1255,untitled,3.1.0,60.30511979773647,
131,F,N,90,R,N,131FN090RN,HRN,0,66,66,210,,,0.87,430.7756819999777,431.1073610999738,431.12472979997983,431.40711450000526,431.4239077999955,None,up,431.4239077999955,None,431.4239077999955,432.27243690000614,0.07650929997907951,None,1.684447999985423,,,,,,,,,29,001,2019_Dec_25_1255,untitled,3.1.0,60.30511979773647,
297,_2,M,0,L,N,297_2M000LN,HLN,0,67,67,152,,,0.798,433.18886049999855,433.52230149996467,433.539022699988,433.821189099981,433.8378501999541,None,up,433.8378501999541,None,433.8378501999541,434.6207837999682,0.07168739999178797,None,2.553186299977824,,,,,,,,,29,001,2019_Dec_25_1255,untitled,3.1.0,60.30511979773647,
418,_4,N,45,L,N,418_4N045LN,HLN,0,68,68,265,,,1.305,436.49980250000954,436.8180558999884,436.8180558999884,437.10148089996073,437.11834019998787,None,up,437.11834019998787,None,437.11834019998787,438.4173539999756,0.09781270002713427,None,2.1650437000207603,,,,,,,,,29,001,2019_Dec_25_1255,untitled,3.1.0,60.30511979773647,
002,R,N,45,R,N,002RN045RN,HRN,0,69,69,193,,,0.707,439.35371259995736,439.70013319997815,439.71673749998445,440.00068190001184,440.0165706999833,None,up,440.0165706999833,None,440.0165706999833,440.69882529997267,0.06334039999637753,None,1.3828019999782555,,,,,,,,,29,001,2019_Dec_25_1255,untitled,3.1.0,60.30511979773647,
399,_4,M,270,R,N,399_4M270RN,HRN,0,70,70,166,,,0.881,441.4812440999667,441.8146610999829,441.83059589995537,442.11445239995373,442.1312660999829,None,down,442.1312660999829,None,442.1312660999829,442.9972800000105,0.07408270001178607,None,2.797850099974312,,,,,,,,,29,001,2019_Dec_25_1255,untitled,3.1.0,60.30511979773647,
203,G,M,90,R,N,203GM090RN,HRN,0,71,71,130,,,1.062,445.0157369999797,445.3444880999741,445.36292479996337,445.64471580000827,445.6616347999661,None,down,445.6616347999661,None,445.6616347999661,446.7100744000054,0.07745669997530058,None,2.648882200010121,,,,,,,,,29,001,2019_Dec_25_1255,untitled,3.1.0,60.30511979773647,
048,R,M,315,L,N,048RM315LN,HLN,0,72,72,111,,,0.9500000000000001,448.3793114,448.72481240000343,448.74196979997214,449.0249691999634,449.04166260000784,None,down,449.04166260000784,None,449.04166260000784,449.973727900011,0.06189429998630658,None,3.3001262999605387,,,,,,,,,29,001,2019_Dec_25_1255,untitled,3.1.0,60.30511979773647,
299,_2,M,90,L,N,299_2M090LN,HLN,0,73,73,154,,,1.2590000000000001,452.422339199984,452.7545639000018,452.771267300006,453.0547674999689,453.0710693000001,None,up,453.0710693000001,None,453.0710693000001,454.3198391000042,0.07189759996253997,None,3.431277499999851,,,,,,,,,29,001,2019_Dec_25_1255,untitled,3.1.0,60.30511979773647,
201,G,M,0,R,N,201GM000RN,HRN,0,74,74,128,,,1.305,456.5852198000066,456.918781699962,456.9347634000005,457.2174573999946,457.2342504999833,None,down,457.2342504999833,None,457.2342504999833,458.5170111999614,0.07366009999532253,None,2.6165422000340186,,,,,,,,,29,001,2019_Dec_25_1255,untitled,3.1.0,60.30511979773647,
429,_4,M,180,L,N,429_4M180LN,HLN,0,75,75,172,,,0.786,459.9177079999936,460.26507429999765,460.28194590000203,460.56501799996477,460.5815142999636,None,up,460.5815142999636,None,460.5815142999636,461.3475692999782,0.05840780003927648,None,2.383715600008145,,,,,,,,,29,001,2019_Dec_25_1255,untitled,3.1.0,60.30511979773647,
428,_4,M,135,L,N,428_4M135LN,HLN,0,76,76,171,,,1.012,463.0510164999869,463.3794743999606,463.3953738999553,463.67948869999964,463.69644899998093,None,down,463.69644899998093,None,463.69644899998093,464.69414779997896,0.07681910000974312,None,3.4145631000283174,,,,,,,,,29,001,2019_Dec_25_1255,untitled,3.1.0,60.30511979773647,
_,_5,M,225,_,_,__5M225__,N,0,77,77,45,,,0.9400000000000001,467.2023993000039,467.5251691999729,467.5419924999587,467.8255338000017,467.8417610999895,None,None,467.8417610999895,None,467.8417610999895,468.7745352999773,0.08095079998020083,None,,,,,,,,,,29,001,2019_Dec_25_1255,untitled,3.1.0,60.30511979773647,
422,_4,N,225,L,N,422_4N225LN,HLN,0,78,78,269,,,1.181,471.4025622999761,471.7213335999986,471.73805599997286,472.02155539998785,472.0378984999843,471.4025622999761,down,472.0378984999843,None,472.0378984999843,None,0.08924330002628267,None,0.08644889999413863,,,,,,,,,29,001,2019_Dec_25_1255,untitled,3.1.0,60.30511979773647,
492,_5,M,135,L,N,492_5M135LN,HLN,0,79,79,187,,,1.1420000000000001,472.212564299989,472.53764009999577,472.5544458999648,472.83720149996225,472.8539134999737,None,down,472.8539134999737,None,472.8539134999737,473.9865243000095,0.07920720003312454,None,2.3159980999771506,,,,,,,,,29,001,2019_Dec_25_1255,untitled,3.1.0,60.30511979773647,
264,_2,N,315,R,N,264_2N315RN,HRN,0,80,80,247,,,1.23,475.2423463999876,475.58485459996155,475.60210849996656,475.88457269995706,475.90137259999756,None,down,475.90137259999756,None,475.90137259999756,477.11710099998163,0.06553920003352687,None,3.3480975000420585,,,,,,,,,29,001,2019_Dec_25_1255,untitled,3.1.0,60.30511979773647,
488,_5,N,315,L,N,488_5N315LN,HLN,0,81,81,287,,,0.878,479.3160995999933,479.66489029995864,479.6815355999861,479.96475669997744,479.9813479000004,None,up,479.9813479000004,None,479.9813479000004,480.84845659998246,0.05953949998365715,None,1.766910599952098,,,,,,,,,29,001,2019_Dec_25_1255,untitled,3.1.0,60.30511979773647,
421,_4,N,180,L,N,421_4N180LN,HLN,0,82,82,268,,,1.25,481.8172723999596,482.1623993999674,482.17896399996243,482.4622817999916,482.48003499995684,None,up,482.48003499995684,None,482.48003499995684,483.711739099992,0.06211509997956455,None,2.9304895999957807,,,,,,,,,29,001,2019_Dec_25_1255,untitled,3.1.0,60.30511979773647,
_,_4,M,225,_,_,__4M225__,N,0,83,83,37,,,0.986,485.5036099999561,485.8259402999538,485.84226369997486,486.1259593999712,486.14240489999065,None,down,486.14240489999065,None,486.14240489999065,487.1082880999893,0.08396539994282648,None,2.5812086000223644,,,,,,,,,29,001,2019_Dec_25_1255,untitled,3.1.0,60.30511979773647,
236,G,M,135,L,N,236GM135LN,HLN,0,84,84,139,,,1.2730000000000001,488.7974143999745,489.1400414999807,489.1561669000075,489.43932000000495,489.45568600000115,None,down,489.45568600000115,None,489.45568600000115,490.70515150000574,0.0667768000275828,None,3.166608700004872,,,,,,,,,29,001,2019_Dec_25_1255,untitled,3.1.0,60.30511979773647,
258,_2,N,45,R,N,258_2N045RN,HRN,0,85,85,241,,,1.156,492.6950130999903,493.03673739999067,493.05333969998173,493.33595439995406,493.35266069998033,None,up,493.35266069998033,None,493.35266069998033,494.48474349995377,0.06519609998213127,None,2.083405999990646,,,,,,,,,29,001,2019_Dec_25_1255,untitled,3.1.0,60.30511979773647,
454,_5,N,225,R,N,454_5N225RN,HRN,0,86,86,277,,,1.385,495.51970519998576,495.85042319999775,495.8672508999589,496.1504123999621,496.1668274999829,None,up,496.1668274999829,None,496.1668274999829,497.5330188999651,0.07560889999149367,None,2.382835600001272,,,,,,,,,29,001,2019_Dec_25_1255,untitled,3.1.0,60.30511979773647,
170,F,M,45,L,N,170FM045LN,HLN,0,87,87,121,,,1.355,498.6366255999892,498.96467519999715,498.98150870000245,499.2641883000033,499.2810789999785,None,down,499.2810789999785,None,499.2810789999785,500.61292819998926,0.07865500001935288,None,2.715991600009147,,,,,,,,,29,001,2019_Dec_25_1255,untitled,3.1.0,60.30511979773647,
_,R,M,315,_,_,_RM315__,N,0,88,88,23,,,1.0090000000000001,502.06552100001136,502.41155379998963,502.4280829000054,502.7116585999611,502.7280299999984,None,down,502.7280299999984,None,502.7280299999984,503.7268705999595,0.06139940000139177,None,2.2314154999912716,,,,,,,,,29,001,2019_Dec_25_1255,untitled,3.1.0,60.30511979773647,
_,_5,M,135,_,_,__5M135__,N,0,89,89,43,,,0.9400000000000001,505.02514209999936,505.3764055999927,505.39233609999064,505.6752402999555,505.69311709998874,None,up,505.69311709998874,None,505.69311709998874,506.60778500000015,0.05864799994742498,None,2.7469731000019237,,,,,,,,,29,001,2019_Dec_25_1255,untitled,3.1.0,60.30511979773647,
164,F,N,135,L,N,164FN135LN,HLN,0,90,90,219,,,1.302,508.5117042000056,508.8565190999652,508.87294139998266,509.1552673999686,509.1718721999787,None,up,509.1718721999787,None,509.1718721999787,510.4545161999995,0.06416810001246631,None,2.082333499973174,,,,,,,,,29,001,2019_Dec_25_1255,untitled,3.1.0,60.30511979773647,
431,_4,M,270,L,N,431_4M270LN,HLN,0,91,91,174,,,1.318,511.33810110000195,511.6706177999731,511.68670939997537,511.9696666999953,511.9866142999963,None,down,511.9866142999963,None,511.9866142999963,513.285046999983,0.0767409999971278,None,3.26428639999358,,,,,,,,,29,001,2019_Dec_25_1255,untitled,3.1.0,60.30511979773647,
_,R,M,135,_,_,_RM135__,N,0,92,92,19,,,0.992,515.3175551999593,515.666896699986,515.6835579999606,515.9665759999771,515.9827981999842,None,down,515.9827981999842,None,515.9827981999842,516.9489251999767,0.05962280003586784,None,2.2175462000304833,,,,,,,,,29,001,2019_Dec_25_1255,untitled,3.1.0,60.30511979773647,
138,F,M,45,R,N,138FM045RN,HRN,0,93,93,113,,,1.121,518.2895282999962,518.6143311999622,518.6310029999586,518.9138801000081,518.9310363999684,None,down,518.9310363999684,None,518.9310363999684,520.0292294999817,0.08059799997135997,None,3.084855899971444,,,,,,,,,29,001,2019_Dec_25_1255,untitled,3.1.0,60.30511979773647,
_,G,N,180,_,_,_GN180__,N,0,94,94,60,,,0.998,522.1128125999821,522.4274041999597,522.4441706999787,522.7275233999826,522.7439856999554,None,up,522.7439856999554,None,522.7439856999554,523.7256127999863,0.08593000000109896,None,2.1981635999982245,,,,,,,,,29,001,2019_Dec_25_1255,untitled,3.1.0,60.30511979773647,
267,_2,M,90,R,N,267_2M090RN,HRN,0,95,95,146,,,1.37,525.0093612999772,525.3580948999734,525.3757432999555,525.6579673999804,525.6745207000058,None,up,525.6745207000058,None,525.6745207000058,527.0232511999784,0.059891399985644966,None,2.8652164000086486,,,,,,,,,29,001,2019_Dec_25_1255,untitled,3.1.0,60.30511979773647,
004,R,N,135,R,N,004RN135RN,HRN,0,96,96,195,,,0.892,528.6076837999863,528.9546740999795,528.9721930999658,529.2548106999602,529.2711895999964,None,up,529.2711895999964,None,529.2711895999964,530.1538421000005,0.060875700030010194,None,2.1005106000229716,,,,,,,,,29,001,2019_Dec_25_1255,untitled,3.1.0,60.30511979773647,
272,_2,M,315,R,N,272_2M315RN,HRN,0,97,97,151,,,0.986,531.4599460999598,531.7861195000005,531.8026788999559,532.0852408999926,532.101806599996,None,up,532.101806599996,None,532.101806599996,533.0686208999832,0.0802846000296995,None,2.8495478000259027,,,,,,,,,29,001,2019_Dec_25_1255,untitled,3.1.0,60.30511979773647,
464,_5,M,315,R,N,464_5M315RN,HRN,0,98,98,183,,,0.788,535.0208998000016,535.3658642999944,535.3830560999922,535.665738599957,535.6823141999776,None,down,535.6823141999776,None,535.6823141999776,536.4490203000023,0.061379200022201985,None,2.0017334999865852,,,,,,,,,29,001,2019_Dec_25_1255,untitled,3.1.0,60.30511979773647,
_,_4,N,0,_,_,__4N000__,N,0,99,99,80,,,0.738,537.7656413000077,538.0968207999831,538.1133521999582,538.3969017000054,538.4133658999926,None,up,538.4133658999926,None,538.4133658999926,539.1302766999579,0.07238710002275184,None,1.517340200021863,,,,,,,,,29,001,2019_Dec_25_1255,untitled,3.1.0,60.30511979773647,
458,_5,M,45,R,N,458_5M045RN,HRN,0,100,100,177,,,1.352,539.9977578999824,540.3446133999969,540.3625209999736,540.6441926999833,540.661554499995,None,down,540.661554499995,None,540.661554499995,541.993863599957,0.05973869998706505,None,2.7311427000095136,,,,,,,,,29,001,2019_Dec_25_1255,untitled,3.1.0,60.30511979773647,
198,G,N,225,R,N,198GN225RN,HRN,0,101,101,229,,,0.745,543.4646549999597,543.8088727999711,543.8253774999757,544.1081850999617,544.1248018000042,None,up,544.1248018000042,None,544.1248018000042,544.8582653999911,0.06518450001021847,None,2.150970700022299,,,,,,,,,29,001,2019_Dec_25_1255,untitled,3.1.0,60.30511979773647,
304,_2,M,315,L,N,304_2M315LN,HLN,0,102,102,159,,,0.71,546.3687213999801,546.6895629999926,546.7068289999734,546.9892844999558,547.0057811999577,None,up,547.0057811999577,None,547.0057811999577,547.7055236999877,0.08471670001745224,None,2.201642899948638,,,,,,,,,29,001,2019_Dec_25_1255,untitled,3.1.0,60.30511979773647,
257,_2,N,0,R,N,257_2N000RN,HRN,0,103,103,240,,,1.0150000000000001,549.278454299958,549.6202136999927,549.6369120999589,549.9200720000081,549.9369597999612,None,up,549.9369597999612,None,549.9369597999612,550.9366754000075,0.06425080000190064,None,2.365650399995502,,,,,,,,,29,001,2019_Dec_25_1255,untitled,3.1.0,60.30511979773647,
397,_4,M,180,R,N,397_4M180RN,HRN,0,104,104,164,,,0.911,552.3849054999882,552.7174119999981,552.7348841999774,553.0169881999609,553.0338274000096,None,up,553.0338274000096,None,553.0338274000096,553.9331716999877,0.07369590003509074,None,2.1342872999957763,,,,,,,,,29,001,2019_Dec_25_1255,untitled,3.1.0,60.30511979773647,
260,_2,N,135,R,N,260_2N135RN,HRN,0,105,105,243,,,1.285,555.2351497999625,555.581904599967,555.5984346999903,555.8816411999869,555.8982369999867,None,down,555.8982369999867,None,555.8982369999867,557.1638952000067,0.06001860002288595,None,2.7995888000004925,,,,,,,,,29,001,2019_Dec_25_1255,untitled,3.1.0,60.30511979773647,
008,R,N,315,R,N,008RN315RN,HRN,0,106,106,199,,,1.189,558.7667595999665,559.1130878999829,559.1287278999807,559.4122100999812,559.4289520999882,None,up,559.4289520999882,None,559.4289520999882,560.5941317999968,0.06184049998410046,None,1.9991925999638624,,,,,,,,,29,001,2019_Dec_25_1255,untitled,3.1.0,60.30511979773647,
_,_2,M,270,_,_,__2M270__,N,0,107,107,30,,,0.732,561.5306512999814,561.8429517999757,561.8596150999656,562.143144599977,562.159398799995,None,up,562.159398799995,None,562.159398799995,562.8752497999812,0.08873050002148375,None,2.764556900016032,,,,,,,,,29,001,2019_Dec_25_1255,untitled,3.1.0,60.30511979773647,
389,_4,N,180,R,N,389_4N180RN,HRN,0,108,108,260,,,1.012,564.9909611999756,565.3403834999772,565.3571411999874,565.6402510000044,565.6569680999964,None,up,565.6569680999964,None,565.6569680999964,566.655312399962,0.060144899995066226,None,1.8998603000072762,,,,,,,,,29,001,2019_Dec_25_1255,untitled,3.1.0,60.30511979773647,
227,G,N,90,L,N,227GN090LN,HLN,0,109,109,234,,,0.734,567.6427009999752,567.9712982999627,567.9877381999977,568.2710733999847,568.287516899989,None,up,568.287516899989,None,568.287516899989,569.0032615999808,0.07655870000598952,None,1.6493555000051856,,,,,,,,,29,001,2019_Dec_25_1255,untitled,3.1.0,60.30511979773647,
166,F,N,225,L,N,166FN225LN,HLN,0,110,110,221,,,0.97,570.0067655000021,570.3523418999976,570.3703949999763,570.652850799961,570.6691357999807,None,up,570.6691357999807,None,570.6691357999807,571.6182117999997,0.06324509996920824,None,2.148151500034146,,,,,,,,,29,001,2019_Dec_25_1255,untitled,3.1.0,60.30511979773647,
046,R,M,225,L,N,046RM225LN,HLN,0,111,111,109,,,1.014,572.8971120999777,573.2327648999635,573.2501238999539,573.5326804000069,573.5492255999707,None,down,573.5492255999707,None,573.5492255999707,574.5491235000081,0.07123479997972026,None,2.0326553999911994,,,,,,,,,29,001,2019_Dec_25_1255,untitled,3.1.0,60.30511979773647,
161,F,N,0,L,N,161FN000LN,HLN,0,112,112,216,,,1.039,575.6561575999949,575.9978028999758,576.0137859999668,576.2977897999808,576.3137183999643,None,up,576.3137183999643,None,576.3137183999643,577.3296438999823,0.06745720002800226,None,2.298258700000588,,,,,,,,,29,001,2019_Dec_25_1255,untitled,3.1.0,60.30511979773647,
240,G,M,315,L,N,240GM315LN,HLN,0,113,113,143,,,1.2650000000000001,578.6846028,579.028109100007,579.0447688999702,579.3277184999897,579.3442342999624,None,down,579.3442342999624,None,579.3442342999624,580.5934496999835,0.06505919998744503,None,2.8993873999570496,,,,,,,,,29,001,2019_Dec_25_1255,untitled,3.1.0,60.30511979773647,
270,_2,M,225,R,N,270_2M225RN,HRN,0,114,114,149,,,1.1320000000000001,582.3227670000051,582.6585708999773,582.6751516999793,582.9579068999738,582.9745494999806,None,up,582.9745494999806,None,582.9745494999806,584.0904153999873,0.07118979998631403,None,2.835198200016748,,,,,,,,,29,001,2019_Dec_25_1255,untitled,3.1.0,60.30511979773647,
_,_2,N,0,_,_,__2N000__,N,0,115,115,72,,,1.124,585.9022893999936,586.2216749999789,586.2389120999724,586.5214336999925,586.5389324999996,None,up,586.5389324999996,None,586.5389324999996,587.6532906999928,0.08097989996895194,None,2.699620400031563,,,,,,,,,29,001,2019_Dec_25_1255,untitled,3.1.0,60.30511979773647,
162,F,N,45,L,N,162FN045LN,HLN,0,116,116,217,,,0.9510000000000001,589.3452968999627,589.6522581999889,589.6686922999797,589.9524764000089,589.9684744999977,None,up,589.9684744999977,None,589.9684744999977,590.9009784999653,0.0958223000052385,None,2.831583499966655,,,,,,,,,29,001,2019_Dec_25_1255,untitled,3.1.0,60.30511979773647,
238,G,M,225,L,N,238GM225LN,HLN,0,117,117,141,,,1.072,592.8789599000011,593.2157849000068,593.2323320999858,593.5163826000062,593.5317792999558,None,None,593.5317792999558,None,593.5317792999558,594.5815213999595,0.06998620001832023,None,,,,,,,,,,29,001,2019_Dec_25_1255,untitled,3.1.0,60.30511979773647,
172,F,M,135,L,N,172FM135LN,HLN,0,118,118,123,,,1.196,597.0706044000108,597.4123301999643,597.4288242000039,597.7119241000037,597.7292637999635,597.0706044000108,down,597.7292637999635,None,597.7292637999635,598.9105838999967,0.06700620002811775,None,2.214669800014235,,,,,,,,,29,001,2019_Dec_25_1255,untitled,3.1.0,60.30511979773647,
039,R,N,270,L,N,039RN270LN,HLN,0,119,119,206,,,0.874,600.0106065999717,600.3595329999807,600.3762685999973,600.658809799992,600.6756746000028,None,up,600.6756746000028,None,600.6756746000028,601.5254406000022,0.05967009998857975,None,1.6665726999635808,,,,,,,,,29,001,2019_Dec_25_1255,untitled,3.1.0,60.30511979773647,
_,R,M,225,_,_,_RM225__,N,0,120,120,21,,,1.0230000000000001,602.4078867000062,602.7574752999935,602.7742383999866,603.0569183999905,603.0733952999581,None,down,603.0733952999581,None,603.0733952999581,604.0725035999785,0.058153799967840314,None,2.166739800013602,,,,,,,,,29,001,2019_Dec_25_1255,untitled,3.1.0,60.30511979773647,
231,G,N,270,L,N,231GN270LN,HLN,0,121,121,238,,,0.812,605.3081836999627,605.6551733000088,605.6718734999886,605.9548638999695,605.9713121000095,None,up,605.9713121000095,None,605.9713121000095,606.7706165999989,0.06017069995868951,None,1.9507916999864392,,,,,,,,,29,001,2019_Dec_25_1255,untitled,3.1.0,60.30511979773647,
200,G,N,315,R,N,200GN315RN,HRN,0,122,122,231,,,0.925,608.0042709999834,608.3364529999672,608.3532168999664,608.637777899974,608.6532618000056,None,up,608.6532618000056,None,608.6532618000056,609.5681168999872,0.07340819999808446,None,2.0318604000494815,,,,,,,,,29,001,2019_Dec_25_1255,untitled,3.1.0,60.30511979773647,
290,_2,N,45,L,N,290_2N045LN,HLN,0,123,123,249,,,1.165,610.7544378999737,611.1001263000071,611.1172241999884,611.3998314999626,611.4163285999675,None,down,611.4163285999675,None,611.4163285999675,612.5654662000015,0.06238479999592528,None,2.947955199982971,,,,,,,,,29,001,2019_Dec_25_1255,untitled,3.1.0,60.30511979773647,
496,_5,M,315,L,N,496_5M315LN,HLN,0,124,124,191,,,0.936,614.4389230000088,614.7819001000025,614.7992771999561,615.0800739999977,615.0968573999708,None,down,615.0968573999708,None,615.0968573999708,616.0128625999787,0.06676419998984784,None,2.5486447000293992,,,,,,,,,29,001,2019_Dec_25_1255,untitled,3.1.0,60.30511979773647,
293,_2,N,180,L,N,293_2N180LN,HLN,0,125,125,252,,,1.226,617.7511610999936,618.0605743000051,618.0772523999913,618.3602741999784,618.3770801000064,None,down,618.3770801000064,None,618.3770801000064,619.592651999963,0.0968412000220269,None,2.6498662999947555,,,,,,,,,29,001,2019_Dec_25_1255,untitled,3.1.0,60.30511979773647,
262,_2,N,225,R,N,262_2N225RN,HRN,0,126,126,245,,,1.2590000000000001,621.1053024999565,621.4405644999933,621.4576811000006,621.7410057999659,621.7574242000119,None,down,621.7574242000119,None,621.7574242000119,623.0061870999634,0.06956490001175553,None,2.800932200043462,,,,,,,,,29,001,2019_Dec_25_1255,untitled,3.1.0,60.30511979773647,
_,_5,N,90,_,_,__5N090__,N,0,127,127,90,,,1.18,624.6536225999589,624.9713722000015,624.9875475000008,625.2710646999767,625.287731599994,None,up,625.287731599994,None,625.287731599994,626.4533199999714,0.08548069995595142,None,2.3490036000148393,,,,,,,,,29,001,2019_Dec_25_1255,untitled,3.1.0,60.30511979773647,
393,_4,M,0,R,N,393_4M000RN,HRN,0,128,128,160,,,1.103,627.7388256999548,628.052128100011,628.069017199974,628.3520146000083,628.3681711999816,None,up,628.3681711999816,None,628.3681711999816,629.4508097000071,0.09399060002760962,None,2.4168387000099756,,,,,,,,,29,001,2019_Dec_25_1255,untitled,3.1.0,60.30511979773647,
_,F,N,90,_,_,_FN090__,N,0,129,129,50,,,1.0,630.8671810000087,631.1993478999939,631.2164771999815,631.4989943999681,631.5159601999912,None,up,631.5159601999912,None,631.5159601999912,632.4984747999697,0.07365209999261424,None,2.3648358000209555,,,,,,,,,29,001,2019_Dec_25_1255,untitled,3.1.0,60.30511979773647,
_,R,N,180,_,_,_RN180__,N,0,130,130,68,,,1.1440000000000001,633.9681730999728,634.2975267999573,634.3131380999694,634.5962800999987,634.6132794999867,None,up,634.6132794999867,None,634.6132794999867,635.7452009000117,0.07843979995232075,None,2.0830155000439845,,,,,,,,,29,001,2019_Dec_25_1255,untitled,3.1.0,60.30511979773647,
_,_5,M,0,_,_,__5M000__,N,0,131,131,40,,,1.0230000000000001,636.7613543999614,637.110797100002,637.1287046999787,637.4108541999594,637.4273519999697,None,down,637.4273519999697,None,637.4273519999697,638.4260816999595,0.05791859998134896,None,2.9306597999529913,,,,,,,,,29,001,2019_Dec_25_1255,untitled,3.1.0,60.30511979773647,
047,R,M,270,L,N,047RM270LN,HLN,0,132,132,110,,,0.867,640.4344563999912,640.7744981999858,640.7911191000021,641.0741731000016,641.0908911000006,None,down,641.0908911000006,None,641.0908911000006,641.9400633999612,0.067633000027854,None,2.4843609999516048,,,,,,,,,29,001,2019_Dec_25_1255,untitled,3.1.0,60.30511979773647,
141,F,M,180,R,N,141FM180RN,HRN,0,133,133,116,,,1.309,643.6660296999617,643.9885281999595,644.0049644999672,644.2882778999628,644.304339299968,None,down,644.304339299968,None,644.304339299968,645.6037673999672,0.08172110002487898,None,2.915000399982091,,,,,,,,,29,001,2019_Dec_25_1255,untitled,3.1.0,60.30511979773647,
176,F,M,315,L,N,176FM315LN,HLN,0,134,134,127,,,1.043,647.3029295000015,647.635512000008,647.6525493999943,647.9345989999711,647.9511658999836,None,down,647.9511658999836,None,647.9511658999836,648.9837729999563,0.07495099998777732,None,2.4487155999522656,,,,,,,,,29,001,2019_Dec_25_1255,untitled,3.1.0,60.30511979773647,
493,_5,M,180,L,N,493_5M180LN,HLN,0,135,135,188,,,0.802,650.4705875999643,650.8155348,650.8324075999553,651.115038399992,651.1315042999922,None,up,651.1315042999922,None,651.1315042999922,651.91449190001,0.06356989999767393,None,3.380939499998931,,,,,,,,,29,001,2019_Dec_25_1255,untitled,3.1.0,60.30511979773647,
_,F,M,180,_,_,_FM180__,N,0,136,136,4,,,1.018,654.579460399982,654.9290133999893,654.9456860999926,655.2285800999962,655.2448106000083,None,up,655.2448106000083,None,655.2448106000083,656.2437729999656,0.05950410000514239,None,3.1649718999979086,,,,,,,,,29,001,2019_Dec_25_1255,untitled,3.1.0,60.30511979773647,
_,G,M,135,_,_,_GM135__,N,0,137,137,11,,,0.845,658.4771897000028,658.8253753999597,658.8420553999604,659.1251604999998,659.1417656999547,None,down,659.1417656999547,None,659.1417656999547,659.974052799982,0.060444500006269664,None,2.5315222999779508,,,,,,,,,29,001,2019_Dec_25_1255,untitled,3.1.0,60.30511979773647,
225,G,N,0,L,N,225GN000LN,HLN,0,138,138,232,,,1.19,661.7550827999949,662.0895323999575,662.1060767999734,662.3887233999558,662.4056055999827,None,up,662.4056055999827,None,662.4056055999827,663.570783299976,0.07234550005523488,None,2.2164461000356823,,,,,,,,,29,001,2019_Dec_25_1255,untitled,3.1.0,60.30511979773647,
_,_5,N,45,_,_,__5N045__,N,0,139,139,89,,,0.782,664.6989144000108,665.0366304999916,665.0530975000001,665.3363848999725,665.3529117999715,None,up,665.3529117999715,None,665.3529117999715,666.1188170000096,0.06822499999543652,None,2.381818399997428,,,,,,,,,29,001,2019_Dec_25_1255,untitled,3.1.0,60.30511979773647,
266,_2,M,45,R,N,266_2M045RN,HRN,0,140,140,145,,,1.155,667.803167200007,668.1502166999853,668.1672152999672,668.4501089999685,668.4666853999952,None,up,668.4666853999952,None,668.4666853999952,669.5995012999629,0.06165450002299622,None,3.314592399983667,,,,,,,,,29,001,2019_Dec_25_1255,untitled,3.1.0,60.30511979773647,
_,_4,N,135,_,_,__4N135__,N,0,141,141,83,,,1.114,671.8507712999708,672.1968359999591,672.2133692000061,672.4974271999672,672.513793799968,None,up,672.513793799968,None,672.513793799968,673.6129230000079,0.06281299999682233,None,2.348279800033197,,,,,,,,,29,001,2019_Dec_25_1255,untitled,3.1.0,60.30511979773647,
005,R,N,180,R,N,005RN180RN,HRN,0,142,142,196,,,0.746,674.9485016000108,675.276907499996,675.293561599974,675.5783709000098,675.5938302999712,None,up,675.5938302999712,None,675.5938302999712,676.3281130999676,0.07767439994495362,None,2.4006099000107497,,,,,,,,,29,001,2019_Dec_25_1255,untitled,3.1.0,60.30511979773647,
_,_2,M,180,_,_,__2M180__,N,0,143,143,28,,,1.115,678.0606039999984,678.4081948999665,678.4251299999887,678.707992199983,678.7243558999617,None,up,678.7243558999617,None,678.7243558999617,679.8237813999876,0.05889540002681315,None,3.182055899989791,,,,,,,,,29,001,2019_Dec_25_1255,untitled,3.1.0,60.30511979773647,
_,_2,N,180,_,_,__2N180__,N,0,144,144,76,,,0.733,681.9735261999886,682.3213171999669,682.3382836999954,682.6215869999724,682.638008799986,None,down,682.638008799986,None,682.638008799986,683.3539965999662,0.06026460003340617,None,2.2168989999918267,,,,,,,,,29,001,2019_Dec_25_1255,untitled,3.1.0,60.30511979773647,
489,_5,M,0,L,N,489_5M000LN,HLN,0,145,145,184,,,1.1440000000000001,684.9269615999656,685.2689245999791,685.2852300999803,685.5685070999898,685.5850303999614,None,down,685.5850303999614,None,685.5850303999614,686.718179199961,0.0646102000027895,None,2.633136000018567,,,,,,,,,29,001,2019_Dec_25_1255,untitled,3.1.0,60.30511979773647,
495,_5,M,270,L,N,495_5M270LN,HLN,0,146,146,190,,,0.9590000000000001,688.2992582999868,688.6325278999866,688.6491737999604,688.932365799963,688.9497417999664,None,down,688.9497417999664,None,688.9497417999664,689.8980083999922,0.0729251999873668,None,2.364207400009036,,,,,,,,,29,001,2019_Dec_25_1255,untitled,3.1.0,60.30511979773647,
_,_4,N,45,_,_,__4N045__,N,0,147,147,81,,,0.981,691.3928376999684,691.730005099962,691.7470617999788,692.0294206999824,692.0467825999949,None,up,692.0467825999949,None,692.0467825999949,693.0120640000096,0.07078559999354184,None,2.2340554000111297,,,,,,,,,29,001,2019_Dec_25_1255,untitled,3.1.0,60.30511979773647,
_,G,N,225,_,_,_GN225__,N,0,148,148,61,,,1.2570000000000001,694.3460510000004,694.6945780999959,694.7104293999728,694.9945627999841,695.0099003000068,None,up,695.0099003000068,None,695.0099003000068,696.2593758999719,0.05696210003225133,None,3.3482002000091597,,,,,,,,,29,001,2019_Dec_25_1255,untitled,3.1.0,60.30511979773647,
_,R,N,270,_,_,_RN270__,N,0,149,149,70,,,0.781,698.4444326999946,698.7737241999712,698.7906172999647,699.073690499994,699.0903977999697,None,up,699.0903977999697,None,699.0903977999697,699.8566423999728,0.07770600001094863,None,1.6823161999927834,,,,,,,,,29,001,2019_Dec_25_1255,untitled,3.1.0,60.30511979773647,
_,_2,M,135,_,_,__2M135__,N,0,150,150,27,,,1.093,700.8421622999595,701.1889449000009,701.205524799996,701.4885248999926,701.5053102999809,None,up,701.5053102999809,None,701.5053102999809,702.5872510999907,0.06277419999241829,None,2.3349353999947198,,,,,,,,,29,001,2019_Dec_25_1255,untitled,3.1.0,60.30511979773647,
_,R,N,135,_,_,_RN135__,N,0,151,151,67,,,0.87,703.9294099999825,704.2524953999673,704.2695354999742,704.5522808000096,704.5686979999882,None,up,704.5686979999882,None,704.5686979999882,705.4193348999834,0.07965919998241588,None,2.548429100017529,,,,,,,,,29,001,2019_Dec_25_1255,untitled,3.1.0,60.30511979773647,
_,G,M,270,_,_,_GM270__,N,0,152,152,14,,,1.333,707.2062986000092,707.5330198999727,707.5499053999665,707.8324561999761,707.8498623999767,None,down,707.8498623999767,None,707.8498623999767,709.165406199987,0.0773495999746956,None,2.9325213999836706,,,,,,,,,29,001,2019_Dec_25_1255,untitled,3.1.0,60.30511979773647,
_,_4,N,225,_,_,__4N225__,N,0,153,153,85,,,1.177,710.8645787999849,711.1960620000027,711.2131834999891,711.4966556999716,711.5132957999595,None,up,711.5132957999595,None,711.5132957999595,712.6780008999631,0.07349039998371154,None,2.331240799976513,,,,,,,,,29,001,2019_Dec_25_1255,untitled,3.1.0,60.30511979773647,
137,F,M,0,R,N,137FM000RN,HRN,0,154,154,112,,,0.9450000000000001,713.9166583999759,714.2605923999799,714.277336900006,714.5599036999629,714.5764514000039,None,down,714.5764514000039,None,714.5764514000039,715.5096005999949,0.06489149999106303,None,2.2824574999976903,,,,,,,,,29,001,2019_Dec_25_1255,untitled,3.1.0,60.30511979773647,
_,_5,M,270,_,_,__5M270__,N,0,155,155,46,,,0.719,716.9250806999626,717.2744580999715,717.2910438000108,717.5743111000047,717.590296499955,None,down,717.590296499955,None,717.590296499955,718.2900201999582,0.05949569999938831,None,2.532669199979864,,,,,,,,,29,001,2019_Dec_25_1255,untitled,3.1.0,60.30511979773647,
130,F,N,45,R,N,130FN045RN,HRN,0,156,156,209,,,0.84,720.190090499993,720.5410918999696,720.5566593999974,720.8382275999757,720.854417399969,None,up,720.854417399969,None,720.854417399969,721.6705449000001,0.06019950000336394,None,2.033426599984523,,,,,,,,,29,001,2019_Dec_25_1255,untitled,3.1.0,60.30511979773647,
239,G,M,270,L,N,239GM270LN,HLN,0,157,157,142,,,1.285,722.9579006999847,723.3026772000012,723.3191448999569,723.6024848999805,723.6189535000012,None,down,723.6189535000012,None,723.6189535000012,724.8845415000105,0.06284710002364591,None,3.3170522000291385,,,,,,,,,29,001,2019_Dec_25_1255,untitled,3.1.0,60.30511979773647,
_,G,N,90,_,_,_GN090__,N,0,158,158,58,,,0.852,727.0247495999793,727.3485814000014,727.3657438000082,727.6489002999733,727.6653251000098,None,up,727.6653251000098,None,727.6653251000098,728.4983709999942,0.07917700003599748,None,2.1172075999784283,,,,,,,,,29,001,2019_Dec_25_1255,untitled,3.1.0,60.30511979773647,
_,G,M,180,_,_,_GM180__,N,0,159,159,12,,,0.8240000000000001,729.8654082999565,730.1964243999682,730.2126947999932,730.4963527999935,730.5123876999714,None,None,730.5123876999714,None,730.5123876999714,731.3289909999585,0.0743335000006482,None,,,,,,,,,,29,001,2019_Dec_25_1255,untitled,3.1.0,60.30511979773647,
486,_5,N,225,L,N,486_5N225LN,HLN,0,160,160,285,,,0.968,734.0777073999634,734.3926219999557,734.4098621999728,734.6929614999681,734.7092703999951,734.0777073999634,up,734.7092703999951,None,734.7092703999951,735.658605900011,0.08938389999093488,None,2.084162599989213,,,,,,,,,29,001,2019_Dec_25_1255,untitled,3.1.0,60.30511979773647,
_,F,N,270,_,_,_FN270__,N,0,161,161,54,,,1.114,736.8609485999914,737.2071531999973,737.2235944999848,737.5066718999879,737.5235479999683,None,up,737.5235479999683,None,737.5235479999683,738.6218763999641,0.06033200002275407,None,1.8664118999731727,,,,,,,,,29,001,2019_Dec_25_1255,untitled,3.1.0,60.30511979773647,
_,_4,N,180,_,_,__4N180__,N,0,162,162,84,,,1.266,739.4746185999829,739.8047385999816,739.8216167999781,740.1052162999986,740.1212720999611,None,up,740.1212720999611,None,740.1212720999611,741.3696420000051,0.07667669997317716,None,2.8646953999996185,,,,,,,,,29,001,2019_Dec_25_1255,untitled,3.1.0,60.30511979773647,
136,F,N,315,R,N,136FN315RN,HRN,0,163,163,215,,,0.833,743.0698312000022,743.4017668999732,743.4183321999735,743.7016378999688,743.7182473999565,None,up,743.7182473999565,None,743.7182473999565,744.5343500999734,0.0752074999618344,None,1.9005685999873094,,,,,,,,,29,001,2019_Dec_25_1255,untitled,3.1.0,60.30511979773647,
_,_4,M,315,_,_,__4M315__,N,0,164,164,39,,,1.046,745.7001764999586,746.0331985999946,746.0503439999884,746.3322876999737,746.3489454999799,None,up,746.3489454999799,None,746.3489454999799,747.381643700006,0.07350529998075217,None,2.6007328999694437,,,,,,,,,29,001,2019_Dec_25_1255,untitled,3.1.0,60.30511979773647,
391,_4,N,270,R,N,391_4N270RN,HRN,0,165,165,262,,,1.254,749.0175877999864,749.3630171999685,749.3796960999607,749.6626851999899,749.6793352999957,None,up,749.6793352999957,None,749.6793352999957,750.9131770000095,0.0611965999705717,None,2.2833228000090457,,,,,,,,,29,001,2019_Dec_25_1255,untitled,3.1.0,60.30511979773647,
_,G,N,135,_,_,_GN135__,N,0,166,166,59,,,1.0190000000000001,752.0298674000078,752.378565699968,752.3936895999941,752.677411099954,752.6934977999772,None,up,752.6934977999772,None,752.6934977999772,753.6923576999689,0.06006450002314523,None,2.6985960999736562,,,,,,,,,29,001,2019_Dec_25_1255,untitled,3.1.0,60.30511979773647,
_,_4,M,45,_,_,__4M045__,N,0,167,167,33,,,1.231,755.4748114999966,755.8073692999897,755.8242888000095,756.1070912999567,756.1234875000082,None,down,756.1234875000082,None,756.1234875000082,757.339165399957,0.07397880003554747,None,2.8478147000423633,,,,,,,,,29,001,2019_Dec_25_1255,untitled,3.1.0,60.30511979773647,
_,_2,M,0,_,_,__2M000__,N,0,168,168,24,,,0.839,759.0420111999847,759.3876116999891,759.4049751999555,759.6886959999683,759.7039856999763,None,up,759.7039856999763,None,759.7039856999763,760.5199362999992,0.06303630000911653,None,2.5495935999788344,,,,,,,,,29,001,2019_Dec_25_1255,untitled,3.1.0,60.30511979773647,
016,R,M,315,R,N,016RM315RN,HRN,0,169,169,103,,,0.79,762.3536550999852,762.6681621999596,762.6846679999726,762.967639999988,762.9846651999978,None,down,762.9846651999978,None,762.9846651999978,763.7669269999606,0.0890584000153467,None,1.915201399999205,,,,,,,,,29,001,2019_Dec_25_1255,untitled,3.1.0,60.30511979773647,
228,G,N,135,L,N,228GN135LN,HLN,0,170,170,235,,,0.76,764.9695527000003,765.3160766999936,765.3323881999822,765.6159878000035,765.6320717000053,None,up,765.6320717000053,None,765.6320717000053,766.3699169000029,0.06268029997590929,None,1.9318565999856219,,,,,,,,,29,001,2019_Dec_25_1255,untitled,3.1.0,60.30511979773647,
226,G,N,45,L,N,226GN045LN,HLN,0,171,171,233,,,0.917,767.6348943999619,767.9803252999554,767.996680399985,768.2800590999541,768.2964228999917,None,up,768.2964228999917,None,768.2964228999917,769.1960329999565,0.06363370001781732,None,1.8491555000073276,,,,,,,,,29,001,2019_Dec_25_1255,untitled,3.1.0,60.30511979773647,
042,R,M,45,L,N,042RM045LN,HLN,0,172,172,105,,,0.755,770.2153204999631,770.5612661999767,770.577899499971,770.8609077999718,770.8775820999872,None,down,770.8775820999872,None,770.8775820999872,771.6106977000018,0.060868300031870604,None,2.2353367000469007,,,,,,,,,29,001,2019_Dec_25_1255,untitled,3.1.0,60.30511979773647,
291,_2,N,90,L,N,291_2N090LN,HLN,0,173,173,250,,,0.714,773.2163700999808,773.5254986999789,773.5421051000012,773.8250809999881,773.8423078999622,None,down,773.8423078999622,None,773.8423078999622,774.5412252999959,0.09127769997576252,None,2.0992382999975234,,,,,,,,,29,001,2019_Dec_25_1255,untitled,3.1.0,60.30511979773647,
_,R,M,270,_,_,_RM270__,N,0,174,174,22,,,0.989,776.019107399974,776.3560044000042,776.3737913999939,776.6558965999866,776.6724387999857,None,down,776.6724387999857,None,776.6724387999857,777.6382968999678,0.07025799999246374,None,2.700223099964205,,,,,,,,,29,001,2019_Dec_25_1255,untitled,3.1.0,60.30511979773647,
007,R,N,270,R,N,007RN270RN,HRN,0,175,175,198,,,0.993,779.4541509999544,779.7868592999876,779.8032407999854,780.0870312000043,780.1031310000108,None,up,780.1031310000108,None,780.1031310000108,781.0854778999928,0.0726825000019744,None,1.8003082000068389,,,,,,,,,29,001,2019_Dec_25_1255,untitled,3.1.0,60.30511979773647,
140,F,M,135,R,N,140FM135RN,HRN,0,176,176,115,,,0.901,781.9839925999986,782.3179720999906,782.3345205999794,782.6178295999998,782.6341865999857,None,down,782.6341865999857,None,782.6341865999857,783.5165593999554,0.07344850001391023,None,2.631183100049384,,,,,,,,,29,001,2019_Dec_25_1255,untitled,3.1.0,60.30511979773647,
_,F,M,0,_,_,_FM000__,N,0,177,177,0,,,1.387,785.3325268999906,785.6813479999546,785.698409500008,785.9817808999796,785.9975811999757,None,down,785.9975811999757,None,785.9975811999757,787.364011299971,0.060199800005648285,None,2.315086899965536,,,,,,,,,29,001,2019_Dec_25_1255,untitled,3.1.0,60.30511979773647,
_,R,M,45,_,_,_RM045__,N,0,178,178,17,,,1.3860000000000001,788.3783059999696,788.7289979999769,788.7456291999551,789.0287641999894,789.0454099999624,None,up,789.0454099999624,None,789.0454099999624,790.4102319999947,0.058506300032604486,None,2.398669400019571,,,,,,,,,29,001,2019_Dec_25_1255,untitled,3.1.0,60.30511979773647,
483,_5,N,90,L,N,483_5N090LN,HLN,0,179,179,282,,,0.76,791.5222265999764,791.8589866000111,791.8760386999929,792.1591564000119,792.1755457000108,None,up,792.1755457000108,None,792.1755457000108,792.924838899984,0.0704117999994196,None,1.9176579000195488,,,,,,,,,29,001,2019_Dec_25_1255,untitled,3.1.0,60.30511979773647,
_,_5,N,225,_,_,__5N225__,N,0,180,180,93,,,1.34,794.1845048000105,794.5069403999951,794.5235635999707,794.8069569999934,794.8239890999976,None,up,794.8239890999976,None,794.8239890999976,796.1557109999703,0.08104620000813156,None,2.5317781000048853,,,,,,,,,29,001,2019_Dec_25_1255,untitled,3.1.0,60.30511979773647,
168,F,N,315,L,N,168FN315LN,HLN,0,181,181,223,,,0.997,797.421789999993,797.7712400999735,797.7880821999861,798.0707406000001,798.0872182999738,None,up,798.0872182999738,None,798.0872182999738,799.06951880001,0.05819439998595044,None,1.7687087999656796,,,,,,,,,29,001,2019_Dec_25_1255,untitled,3.1.0,60.30511979773647,
_,F,M,135,_,_,_FM135__,N,0,182,182,3,,,0.965,799.9408446999732,800.2686079999548,800.285344999982,800.5686854000087,800.5854409000021,None,down,800.5854409000021,None,800.5854409000021,801.5341977999778,0.07634810003219172,None,2.0505994000122882,,,,,,,,,29,001,2019_Dec_25_1255,untitled,3.1.0,60.30511979773647,
300,_2,M,135,L,N,300_2M135LN,HLN,0,183,183,155,,,0.804,802.7200224999688,803.0496384999715,803.0660353999701,803.3494770000107,803.3662216999801,None,up,803.3662216999801,None,803.3662216999801,804.1484818999888,0.07574349996866658,None,2.050415899953805,,,,,,,,,29,001,2019_Dec_25_1255,untitled,3.1.0,60.30511979773647,
265,_2,M,0,R,N,265_2M000RN,HRN,0,184,184,144,,,0.8300000000000001,805.4844739999971,805.8307294999831,805.847194299975,806.1304002999677,806.1469533999916,None,up,806.1469533999916,None,806.1469533999916,806.9630424999632,0.06036760000279173,None,2.3333081000018865,,,,,,,,,29,001,2019_Dec_25_1255,untitled,3.1.0,60.30511979773647,
232,G,N,315,L,N,232GN315LN,HLN,0,185,185,239,,,0.811,808.547976700007,808.8940545999794,808.9109798999853,809.1943348000059,809.2108379999991,None,up,809.2108379999991,None,809.2108379999991,810.0099543000106,0.06058259995188564,None,1.8672388999839313,,,,,,,,,29,001,2019_Dec_25_1255,untitled,3.1.0,60.30511979773647,
_,_5,M,180,_,_,__5M180__,N,0,186,186,44,,,1.127,811.1467719000066,811.4919940999825,811.508624799957,811.793500299973,811.8124013000051,None,None,811.8124013000051,None,811.8124013000051,812.9244089999702,0.061236999987158924,None,,,,,,,,,,29,001,2019_Dec_25_1255,untitled,3.1.0,60.30511979773647,
036,R,N,135,L,N,036RN135LN,HLN,0,187,187,203,,,1.2670000000000001,815.3402952000033,815.6883774999878,815.7051080999663,815.988228000002,816.0048228999949,815.3402952000033,up,816.0048228999949,None,816.0048228999949,817.2536953999661,0.061417799966875464,None,2.1000785999931395,,,,,,,,,29,001,2019_Dec_25_1255,untitled,3.1.0,60.30511979773647,
261,_2,N,180,R,N,261_2N180RN,HRN,0,188,188,244,,,1.282,818.1721168999793,818.5191012999858,818.5361561999889,818.8195545999915,818.8364092999836,None,up,818.8364092999836,None,818.8364092999836,820.101472499955,0.06041199999162927,None,2.2995042000547983,,,,,,,,,29,001,2019_Dec_25_1255,untitled,3.1.0,60.30511979773647,
237,G,M,180,L,N,237GM180LN,HLN,0,189,189,140,,,1.1520000000000001,821.2018079999834,821.5505618999596,821.5675943999668,821.8495043999865,821.8662886999664,None,up,821.8662886999664,None,821.8662886999664,822.9983186000027,0.059175799950025976,None,2.682132499990985,,,,,,,,,29,001,2019_Dec_25_1255,untitled,3.1.0,60.30511979773647,
041,R,M,0,L,N,041RM000LN,HLN,0,190,190,104,,,0.846,824.6294459999772,824.9639374999679,824.9802444999805,825.2633757999865,825.280006099958,None,down,825.280006099958,None,825.280006099958,826.1130315999617,0.07033489999594167,None,2.6666807000292465,,,,,,,,,29,001,2019_Dec_25_1255,untitled,3.1.0,60.30511979773647,
171,F,M,90,L,N,171FM090LN,HLN,0,191,191,122,,,1.327,828.0249955999898,828.3612545999931,828.3778581999941,828.6605306999991,828.6773694999865,None,down,828.6773694999865,None,828.6773694999865,829.9926837999956,0.07011259999126196,None,2.9479212000151165,,,,,,,,,29,001,2019_Dec_25_1255,untitled,3.1.0,60.30511979773647,
_,F,M,90,_,_,_FM090__,N,0,192,192,2,,,0.731,831.7033757999889,832.0417189999716,832.0586528999847,832.3402877000044,832.357268999971,None,down,832.357268999971,None,832.357268999971,833.0734525999869,0.06958930002292618,None,1.684871099947486,,,,,,,,,29,001,2019_Dec_25_1255,untitled,3.1.0,60.30511979773647,
_,R,M,180,_,_,_RM180__,N,0,193,193,20,,,1.022,834.1291713999817,834.4560040999786,834.4725454999716,834.7553629999747,834.7725331999827,None,down,834.7725331999827,None,834.7725331999827,835.7878116999636,0.07868899998720735,None,3.24683240003651,,,,,,,,,29,001,2019_Dec_25_1255,untitled,3.1.0,60.30511979773647,
426,_4,M,45,L,N,426_4M045LN,HLN,0,194,194,169,,,0.764,838.1022082999698,838.4363030999666,838.4519707,838.7359027999919,838.7516162999673,None,down,838.7516162999673,None,838.7516162999673,839.5012592999847,0.07552010001381859,None,2.032115999958478,,,,,,,,,29,001,2019_Dec_25_1255,untitled,3.1.0,60.30511979773647,
132,F,N,135,R,N,132FN135RN,HRN,0,195,195,211,,,1.356,840.8645766999689,841.1999113999773,841.2169516999857,841.4990480999695,841.5161275999853,None,down,841.5161275999853,None,841.5161275999853,842.8489042999572,0.07286270003532991,None,2.3999207000015303,,,,,,,,,29,001,2019_Dec_25_1255,untitled,3.1.0,60.30511979773647,
_,G,N,45,_,_,_GN045__,N,0,196,196,57,,,1.247,844.001362299954,844.3304379999754,844.3475916999741,844.6299550000113,844.6464938999852,None,up,844.6464938999852,None,844.6464938999852,845.8786452999921,0.07621510000899434,None,2.100684499950148,,,,,,,,,29,001,2019_Dec_25_1255,untitled,3.1.0,60.30511979773647,
268,_2,M,135,R,N,268_2M135RN,HRN,0,197,197,147,,,1.143,846.8222323000082,847.1609435999999,847.1779027999728,847.4611200999934,847.4778484999551,None,down,847.4778484999551,None,847.4778484999551,848.6102767999982,0.06699729996034876,None,2.6812506999704055,,,,,,,,,29,001,2019_Dec_25_1255,untitled,3.1.0,60.30511979773647,
_,F,M,315,_,_,_FM315__,N,0,198,198,7,,,0.707,850.2415604999987,850.5749428999843,850.5915702999919,850.8752318999614,850.8916471999837,None,down,850.8916471999837,None,850.8916471999837,851.5744086999912,0.07368600001791492,None,2.281512399960775,,,,,,,,,29,001,2019_Dec_25_1255,untitled,3.1.0,60.30511979773647,
423,_4,N,270,L,N,423_4N270LN,HLN,0,199,199,270,,,1.169,853.2567322999821,853.5890356999589,853.6060040000011,853.8883807999664,853.9049425999983,None,up,853.9049425999983,None,853.9049425999983,855.0542055999977,0.07585159997688606,None,2.1869009000365622,,,,,,,,,29,001,2019_Dec_25_1255,untitled,3.1.0,60.30511979773647,
_,_2,N,45,_,_,__2N045__,N,0,200,200,73,,,0.9510000000000001,856.1813005000004,856.5026434999891,856.5193541999906,856.802853000001,856.8193188000005,None,up,856.8193188000005,None,856.8193188000005,857.7557157999836,0.08048720000078902,None,2.2999587999656796,,,,,,,,,29,001,2019_Dec_25_1255,untitled,3.1.0,60.30511979773647,
196,G,N,135,R,N,196GN135RN,HRN,0,201,201,227,,,0.9500000000000001,859.1848188999575,859.5335684999591,859.5507168999757,859.8338703999761,859.8507236999576,None,up,859.8507236999576,None,859.8507236999576,860.7832955999766,0.05850679997820407,None,2.8491522000404075,,,,,,,,,29,001,2019_Dec_25_1255,untitled,3.1.0,60.30511979773647,
_,R,N,45,_,_,_RN045__,N,0,202,202,65,,,1.216,862.7689101999858,863.1145281000063,863.1308766999864,863.413943099964,863.4307341999956,None,up,863.4307341999956,None,863.4307341999956,864.6290431999951,0.06240680004702881,None,2.066485700022895,,,,,,,,,29,001,2019_Dec_25_1255,untitled,3.1.0,60.30511979773647,
400,_4,M,315,R,N,400_4M315RN,HRN,0,203,203,167,,,1.248,865.5633188000065,865.9116207999759,865.9283234999748,866.2106100000092,866.2277001999901,None,up,866.2277001999901,None,866.2277001999901,867.4603120000102,0.05912779999198392,None,2.2991690000053495,,,,,,,,,29,001,2019_Dec_25_1255,untitled,3.1.0,60.30511979773647,
144,F,M,315,R,N,144FM315RN,HRN,0,204,204,119,,,1.066,868.613323299971,868.9420584999607,868.9588150999625,869.2423739999649,869.2587115999777,None,down,869.2587115999777,None,869.2587115999777,870.3081778999767,0.07924619998084381,None,2.449022800021339,,,,,,,,,29,001,2019_Dec_25_1255,untitled,3.1.0,60.30511979773647,
230,G,N,225,L,N,230GN225LN,HLN,0,205,205,237,,,1.221,871.7980189999798,872.1227048999863,872.1398772000102,872.4223631999921,872.4390705999685,None,up,872.4390705999685,None,872.4390705999685,873.6380068999715,0.08037729997886345,None,2.266793199989479,,,,,,,,,29,001,2019_Dec_25_1255,untitled,3.1.0,60.30511979773647,
459,_5,M,90,R,N,459_5M090RN,HRN,0,206,206,178,,,1.339,874.7867469000048,875.1200824999833,875.1370283999713,875.420062499994,875.4377301000059,None,down,875.4377301000059,None,875.4377301000059,876.7519490999985,0.07340280001517385,None,2.8800942999660037,,,,,,,,,29,001,2019_Dec_25_1255,untitled,3.1.0,60.30511979773647,
193,G,N,0,R,N,193GN000RN,HRN,0,207,207,224,,,1.21,878.3887932999642,878.733954299998,878.7503967999946,879.0335243999725,879.0501876999624,None,up,879.0501876999624,None,879.0501876999624,880.2486088000005,0.06360090000089258,None,2.148876899969764,,,,,,,,,29,001,2019_Dec_25_1255,untitled,3.1.0,60.30511979773647,
038,R,N,225,L,N,038RN225LN,HLN,0,208,208,205,,,0.922,881.2909518000088,881.6144314999692,881.631031900004,881.9146513000014,881.9306368000107,None,up,881.9306368000107,None,881.9306368000107,882.8295488999574,0.0825922999647446,None,1.8657693999703042,,,,,,,,,29,001,2019_Dec_25_1255,untitled,3.1.0,60.30511979773647,
207,G,M,270,R,N,207GM270RN,HRN,0,209,209,134,,,0.713,883.8800703999586,884.2124063000083,884.2285624999786,884.5124223000021,884.5314259000006,None,down,884.5314259000006,None,884.5314259000006,885.2279357999796,0.07611939997877926,None,1.8314868999877945,,,,,,,,,29,001,2019_Dec_25_1255,untitled,3.1.0,60.30511979773647,
296,_2,N,315,L,N,296_2N315LN,HLN,0,210,210,255,,,0.723,886.4287313999957,886.7771160999546,886.793704599957,887.0762955999817,887.0928239999921,None,down,887.0928239999921,None,887.0928239999921,887.7927499999641,0.05886569997528568,None,3.2501414000289515,,,,,,,,,29,001,2019_Dec_25_1255,untitled,3.1.0,60.30511979773647,
_,_2,M,225,_,_,__2M225__,N,0,211,211,29,,,1.234,890.408776599972,890.7566807999974,890.7731096000061,891.056262099999,891.0730833999696,None,up,891.0730833999696,None,891.0730833999696,892.2884473999729,0.058359600021503866,None,3.3644326999783516,,,,,,,,,29,001,2019_Dec_25_1255,untitled,3.1.0,60.30511979773647,
387,_4,N,90,R,N,387_4N090RN,HRN,0,212,212,258,,,1.097,894.5217249999987,894.8530774000101,894.8691627999651,895.1522460999549,895.1692961999797,None,up,895.1692961999797,None,895.1692961999797,896.2511794999591,0.07431599998380989,None,2.0675893999869004,,,,,,,,,29,001,2019_Dec_25_1255,untitled,3.1.0,60.30511979773647,
_,_2,M,45,_,_,__2M045__,N,0,213,213,25,,,0.8150000000000001,897.3310098999646,897.6504970999667,897.667096899997,897.9500039999839,897.9669354999787,None,up,897.9669354999787,None,897.9669354999787,898.7659539000015,0.08413480001036078,None,2.415210000006482,,,,,,,,,29,001,2019_Dec_25_1255,untitled,3.1.0,60.30511979773647,
043,R,M,90,L,N,043RM090LN,HLN,0,214,214,106,,,1.083,900.463434699981,900.7987027000054,900.8146034000092,901.0974786999868,901.1145223999629,None,down,901.1145223999629,None,901.1145223999629,902.1803113999777,0.0721688000485301,None,2.4640286999638192,,,,,,,,,29,001,2019_Dec_25_1255,untitled,3.1.0,60.30511979773647,
045,R,M,180,L,N,045RM180LN,HLN,0,215,215,108,,,1.068,903.6458004000015,903.9950056999805,904.0116261999938,904.2948452999699,904.3124339999631,None,down,904.3124339999631,None,904.3124339999631,905.360458399984,0.05961860000388697,None,2.8303140999632888,,,,,,,,,29,001,2019_Dec_25_1255,untitled,3.1.0,60.30511979773647,
202,G,M,45,R,N,202GM045RN,HRN,0,216,216,129,,,1.208,907.214757299982,907.5596962999552,907.5749747999944,907.8581614999566,907.8753872999805,None,down,907.8753872999805,None,907.8753872999805,909.0570372999646,0.06464940001023933,None,2.469979899993632,,,,,,,,,29,001,2019_Dec_25_1255,untitled,3.1.0,60.30511979773647,
_,G,N,0,_,_,_GN000__,N,0,217,217,56,,,1.232,910.4409168999991,910.7554288000101,910.7723326999694,911.0558395999833,911.0722383999964,None,up,911.0722383999964,None,911.0722383999964,912.2878037999617,0.08511189999990165,None,2.1149936000001617,,,,,,,,,29,001,2019_Dec_25_1255,untitled,3.1.0,60.30511979773647,
_,_5,N,135,_,_,__5N135__,N,0,218,218,91,,,0.966,913.2596164999995,913.6030772000086,913.6199027000112,913.902840900002,913.9192354999832,None,up,913.9192354999832,None,913.9192354999832,914.8688561999588,0.06509859999641776,None,2.1835633000009693,,,,,,,,,29,001,2019_Dec_25_1255,untitled,3.1.0,60.30511979773647,
135,F,N,270,R,N,135FN270RN,HRN,0,219,219,214,,,0.753,916.1693584999884,916.5175715999794,916.5343748999876,916.8172163999989,916.8336128999945,None,up,916.8336128999945,None,916.8336128999945,917.5661690999987,0.059429200016893446,None,1.6172400999930687,,,,,,,,,29,001,2019_Dec_25_1255,untitled,3.1.0,60.30511979773647,
_,G,M,45,_,_,_GM045__,N,0,220,220,9,,,1.397,918.5525239999988,918.8653542000102,918.8819578000112,919.1649257999961,919.1818237999687,None,down,919.1818237999687,None,919.1818237999687,920.5637648999691,0.09107299998868257,None,2.9142314000055194,,,,,,,,,29,001,2019_Dec_25_1255,untitled,3.1.0,60.30511979773647,
_,F,M,45,_,_,_FM045__,N,0,221,221,1,,,0.9440000000000001,922.1803065999993,922.5123340999708,922.5291525999783,922.8125478999573,922.8286106999731,None,down,922.8286106999731,None,922.8286106999731,923.7607367999735,0.0759101000148803,None,2.451577699976042,,,,,,,,,29,001,2019_Dec_25_1255,untitled,3.1.0,60.30511979773647,
450,_5,N,45,R,N,450_5N045RN,HRN,0,222,222,273,,,1.118,925.3671268000035,925.6927570999833,925.7097108999733,925.9925233999966,926.0095425999607,None,up,926.0095425999607,None,926.0095425999607,927.1080596999964,0.07725439994828776,None,2.347701400052756,,,,,,,,,29,001,2019_Dec_25_1255,untitled,3.1.0,60.30511979773647,
385,_4,N,0,R,N,385_4N000RN,HRN,0,223,223,256,,,1.26,928.4283657000051,928.7734367999947,928.7909747000085,929.0729658000055,929.0896091999603,None,up,929.0896091999603,None,929.0896091999603,930.339043099957,0.06446849997155368,None,2.0817686999798752,,,,,,,,,29,001,2019_Dec_25_1255,untitled,3.1.0,60.30511979773647,
_,G,M,0,_,_,_GM000__,N,0,224,224,8,,,1.131,931.2366540000075,931.5878719000029,931.6046475999756,931.8874734999845,931.9042373999837,None,down,931.9042373999837,None,931.9042373999837,933.0195196999703,0.05849269998725504,None,2.2002321000327356,,,,,,,,,29,001,2019_Dec_25_1255,untitled,3.1.0,60.30511979773647,
011,R,M,90,R,N,011RM090RN,HRN,0,225,225,98,,,1.306,934.1831200000015,934.5188366000075,934.5351752999704,934.8180928999791,934.8347382000065,None,down,934.8347382000065,None,934.8347382000065,936.1333851999952,0.07012989994836971,None,2.666451000026427,,,,,,,,,29,001,2019_Dec_25_1255,untitled,3.1.0,60.30511979773647,
133,F,N,180,R,N,133FN180RN,HRN,0,226,226,212,,,1.217,937.5773218999966,937.9156027999707,937.9321567000006,938.2152419000049,938.2324098999961,None,down,938.2324098999961,None,938.2324098999961,939.4315216999967,0.06731900002341717,None,2.882180900021922,,,,,,,,,29,001,2019_Dec_25_1255,untitled,3.1.0,60.30511979773647,
289,_2,N,0,L,N,289_2N000LN,HLN,0,227,227,248,,,1.216,941.2174877999933,941.5287893000059,941.545963099983,941.8291169999866,941.845843499992,None,up,941.845843499992,None,941.845843499992,943.0443755000015,0.09244340000441298,None,3.0306159000028856,,,,,,,,,29,001,2019_Dec_25_1255,untitled,3.1.0,60.30511979773647,
234,G,M,45,L,N,234GM045LN,HLN,0,228,228,137,,,1.157,944.9576980999555,945.2926076999865,945.3091096999706,945.5919468000066,945.6087066999753,None,down,945.6087066999753,None,945.6087066999753,946.741057999956,0.07333770004333928,None,2.1320125999627635,,,,,,,,,29,001,2019_Dec_25_1255,untitled,3.1.0,60.30511979773647,
_,_5,N,270,_,_,__5N270__,N,0,229,229,94,,,1.227,947.8249792999704,948.1566077999887,948.1732409999822,948.4558142999886,948.4731706999592,None,up,948.4731706999592,None,948.4731706999592,949.6892137000104,0.07483209995552897,None,2.248736099980306,,,,,,,,,29,001,2019_Dec_25_1255,untitled,3.1.0,60.30511979773647,
235,G,M,90,L,N,235GM090LN,HLN,0,230,230,138,,,0.802,950.8074830999831,951.137838399969,951.1539398999885,951.4377026999719,951.4546696000034,None,down,951.4546696000034,None,951.4546696000034,952.2366434999858,0.07654350000666454,None,1.95169330004137,,,,,,,,,29,001,2019_Dec_25_1255,untitled,3.1.0,60.30511979773647,
_,F,N,45,_,_,_FN045__,N,0,231,231,49,,,1.391,953.5066436000052,953.818333800009,953.8346720999689,954.1182594999555,954.1340236999677,None,up,954.1340236999677,None,954.1340236999677,955.5162918999558,0.0899945999844931,None,2.21593289996963,,,,,,,,,29,001,2019_Dec_25_1255,untitled,3.1.0,60.30511979773647,
012,R,M,135,R,N,012RM135RN,HRN,0,232,232,99,,,0.982,956.437789299991,956.765905999986,956.7829949999577,957.0656277000089,957.0825034999871,None,down,957.0825034999871,None,957.0825034999871,958.0482198999962,0.07821979996515438,None,1.8491273000254296,,,,,,,,,29,001,2019_Dec_25_1255,untitled,3.1.0,60.30511979773647,
427,_4,M,90,L,N,427_4M090LN,HLN,0,233,233,170,,,0.777,959.0092528999667,959.3468099999591,959.3635519999661,959.6460752999992,959.6630273999763,None,down,959.6630273999763,None,959.6630273999763,960.4291801999789,0.06963829998858273,None,1.6827872999710962,,,,,,,,,29,001,2019_Dec_25_1255,untitled,3.1.0,60.30511979773647,
143,F,M,270,R,N,143FM270RN,HRN,0,234,234,118,,,1.0050000000000001,961.4185958000016,961.7620169000002,961.7788057999569,962.0625457999995,962.0774742999929,None,down,962.0774742999929,None,962.0774742999929,963.060408899968,0.06585339998127893,None,1.7675737999961711,,,,,,,,,29,001,2019_Dec_25_1255,untitled,3.1.0,60.30511979773647,
482,_5,N,45,L,N,482_5N045LN,HLN,0,235,235,281,,,0.889,963.930880800006,964.2589094999712,964.2758008000092,964.5589416999719,964.5753429000033,None,up,964.5753429000033,None,964.5753429000033,965.4414807999856,0.07886660000076517,None,1.8655472000245936,,,,,,,,,29,001,2019_Dec_25_1255,untitled,3.1.0,60.30511979773647,
_,R,M,0,_,_,_RM000__,N,0,236,236,16,,,0.998,966.5244705000077,966.8573528999696,966.8738446999923,967.1566277999664,967.1731779999682,None,down,967.1731779999682,None,967.1731779999682,968.1556223999942,0.0740409999853,None,1.8159923999919556,,,,,,,,,29,001,2019_Dec_25_1255,untitled,3.1.0,60.30511979773647,
485,_5,N,180,L,N,485_5N180LN,HLN,0,237,237,284,,,1.065,969.0563929000054,969.404843700002,969.4221053000074,969.7045734999701,969.7216746999766,None,up,969.7216746999766,None,969.7216746999766,970.7699478999712,0.06000640004640445,None,2.2810258000390604,,,,,,,,,29,001,2019_Dec_25_1255,untitled,3.1.0,60.30511979773647,
_,_4,M,180,_,_,__4M180__,N,0,238,238,36,,,0.929,972.0696409000084,972.4189065999817,972.4357242999831,972.718532799976,972.7351461999933,None,up,972.7351461999933,None,972.7351461999933,973.6509419999784,0.06005590001586825,None,1.883724999963306,,,,,,,,,29,001,2019_Dec_25_1255,untitled,3.1.0,60.30511979773647,
392,_4,N,315,R,N,392_4N315RN,HRN,0,239,239,263,,,0.77,974.6969282999635,975.0326411999995,975.0496847999748,975.3327607999672,975.3491507999715,None,up,975.3491507999715,None,975.3491507999715,976.0988738999586,0.07030699995812029,None,1.6159976999624632,,,,,,,,,29,001,2019_Dec_25_1255,untitled,3.1.0,60.30511979773647,
263,_2,N,270,R,N,263_2N270RN,HRN,0,240,240,246,,,1.205,977.0443357999902,977.3815099999774,977.3976284000091,977.6810417000088,977.6980646000011,None,up,977.6980646000011,None,977.6980646000011,978.8803576999926,0.07251199998427182,None,2.5655648999963887,,,,,,,,,29,001,2019_Dec_25_1255,untitled,3.1.0,60.30511979773647,
259,_2,N,90,R,N,259_2N090RN,HRN,0,241,241,242,,,1.156,980.3339402999845,980.6781685999595,980.694870999956,980.978022700001,980.9947069999762,None,up,980.9947069999762,None,980.9947069999762,982.1271996999858,0.062376399990171194,None,2.1491369999712333,,,,,,,,,29,001,2019_Dec_25_1255,untitled,3.1.0,60.30511979773647,
015,R,M,270,R,N,015RM270RN,HRN,0,242,242,102,,,0.769,983.2130797999562,983.5591412999784,983.5773338999716,983.8592137999949,983.8756690999726,None,down,983.8756690999726,None,983.8756690999726,984.6265787999728,0.06266930000856519,None,2.0649283999809995,,,,,,,,,29,001,2019_Dec_25_1255,untitled,3.1.0,60.30511979773647,
292,_2,N,135,L,N,292_2N135LN,HLN,0,243,243,251,,,0.77,986.0059598999796,986.357148799987,986.3737257999601,986.6562286999542,986.6730187999783,None,down,986.6730187999783,None,986.6730187999783,987.4223367999657,0.05825780000304803,None,3.0825459000188857,,,,,,,,,29,001,2019_Dec_25_1255,untitled,3.1.0,60.30511979773647,
_,F,N,315,_,_,_FN315__,N,0,244,244,55,,,0.892,989.8271161000011,990.1695627999725,990.1862366999849,990.4698430999997,990.486411299964,None,up,990.486411299964,None,990.486411299964,991.3691273999866,0.06351880001602694,None,1.732996600039769,,,,,,,,,29,001,2019_Dec_25_1255,untitled,3.1.0,60.30511979773647,
044,R,M,135,L,N,044RM135LN,HLN,0,245,245,107,,,1.064,992.2857355999877,992.6342564999941,992.6510866999743,992.9341237999615,992.9506980999722,None,down,992.9506980999722,None,992.9506980999722,994.0000258999644,0.05911440000636503,None,1.9826753999805078,,,,,,,,,29,001,2019_Dec_25_1255,untitled,3.1.0,60.30511979773647,
_,_2,N,135,_,_,__2N135__,N,0,246,246,75,,,0.909,994.9997991999844,995.3490147999837,995.3660333000007,995.6489354000078,995.6657293000026,None,up,995.6657293000026,None,995.6657293000026,996.5641428999952,0.059394100040663034,None,2.414142500027083,,,,,,,,,29,001,2019_Dec_25_1255,untitled,3.1.0,60.30511979773647,
035,R,N,90,L,N,035RN090LN,HLN,0,247,247,202,,,1.233,998.1473913000082,998.4971964999568,998.5128677999601,998.7951713000075,998.8120636999956,None,up,998.8120636999956,None,998.8120636999956,1000.0281650999677,0.059896199963986874,None,2.151681399962399,,,,,,,,,29,001,2019_Dec_25_1255,untitled,3.1.0,60.30511979773647,
003,R,N,90,R,N,003RN090RN,HRN,0,248,248,194,,,0.883,1001.049994800007,1001.3766566999839,1001.3936238999595,1001.6768699999666,1001.6929847999709,None,up,1001.6929847999709,None,1001.6929847999709,1002.5594457999687,0.07803370000328869,None,1.5858845000038855,,,,,,,,,29,001,2019_Dec_25_1255,untitled,3.1.0,60.30511979773647,
462,_5,M,225,R,N,462_5M225RN,HRN,0,249,249,181,,,0.7010000000000001,1003.3732268000022,1003.6913775999565,1003.7080962999607,1003.9913785000099,1004.0077496999875,None,down,1004.0077496999875,None,1004.0077496999875,1004.690540999989,0.08402330003445968,None,2.016371500038076,,,,,,,,,29,001,2019_Dec_25_1255,untitled,3.1.0,60.30511979773647,
294,_2,N,225,L,N,294_2N225LN,HLN,0,250,250,253,,,1.3800000000000001,1006.1061744999606,1006.4388699999545,1006.456184599956,1006.7392765999539,1006.755727199954,None,up,1006.755727199954,None,1006.755727199954,1008.1211197999655,0.07454110000981018,None,2.2820225000032224,,,,,,,,,29,001,2019_Dec_25_1255,untitled,3.1.0,60.30511979773647,
301,_2,M,180,L,N,301_2M180LN,HLN,0,251,251,156,,,0.732,1009.1225201999769,1009.4530997999827,1009.4701659999555,1009.7549823999871,1009.7747794999741,None,down,1009.7747794999741,None,1009.7747794999741,1010.4857387999655,0.0753139000153169,None,2.728361000015866,,,,,,,,,29,001,2019_Dec_25_1255,untitled,3.1.0,60.30511979773647,
394,_4,M,45,R,N,394_4M045RN,HRN,0,252,252,161,,,1.084,1012.5785867999657,1012.91775709996,1012.9337578999694,1013.216609199997,1013.2337746999692,None,down,1013.2337746999692,None,1013.2337746999692,1014.2990055999835,0.06717619998380542,None,1.916901099961251,,,,,,,,,29,001,2019_Dec_25_1255,untitled,3.1.0,60.30511979773647,
481,_5,N,0,L,N,481_5N000LN,HLN,0,253,253,280,,,0.965,1015.2370389999705,1015.564566099958,1015.5822027999675,1015.8645532999653,1015.8810162000009,None,up,1015.8810162000009,None,1015.8810162000009,1016.8299571999814,0.07810169999720529,None,1.6656521999975666,,,,,,,,,29,001,2019_Dec_25_1255,untitled,3.1.0,60.30511979773647,
_,_4,N,315,_,_,__4N315__,N,0,254,254,87,,,1.393,1017.6322104999563,1017.9633290999918,1017.9797318999772,1018.2625990000088,1018.2793820999796,None,up,1018.2793820999796,None,1018.2793820999796,1019.6606812999817,0.07713809999404475,None,2.1822537999833003,,,,,,,,,29,001,2019_Dec_25_1255,untitled,3.1.0,60.30511979773647,
006,R,N,225,R,N,006RN225RN,HRN,0,255,255,197,,,0.786,1020.5516950999736,1020.8762418999686,1020.8929114000057,1021.1757057000068,1021.192292599997,None,up,1021.192292599997,None,1021.192292599997,1021.9587123999954,0.08188740001060069,None,1.5677981000044383,,,,,,,,,29,001,2019_Dec_25_1255,untitled,3.1.0,60.30511979773647,
386,_4,N,45,R,N,386_4N045RN,HRN,0,256,256,257,,,1.385,1022.8255060999654,1023.1748820999637,1023.1911211999832,1023.4745182999759,1023.4906238999683,None,up,1023.4906238999683,None,1023.4906238999683,1024.8564821999753,0.0583615000359714,None,2.148874100006651,,,,,,,,,29,001,2019_Dec_25_1255,untitled,3.1.0,60.30511979773647,
390,_4,N,225,R,N,390_4N225RN,HRN,0,257,257,261,,,1.367,1025.7173499999917,1026.055563299975,1026.072085599997,1026.3549539999804,1026.3711330000078,None,up,1026.3711330000078,None,1026.3711330000078,1027.7209538999596,0.06919369997922331,None,2.450461099972017,,,,,,,,,29,001,2019_Dec_25_1255,untitled,3.1.0,60.30511979773647,
175,F,M,270,L,N,175FM270LN,HLN,0,258,258,126,,,1.215,1028.8910289999912,1029.236082999967,1029.2528099999763,1029.5355019999552,1029.5518890999956,None,down,1029.5518890999956,None,1029.5518890999956,1030.7517371999566,0.06264620000729337,None,3.1340045999968424,,,,,,,,,29,001,2019_Dec_25_1255,untitled,3.1.0,60.30511979773647,
199,G,N,270,R,N,199GN270RN,HRN,0,259,259,230,,,0.775,1032.7513383000041,1033.0994439999922,1033.1161231999868,1033.3988517000107,1033.415728299995,None,up,1033.415728299995,None,1033.415728299995,1034.1814587999834,0.05773539998335764,None,1.6491151999798603,,,,,,,,,29,001,2019_Dec_25_1255,untitled,3.1.0,60.30511979773647,
398,_4,M,225,R,N,398_4M225RN,HRN,0,260,260,165,,,0.9520000000000001,1035.138395899965,1035.4804287999868,1035.4973568999558,1035.779811299988,1035.7966000000015,None,down,1035.7966000000015,None,1035.7966000000015,1036.7293865999673,0.06612120004137978,None,1.9837340000085533,,,,,,,,,29,001,2019_Dec_25_1255,untitled,3.1.0,60.30511979773647,
169,F,M,0,L,N,169FM000LN,HLN,0,261,261,120,,,0.756,1037.8503101000097,1038.1948180999607,1038.2114528999664,1038.49391249998,1038.5110272999736,None,up,1038.5110272999736,None,1038.5110272999736,1039.2440698999562,0.06289310002466664,None,1.902935800026171,,,,,,,,,29,001,2019_Dec_25_1255,untitled,3.1.0,60.30511979773647,
395,_4,M,90,R,N,395_4M090RN,HRN,0,262,262,162,,,0.748,1040.4991608999553,1040.8261634999653,1040.8426752999658,1041.1259248999995,1041.142847799987,None,down,1041.142847799987,None,1041.142847799987,1041.8744857999845,0.07732199999736622,None,1.9814095000037923,,,,,,,,,29,001,2019_Dec_25_1255,untitled,3.1.0,60.30511979773647,
_,F,M,270,_,_,_FM270__,N,0,263,263,6,,,1.014,1043.2042503999546,1043.5403595999815,1043.5569801999955,1043.840737999999,1043.859353000007,None,down,1043.859353000007,None,1043.859353000007,1044.8563470999943,0.07165689999237657,None,2.0957481000223197,,,,,,,,,29,001,2019_Dec_25_1255,untitled,3.1.0,60.30511979773647,
_,_5,M,90,_,_,__5M090__,N,0,264,264,42,,,1.307,1046.0225866999826,1046.370986199996,1046.387648199976,1046.6706473999657,1046.6874279999756,None,down,1046.6874279999756,None,1046.6874279999756,1047.969440499961,0.0602964999852702,None,2.4499880999792367,,,,,,,,,29,001,2019_Dec_25_1255,untitled,3.1.0,60.30511979773647,
_,_2,N,225,_,_,__2N225__,N,0,265,265,77,,,1.124,1049.211190300004,1049.5515030999668,1049.5681154999766,1049.8512691999786,1049.8677828999935,None,up,1049.8677828999935,None,1049.8677828999935,1050.9669371999917,0.06612700002733618,None,2.318259399966337,,,,,,,,,29,001,2019_Dec_25_1255,untitled,3.1.0,60.30511979773647,
_,_4,M,90,_,_,__4M090__,N,0,266,266,34,,,0.783,1052.2533594999695,1052.5992393000051,1052.6160929999896,1052.898077299993,1052.9152075999882,None,down,1052.9152075999882,None,1052.9152075999882,1053.6813126999768,0.06003950000740588,None,1.8181508000125177,,,,,,,,,29,001,2019_Dec_25_1255,untitled,3.1.0,60.30511979773647,
_,_2,M,315,_,_,__2M315__,N,0,267,267,31,,,1.17,1054.8151482999674,1055.147268700006,1055.1633349999902,1055.447620299994,1055.4645116999745,None,down,1055.4645116999745,None,1055.4645116999745,1056.6122098999913,0.07311939995270222,None,2.7163631000439636,,,,,,,,,29,001,2019_Dec_25_1255,untitled,3.1.0,60.30511979773647,
_,_5,M,315,_,_,__5M315__,N,0,268,268,47,,,0.9440000000000001,1058.275574099971,1058.5935660999967,1058.6108482999844,1058.8940831999644,1058.910695199971,None,down,1058.910695199971,None,1058.910695199971,1059.842665300006,0.08168420003494248,None,2.4478267000522465,,,,,,,,,29,001,2019_Dec_25_1255,untitled,3.1.0,60.30511979773647,
229,G,N,180,L,N,229GN180LN,HLN,0,269,269,236,,,1.397,1061.4349083999987,1061.774413999985,1061.7911333999946,1062.0744507999625,1062.090966799995,None,up,1062.090966799995,None,1062.090966799995,1063.4726759999758,0.06856949999928474,None,3.217234499985352,,,,,,,,,29,001,2019_Dec_25_1255,untitled,3.1.0,60.30511979773647,
195,G,N,90,R,N,195GN090RN,HRN,0,270,270,226,,,0.747,1065.376986599993,1065.721094299981,1065.7373777999892,1066.0202660000068,1066.037187399983,None,up,1066.037187399983,None,1066.037187399983,1066.769484999997,0.061669400020036846,None,1.7161652999930084,,,,,,,,,29,001,2019_Dec_25_1255,untitled,3.1.0,60.30511979773647,
_,F,N,0,_,_,_FN000__,N,0,271,271,48,,,1.168,1067.8181696999818,1068.1686238999828,1068.185380799987,1068.468395999982,1068.4858195999986,None,up,1068.4858195999986,None,1068.4858195999986,1069.6341558999848,0.05789329996332526,None,1.883291400037706,,,,,,,,,29,001,2019_Dec_25_1255,untitled,3.1.0,60.30511979773647,
430,_4,M,225,L,N,430_4M225LN,HLN,0,272,272,173,,,1.2,1070.4482853999943,1070.7829648999614,1070.799316199962,1071.0829959999537,1071.0996198999928,None,down,1071.0996198999928,None,1071.0996198999928,1072.2815214999719,0.0706353000132367,None,2.466541599947959,,,,,,,,,29,001,2019_Dec_25_1255,untitled,3.1.0,60.30511979773647,
001,R,N,0,R,N,001RN000RN,HRN,0,273,273,192,,,1.124,1073.6383574999636,1073.9806156999548,1073.9969685999677,1074.2805009000003,1074.2972229999723,None,up,1074.2972229999723,None,1074.2972229999723,1075.4123156999703,0.06538070004899055,None,1.9821270999964327,,,,,,,,,29,001,2019_Dec_25_1255,untitled,3.1.0,60.30511979773647,
420,_4,N,135,L,N,420_4N135LN,HLN,0,274,274,267,,,1.284,1076.3557505999925,1076.6944111000048,1076.7116394999903,1076.9941517999978,1077.0107781999977,None,up,1077.0107781999977,None,1077.0107781999977,1078.2769096999546,0.06820749997859821,None,2.215075700019952,,,,,,,,,29,001,2019_Dec_25_1255,untitled,3.1.0,60.30511979773647,
_,G,M,90,_,_,_GM090__,N,0,275,275,10,,,1.169,1079.2933643999859,1079.6413782999734,1079.6582994000055,1079.9420684999786,1079.9583807999734,None,down,1079.9583807999734,None,1079.9583807999734,1081.1074636999983,0.06037869997089729,None,2.514155099983327,,,,,,,,,29,001,2019_Dec_25_1255,untitled,3.1.0,60.30511979773647,
013,R,M,180,R,N,013RM180RN,HRN,0,276,276,100,,,1.285,1082.5372956999927,1082.8887272999855,1082.9069701999542,1083.1910065999837,1083.2061527000042,None,down,1083.2061527000042,None,1083.2061527000042,1084.4710896000033,0.05784509994555265,None,2.348247000016272,,,,,,,,,29,001,2019_Dec_25_1255,untitled,3.1.0,60.30511979773647,
_,_2,N,270,_,_,__2N270__,N,0,277,277,78,,,0.995,1085.6552057999652,1085.9709932999685,1085.9865349999745,1086.2692883999553,1086.286759599985,None,up,1086.286759599985,None,1086.286759599985,1087.2687225000118,0.08917059999657795,None,2.248431400046684,,,,,,,,,29,001,2019_Dec_25_1255,untitled,3.1.0,60.30511979773647,
134,F,N,225,R,N,134FN225RN,HRN,0,278,278,213,,,1.348,1088.622080800007,1088.9506168999942,1088.9671623999602,1089.25134909997,1089.2669874999556,None,up,1089.2669874999556,None,1089.2669874999556,1090.5991984999855,0.0774057999951765,None,2.0486152000376023,,,,,,,,,29,001,2019_Dec_25_1255,untitled,3.1.0,60.30511979773647,
417,_4,N,0,L,N,417_4N000LN,HLN,0,279,279,264,,,1.282,1091.3831786999945,1091.7314960999647,1091.7482859999873,1092.0309895999962,1092.0485903999652,None,up,1092.0485903999652,None,1092.0485903999652,1093.3130713999853,0.059934600023552775,None,2.2997775999829173,,,,,,,,,29,001,2019_Dec_25_1255,untitled,3.1.0,60.30511979773647,
033,R,N,0,L,N,033RN000LN,HLN,0,280,280,200,,,1.1480000000000001,1094.4348844999913,1094.7627518000081,1094.778969099978,1095.0629574999912,1095.0788527000113,None,up,1095.0788527000113,None,1095.0788527000113,1096.210502700007,0.07794649997958913,None,1.7154591999715194,,,,,,,,,29,001,2019_Dec_25_1255,untitled,3.1.0,60.30511979773647,
_,F,N,135,_,_,_FN135__,N,0,281,281,51,,,1.3780000000000001,1096.8721974999644,1097.209782799997,1097.2263223999762,1097.5093005999806,1097.5264963000081,None,up,1097.5264963000081,None,1097.5264963000081,1098.8917631999939,0.07039489998714998,None,2.6496616000076756,,,,,,,,,29,001,2019_Dec_25_1255,untitled,3.1.0,60.30511979773647,
204,G,M,135,R,N,204GM135RN,HRN,0,282,282,131,,,1.246,1100.2634413999622,1100.59045769996,1100.6072626999812,1100.8901008999674,1100.9071113999817,None,down,1100.9071113999817,None,1100.9071113999817,1102.1398749999935,0.0780382000375539,None,2.5647544999956153,,,,,,,,,29,001,2019_Dec_25_1255,untitled,3.1.0,60.30511979773647,
269,_2,M,180,R,N,269_2M180RN,HRN,0,283,283,148,,,1.123,1103.5622869000072,1103.8875662999926,1103.9037899000105,1104.1871784999967,1104.2035740999854,None,down,1104.2035740999854,None,1104.2035740999854,1105.3026780000073,0.08137769997119904,None,2.9004106000065804,,,,,,,,,29,001,2019_Dec_25_1255,untitled,3.1.0,60.30511979773647,
425,_4,M,0,L,N,425_4M000LN,HLN,0,284,284,168,,,1.071,1107.1886764999945,1107.517784799973,1107.5346330999746,1107.817348499957,1107.833840599982,None,up,1107.833840599982,None,1107.833840599982,1108.8829449999612,0.07551440002862364,None,1.948908600024879,,,,,,,,,29,001,2019_Dec_25_1255,untitled,3.1.0,60.30511979773647,
163,F,N,90,L,N,163FN090LN,HLN,0,285,285,218,,,1.086,1109.8555089999572,1110.1985270999721,1110.21533669997,1110.498415799986,1110.5149679000024,None,up,1110.5149679000024,None,1110.5149679000024,1111.580576999986,0.06531929998891428,None,1.8824147999985144,,,,,,,,,29,001,2019_Dec_25_1255,untitled,3.1.0,60.30511979773647,
040,R,N,315,L,N,040RN315LN,HLN,0,286,286,207,,,1.067,1112.485624199966,1112.812852300005,1112.8293439999688,1113.1125756999827,1113.1292431000038,None,up,1113.1292431000038,None,1113.1292431000038,1114.178225999989,0.08040620002429932,None,1.9153766999952495,,,,,,,,,29,001,2019_Dec_25_1255,untitled,3.1.0,60.30511979773647,
487,_5,N,270,L,N,487_5N270LN,HLN,0,287,287,286,,,1.302,1115.1143641999806,1115.4608376999968,1115.4776872000075,1115.7611258999677,1115.7770822999883,None,up,1115.7770822999883,None,1115.7770822999883,1117.0598151999875,0.06261650001397356,None,2.1489236000343226,,,,,,,,,29,001,2019_Dec_25_1255,untitled,3.1.0,60.30511979773647,
,,,,,,,,,,,,,,,,,,,,,,,,,,,,,1117.9421045999625,None,1122.837948600005,None,1124.76928269997,None,1127.2337825999712,None,,,,,,,
