Number,Letter,type,Orientation,human,face_type,image,picture,trials.thisRepN,trials.thisTrialN,trials.thisN,trials.thisIndex,text.started,text.stopped,stimulus_duration,CROSS.started,CROSS.stopped,BLANK.started,BLANK.stopped,TEST.started,TEST.stopped,key_JUDGE.keys,key_JUDGE.rt,key_JUDGE.started,key_JUDGE.stopped,image_2.started,image_2.stopped,ISI.started,ISI.stopped,q1.started,q1.stopped,q2.started,q2.stopped,q3.started,q3.stopped,text_2.started,text_2.stopped,participant,session,date,expName,psychopyVersion,frameRate
_,F,M,45,_,_,_FM045__,N,0,0,0,1,42.2933299,None,0.843,64.839772,65.1334921,65.1334921,65.4168002,65.4338923,None,None,,65.4338923,None,65.4338923,66.2665663,0.1294928,None,,,,,,,,,2,1,2019_Dec_20_1629,untitled,3.1.0,60.21531793
240,G,M,315,L,N,240GM315LN,HLN,0,1,1,143,,,1.269,69.2030986,69.4963522,69.4963522,69.6801005,69.6967662,69.2030986,down,3.3306633,69.6967662,None,69.6967662,70.9456947,0.2314909,None,,,,,,,,,2,1,2019_Dec_20_1629,untitled,3.1.0,60.21531793
426,_4,M,45,L,N,426_4M045LN,HLN,0,2,2,169,,,1.049,73.2427722,73.5426453,73.5426453,73.7426478,73.7591499,None,None,,73.7591499,None,73.7591499,74.7924072,0.2068675,None,,,,,,,,,2,1,2019_Dec_20_1629,untitled,3.1.0,60.21531793
_,_4,M,45,_,_,__4M045__,N,0,3,3,33,,,1.201,77.4451145,77.739121,77.739121,77.9396646,77.9567409,77.4451145,None,,77.9567409,None,77.9567409,79.1385314,0.2108743,None,,,,,,,,,2,1,2019_Dec_20_1629,untitled,3.1.0,60.21531793
389,_4,N,180,R,N,389_4N180RN,HRN,0,4,4,260,,,0.785,81.6218599,81.9189578,81.9189578,82.1361552,82.1525915,81.6218599,up,3.3848892,82.1525915,None,82.1525915,82.9185905,0.1909396,None,,,,,,,,,2,1,2019_Dec_20_1629,untitled,3.1.0,60.21531793
193,G,N,0,R,N,193GN000RN,HRN,0,5,5,224,,,0.892,85.7533447,86.0490638,86.0490638,86.2492788,86.2657749,None,up,3.0853443,86.2657749,None,86.2657749,87.1482687,0.2037945,None,,,,,,,,,2,1,2019_Dec_20_1629,untitled,3.1.0,60.21531793
39,R,N,270,L,N,039RN270LN,HLN,0,6,6,206,,,0.765,89.5877179,89.8788064,89.8788064,90.0623665,90.0790252,None,down,2.098994,90.0790252,None,90.0790252,90.8281177,0.2247076,None,,,,,,,,,2,1,2019_Dec_20_1629,untitled,3.1.0,60.21531793
226,G,N,45,L,N,226GN045LN,HLN,0,7,7,233,,,0.845,92.3764462,92.6760645,92.6760645,92.8926212,92.9090714,None,down,1.7170351,92.9090714,None,92.9090714,93.741732,0.1913089,None,,,,,,,,,2,1,2019_Dec_20_1629,untitled,3.1.0,60.21531793
231,G,N,270,L,N,231GN270LN,HLN,0,8,8,238,,,0.947,94.7592489,95.057051,95.057051,95.3405908,95.3572237,None,down,1.7834329,95.3572237,None,95.3572237,96.2902776,0.122041,None,,,,,,,,,2,1,2019_Dec_20_1629,untitled,3.1.0,60.21531793
7,R,N,270,R,N,007RN270RN,HRN,0,9,9,198,,,1.051,97.3610653,97.6551496,97.6551496,97.8553084,97.8722741,None,up,2.2491607,97.8722741,None,97.8722741,98.9044874,0.210045,None,,,,,,,,,2,1,2019_Dec_20_1629,untitled,3.1.0,60.21531793
_,F,M,90,_,_,_FM090__,N,0,10,10,2,,,0.936,100.3368014,100.6361949,100.6361949,100.8364109,100.8543957,None,None,,100.8543957,None,100.8543957,101.7692809,0.2025673,None,,,,,,,,,2,1,2019_Dec_20_1629,untitled,3.1.0,60.21531793
464,_5,M,315,R,N,464_5M315RN,HRN,0,11,11,183,,,1.057,104.5284803,104.8322197,104.8322197,105.0323555,105.0492684,104.5284803,None,,105.0492684,None,105.0492684,106.0820206,0.2028776,None,,,,,,,,,2,1,2019_Dec_20_1629,untitled,3.1.0,60.21531793
454,_5,N,225,R,N,454_5N225RN,HRN,0,12,12,277,,,0.941,108.6163763,108.9292652,108.9450351,109.2289191,109.2454422,108.6163763,None,,109.2454422,None,109.2454422,110.1777973,0.0916942,None,,,,,,,,,2,1,2019_Dec_20_1629,untitled,3.1.0,60.21531793
_,G,N,270,_,_,_GN270__,N,0,13,13,62,,,1.231,112.9312406,113.2249692,113.2249692,113.4252732,113.4421582,112.9312406,up,2.5502812,113.4421582,None,113.4421582,114.6577084,0.2156836,None,,,,,,,,,2,1,2019_Dec_20_1629,untitled,3.1.0,60.21531793
451,_5,N,90,R,N,451_5N090RN,HRN,0,14,14,274,,,1.181,116.1161225,116.4053974,116.4053974,116.7058925,116.722536,None,down,2.5155702,116.722536,None,116.722536,117.8882507,0.1120378,None,,,,,,,,,2,1,2019_Dec_20_1629,untitled,3.1.0,60.21531793
_,_2,M,180,_,_,__2M180__,N,0,15,15,28,,,0.826,119.4728366,119.7694265,119.7694265,119.9519734,119.96849,None,down,2.2817909,119.96849,None,119.96849,120.7848691,0.2251318,None,,,,,,,,,2,1,2019_Dec_20_1629,untitled,3.1.0,60.21531793
_,R,N,90,_,_,_RN090__,N,0,16,16,66,,,0.919,122.4179364,122.7166172,122.7166172,122.9663473,122.9825723,None,down,2.8150989,122.9825723,None,122.9825723,123.8823813,0.1606691,None,,,,,,,,,2,1,2019_Dec_20_1629,untitled,3.1.0,60.21531793
387,_4,N,90,R,N,387_4N090RN,HRN,0,17,17,258,,,1.216,125.9508767,126.2467869,126.2467869,126.5132781,126.5300373,None,down,2.7825174,126.5300373,None,126.5300373,127.7286981,0.1464515,None,,,,,,,,,2,1,2019_Dec_20_1629,untitled,3.1.0,60.21531793
161,F,N,0,L,N,161FN000LN,HLN,0,18,18,216,,,0.994,129.521141,129.8108586,129.8108586,130.0273747,130.0440657,None,down,1.8657104,130.0440657,None,130.0440657,131.0278906,0.1973081,None,,,,,,,,,2,1,2019_Dec_20_1629,untitled,3.1.0,60.21531793
_,R,M,45,_,_,_RM045__,N,0,19,19,17,,,0.723,132.0243527,132.3250586,132.3415397,132.626593,132.64198,None,down,1.6995222,132.64198,None,132.64198,133.357802,0.1027981,None,,,,,,,,,2,1,2019_Dec_20_1629,untitled,3.1.0,60.21531793
4,R,N,135,R,N,004RN135RN,HRN,0,20,20,195,,,1.09,134.5340647,134.8243278,134.8243278,135.0554455,135.0724328,None,down,2.0166924,135.0724328,None,135.0724328,136.154596,0.1819873,None,,,,,,,,,2,1,2019_Dec_20_1629,untitled,3.1.0,60.21531793
290,_2,N,45,L,N,290_2N045LN,HLN,0,21,21,249,,,1.163,137.2080177,137.503717,137.5204105,137.8040215,137.8206746,None,None,,137.8206746,None,137.8206746,138.9728632,0.1076548,None,,,,,,,,,2,1,2019_Dec_20_1629,untitled,3.1.0,60.21531793
496,_5,M,315,L,N,496_5M315LN,HLN,0,22,22,191,,,0.928,141.4953324,141.7835599,141.7835599,142.0006384,142.0172771,141.4953324,down,2.5476901,142.0172771,None,142.0172771,142.9329712,0.1994665,None,,,,,,,,,2,1,2019_Dec_20_1629,untitled,3.1.0,60.21531793
37,R,N,180,L,N,037RN180LN,HLN,0,23,23,204,,,1.273,144.7828614,145.0807812,145.0807812,145.2807782,145.2976252,None,None,,145.2976252,None,145.2976252,146.5464068,0.2096909,None,,,,,,,,,2,1,2019_Dec_20_1629,untitled,3.1.0,60.21531793
_,R,N,0,_,_,_RN000__,N,0,24,24,64,,,1.253,148.9821554,149.2777614,149.2777614,149.4770472,149.4939013,148.9821554,up,0.0337526,149.4939013,None,149.4939013,None,0.2111745,None,,,,,,,,,2,1,2019_Dec_20_1629,untitled,3.1.0,60.21531793
423,_4,N,270,L,N,423_4N270LN,HLN,0,25,25,270,,,1.081,149.6189698,149.9428703,149.9594861,150.2435151,150.259711,None,down,2.4679869,150.259711,None,150.259711,151.3260264,0.082901,None,,,,,,,,,2,1,2019_Dec_20_1629,untitled,3.1.0,60.21531793
_,F,N,90,_,_,_FN090__,N,0,26,26,50,,,1.219,152.9342367,153.2236184,153.2236184,153.440442,153.4571313,None,up,2.4646421,153.4571313,None,153.4571313,154.6559308,0.1951896,None,,,,,,,,,2,1,2019_Dec_20_1629,untitled,3.1.0,60.21531793
163,F,N,90,L,N,163FN090LN,HLN,0,27,27,218,,,0.702,156.1351621,156.4374162,156.4374162,156.637429,156.6543526,None,up,1.4166999,156.6543526,None,156.6543526,157.337439,0.2035387,None,,,,,,,,,2,1,2019_Dec_20_1629,untitled,3.1.0,60.21531793
204,G,M,135,R,N,204GM135RN,HRN,0,28,28,131,,,0.989,158.2929192,158.5859655,158.5859655,158.7860056,158.8025526,None,down,2.2669719,158.8025526,None,158.8025526,159.7850616,0.2099526,None,,,,,,,,,2,1,2019_Dec_20_1629,untitled,3.1.0,60.21531793
_,R,N,270,_,_,_RN270__,N,0,29,29,70,,,0.792,161.2902865,161.5828749,161.5828749,161.7834014,161.7998709,None,up,1.8980211,161.7998709,None,161.7998709,162.5827183,0.2091011,None,,,,,,,,,2,1,2019_Dec_20_1629,untitled,3.1.0,60.21531793
200,G,N,315,R,N,200GN315RN,HRN,0,30,30,231,,,1.033,163.9169475,164.2135161,164.2135161,164.4144444,164.4305164,None,up,2.3985771,164.4305164,None,164.4305164,165.4456431,0.2105449,None,,,,,,,,,2,1,2019_Dec_20_1629,untitled,3.1.0,60.21531793
399,_4,M,270,R,N,399_4M270RN,HRN,0,31,31,166,,,0.749,166.9086554,167.2450075,167.2616519,167.5449522,167.5616941,None,up,1.9980584,167.5616941,None,167.5616941,168.2945217,0.0692848,None,,,,,,,,,2,1,2019_Dec_20_1629,untitled,3.1.0,60.21531793
422,_4,N,225,L,N,422_4N225LN,HLN,0,32,32,269,,,1.197,169.6724698,169.9612726,169.9921402,170.2765469,170.2925571,None,None,,170.2925571,None,170.2925571,171.4746096,0.1039236,None,,,,,,,,,2,1,2019_Dec_20_1629,untitled,3.1.0,60.21531793
393,_4,M,0,R,N,393_4M000RN,HRN,0,33,33,160,,,0.92,173.8931265,174.1886624,174.1886624,174.4732482,174.4888959,173.8931265,down,2.8825929,174.4888959,None,174.4888959,175.3874736,0.1261891,None,,,,,,,,,2,1,2019_Dec_20_1629,untitled,3.1.0,60.21531793
5,R,N,180,R,N,005RN180RN,HRN,0,34,34,196,,,1.152,177.4992816,177.7875625,177.7875625,178.0859397,178.1023043,None,None,,178.1023043,None,178.1023043,179.2349523,0.116106,None,,,,,,,,,2,1,2019_Dec_20_1629,untitled,3.1.0,60.21531793
268,_2,M,135,R,N,268_2M135RN,HRN,0,35,35,147,,,1.352,181.6905284,181.9819542,181.9819542,182.2814184,182.2985319,181.6905284,down,3.4001586,182.2985319,None,182.2985319,183.6305813,0.1141502,None,,,,,,,,,2,1,2019_Dec_20_1629,untitled,3.1.0,60.21531793
419,_4,N,90,L,N,419_4N090LN,HLN,0,36,36,266,,,1.354,185.8314826,186.1281189,186.1281189,186.4117469,186.4285,None,up,3.3318787,186.4285,None,186.4285,187.760503,0.1214753,None,,,,,,,,,2,1,2019_Dec_20_1629,untitled,3.1.0,60.21531793
430,_4,M,225,L,N,430_4M225LN,HLN,0,37,37,173,,,1.341,189.9782642,190.2746705,190.2746705,190.4748647,190.4912156,None,down,3.3335039,190.4912156,None,190.4912156,191.8230862,0.2064191,None,,,,,,,,,2,1,2019_Dec_20_1629,untitled,3.1.0,60.21531793
_,_2,M,270,_,_,__2M270__,N,0,38,38,30,,,1.287,193.9591931,194.2551135,194.2551135,194.53794,194.5546259,None,None,,194.5546259,None,194.5546259,195.8366923,0.1235579,None,,,,,,,,,2,1,2019_Dec_20_1629,untitled,3.1.0,60.21531793
456,_5,N,315,R,N,456_5N315RN,HRN,0,39,39,279,,,1.218,198.1383246,198.4338104,198.4509754,198.7343431,198.7510119,198.1383246,up,2.3821287,198.7510119,None,198.7510119,199.9487329,0.1095322,None,,,,,,,,,2,1,2019_Dec_20_1629,untitled,3.1.0,60.21531793
295,_2,N,270,L,N,295_2N270LN,HLN,0,40,40,254,,,1.304,201.2561328,201.5479642,201.5640788,201.8479027,201.8645819,None,down,2.5665212,201.8645819,None,201.8645819,203.1474376,0.1115454,None,,,,,,,,,2,1,2019_Dec_20_1629,untitled,3.1.0,60.21531793
138,F,M,45,R,N,138FM045RN,HRN,0,41,41,113,,,0.775,204.5554614,204.8453618,204.8453618,205.1453615,205.1618952,None,down,1.8164169,205.1618952,None,205.1618952,205.9282855,0.1121771,None,,,,,,,,,2,1,2019_Dec_20_1629,untitled,3.1.0,60.21531793
_,R,N,45,_,_,_RN045__,N,0,42,42,65,,,1.349,207.0690344,207.3927397,207.4095102,207.6923958,207.7089136,None,None,,207.7089136,None,207.7089136,209.0416722,0.0817735,None,,,,,,,,,2,1,2019_Dec_20_1629,untitled,3.1.0,60.21531793
_,_2,M,135,_,_,__2M135__,N,0,43,43,27,,,1.186,211.2440818,211.5894303,211.6056246,211.8885617,211.9052404,211.2440818,None,,211.9052404,None,211.9052404,213.0710524,0.0643281,None,,,,,,,,,2,1,2019_Dec_20_1629,untitled,3.1.0,60.21531793
_,_5,N,270,_,_,__5N270__,N,0,44,44,94,,,1.338,215.5048639,215.8023159,215.8023159,216.0859026,216.1054047,215.5048639,up,2.8954014,216.1054047,None,216.1054047,217.4183613,0.1245829,None,,,,,,,,,2,1,2019_Dec_20_1629,untitled,3.1.0,60.21531793
455,_5,N,270,R,N,455_5N270RN,HRN,0,45,45,278,,,0.823,219.0819358,219.4161474,219.4322195,219.7152574,219.7321533,None,up,2.5324002,219.7321533,None,219.7321533,220.5319298,0.0739785,None,,,,,,,,,2,1,2019_Dec_20_1629,untitled,3.1.0,60.21531793
_,_4,N,90,_,_,__4N090__,N,0,46,46,82,,,0.988,222.3834862,222.6798105,222.6960829,222.9800725,222.9966275,None,None,,222.9966275,None,222.9966275,223.9622894,0.1080987,None,,,,,,,,,2,1,2019_Dec_20_1629,untitled,3.1.0,60.21531793
236,G,M,135,L,N,236GM135LN,HLN,0,47,47,139,,,1.267,226.6499769,226.9424379,226.9424379,227.1761955,227.1927758,226.6499769,down,2.484364,227.1927758,None,227.1927758,228.4417833,0.1821942,None,,,,,,,,,2,1,2019_Dec_20_1629,untitled,3.1.0,60.21531793
13,R,M,180,R,N,013RM180RN,HRN,0,48,48,100,,,0.731,229.815542,230.1063171,230.1063171,230.3903067,230.4068679,None,None,,230.4068679,None,230.4068679,231.1227008,0.1267634,None,,,,,,,,,2,1,2019_Dec_20_1629,untitled,3.1.0,60.21531793
1,R,N,0,R,N,001RN000RN,HRN,0,49,49,192,,,0.727,234.0753046,234.3692734,234.3692734,234.5866327,234.6032872,234.0753046,down,3.3651867,234.6032872,None,234.6032872,235.319157,0.1979142,None,,,,,,,,,2,1,2019_Dec_20_1629,untitled,3.1.0,60.21531793
_,G,M,0,_,_,_GM000__,N,0,50,50,8,,,0.974,238.2127032,238.5013253,238.5013253,238.6826209,238.6995434,None,down,2.5812453,238.6995434,None,238.6995434,239.6654048,0.2328503,None,,,,,,,,,2,1,2019_Dec_20_1629,untitled,3.1.0,60.21531793
_,_2,N,270,_,_,__2N270__,N,0,51,51,78,,,0.763,241.3785211,241.6961266,241.7133162,241.9964733,242.0129137,None,up,2.1199228,242.0129137,None,242.0129137,242.7627741,0.0888062,None,,,,,,,,,2,1,2019_Dec_20_1629,untitled,3.1.0,60.21531793
169,F,M,0,L,N,169FM000LN,HLN,0,52,52,120,,,0.779,244.3423155,244.6441452,244.6441452,244.8444116,244.8609665,None,up,2.264974,244.8609665,None,244.8609665,245.625601,0.1977907,None,,,,,,,,,2,1,2019_Dec_20_1629,untitled,3.1.0,60.21531793
201,G,M,0,R,N,201GM000RN,HRN,0,53,53,128,,,1.221,247.2457322,247.5411948,247.5582714,247.8410773,247.85785,None,up,2.1509463,247.85785,None,247.85785,249.0586737,0.1100085,None,,,,,,,,,2,1,2019_Dec_20_1629,untitled,3.1.0,60.21531793
_,R,N,180,_,_,_RN180__,N,0,54,54,68,,,0.938,250.1261817,250.4219727,250.4386388,250.7224005,250.7391543,None,down,2.0487806,250.7391543,None,250.7391543,251.6715046,0.1067613,None,,,,,,,,,2,1,2019_Dec_20_1629,untitled,3.1.0,60.21531793
_,_5,N,90,_,_,__5N090__,N,0,55,55,90,,,0.72,252.873129,253.2024587,253.2193092,253.5034045,253.5201438,None,up,2.2480724,253.5201438,None,253.5201438,254.2188348,0.0757886,None,,,,,,,,,2,1,2019_Dec_20_1629,untitled,3.1.0,60.21531793
303,_2,M,270,L,N,303_2M270LN,HLN,0,56,56,158,,,1.07,255.8476941,256.1842031,256.2006789,256.483646,256.5007554,None,down,2.4001926,256.5007554,None,256.5007554,257.5489836,0.0721176,None,,,,,,,,,2,1,2019_Dec_20_1629,untitled,3.1.0,60.21531793
_,G,N,45,_,_,_GN045__,N,0,57,57,57,,,0.973,259.1237143,259.4144943,259.4144943,259.6139454,259.6305193,None,None,,259.6305193,None,259.6305193,260.5821292,0.21182,None,,,,,,,,,2,1,2019_Dec_20_1629,untitled,3.1.0,60.21531793
141,F,M,180,R,N,141FM180RN,HRN,0,58,58,116,,,1.262,263.3211807,263.6103233,263.6103233,263.8109827,263.8275578,263.3211807,up,3.2825838,263.8275578,None,263.8275578,265.0766635,0.2165251,None,,,,,,,,,2,1,2019_Dec_20_1629,untitled,3.1.0,60.21531793
425,_4,M,0,L,N,425_4M000LN,HLN,0,59,59,168,,,0.908,267.2356984,267.5249613,267.5249613,267.8240185,267.8407492,None,up,2.282683,267.8407492,None,267.8407492,268.7402286,0.1142056,None,,,,,,,,,2,1,2019_Dec_20_1629,untitled,3.1.0,60.21531793
_,_5,M,315,_,_,__5M315__,N,0,60,60,47,,,0.929,270.3431367,270.6376811,270.6376811,270.8373986,270.8546211,None,down,3.0313355,270.8546211,None,270.8546211,271.7705984,0.2074188,None,,,,,,,,,2,1,2019_Dec_20_1629,untitled,3.1.0,60.21531793
_,F,N,0,_,_,_FN000__,N,0,61,61,48,,,1.174,274.0941332,274.3842344,274.3842344,274.6014028,274.6193622,None,up,2.7476161,274.6193622,None,274.6193622,275.7681887,0.1978378,None,,,,,,,,,2,1,2019_Dec_20_1629,untitled,3.1.0,60.21531793
230,G,N,225,L,N,230GN225LN,HLN,0,62,62,237,,,0.993,277.4869661,277.7812855,277.7983464,278.081713,278.0986419,None,None,,278.0986419,None,278.0986419,279.0810732,0.1091568,None,,,,,,,,,2,1,2019_Dec_20_1629,untitled,3.1.0,60.21531793
262,_2,N,225,R,N,262_2N225RN,HRN,0,63,63,245,,,0.772,281.6722232,281.9625555,281.9953875,282.2780701,282.2946899,281.6722232,up,2.2166076,282.2946899,None,282.2946899,283.044495,0.0994835,None,,,,,,,,,2,1,2019_Dec_20_1629,untitled,3.1.0,60.21531793
388,_4,N,135,R,N,388_4N135RN,HRN,0,64,64,259,,,0.896,284.631529,284.9256288,284.9418372,285.2256777,285.2426319,None,up,2.1315445,285.2426319,None,285.2426319,286.1239564,0.1090043,None,,,,,,,,,2,1,2019_Dec_20_1629,untitled,3.1.0,60.21531793
_,G,N,225,_,_,_GN225__,N,0,65,65,61,,,1.39,287.442589,287.7896588,287.8064201,288.0901208,288.1065808,None,up,3.013817,288.1065808,None,288.1065808,289.4718815,0.0614352,None,,,,,,,,,2,1,2019_Dec_20_1629,untitled,3.1.0,60.21531793
_,F,M,225,_,_,_FM225__,N,0,66,66,5,,,1.157,291.3279938,291.6193944,291.6193944,291.8371897,291.8371897,None,down,2.365602,291.8371897,None,291.8371897,292.9859017,0.1997972,None,,,,,,,,,2,1,2019_Dec_20_1629,untitled,3.1.0,60.21531793
2,R,N,45,R,N,002RN045RN,HRN,0,67,67,193,,,1.26,294.3407198,294.6341612,294.6341612,294.91691,294.9364924,None,up,2.6637925,294.9364924,None,294.9364924,296.1824286,0.1270418,None,,,,,,,,,2,1,2019_Dec_20_1629,untitled,3.1.0,60.21531793
_,_2,N,225,_,_,__2N225__,N,0,68,68,77,,,0.783,297.7149677,298.0138031,298.0308822,298.3143462,298.3309676,None,up,2.1348674,298.3309676,None,298.3309676,299.0971153,0.1031634,None,,,,,,,,,2,1,2019_Dec_20_1629,untitled,3.1.0,60.21531793
493,_5,M,180,L,N,493_5M180LN,HLN,0,69,69,188,,,1.377,300.5857817,300.8783509,300.8951274,301.1776989,301.1944218,None,None,,301.1944218,None,301.1944218,302.5600776,0.1098934,None,,,,,,,,,2,1,2019_Dec_20_1629,untitled,3.1.0,60.21531793
225,G,N,0,L,N,225GN000LN,HLN,0,70,70,232,,,1.174,304.7844661,305.0757592,305.0757592,305.3745319,305.3915507,304.7844661,down,2.4164107,305.3915507,None,305.3915507,306.5558887,0.1152451,None,,,,,,,,,2,1,2019_Dec_20_1629,untitled,3.1.0,60.21531793
132,F,N,135,R,N,132FN135RN,HRN,0,71,71,211,,,0.903,307.933224,308.2216658,308.2216658,308.5215352,308.5387239,None,up,3.3996198,308.5387239,None,308.5387239,309.420181,0.1147554,None,,,,,,,,,2,1,2019_Dec_20_1629,untitled,3.1.0,60.21531793
289,_2,N,0,L,N,289_2N000LN,HLN,0,72,72,248,,,0.751,312.0503916,312.3513757,312.3680616,312.6514947,312.6685835,None,up,1.8318225,312.6685835,None,312.6685835,313.4011572,0.1020199,None,,,,,,,,,2,1,2019_Dec_20_1629,untitled,3.1.0,60.21531793
199,G,N,270,R,N,199GN270RN,HRN,0,73,73,230,,,1.061,314.6230934,314.9159959,314.9159959,315.2155318,315.2320329,None,up,2.1353481,315.2320329,None,315.2320329,316.281828,0.1126677,None,,,,,,,,,2,1,2019_Dec_20_1629,untitled,3.1.0,60.21531793
269,_2,M,180,R,N,269_2M180RN,HRN,0,74,74,148,,,0.968,317.4867847,317.7800696,317.7965314,318.0797214,318.0970457,None,None,,318.0970457,None,318.0970457,319.045853,0.1103712,None,,,,,,,,,2,1,2019_Dec_20_1629,untitled,3.1.0,60.21531793
460,_5,M,135,R,N,460_5M135RN,HRN,0,75,75,179,,,0.95,321.6444579,321.9764026,321.9933345,322.2767312,322.2932429,321.6444579,up,2.5179748,322.2932429,None,322.2932429,323.2261148,0.0734055,None,,,,,,,,,2,1,2019_Dec_20_1629,untitled,3.1.0,60.21531793
395,_4,M,90,R,N,395_4M090RN,HRN,0,76,76,162,,,0.73,324.9222669,325.2237272,325.2400289,325.524151,325.541066,None,None,,325.541066,None,325.541066,326.257677,0.1005107,None,,,,,,,,,2,1,2019_Dec_20_1629,untitled,3.1.0,60.21531793
261,_2,N,180,R,N,261_2N180RN,HRN,0,77,77,244,,,1.293,329.1397736,329.4367273,329.4367273,329.720114,329.7367839,329.1397736,up,2.1827126,329.7367839,None,329.7367839,331.0192861,0.1249368,None,,,,,,,,,2,1,2019_Dec_20_1629,untitled,3.1.0,60.21531793
137,F,M,0,R,N,137FM000RN,HRN,0,78,78,112,,,0.929,332.0504258,332.3509263,332.3509263,332.6339261,332.6507829,None,down,1.884665,332.6507829,None,332.6507829,333.5667334,0.120192,None,,,,,,,,,2,1,2019_Dec_20_1629,untitled,3.1.0,60.21531793
10,R,M,45,R,N,010RM045RN,HRN,0,79,79,97,,,0.803,334.6512697,334.9485713,334.9651926,335.2479755,335.2646764,None,down,2.3191998,335.2646764,None,335.2646764,336.0649994,0.1030826,None,,,,,,,,,2,1,2019_Dec_20_1629,untitled,3.1.0,60.21531793
492,_5,M,135,L,N,492_5M135LN,HLN,0,80,80,187,,,1.164,337.7030625,337.9956688,338.0123645,338.2959785,338.31267,None,up,2.8838328,338.31267,None,338.31267,339.4613699,0.1084915,None,,,,,,,,,2,1,2019_Dec_20_1629,untitled,3.1.0,60.21531793
485,_5,N,180,L,N,485_5N180LN,HLN,0,81,81,284,,,0.96,341.3234539,341.6259246,341.6259246,341.909026,341.9255264,None,up,1.9337102,341.9255264,None,341.9255264,342.8754484,0.1158038,None,,,,,,,,,2,1,2019_Dec_20_1629,untitled,3.1.0,60.21531793
260,_2,N,135,R,N,260_2N135RN,HRN,0,82,82,243,,,1.123,343.9721227,344.2745943,344.2903228,344.5740652,344.590544,None,None,,344.590544,None,344.590544,345.706094,0.1021911,None,,,,,,,,,2,1,2019_Dec_20_1629,untitled,3.1.0,60.21531793
_,_5,M,90,_,_,__5M090__,N,0,83,83,42,,,0.812,348.2271978,348.5202055,348.5202055,348.769512,348.7871631,348.2271978,up,1.7984217,348.7871631,None,348.7871631,349.5860913,0.1648654,None,,,,,,,,,2,1,2019_Dec_20_1629,untitled,3.1.0,60.21531793
_,R,M,135,_,_,_RM135__,N,0,84,84,19,,,1.008,350.7113181,351.0014252,351.0014252,351.3012732,351.3197088,None,down,2.6290107,351.3197088,None,351.3197088,352.3159831,0.1151082,None,,,,,,,,,2,1,2019_Dec_20_1629,untitled,3.1.0,60.21531793
207,G,M,270,R,N,207GM270RN,HRN,0,85,85,134,,,1.055,354.0300626,354.3646662,354.3821308,354.6652359,354.6830615,None,down,2.5648712,354.6830615,None,354.6830615,355.7143779,0.0741629,None,,,,,,,,,2,1,2019_Dec_20_1629,untitled,3.1.0,60.21531793
299,_2,M,90,L,N,299_2M090LN,HLN,0,86,86,154,,,1.227,357.3942951,357.6951703,357.6951703,357.9620244,357.979155,None,up,2.4012394,357.979155,None,357.979155,359.1958955,0.1351854,None,,,,,,,,,2,1,2019_Dec_20_1629,untitled,3.1.0,60.21531793
_,_5,M,225,_,_,__5M225__,N,0,87,87,45,,,1.231,360.6039208,360.8926896,360.8926896,361.0918315,361.1084371,None,down,3.0162189,361.1084371,None,361.1084371,362.3242537,0.2130732,None,,,,,,,,,2,1,2019_Dec_20_1629,untitled,3.1.0,60.21531793
_,_4,M,225,_,_,__4M225__,N,0,88,88,37,,,0.774,364.2399398,364.5397197,364.5560685,364.8395607,364.8575573,None,up,2.5301949,364.8575573,None,364.8575573,365.6223186,0.1044432,None,,,,,,,,,2,1,2019_Dec_20_1629,untitled,3.1.0,60.21531793
429,_4,M,180,L,N,429_4M180LN,HLN,0,89,89,172,,,0.948,367.5836866,367.871691,367.871691,368.1031747,368.1199989,None,None,,368.1199989,None,368.1199989,369.0527472,0.1850289,None,,,,,,,,,2,1,2019_Dec_20_1629,untitled,3.1.0,60.21531793
386,_4,N,45,R,N,386_4N045RN,HRN,0,90,90,257,,,1.302,371.669252,371.999818,372.0164155,372.3000019,372.3166724,371.669252,down,2.2675811,372.3166724,None,372.3166724,373.5986737,0.0781854,None,,,,,,,,,2,1,2019_Dec_20_1629,untitled,3.1.0,60.21531793
12,R,M,135,R,N,012RM135RN,HRN,0,91,91,99,,,0.711,374.7117028,375.013982,375.013982,375.2962853,375.3129851,None,up,2.8030792,375.3129851,None,375.3129851,376.0129652,0.1159759,None,,,,,,,,,2,1,2019_Dec_20_1629,untitled,3.1.0,60.21531793
175,F,M,270,L,N,175FM270LN,HLN,0,92,92,126,,,0.985,378.2342754,378.5273461,378.5440331,378.8273313,378.8443216,None,down,2.602488,378.8443216,None,378.8443216,379.8267897,0.1079048,None,,,,,,,,,2,1,2019_Dec_20_1629,untitled,3.1.0,60.21531793
229,G,N,180,L,N,229GN180LN,HLN,0,93,93,236,,,0.78,381.6707817,381.9594884,381.9594884,382.1576701,382.1758466,None,up,2.7665579,382.1758466,None,382.1758466,382.9394022,0.2131909,None,,,,,,,,,2,1,2019_Dec_20_1629,untitled,3.1.0,60.21531793
208,G,M,315,R,N,208GM315RN,HRN,0,94,94,135,,,0.713,385.0680914,385.3716065,385.3716065,385.6555183,385.6719238,None,None,,385.6719238,None,385.6719238,386.3708165,0.1147251,None,,,,,,,,,2,1,2019_Dec_20_1629,untitled,3.1.0,60.21531793
_,_2,M,45,_,_,__2M045__,N,0,95,95,25,,,1.151,389.2678423,389.5680355,389.5839784,389.8671759,389.8838163,389.2678423,up,3.1314211,389.8838163,None,389.8838163,391.0164958,0.1056665,None,,,,,,,,,2,1,2019_Dec_20_1629,untitled,3.1.0,60.21531793
140,F,M,135,R,N,140FM135RN,HRN,0,96,96,115,,,1.223,393.1071971,393.4311487,393.447319,393.73148,393.7478903,None,None,,393.7478903,None,393.7478903,394.9457681,0.0835044,None,,,,,,,,,2,1,2019_Dec_20_1629,untitled,3.1.0,60.21531793
15,R,M,270,R,N,015RM270RN,HRN,0,97,97,102,,,1.111,397.31664,397.6272064,397.6433553,397.9265636,397.943027,397.31664,down,2.083687,397.943027,None,397.943027,399.0424819,0.0920805,None,,,,,,,,,2,1,2019_Dec_20_1629,untitled,3.1.0,60.21531793
_,F,N,45,_,_,_FN045__,N,0,98,98,49,,,1.044,400.2262901,400.524778,400.524778,400.7429496,400.759322,None,None,,400.759322,None,400.759322,401.7910282,0.1891773,None,,,,,,,,,2,1,2019_Dec_20_1629,untitled,3.1.0,60.21531793
_,F,N,270,_,_,_FN270__,N,0,99,99,54,,,0.968,404.4119,404.7041676,404.7041676,404.9376042,404.9541191,404.4119,up,2.4814618,404.9541191,None,404.9541191,405.9055124,0.1808485,None,,,,,,,,,2,1,2019_Dec_20_1629,untitled,3.1.0,60.21531793
267,_2,M,90,R,N,267_2M090RN,HRN,0,100,100,146,,,1.294,407.5107062,407.8516082,407.8683954,408.1516583,408.1682034,None,down,3.416941,408.1682034,None,408.1682034,409.451714,0.0660672,None,,,,,,,,,2,1,2019_Dec_20_1629,untitled,3.1.0,60.21531793
238,G,M,225,L,N,238GM225LN,HLN,0,101,101,141,,,1.323,411.7067226,411.9978514,411.9978514,412.298546,412.3148456,None,down,2.7833407,412.3148456,None,412.3148456,413.6307176,0.1112956,None,,,,,,,,,2,1,2019_Dec_20_1629,untitled,3.1.0,60.21531793
205,G,M,180,R,N,205GM180RN,HRN,0,102,102,132,,,0.752,415.32872,415.6280322,415.6280322,415.8118929,415.8285426,None,down,2.0842019,415.8285426,None,415.8285426,416.561225,0.2184035,None,,,,,,,,,2,1,2019_Dec_20_1629,untitled,3.1.0,60.21531793
304,_2,M,315,L,N,304_2M315LN,HLN,0,103,103,159,,,0.826,418.0493579,418.3441389,418.3441389,418.6258554,418.6428314,None,down,1.8342837,418.6428314,None,418.6428314,419.4578932,0.1256282,None,,,,,,,,,2,1,2019_Dec_20_1629,untitled,3.1.0,60.21531793
172,F,M,135,L,N,172FM135LN,HLN,0,104,104,123,,,1.154,420.5937564,420.8906485,420.9070045,421.1904344,421.2073157,None,None,,421.2073157,None,421.2073157,422.356084,0.1066164,None,,,,,,,,,2,1,2019_Dec_20_1629,untitled,3.1.0,60.21531793
_,_5,M,0,_,_,__5M000__,N,0,105,105,40,,,0.789,424.758343,425.0868461,425.1039369,425.3868189,425.4035734,424.758343,None,,425.4035734,None,425.4035734,426.169412,0.079422,None,,,,,,,,,2,1,2019_Dec_20_1629,untitled,3.1.0,60.21531793
424,_4,N,315,L,N,424_4N315LN,HLN,0,106,106,271,,,0.756,428.9737449,429.2831237,429.2993695,429.5831812,429.5997614,428.9737449,up,1.88201,429.5997614,None,429.5997614,430.3325756,0.0970805,None,,,,,,,,,2,1,2019_Dec_20_1629,untitled,3.1.0,60.21531793
296,_2,N,315,L,N,296_2N315LN,HLN,0,107,107,255,,,1.187,431.5962083,431.8976608,431.9137204,432.1974822,432.2143252,None,down,2.5162561,432.2143252,None,432.2143252,433.3802065,0.1055145,None,,,,,,,,,2,1,2019_Dec_20_1629,untitled,3.1.0,60.21531793
294,_2,N,225,L,N,294_2N225LN,HLN,0,108,108,253,,,1.393,434.86359,435.1614547,435.1614547,435.4449677,435.4613675,None,down,1.9851336,435.4613675,None,435.4613675,436.8430678,0.1201931,None,,,,,,,,,2,1,2019_Dec_20_1629,untitled,3.1.0,60.21531793
197,G,N,180,R,N,197GN180RN,HRN,0,109,109,228,,,0.924,437.5652182,437.858518,437.8751917,438.1584964,438.1760217,None,None,,438.1760217,None,438.1760217,439.0910113,0.1079922,None,,,,,,,,,2,1,2019_Dec_20_1629,untitled,3.1.0,60.21531793
171,F,M,90,L,N,171FM090LN,HLN,0,110,110,122,,,1.214,441.7640547,442.0553589,442.0553589,442.3552218,442.3721091,441.7640547,down,3.2148678,442.3721091,None,442.3721091,443.569772,0.1146413,None,,,,,,,,,2,1,2019_Dec_20_1629,untitled,3.1.0,60.21531793
459,_5,M,90,R,N,459_5M090RN,HRN,0,111,111,178,,,1.049,445.7001583,446.001741,446.0181579,446.3020565,446.3187365,None,down,3.1651843,446.3187365,None,446.3187365,447.3529182,0.102674,None,,,,,,,,,2,1,2019_Dec_20_1629,untitled,3.1.0,60.21531793
271,_2,M,270,R,N,271_2M270RN,HRN,0,112,112,150,,,1.175,449.6018373,449.8983131,449.9147521,450.1988953,450.2152561,None,up,2.5010282,450.2152561,None,450.2152561,451.3808388,0.1067233,None,,,,,,,,,2,1,2019_Dec_20_1629,untitled,3.1.0,60.21531793
390,_4,N,225,R,N,390_4N225RN,HRN,0,113,113,261,,,0.941,452.8439762,453.1466697,453.1466697,453.4284873,453.4449955,None,up,2.7342689,453.4449955,None,453.4449955,454.3781187,0.1167361,None,,,,,,,,,2,1,2019_Dec_20_1629,untitled,3.1.0,60.21531793
_,R,M,315,_,_,_RM315__,N,0,114,114,23,,,0.862,456.2904102,456.5926683,456.6100712,456.8922605,456.9096251,None,down,3.1152127,456.9096251,None,456.9096251,457.7587171,0.0994764,None,,,,,,,,,2,1,2019_Dec_20_1629,untitled,3.1.0,60.21531793
291,_2,N,90,L,N,291_2N090LN,HLN,0,115,115,250,,,1.038,460.1713662,460.4723914,460.4723914,460.7389666,460.7560887,None,up,2.8498201,460.7560887,None,460.7560887,461.7900126,0.1352904,None,,,,,,,,,2,1,2019_Dec_20_1629,untitled,3.1.0,60.21531793
298,_2,M,45,L,N,298_2M045LN,HLN,0,116,116,153,,,0.914,463.728814,464.0201296,464.0358813,464.3198401,464.3362177,None,up,2.2193191,464.3362177,None,464.3362177,465.234856,0.1106916,None,,,,,,,,,2,1,2019_Dec_20_1629,untitled,3.1.0,60.21531793
162,F,N,45,L,N,162FN045LN,HLN,0,117,117,217,,,1.312,466.6885584,466.9836266,466.9836266,467.2672281,467.2839155,None,None,,467.2839155,None,467.2839155,468.5824768,0.1219357,None,,,,,,,,,2,1,2019_Dec_20_1629,untitled,3.1.0,60.21531793
391,_4,N,270,R,N,391_4N270RN,HRN,0,118,118,262,,,0.738,470.8639139,471.1633433,471.1799473,471.4635229,471.4799074,470.8639139,up,1.9164482,471.4799074,None,471.4799074,472.2120267,0.1043749,None,,,,,,,,,2,1,2019_Dec_20_1629,untitled,3.1.0,60.21531793
142,F,M,225,R,N,142FM225RN,HRN,0,119,119,117,,,1.342,473.5100437,473.811027,473.8276866,474.1112023,474.1278613,None,None,,474.1278613,None,474.1278613,475.459625,0.1031148,None,,,,,,,,,2,1,2019_Dec_20_1629,untitled,3.1.0,60.21531793
_,R,M,270,_,_,_RM270__,N,0,120,120,22,,,0.745,477.7108286,478.0070297,478.0239252,478.3082191,478.3235741,477.7108286,down,3.3321792,478.3235741,None,478.3235741,479.0565604,0.1075118,None,,,,,,,,,2,1,2019_Dec_20_1629,untitled,3.1.0,60.21531793
_,F,N,135,_,_,_FN135__,N,0,121,121,51,,,0.962,481.8761294,482.1705397,482.1705397,482.3708556,482.3873381,None,None,,482.3873381,None,482.3873381,483.336271,0.2087455,None,,,,,,,,,2,1,2019_Dec_20_1629,untitled,3.1.0,60.21531793
491,_5,M,90,L,N,491_5M090LN,HLN,0,122,122,186,,,1.089,485.9777052,486.2683266,486.2683266,486.5668902,486.5836718,485.9777052,up,3.1469365,486.5836718,None,486.5836718,487.6658644,0.1146882,None,,,,,,,,,2,1,2019_Dec_20_1629,untitled,3.1.0,60.21531793
_,_2,N,315,_,_,__2N315__,N,0,123,123,79,,,0.794,489.8344867,490.1467438,490.163534,490.4496716,490.4645778,None,up,2.5983925,490.4645778,None,490.4645778,491.2460896,0.0941827,None,,,,,,,,,2,1,2019_Dec_20_1629,untitled,3.1.0,60.21531793
_,_5,N,225,_,_,__5N225__,N,0,124,124,93,,,0.831,493.1855197,493.4773835,493.4935969,493.7770634,493.7940834,None,up,2.2990783,493.7940834,None,493.7940834,494.6097709,0.1112525,None,,,,,,,,,2,1,2019_Dec_20_1629,untitled,3.1.0,60.21531793
450,_5,N,45,R,N,450_5N045RN,HRN,0,125,125,273,,,0.879,496.2154117,496.5079897,496.5244546,496.8074943,496.8243999,None,down,2.2812821,496.8243999,None,496.8243999,497.6907607,0.1106571,None,,,,,,,,,2,1,2019_Dec_20_1629,untitled,3.1.0,60.21531793
_,F,M,180,_,_,_FM180__,N,0,126,126,4,,,1.193,499.1883198,499.5218048,499.538298,499.8212632,499.8383938,None,down,2.4517395,499.8383938,None,499.8383938,501.0213776,0.0744749,None,,,,,,,,,2,1,2019_Dec_20_1629,untitled,3.1.0,60.21531793
_,_5,M,135,_,_,__5M135__,N,0,127,127,43,,,1.4,502.4809533,502.7705161,502.7705161,503.002056,503.0194286,None,down,2.5676078,503.0194286,None,503.0194286,504.4002652,0.180556,None,,,,,,,,,2,1,2019_Dec_20_1629,untitled,3.1.0,60.21531793
_,G,M,180,_,_,_GM180__,N,0,128,128,12,,,1.066,505.8109907,506.0994319,506.0994319,506.2999935,506.3164485,None,down,2.8172176,506.3164485,None,506.3164485,507.3658405,0.2119055,None,,,,,,,,,2,1,2019_Dec_20_1629,untitled,3.1.0,60.21531793
198,G,N,225,R,N,198GN225RN,HRN,0,129,129,229,,,0.887,509.2608242,509.5632206,509.5632206,509.8463968,509.8633545,None,up,2.8813083,509.8633545,None,509.8633545,510.7459839,0.1165251,None,,,,,,,,,2,1,2019_Dec_20_1629,untitled,3.1.0,60.21531793
_,G,M,90,_,_,_GM090__,N,0,130,130,10,,,0.961,512.831467,513.1598515,513.1768138,513.460231,513.4794883,None,None,,513.4794883,None,513.4794883,514.4256117,0.0775079,None,,,,,,,,,2,1,2019_Dec_20_1629,untitled,3.1.0,60.21531793
452,_5,N,135,R,N,452_5N135RN,HRN,0,131,131,275,,,1.214,517.0646187,517.3557296,517.3557296,517.6562465,517.6731463,517.0646187,down,2.5672195,517.6731463,None,517.6731463,518.8724571,0.1129453,None,,,,,,,,,2,1,2019_Dec_20_1629,untitled,3.1.0,60.21531793
385,_4,N,0,R,N,385_4N000RN,HRN,0,132,132,256,,,1.088,520.3641409,520.6536957,520.6536957,520.9535257,520.9701308,None,up,3.0652356,520.9701308,None,520.9701308,522.0518351,0.1132092,None,,,,,,,,,2,1,2019_Dec_20_1629,untitled,3.1.0,60.21531793
144,F,M,315,R,N,144FM315RN,HRN,0,133,133,119,,,1.064,524.1153489,524.4498893,524.4660911,524.749661,524.7661951,None,up,2.2993483,524.7661951,None,524.7661951,525.8159806,0.0727132,None,,,,,,,,,2,1,2019_Dec_20_1629,untitled,3.1.0,60.21531793
_,R,N,135,_,_,_RN135__,N,0,134,134,67,,,1.275,527.1811954,527.4809434,527.4972699,527.7812222,527.7976941,None,up,3.0653913,527.7976941,None,527.7976941,529.0626968,0.1047131,None,,,,,,,,,2,1,2019_Dec_20_1629,untitled,3.1.0,60.21531793
449,_5,N,0,R,N,449_5N000RN,HRN,0,135,135,272,,,1.319,530.9538567,531.277878,531.294363,531.5771974,531.5936525,None,up,2.5320683,531.5936525,None,531.5936525,532.8928255,0.0823536,None,,,,,,,,,2,1,2019_Dec_20_1629,untitled,3.1.0,60.21531793
164,F,N,135,L,N,164FN135LN,HLN,0,136,136,219,,,1.3,534.2067766,534.5408526,534.5586317,534.8422224,534.8583024,None,up,2.1507049,534.8583024,None,534.8583024,536.1404208,0.0728983,None,,,,,,,,,2,1,2019_Dec_20_1629,untitled,3.1.0,60.21531793
_,_4,M,90,_,_,__4M090__,N,0,137,137,34,,,1.035,537.1320773,537.4224776,537.4224776,537.7225548,537.7391531,None,up,2.2672683,537.7391531,None,537.7391531,538.7548062,0.1114652,None,,,,,,,,,2,1,2019_Dec_20_1629,untitled,3.1.0,60.21531793
463,_5,M,270,R,N,463_5M270RN,HRN,0,138,138,182,,,1.312,540.1334965,540.4362265,540.4362265,540.7201009,540.7363303,None,up,2.4836136,540.7363303,None,540.7363303,542.035539,0.1159301,None,,,,,,,,,2,1,2019_Dec_20_1629,untitled,3.1.0,60.21531793
421,_4,N,180,L,N,421_4N180LN,HLN,0,139,139,268,,,1.386,543.3449282,543.6337042,543.6337042,543.9335776,543.9501612,None,down,2.6313442,543.9501612,None,543.9501612,545.3324231,0.112326,None,,,,,,,,,2,1,2019_Dec_20_1629,untitled,3.1.0,60.21531793
266,_2,M,45,R,N,266_2M045RN,HRN,0,140,140,145,,,0.895,546.6702911,546.9973676,547.0139719,547.2969709,547.3136152,None,down,2.5054581,547.3136152,None,547.3136152,548.1968918,0.0806861,None,,,,,,,,,2,1,2019_Dec_20_1629,untitled,3.1.0,60.21531793
_,R,M,90,_,_,_RM090__,N,0,141,141,18,,,0.82,549.9092312,550.2276773,550.2450324,550.527859,550.5444741,None,up,1.9194698,550.5444741,None,550.5444741,551.3604836,0.0825819,None,,,,,,,,,2,1,2019_Dec_20_1629,untitled,3.1.0,60.21531793
134,F,N,225,R,N,134FN225RN,HRN,0,142,142,213,,,1.152,552.5975677,552.8918158,552.8918158,553.1758065,553.192264,None,up,2.3993982,553.192264,None,553.192264,554.3411259,0.1229032,None,,,,,,,,,2,1,2019_Dec_20_1629,untitled,3.1.0,60.21531793
_,R,M,225,_,_,_RM225__,N,0,143,143,21,,,1.201,555.7109686,556.0061621,556.0223928,556.3064507,556.3230209,None,None,,556.3230209,None,556.3230209,557.5051626,0.1073059,None,,,,,,,,,2,1,2019_Dec_20_1629,untitled,3.1.0,60.21531793
176,F,M,315,L,N,176FM315LN,HLN,0,144,144,127,,,1.017,559.9095449,560.2025602,560.2025602,560.5021791,560.5187325,559.9095449,down,2.0023198,560.5187325,None,560.5187325,561.517273,0.1115816,None,,,,,,,,,2,1,2019_Dec_20_1629,untitled,3.1.0,60.21531793
400,_4,M,315,R,N,400_4M315RN,HRN,0,145,145,167,,,1.066,562.7492022,563.0497991,563.0497991,563.2333829,563.2499466,None,up,3.0837609,563.2499466,None,563.2499466,564.2991952,0.2172273,None,,,,,,,,,2,1,2019_Dec_20_1629,untitled,3.1.0,60.21531793
_,_4,M,270,_,_,__4M270__,N,0,146,146,38,,,1.18,566.4486448,566.7464392,566.7650436,567.0468297,567.0635848,None,up,2.9337924,567.0635848,None,567.0635848,568.2287769,0.1035734,None,,,,,,,,,2,1,2019_Dec_20_1629,untitled,3.1.0,60.21531793
42,R,M,45,L,N,042RM045LN,HLN,0,147,147,105,,,1.367,570.1322202,570.4270608,570.4270608,570.7102878,570.7271277,None,down,2.6479353,570.7271277,None,570.7271277,572.0757854,0.1233611,None,,,,,,,,,2,1,2019_Dec_20_1629,untitled,3.1.0,60.21531793
233,G,M,0,L,N,233GM000LN,HLN,0,148,148,136,,,0.791,573.588871,573.8904957,573.8904957,574.0907863,574.1074435,None,down,1.7316248,574.1074435,None,574.1074435,574.8899838,0.2024874,None,,,,,,,,,2,1,2019_Dec_20_1629,untitled,3.1.0,60.21531793
_,_2,N,45,_,_,__2N045__,N,0,149,149,73,,,0.942,575.9105396,576.2548462,576.27196,576.554572,576.5712244,None,up,2.3665028,576.5712244,None,576.5712244,577.4875512,0.0642479,None,,,,,,,,,2,1,2019_Dec_20_1629,untitled,3.1.0,60.21531793
_,_5,N,0,_,_,__5N000__,N,0,150,150,88,,,0.703,579.0516494,579.3522314,579.3687406,579.6526812,579.6693225,None,up,1.5829678,579.6693225,None,579.6693225,580.3515657,0.1023533,None,,,,,,,,,2,1,2019_Dec_20_1629,untitled,3.1.0,60.21531793
490,_5,M,45,L,N,490_5M045LN,HLN,0,151,151,185,,,0.839,581.3801756,581.6837677,581.6837677,581.9669535,581.9837098,None,down,2.6493868,581.9837098,None,581.9837098,582.8162635,0.1156647,None,,,,,,,,,2,1,2019_Dec_20_1629,untitled,3.1.0,60.21531793
427,_4,M,90,L,N,427_4M090LN,HLN,0,152,152,170,,,0.997,584.758085,585.0481043,585.0481043,585.347262,585.3643522,None,up,2.4320336,585.3643522,None,585.3643522,586.3465073,0.113827,None,,,,,,,,,2,1,2019_Dec_20_1629,untitled,3.1.0,60.21531793
495,_5,M,270,L,N,495_5M270LN,HLN,0,153,153,190,,,1.379,587.9230359,588.2122572,588.2122572,588.511409,588.5280338,None,down,2.4980458,588.5280338,None,588.5280338,589.8935886,0.1164579,None,,,,,,,,,2,1,2019_Dec_20_1629,untitled,3.1.0,60.21531793
_,R,N,315,_,_,_RN315__,N,0,154,154,71,,,0.997,591.2299729,591.5248632,591.5248632,591.7420495,591.7606555,None,down,1.9822104,591.7606555,None,591.7606555,592.7411422,0.1928321,None,,,,,,,,,2,1,2019_Dec_20_1629,untitled,3.1.0,60.21531793
48,R,M,315,L,N,048RM315LN,HLN,0,155,155,111,,,0.815,593.9546781,594.255705,594.255705,594.4563658,594.4730665,None,down,2.2340236,594.4730665,None,594.4730665,595.2724336,0.2008125,None,,,,,,,,,2,1,2019_Dec_20_1629,untitled,3.1.0,60.21531793
_,G,M,135,_,_,_GM135__,N,0,156,156,11,,,0.998,596.8349826,597.1367064,597.1367064,597.4204425,597.4370878,None,up,2.4988482,597.4370878,None,597.4370878,598.4203266,0.1170043,None,,,,,,,,,2,1,2019_Dec_20_1629,untitled,3.1.0,60.21531793
_,_2,M,0,_,_,__2M000__,N,0,157,157,24,,,0.814,600.0675928,600.3675905,600.3675905,600.6509379,600.6675303,None,down,2.1992867,600.6675303,None,600.6675303,601.4667059,0.1205019,None,,,,,,,,,2,1,2019_Dec_20_1629,untitled,3.1.0,60.21531793
235,G,M,90,L,N,235GM090LN,HLN,0,158,158,138,,,0.842,603.0811559,603.3815725,603.3815725,603.5815947,603.5982761,None,up,2.5815366,603.5982761,None,603.5982761,604.4304848,0.2025642,None,,,,,,,,,2,1,2019_Dec_20_1629,untitled,3.1.0,60.21531793
47,R,M,270,L,N,047RM270LN,HLN,0,159,159,110,,,0.892,606.3702634,606.662109,606.662109,606.8947246,606.9116329,None,down,2.2165479,606.9116329,None,606.9116329,607.7790741,0.1832638,None,,,,,,,,,2,1,2019_Dec_20_1629,untitled,3.1.0,60.21531793
33,R,N,0,L,N,033RN000LN,HLN,0,160,160,200,,,1.284,609.3737925,609.6756095,609.6756095,609.8423918,609.8586951,None,up,3.0165131,609.8586951,None,609.8586951,611.1245168,0.2336118,None,,,,,,,,,2,1,2019_Dec_20_1629,untitled,3.1.0,60.21531793
_,F,M,270,_,_,_FM270__,N,0,161,161,6,,,1.173,613.0041457,613.3047494,613.3047494,613.5894759,613.6063499,None,up,2.582252,613.6063499,None,613.6063499,614.771834,0.11623,None,,,,,,,,,2,1,2019_Dec_20_1629,untitled,3.1.0,60.21531793
_,_4,M,180,_,_,__4M180__,N,0,162,162,36,,,1.07,616.3052177,616.6031105,616.619972,616.9033651,616.9201523,None,None,,616.9201523,None,616.9201523,617.9681075,0.1052541,None,,,,,,,,,2,1,2019_Dec_20_1629,untitled,3.1.0,60.21531793
453,_5,N,180,R,N,453_5N180RN,HRN,0,163,163,276,,,0.979,620.4726787,620.7991584,620.8158386,621.0993018,621.1161336,620.4726787,up,3.2343687,621.1161336,None,621.1161336,622.0811026,0.0813773,None,,,,,,,,,2,1,2019_Dec_20_1629,untitled,3.1.0,60.21531793
_,_2,N,180,_,_,__2N180__,N,0,164,164,76,,,0.775,624.4672288,624.7628504,624.7794294,625.0631903,625.0797431,None,down,2.6148788,625.0797431,None,625.0797431,625.8462235,0.1063534,None,,,,,,,,,2,1,2019_Dec_20_1629,untitled,3.1.0,60.21531793
_,F,N,315,_,_,_FN315__,N,0,165,165,55,,,0.924,627.7807253,628.1097191,628.1262634,628.4102,628.4267761,None,up,2.6330359,628.4267761,None,628.4267761,629.3258476,0.0782425,None,,,,,,,,,2,1,2019_Dec_20_1629,untitled,3.1.0,60.21531793
38,R,N,225,L,N,038RN225LN,HLN,0,166,166,205,,,1.245,631.2545431,631.5570673,631.5570673,631.773965,631.7903024,None,None,,631.7903024,None,631.7903024,633.022998,0.1840959,None,,,,,,,,,2,1,2019_Dec_20_1629,untitled,3.1.0,60.21531793
170,F,M,45,L,N,170FM045LN,HLN,0,167,167,121,,,1.081,635.381591,635.670724,635.670724,635.9702075,635.9868191,635.381591,down,2.2342183,635.9868191,None,635.9868191,637.0524226,0.1171897,None,,,,,,,,,2,1,2019_Dec_20_1629,untitled,3.1.0,60.21531793
6,R,N,225,R,N,006RN225RN,HRN,0,168,168,197,,,1.008,638.3503665,638.6509353,638.6509353,638.9340849,638.9508607,None,up,3.0646362,638.9508607,None,638.9508607,639.9499202,0.1178066,None,,,,,,,,,2,1,2019_Dec_20_1629,untitled,3.1.0,60.21531793
_,_5,N,45,_,_,__5N045__,N,0,169,169,89,,,0.879,642.1889576,642.4804238,642.4804238,642.7309173,642.747574,None,up,3.3827059,642.747574,None,642.747574,643.6134453,0.1635732,None,,,,,,,,,2,1,2019_Dec_20_1629,untitled,3.1.0,60.21531793
392,_4,N,315,R,N,392_4N315RN,HRN,0,170,170,263,,,0.93,646.2487015,646.5439212,646.5605038,646.8429792,646.8626848,None,None,,646.8626848,None,646.8626848,647.7767087,0.1073666,None,,,,,,,,,2,1,2019_Dec_20_1629,untitled,3.1.0,60.21531793
_,_2,M,315,_,_,__2M315__,N,0,171,171,31,,,1.295,650.4469727,650.7398134,650.7570216,651.0408744,651.0574555,650.4469727,up,2.5318381,651.0574555,None,651.0574555,652.3387578,0.1109153,None,,,,,,,,,2,1,2019_Dec_20_1629,untitled,3.1.0,60.21531793
_,_4,N,0,_,_,__4N000__,N,0,172,172,80,,,1.123,653.7149444,654.0045287,654.0045287,654.3042271,654.3208946,None,up,2.4331038,654.3208946,None,654.3208946,655.4363504,0.1141352,None,,,,,,,,,2,1,2019_Dec_20_1629,untitled,3.1.0,60.21531793
_,_4,M,135,_,_,__4M135__,N,0,173,173,35,,,0.703,656.8303506,657.1677827,657.1849511,657.4671309,657.4836296,None,down,2.2515308,657.4836296,None,657.4836296,658.1694008,0.0673711,None,,,,,,,,,2,1,2019_Dec_20_1629,untitled,3.1.0,60.21531793
43,R,M,90,L,N,043RM090LN,HLN,0,174,174,106,,,1.155,659.8677373,660.1653029,660.1653029,660.4489047,660.4654954,None,down,3.2011625,660.4654954,None,660.4654954,661.6157795,0.1206586,None,,,,,,,,,2,1,2019_Dec_20_1629,untitled,3.1.0,60.21531793
_,R,M,180,_,_,_RM180__,N,0,175,175,20,,,1.198,663.7945087,664.0962063,664.0962063,664.3786204,664.3954293,None,down,3.1641653,664.3954293,None,664.3954293,665.5777613,0.1160552,None,,,,,,,,,2,1,2019_Dec_20_1629,untitled,3.1.0,60.21531793
194,G,N,45,R,N,194GN045RN,HRN,0,176,176,225,,,0.946,667.6478619,667.9750382,667.9915298,668.2751312,668.2918057,None,None,,668.2918057,None,668.2918057,669.2244778,0.0797037,None,,,,,,,,,2,1,2019_Dec_20_1629,untitled,3.1.0,60.21531793
_,G,N,315,_,_,_GN315__,N,0,177,177,63,,,0.939,671.84644,672.1714595,672.1882569,672.4718769,672.4883749,671.84644,down,2.8834372,672.4883749,None,672.4883749,673.405376,0.0806764,None,,,,,,,,,2,1,2019_Dec_20_1629,untitled,3.1.0,60.21531793
264,_2,N,315,R,N,264_2N315RN,HRN,0,178,178,247,,,1.07,675.485281,675.7847056,675.8010849,676.0844354,676.1016476,None,down,3.0811279,676.1016476,None,676.1016476,677.1673385,0.0999248,None,,,,,,,,,2,1,2019_Dec_20_1629,untitled,3.1.0,60.21531793
432,_4,M,315,L,N,432_4M315LN,HLN,0,179,179,175,,,0.726,679.2846103,679.5982318,679.6155988,679.898613,679.915114,None,up,3.1639472,679.915114,None,679.915114,680.6310507,0.0925103,None,,,,,,,,,2,1,2019_Dec_20_1629,untitled,3.1.0,60.21531793
263,_2,N,270,R,N,263_2N270RN,HRN,0,180,180,246,,,1.094,683.16792,683.4947222,683.5109989,683.7953623,683.8117055,None,None,,683.8117055,None,683.8117055,684.8943886,0.080527,None,,,,,,,,,2,1,2019_Dec_20_1629,untitled,3.1.0,60.21531793
259,_2,N,90,R,N,259_2N090RN,HRN,0,181,181,242,,,0.983,687.3447906,687.6915071,687.7078016,687.9917156,688.0081416,687.3447906,down,2.3333449,688.0081416,None,688.0081416,688.9739575,0.0625282,None,,,,,,,,,2,1,2019_Dec_20_1629,untitled,3.1.0,60.21531793
_,_5,N,315,_,_,__5N315__,N,0,182,182,95,,,1.261,690.4637639,690.7554804,690.772601,691.0553653,691.0719419,None,up,2.583267,691.0719419,None,691.0719419,692.3208327,0.1091371,None,,,,,,,,,2,1,2019_Dec_20_1629,untitled,3.1.0,60.21531793
_,_4,N,315,_,_,__4N315__,N,0,183,183,87,,,0.873,693.7741625,694.0692706,694.0857555,694.3698812,694.385891,None,up,1.7995498,694.385891,None,694.385891,695.2517873,0.1065667,None,,,,,,,,,2,1,2019_Dec_20_1629,untitled,3.1.0,60.21531793
41,R,M,0,L,N,041RM000LN,HLN,0,184,184,104,,,1.393,696.3119049,696.6020376,696.6020376,696.8992507,696.9160136,None,None,,696.9160136,None,696.9160136,698.2988215,0.1152434,None,,,,,,,,,2,1,2019_Dec_20_1629,untitled,3.1.0,60.21531793
228,G,N,135,L,N,228GN135LN,HLN,0,185,185,235,,,0.868,700.6045023,700.8963533,700.8963533,701.0967133,701.1134603,700.6045023,up,1.802873,701.1134603,None,701.1134603,701.9624786,0.2129924,None,,,,,,,,,2,1,2019_Dec_20_1629,untitled,3.1.0,60.21531793
234,G,M,45,L,N,234GM045LN,HLN,0,186,186,137,,,1.113,703.0382466,703.3277399,703.3448196,703.627461,703.6438193,None,up,2.8010878,703.6438193,None,703.6438193,704.7438029,0.1108057,None,,,,,,,,,2,1,2019_Dec_20_1629,untitled,3.1.0,60.21531793
_,_5,M,180,_,_,__5M180__,N,0,187,187,44,,,0.905,706.6695498,706.9590385,706.9590385,707.1583325,707.174809,None,down,2.1187763,707.174809,None,707.174809,708.0739732,0.2131535,None,,,,,,,,,2,1,2019_Dec_20_1629,untitled,3.1.0,60.21531793
_,_5,N,135,_,_,__5N135__,N,0,188,188,91,,,1.218,709.4201354,709.7223908,709.7223908,710.0055713,710.022373,None,down,2.0659536,710.022373,None,710.022373,711.238064,0.1148826,None,,,,,,,,,2,1,2019_Dec_20_1629,untitled,3.1.0,60.21531793
_,_2,N,90,_,_,__2N090__,N,0,189,189,74,,,1.111,712.1971948,712.4860274,712.5193342,712.8024905,712.819549,None,down,3.2681261,712.819549,None,712.819549,713.9178382,0.0997025,None,,,,,,,,,2,1,2019_Dec_20_1629,untitled,3.1.0,60.21531793
_,_4,N,270,_,_,__4N270__,N,0,190,190,86,,,1.147,716.2092932,716.4996248,716.5162865,716.7992245,716.8159393,None,None,,716.8159393,None,716.8159393,717.949297,0.1107068,None,,,,,,,,,2,1,2019_Dec_20_1629,untitled,3.1.0,60.21531793
293,_2,N,180,L,N,293_2N180LN,HLN,0,191,191,252,,,1.362,720.3909994,720.7128092,720.7293462,721.012158,721.0287413,720.3909994,up,2.6674248,721.0287413,None,721.0287413,722.37802,0.0851913,None,,,,,,,,,2,1,2019_Dec_20_1629,untitled,3.1.0,60.21531793
484,_5,N,135,L,N,484_5N135LN,HLN,0,192,192,283,,,1.363,723.8245439,724.1262917,724.1262917,724.4096021,724.4264611,None,up,2.0818542,724.4264611,None,724.4264611,725.775199,0.1171625,None,,,,,,,,,2,1,2019_Dec_20_1629,untitled,3.1.0,60.21531793
486,_5,N,225,L,N,486_5N225LN,HLN,0,193,193,285,,,1.038,726.6229695,726.9239602,726.9400778,727.2239207,727.2401192,None,down,1.9326184,727.2401192,None,727.2401192,728.2564115,0.1041156,None,,,,,,,,,2,1,2019_Dec_20_1629,untitled,3.1.0,60.21531793
8,R,N,315,R,N,008RN315RN,HRN,0,194,194,199,,,0.939,729.2620151,729.587856,729.604817,729.8880202,729.9049281,None,down,2.4324824,729.9049281,None,729.9049281,730.820638,0.0808006,None,,,,,,,,,2,1,2019_Dec_20_1629,untitled,3.1.0,60.21531793
457,_5,M,0,R,N,457_5M000RN,HRN,0,195,195,176,,,0.891,732.4713863,732.7682303,732.7682303,733.0521692,733.06915,None,up,2.3321395,733.06915,None,733.06915,733.951259,0.122322,None,,,,,,,,,2,1,2019_Dec_20_1629,untitled,3.1.0,60.21531793
136,F,N,315,R,N,136FN315RN,HRN,0,196,196,215,,,1.203,735.5264303,735.8161373,735.8161373,736.1163085,736.132781,None,down,2.7821838,736.132781,None,736.132781,737.314994,0.1138074,None,,,,,,,,,2,1,2019_Dec_20_1629,untitled,3.1.0,60.21531793
237,G,M,180,L,N,237GM180LN,HLN,0,197,197,140,,,1.23,739.0537643,739.3461331,739.3461331,739.6299062,739.6466607,None,None,,739.6466607,None,739.6466607,740.8621732,0.127801,None,,,,,,,,,2,1,2019_Dec_20_1629,untitled,3.1.0,60.21531793
_,_5,M,45,_,_,__5M045__,N,0,198,198,41,,,1.08,743.2131237,743.5260458,743.5426445,743.8253087,743.8428252,743.2131237,None,,743.8428252,None,743.8428252,744.9075688,0.0942287,None,,,,,,,,,2,1,2019_Dec_20_1629,untitled,3.1.0,60.21531793
35,R,N,90,L,N,035RN090LN,HLN,0,199,199,202,,,1.28,747.5207751,747.8229181,747.8229181,748.0216776,748.0382001,747.5207751,None,,748.0382001,None,748.0382001,749.304748,0.2057319,None,,,,,,,,,2,1,2019_Dec_20_1629,untitled,3.1.0,60.21531793
488,_5,N,315,L,N,488_5N315LN,HLN,0,200,200,287,,,0.729,751.5716357,751.9182487,751.9350327,752.218338,752.2346186,751.5716357,down,1.7339485,752.2346186,None,752.2346186,752.9511343,0.0627947,None,,,,,,,,,2,1,2019_Dec_20_1629,untitled,3.1.0,60.21531793
143,F,M,270,R,N,143FM270RN,HRN,0,201,201,118,,,1.321,754.0951965,754.3856369,754.3856369,754.6832476,754.699995,None,down,2.981703,754.699995,None,754.699995,756.0154267,0.1157849,None,,,,,,,,,2,1,2019_Dec_20_1629,untitled,3.1.0,60.21531793
458,_5,M,45,R,N,458_5M045RN,HRN,0,202,202,177,,,0.928,757.7752588,758.0962998,758.1131498,758.3960992,758.4131592,None,down,2.0997671,758.4131592,None,758.4131592,759.3289454,0.0844267,None,,,,,,,,,2,1,2019_Dec_20_1629,untitled,3.1.0,60.21531793
_,_4,N,225,_,_,__4N225__,N,0,203,203,85,,,1.221,760.6351189,760.9272746,760.9272746,761.2271639,761.243938,None,up,2.6492183,761.243938,None,761.243938,762.4619035,0.110468,None,,,,,,,,,2,1,2019_Dec_20_1629,untitled,3.1.0,60.21531793
_,G,N,135,_,_,_GN135__,N,0,204,204,59,,,1.018,764.0136901,764.3077402,764.3245941,764.6085144,764.6250062,None,down,1.9833529,764.6250062,None,764.6250062,765.6237425,0.110938,None,,,,,,,,,2,1,2019_Dec_20_1629,untitled,3.1.0,60.21531793
_,F,M,315,_,_,_FM315__,N,0,205,205,7,,,1.13,766.7266019,767.0222166,767.0388933,767.3226155,767.3391063,None,None,,767.3391063,None,767.3391063,768.4546877,0.1073361,None,,,,,,,,,2,1,2019_Dec_20_1629,untitled,3.1.0,60.21531793
_,_4,M,0,_,_,__4M000__,N,0,206,206,32,,,1.272,770.925796,771.218444,771.218444,771.5184543,771.5352568,770.925796,down,2.8971873,771.5352568,None,771.5352568,772.7851618,0.1120458,None,,,,,,,,,2,1,2019_Dec_20_1629,untitled,3.1.0,60.21531793
135,F,N,270,R,N,135FN270RN,HRN,0,207,207,214,,,0.832,774.5105222,774.8486949,774.8653027,775.148573,775.1649833,None,up,2.5508608,775.1649833,None,775.1649833,775.9825972,0.069249,None,,,,,,,,,2,1,2019_Dec_20_1629,untitled,3.1.0,60.21531793
_,F,N,180,_,_,_FN180__,N,0,208,208,52,,,1.348,777.8295486,778.1296219,778.1465647,778.429967,778.447094,None,down,2.1468513,778.447094,None,778.447094,779.7782585,0.1003771,None,,,,,,,,,2,1,2019_Dec_20_1629,untitled,3.1.0,60.21531793
206,G,M,225,R,N,206GM225RN,HRN,0,209,209,133,,,1.344,780.6804627,781.0097611,781.0272524,781.3101574,781.3269156,None,None,,781.3269156,None,781.3269156,782.6590639,0.0787233,None,,,,,,,,,2,1,2019_Dec_20_1629,untitled,3.1.0,60.21531793
_,R,N,225,_,_,_RN225__,N,0,210,210,69,,,1.047,785.0180821,785.3080115,785.3080115,785.5068068,785.5232565,785.0180821,up,2.1159927,785.5232565,None,785.5232565,786.5556076,0.2158701,None,,,,,,,,,2,1,2019_Dec_20_1629,untitled,3.1.0,60.21531793
_,F,M,0,_,_,_FM000__,N,0,211,211,0,,,0.706,787.7588209,788.0537988,788.0704143,788.3538498,788.370791,None,down,2.6153215,788.370791,None,788.370791,789.0701291,0.1082025,None,,,,,,,,,2,1,2019_Dec_20_1629,untitled,3.1.0,60.21531793
417,_4,N,0,L,N,417_4N000LN,HLN,0,212,212,264,,,1.398,791.1164245,791.4181598,791.4181598,791.7004481,791.7179562,None,None,,791.7179562,None,791.7179562,793.0998972,0.1164849,None,,,,,,,,,2,1,2019_Dec_20_1629,untitled,3.1.0,60.21531793
257,_2,N,0,R,N,257_2N000RN,HRN,0,213,213,240,,,0.923,795.3254387,795.6155868,795.6155868,795.8976666,795.9141236,795.3254387,down,2.1328885,795.9141236,None,795.9141236,796.8293702,0.1336053,None,,,,,,,,,2,1,2019_Dec_20_1629,untitled,3.1.0,60.21531793
174,F,M,225,L,N,174FM225LN,HLN,0,214,214,125,,,1.085,798.1754674,798.4780062,798.4780062,798.7618619,798.7783754,None,down,2.185486,798.7783754,None,798.7783754,799.8607751,0.1146362,None,,,,,,,,,2,1,2019_Dec_20_1629,untitled,3.1.0,60.21531793
_,G,M,270,_,_,_GM270__,N,0,215,215,14,,,0.874,801.0836308,801.3755139,801.3922468,801.6750517,801.6917019,None,down,2.0320956,801.6917019,None,801.6917019,802.5581621,0.1089455,None,,,,,,,,,2,1,2019_Dec_20_1629,untitled,3.1.0,60.21531793
272,_2,M,315,R,N,272_2M315RN,HRN,0,216,216,151,,,1.009,803.8036498,804.1395513,804.1565809,804.4396051,804.4569679,None,up,2.1489581,804.4569679,None,804.4569679,805.43914,0.0715916,None,,,,,,,,,2,1,2019_Dec_20_1629,untitled,3.1.0,60.21531793
428,_4,M,135,L,N,428_4M135LN,HLN,0,217,217,171,,,1.396,806.7392486,807.0370479,807.0370479,807.3211916,807.3375971,None,up,2.5154827,807.3375971,None,807.3375971,808.7199847,0.122125,None,,,,,,,,,2,1,2019_Dec_20_1629,untitled,3.1.0,60.21531793
129,F,N,0,R,N,129FN000RN,HRN,0,218,218,208,,,1.354,809.986372,810.2844141,810.2844141,810.5683148,810.5847819,None,None,,810.5847819,None,810.5847819,811.9326442,0.1227199,None,,,,,,,,,2,1,2019_Dec_20_1629,untitled,3.1.0,60.21531793
40,R,N,315,L,N,040RN315LN,HLN,0,219,219,207,,,1.334,814.273921,814.564207,814.564207,814.7644593,814.7812027,814.273921,up,3.2982609,814.7812027,None,814.7812027,816.0955373,0.2128598,None,,,,,,,,,2,1,2019_Dec_20_1629,untitled,3.1.0,60.21531793
36,R,N,135,L,N,036RN135LN,HLN,0,220,220,203,,,1.015,818.204574,818.4944717,818.4944717,818.7939645,818.8110709,None,up,1.7979554,818.8110709,None,818.8110709,819.8099114,0.1127219,None,,,,,,,,,2,1,2019_Dec_20_1629,untitled,3.1.0,60.21531793
_,_5,M,270,_,_,__5M270__,N,0,221,221,46,,,1.129,820.6994293,821.0249237,821.0418782,821.3256528,821.3419869,None,up,2.6656019,821.3419869,None,821.3419869,822.4576482,0.0814936,None,,,,,,,,,2,1,2019_Dec_20_1629,untitled,3.1.0,60.21531793
45,R,M,180,L,N,045RM180LN,HLN,0,222,222,108,,,1.315,824.2134817,824.5055497,824.5055497,824.7223641,824.7390104,None,down,3.0493937,824.7390104,None,824.7390104,826.037729,0.1959717,None,,,,,,,,,2,1,2019_Dec_20_1629,untitled,3.1.0,60.21531793
34,R,N,45,L,N,034RN045LN,HLN,0,223,223,201,,,0.98,827.993634,828.2852583,828.2852583,828.5015446,828.5184318,None,up,1.951268,828.5184318,None,828.5184318,829.4849095,0.1939458,None,,,,,,,,,2,1,2019_Dec_20_1629,untitled,3.1.0,60.21531793
195,G,N,90,R,N,195GN090RN,HRN,0,224,224,226,,,1.202,830.594436,830.8840374,830.8840374,831.1836669,831.2000471,None,down,3.4657542,831.2000471,None,831.2000471,832.3823792,0.1132483,None,,,,,,,,,2,1,2019_Dec_20_1629,untitled,3.1.0,60.21531793
481,_5,N,0,L,N,481_5N000LN,HLN,0,225,225,280,,,1.156,834.7687465,835.0794643,835.0958586,835.3790736,835.3960708,None,None,,835.3960708,None,835.3960708,836.5445299,0.0946834,None,,,,,,,,,2,1,2019_Dec_20_1629,untitled,3.1.0,60.21531793
46,R,M,225,L,N,046RM225LN,HLN,0,226,226,109,,,1.3,838.9421473,839.2938262,839.2938262,839.5764312,839.592904,838.9421473,None,,839.592904,None,839.592904,840.874994,0.0752308,None,,,,,,,,,2,1,2019_Dec_20_1629,untitled,3.1.0,60.21531793
202,G,M,45,R,N,202GM045RN,HRN,0,227,227,129,,,0.833,843.2862132,843.5887815,843.5887815,843.7718551,843.7903411,843.2862132,up,2.2153578,843.7903411,None,843.7903411,844.6048497,0.2182316,None,,,,,,,,,2,1,2019_Dec_20_1629,untitled,3.1.0,60.21531793
418,_4,N,45,L,N,418_4N045LN,HLN,0,228,228,265,,,1.217,846.1343784,846.4364183,846.4364183,846.7198489,846.7365891,None,up,2.6494153,846.7365891,None,846.7365891,847.9343777,0.1164741,None,,,,,,,,,2,1,2019_Dec_20_1629,untitled,3.1.0,60.21531793
489,_5,M,0,L,N,489_5M000LN,HLN,0,229,229,184,,,1.337,849.5078123,849.8002665,849.8002665,850.0997909,850.1164715,None,up,3.0671161,850.1164715,None,850.1164715,851.4483617,0.1110811,None,,,,,,,,,2,1,2019_Dec_20_1629,untitled,3.1.0,60.21531793
3,R,N,90,R,N,003RN090RN,HRN,0,230,230,194,,,0.779,853.2913677,853.5962221,853.6143241,853.8961254,853.9124956,None,down,3.0154884,853.9124956,None,853.9124956,854.6792654,0.0973578,None,,,,,,,,,2,1,2019_Dec_20_1629,untitled,3.1.0,60.21531793
_,_5,N,180,_,_,__5N180__,N,0,231,231,92,,,1.174,857.030294,857.3443069,857.3600743,857.6431997,857.659852,None,up,3.0669612,857.659852,None,857.659852,858.8095726,0.0938129,None,,,,,,,,,2,1,2019_Dec_20_1629,untitled,3.1.0,60.21531793
133,F,N,180,R,N,133FN180RN,HRN,0,232,232,212,,,0.755,860.8630624,861.157062,861.157062,861.4406742,861.4570249,None,up,2.7139622,861.4570249,None,861.4570249,862.2062043,0.1246287,None,,,,,,,,,2,1,2019_Dec_20_1629,untitled,3.1.0,60.21531793
258,_2,N,45,R,N,258_2N045RN,HRN,0,233,233,241,,,0.978,864.2566639,864.5874418,864.603694,864.8866301,864.9036743,None,down,2.3163504,864.9036743,None,864.9036743,865.8694913,0.0776513,None,,,,,,,,,2,1,2019_Dec_20_1629,untitled,3.1.0,60.21531793
265,_2,M,0,R,N,265_2M000RN,HRN,0,234,234,144,,,1.112,867.3457388,867.6350477,867.6350477,867.9345686,867.9514455,None,down,2.9328343,867.9514455,None,867.9514455,869.0503935,0.1134484,None,,,,,,,,,2,1,2019_Dec_20_1629,untitled,3.1.0,60.21531793
9,R,M,0,R,N,009RM000RN,HRN,0,235,235,96,,,0.707,871.0054174,871.2975793,871.3148211,871.5978962,871.6160722,None,up,2.265622,871.6160722,None,871.6160722,872.3140913,0.1099785,None,,,,,,,,,2,1,2019_Dec_20_1629,untitled,3.1.0,60.21531793
300,_2,M,135,L,N,300_2M135LN,HLN,0,236,236,155,,,1.266,874.0038991,874.2953232,874.3120643,874.5959428,874.6124,None,up,2.9492215,874.6124,None,874.6124,875.8602743,0.1110106,None,,,,,,,,,2,1,2019_Dec_20_1629,untitled,3.1.0,60.21531793
165,F,N,180,L,N,165FN180LN,HLN,0,237,237,220,,,0.771,877.6913314,877.9919794,877.9919794,878.2755218,878.2923627,None,up,2.6142625,878.2923627,None,878.2923627,879.0419484,0.118096,None,,,,,,,,,2,1,2019_Dec_20_1629,untitled,3.1.0,60.21531793
130,F,N,45,R,N,130FN045RN,HRN,0,238,238,209,,,1.02,880.990314,881.3224091,881.3391058,881.6222066,881.6388994,None,up,1.000872,881.6388994,None,881.6388994,882.6384437,0.075983,None,,,,,,,,,2,1,2019_Dec_20_1629,untitled,3.1.0,60.21531793
232,G,N,315,L,N,232GN315LN,HLN,0,239,239,239,,,1.123,882.7640932,883.0540575,883.0540575,883.3558281,883.371277,None,down,2.4016218,883.371277,None,883.371277,884.4867441,0.1117421,None,,,,,,,,,2,1,2019_Dec_20_1629,untitled,3.1.0,60.21531793
482,_5,N,45,L,N,482_5N045LN,HLN,0,240,240,281,,,1.124,885.9087283,886.2016752,886.2016752,886.4849657,886.5019681,None,up,2.384479,886.5019681,None,886.5019681,887.6175546,0.122268,None,,,,,,,,,2,1,2019_Dec_20_1629,untitled,3.1.0,60.21531793
_,G,N,180,_,_,_GN180__,N,0,241,241,60,,,0.795,889.006956,889.2988756,889.315568,889.5991356,889.6224219,None,down,2.8256734,889.6224219,None,889.6224219,890.3982994,0.1097368,None,,,,,,,,,2,1,2019_Dec_20_1629,untitled,3.1.0,60.21531793
14,R,M,225,R,N,014RM225RN,HRN,0,242,242,101,,,1.146,892.573211,892.8626551,892.8626551,893.1648196,893.180044,None,down,3.0636223,893.180044,None,893.180044,894.3118359,0.1138642,None,,,,,,,,,2,1,2019_Dec_20_1629,untitled,3.1.0,60.21531793
203,G,M,90,R,N,203GM090RN,HRN,0,243,243,130,,,1.07,896.3352184,896.6589004,896.6759813,896.9586554,896.9761707,None,up,2.3158265,896.9761707,None,896.9761707,898.0245072,0.0830364,None,,,,,,,,,2,1,2019_Dec_20_1629,untitled,3.1.0,60.21531793
227,G,N,90,L,N,227GN090LN,HLN,0,244,244,234,,,1.056,899.4078047,899.7059121,899.7230896,900.0062138,900.0226476,None,up,2.8664059,900.0226476,None,900.0226476,901.0719322,0.1049609,None,,,,,,,,,2,1,2019_Dec_20_1629,untitled,3.1.0,60.21531793
_,_2,M,90,_,_,__2M090__,N,0,245,245,26,,,0.933,903.0154442,903.3056278,903.3056278,903.6038181,903.6204663,None,down,2.8153171,903.6204663,None,903.6204663,904.5360143,0.1152953,None,,,,,,,,,2,1,2019_Dec_20_1629,untitled,3.1.0,60.21531793
_,F,M,135,_,_,_FM135__,N,0,246,246,3,,,1.086,906.5556881,906.8506005,906.8665443,907.1497123,907.1676907,None,down,2.0819303,907.1676907,None,907.1676907,908.2332897,0.109164,None,,,,,,,,,2,1,2019_Dec_20_1629,untitled,3.1.0,60.21531793
398,_4,M,225,R,N,398_4M225RN,HRN,0,247,247,165,,,1.236,909.3762495,909.6649582,909.6649582,909.9644275,909.9816103,None,up,2.4314279,909.9816103,None,909.9816103,911.196484,0.1143281,None,,,,,,,,,2,1,2019_Dec_20_1629,untitled,3.1.0,60.21531793
397,_4,M,180,R,N,397_4M180RN,HRN,0,248,248,164,,,1.26,912.5005785,912.8286393,912.845364,913.1284876,913.1454202,None,up,2.3151922,913.1454202,None,913.1454202,914.3944647,0.0795308,None,,,,,,,,,2,1,2019_Dec_20_1629,untitled,3.1.0,60.21531793
_,_4,N,180,_,_,__4N180__,N,0,249,249,84,,,1.278,915.5524996,915.8756915,915.8924638,916.1750591,916.191668,None,down,2.3513575,916.191668,None,916.191668,917.457155,0.083796,None,,,,,,,,,2,1,2019_Dec_20_1629,untitled,3.1.0,60.21531793
_,G,M,45,_,_,_GM045__,N,0,250,250,9,,,1.346,918.657226,918.9562256,918.973358,919.2564317,919.2733227,None,up,3.0179259,919.2733227,None,919.2733227,920.6054978,0.1050447,None,,,,,,,,,2,1,2019_Dec_20_1629,untitled,3.1.0,60.21531793
44,R,M,135,L,N,044RM135LN,HLN,0,251,251,107,,,0.924,922.4215285,922.7197591,922.7197591,923.0038075,923.0201107,None,None,,923.0201107,None,923.0201107,923.9360225,0.1195869,None,,,,,,,,,2,1,2019_Dec_20_1629,untitled,3.1.0,60.21531793
270,_2,M,225,R,N,270_2M225RN,HRN,0,252,252,149,,,0.786,926.5844295,926.9161123,926.9326198,927.216054,927.2324435,926.5844295,down,2.8514232,927.2324435,None,927.2324435,927.9984098,0.0764934,None,,,,,,,,,2,1,2019_Dec_20_1629,untitled,3.1.0,60.21531793
173,F,M,180,L,N,173FM180LN,HLN,0,253,253,124,,,1.141,930.2018426,930.4971013,930.5130954,930.7966335,930.8139066,None,up,2.3982813,930.8139066,None,930.8139066,931.9444866,0.1074549,None,,,,,,,,,2,1,2019_Dec_20_1629,untitled,3.1.0,60.21531793
168,F,N,315,L,N,168FN315LN,HLN,0,254,254,223,,,1.133,933.3301943,933.6269643,933.6436936,933.9273104,933.9437773,None,down,3.2998481,933.9437773,None,933.9437773,935.0595183,0.1068484,None,,,,,,,,,2,1,2019_Dec_20_1629,untitled,3.1.0,60.21531793
_,G,N,90,_,_,_GN090__,N,0,255,255,58,,,1.065,937.3655365,937.6567265,937.6732736,937.9565999,937.973191,None,up,3.0037182,937.973191,None,937.973191,939.0227277,0.1114487,None,,,,,,,,,2,1,2019_Dec_20_1629,untitled,3.1.0,60.21531793
462,_5,M,225,R,N,462_5M225RN,HRN,0,256,256,181,,,1.31,941.1056976,941.4036385,941.4036385,941.6866029,941.7035631,None,up,3.3165621,941.7035631,None,941.7035631,943.00211,0.1185078,None,,,,,,,,,2,1,2019_Dec_20_1629,untitled,3.1.0,60.21531793
11,R,M,90,R,N,011RM090RN,HRN,0,257,257,98,,,0.821,945.1358153,945.4335238,945.449789,945.7334719,945.7502471,None,down,3.031202,945.7502471,None,945.7502471,946.5490183,0.1045026,None,,,,,,,,,2,1,2019_Dec_20_1629,untitled,3.1.0,60.21531793
_,R,M,0,_,_,_RM000__,N,0,258,258,16,,,1.079,948.8790586,949.1969834,949.2136844,949.49686,949.5136421,None,down,2.7821343,949.5136421,None,949.5136421,950.5793633,0.0881698,None,,,,,,,,,2,1,2019_Dec_20_1629,untitled,3.1.0,60.21531793
297,_2,M,0,L,N,297_2M000LN,HLN,0,259,259,152,,,0.961,952.4269375,952.7271535,952.7271535,953.0103536,953.0270635,None,down,2.9809932,953.0270635,None,953.0270635,953.9784798,0.1195322,None,,,,,,,,,2,1,2019_Dec_20_1629,untitled,3.1.0,60.21531793
_,_2,N,135,_,_,__2N135__,N,0,260,260,75,,,0.815,956.0986259,956.4234267,956.4406341,956.7235837,956.7403966,None,None,,956.7403966,None,956.7403966,957.5393807,0.0824617,None,,,,,,,,,2,1,2019_Dec_20_1629,untitled,3.1.0,60.21531793
_,_4,N,135,_,_,__4N135__,N,0,261,261,83,,,1.037,960.2764608,960.6199387,960.6369743,960.9198219,960.9364456,960.2764608,None,,960.9364456,None,960.9364456,961.9559167,0.0638564,None,,,,,,,,,2,1,2019_Dec_20_1629,untitled,3.1.0,60.21531793
131,F,N,90,R,N,131FN090RN,HRN,0,262,262,210,,,1.112,964.4870717,964.8171116,964.8331648,965.1165282,965.1340503,964.4870717,down,3.4491053,965.1340503,None,965.1340503,966.2324106,0.0779309,None,,,,,,,,,2,1,2019_Dec_20_1629,untitled,3.1.0,60.21531793
301,_2,M,180,L,N,301_2M180LN,HLN,0,263,263,156,,,0.728,968.7107398,969.0130085,969.0130085,969.29575,969.3123461,None,down,2.4493804,969.3123461,None,969.3123461,970.0295523,0.1159947,None,,,,,,,,,2,1,2019_Dec_20_1629,untitled,3.1.0,60.21531793
420,_4,N,135,L,N,420_4N135LN,HLN,0,264,264,267,,,1.245,971.8773288,972.1768591,972.1932663,972.4764243,972.4932557,None,up,2.3494923,972.4932557,None,972.4932557,973.7257334,0.1052952,None,,,,,,,,,2,1,2019_Dec_20_1629,untitled,3.1.0,60.21531793
431,_4,M,270,L,N,431_4M270LN,HLN,0,265,265,174,,,1.191,974.9686037,975.2595189,975.2595189,975.5572257,975.574261,None,down,2.6673663,975.574261,None,975.574261,976.7569448,0.1145129,None,,,,,,,,,2,1,2019_Dec_20_1629,untitled,3.1.0,60.21531793
_,_4,N,45,_,_,__4N045__,N,0,266,266,81,,,0.943,978.3703672,978.6712933,978.6712933,978.9549263,978.9714078,None,up,2.3685357,978.9714078,None,978.9714078,979.9038585,0.1176451,None,,,,,,,,,2,1,2019_Dec_20_1629,untitled,3.1.0,60.21531793
167,F,N,270,L,N,167FN270LN,HLN,0,267,267,222,,,1.335,981.4638701,981.753745,981.753745,982.0518408,982.0686722,None,down,2.3995554,982.0686722,None,982.0686722,983.3840088,0.1129949,None,,,,,,,,,2,1,2019_Dec_20_1629,untitled,3.1.0,60.21531793
487,_5,N,270,L,N,487_5N270LN,HLN,0,268,268,286,,,1.024,984.5864735,984.8822957,984.8993001,985.1818754,985.1991754,None,down,1.9181598,985.1991754,None,985.1991754,986.2147105,0.1063665,None,,,,,,,,,2,1,2019_Dec_20_1629,untitled,3.1.0,60.21531793
_,F,N,225,_,_,_FN225__,N,0,269,269,53,,,1.109,987.2214,987.5300171,987.5471001,987.8296602,987.8464614,None,down,2.6182148,987.8464614,None,987.8464614,988.9460492,0.0946549,None,,,,,,,,,2,1,2019_Dec_20_1629,untitled,3.1.0,60.21531793
_,G,N,0,_,_,_GN000__,N,0,270,270,56,,,1.353,990.5845551,990.8774972,990.8939315,991.1774655,991.1940069,None,up,3.2502944,991.1940069,None,991.1940069,992.5421294,0.1094358,None,,,,,,,,,2,1,2019_Dec_20_1629,untitled,3.1.0,60.21531793
196,G,N,135,R,N,196GN135RN,HRN,0,271,271,227,,,1.18,994.5742853,994.8737422,994.8737422,995.1572203,995.1739603,None,down,3.0496425,995.1739603,None,995.1739603,996.3393596,0.1188252,None,,,,,,,,,2,1,2019_Dec_20_1629,untitled,3.1.0,60.21531793
16,R,M,315,R,N,016RM315RN,HRN,0,272,272,103,,,1.295,998.3534096,998.653818,998.653818,998.9374508,998.9537573,None,down,3.4141123,998.9537573,None,998.9537573,1000.236136,0.1190638,None,,,,,,,,,2,1,2019_Dec_20_1629,untitled,3.1.0,60.21531793
166,F,N,225,L,N,166FN225LN,HLN,0,273,273,221,,,0.736,1002.479482,1002.783796,1002.800166,1003.083208,1003.100007,None,up,2.8159837,1003.100007,None,1003.100007,1003.815873,0.1026867,None,,,,,,,,,2,1,2019_Dec_20_1629,untitled,3.1.0,60.21531793
461,_5,M,180,R,N,461_5M180RN,HRN,0,274,274,180,,,1.014,1006.151215,1006.446767,1006.446767,1006.630334,1006.647198,None,up,2.701505,1006.647198,None,1006.647198,1007.646445,0.2223386,None,,,,,,,,,2,1,2019_Dec_20_1629,untitled,3.1.0,60.21531793
239,G,M,270,L,N,239GM270LN,HLN,0,275,275,142,,,1.177,1009.466298,1009.760641,1009.777714,1010.060825,1010.077633,None,down,2.3667418,1010.077633,None,1010.077633,1011.243249,0.1069381,None,,,,,,,,,2,1,2019_Dec_20_1629,untitled,3.1.0,60.21531793
292,_2,N,135,L,N,292_2N135LN,HLN,0,276,276,251,,,1.041,1012.574144,1012.874358,1012.874358,1013.157878,1013.174837,None,up,2.9494316,1013.174837,None,1013.174837,1014.207344,0.1176494,None,,,,,,,,,2,1,2019_Dec_20_1629,untitled,3.1.0,60.21531793
_,_2,M,225,_,_,__2M225__,N,0,277,277,29,,,0.806,1016.225192,1016.538674,1016.554816,1016.837373,1016.854127,None,down,3.299707,1016.854127,None,1016.854127,1017.654186,0.0895476,None,,,,,,,,,2,1,2019_Dec_20_1629,untitled,3.1.0,60.21531793
_,G,M,315,_,_,_GM315__,N,0,278,278,15,,,1.32,1020.282725,1020.584856,1020.584856,1020.868163,1020.884631,None,down,3.0820655,1020.884631,None,1020.884631,1022.200577,0.1169659,None,,,,,,,,,2,1,2019_Dec_20_1629,untitled,3.1.0,60.21531793
_,G,M,225,_,_,_GM225__,N,0,279,279,13,,,0.981,1024.092004,1024.381489,1024.381489,1024.682666,1024.698523,None,down,2.9986783,1024.698523,None,1024.698523,1025.662997,0.1143667,None,,,,,,,,,2,1,2019_Dec_20_1629,untitled,3.1.0,60.21531793
139,F,M,90,R,N,139FM090RN,HRN,0,280,280,114,,,1.02,1027.815316,1028.111072,1028.127682,1028.41137,1028.428213,None,None,,1028.428213,None,1028.428213,1029.42736,0.1077338,None,,,,,,,,,2,1,2019_Dec_20_1629,untitled,3.1.0,60.21531793
394,_4,M,45,R,N,394_4M045RN,HRN,0,281,281,161,,,0.708,1032.105989,1032.407259,1032.407259,1032.607446,1032.624073,1032.105989,up,2.18261,1032.624073,None,1032.624073,1033.323386,0.2034567,None,,,,,,,,,2,1,2019_Dec_20_1629,untitled,3.1.0,60.21531793
483,_5,N,90,L,N,483_5N090LN,HLN,0,282,282,282,,,1.228,1034.897411,1035.222225,1035.238832,1035.521886,1035.538681,None,up,3.298876,1035.538681,None,1035.538681,1036.754339,0.0814098,None,,,,,,,,,2,1,2019_Dec_20_1629,untitled,3.1.0,60.21531793
302,_2,M,225,L,N,302_2M225LN,HLN,0,283,283,157,,,0.928,1039.037693,1039.335075,1039.335075,1039.551683,1039.568644,None,down,3.2998875,1039.568644,None,1039.568644,1040.484363,0.189864,None,,,,,,,,,2,1,2019_Dec_20_1629,untitled,3.1.0,60.21531793
_,_4,M,315,_,_,__4M315__,N,0,284,284,39,,,1.031,1042.994594,1043.283867,1043.283867,1043.581951,1043.5985,None,up,3.0198519,1043.5985,None,1043.5985,1044.614179,0.1147922,None,,,,,,,,,2,1,2019_Dec_20_1629,untitled,3.1.0,60.21531793
494,_5,M,225,L,N,494_5M225LN,HLN,0,285,285,189,,,0.704,1046.742184,1047.044675,1047.044675,1047.328179,1047.345217,None,up,1.9320019,1047.345217,None,1047.345217,1048.044375,0.1134469,None,,,,,,,,,2,1,2019_Dec_20_1629,untitled,3.1.0,60.21531793
_,_2,N,0,_,_,__2N000__,N,0,286,286,72,,,0.913,1049.365389,1049.692563,1049.70897,1049.992063,1050.008963,None,down,2.6327316,1050.008963,None,1050.008963,1050.908619,0.0794858,None,,,,,,,,,2,1,2019_Dec_20_1629,untitled,3.1.0,60.21531793
396,_4,M,135,R,N,396_4M135RN,HRN,0,287,287,163,,,1.076,1052.776865,1053.072619,1053.072619,1053.379079,1053.379079,None,None,,1053.379079,None,1053.379079,1054.439047,0.1235629,None,,,,,,,,,2,1,2019_Dec_20_1629,untitled,3.1.0,60.21531793
,,,,,,,,,,,,,,,,,,,,,,,,,,,,,1056.852644,None,1069.175673,None,1071.441662,None,1078.884599,None,,,,,,
