Number,Letter,type,Orientation,human,face_type,image,picture,trials.thisRepN,trials.thisTrialN,trials.thisN,trials.thisIndex,text.started,text.stopped,stimulus_duration,CROSS.started,CROSS.stopped,BLANK.started,BLANK.stopped,TEST.started,TEST.stopped,key_JUDGE.keys,key_JUDGE.started,key_JUDGE.stopped,image_2.started,image_2.stopped,ISI.started,ISI.stopped,key_JUDGE.rt,q1.started,q1.stopped,q2.started,q2.stopped,q3.started,q3.stopped,text_2.started,text_2.stopped,participant,session,date,expName,psychopyVersion,frameRate,
231,G,N,270,L,N,231GN270LN,HLN,0,0,0,238,1516.554024800018,None,1.317,1555.745550599997,1556.0358043999877,1556.0358043999877,1556.3168617999763,1556.3333369999891,None,None,1556.3333369999891,None,1556.3333369999891,1557.6322221999872,0.13908450002782047,None,,,,,,,,,,30,001,2019_Dec_25_1338,untitled,3.1.0,60.0993683035682,
_,_5,M,45,_,_,__5M045__,N,0,1,1,41,,,1.224,1560.066442499985,1560.3635249999934,1560.3635249999934,1560.5798973999918,1560.5967674999847,1560.066442499985,down,1560.5967674999847,None,1560.5967674999847,1561.8121638000011,0.18626280000898987,None,2.581920299970079,,,,,,,,,30,001,2019_Dec_25_1338,untitled,3.1.0,60.0993683035682,
418,_4,N,45,L,N,418_4N045LN,HLN,0,2,2,265,,,0.76,1563.2509041000158,1563.5942023000098,1563.6108200000017,1563.894123599981,1563.9106868000235,None,up,1563.9106868000235,None,1563.9106868000235,1564.659516500018,0.06480870000086725,None,1.8499059999594465,,,,,,,,,30,001,2019_Dec_25_1338,untitled,3.1.0,60.0993683035682,
490,_5,M,45,L,N,490_5M045LN,HLN,0,3,3,185,,,0.9560000000000001,1565.9516333999927,1566.2414921000018,1566.2414921000018,1566.474826699996,1566.4911427000188,None,down,1566.4911427000188,None,1566.4911427000188,1567.4239322000067,0.18168350000632927,None,3.1316262999898754,,,,,,,,,30,001,2019_Dec_25_1338,untitled,3.1.0,60.0993683035682,
_,_5,M,135,_,_,__5M135__,N,0,4,4,43,,,1.223,1569.7899799000006,1570.0882758999942,1570.0882758999942,1570.338603799988,1570.3562375999754,None,up,1570.3562375999754,None,1570.3562375999754,1571.5543297000113,0.16011930000968277,None,3.345740399963688,,,,,,,,,30,001,2019_Dec_25_1338,untitled,3.1.0,60.0993683035682,
042,R,M,45,L,N,042RM045LN,HLN,0,5,5,105,,,1.228,1573.8035039000097,1574.1180085000233,1574.1343193000066,1574.4183404999785,1574.434362000029,None,down,1574.434362000029,None,1574.434362000029,1575.649536699988,0.09491000004345551,None,2.8175413999706507,,,,,,,,,30,001,2019_Dec_25_1338,untitled,3.1.0,60.0993683035682,
_,_5,N,45,_,_,__5N045__,N,0,6,6,89,,,0.759,1577.4631372999866,1577.7494120000047,1577.7494120000047,1577.9646799999755,1577.9813465999905,None,up,1577.9813465999905,None,1577.9813465999905,1578.7302018000046,0.201695799943991,None,1.848808699985966,,,,,,,,,30,001,2019_Dec_25_1338,untitled,3.1.0,60.0993683035682,
_,G,M,45,_,_,_GM045__,N,0,7,7,9,,,0.981,1580.0237906000111,1580.312402200012,1580.312402200012,1580.5456007000175,1580.56268740003,None,down,1580.56268740003,None,1580.56268740003,1581.5282493000268,0.18382069998187944,None,2.7141309999860823,,,,,,,,,30,001,2019_Dec_25_1338,untitled,3.1.0,60.0993683035682,
_,R,M,225,_,_,_RM225__,N,0,8,8,21,,,0.772,1583.4391467000241,1583.7267197999754,1583.7267197999754,1583.9927320000133,1584.0092778999824,None,None,1584.0092778999824,None,1584.0092778999824,1584.7595464999904,0.1547401999705471,None,,,,,,,,,,30,001,2019_Dec_25_1338,untitled,3.1.0,60.0993683035682,
269,_2,M,180,R,N,269_2M180RN,HRN,0,9,9,148,,,0.9580000000000001,1587.5436010999838,1587.8892362000188,1587.906153900025,1588.1889284999925,1588.2064846000285,1587.5436010999838,down,1588.2064846000285,None,1588.2064846000285,1589.1382262000116,0.0630710000405088,None,2.7663469000253826,,,,,,,,,30,001,2019_Dec_25_1338,untitled,3.1.0,60.0993683035682,
142,F,M,225,R,N,142FM225RN,HRN,0,10,10,117,,,1.319,1591.1436838000081,1591.4361868000124,1591.4361868000124,1591.6856315999757,1591.7025297000073,None,None,1591.7025297000073,None,1591.7025297000073,1593.0016287000035,0.16384350002044812,None,,,,,,,,,,30,001,2019_Dec_25_1338,untitled,3.1.0,60.0993683035682,
174,F,M,225,L,N,174FM225LN,HLN,0,11,11,125,,,1.056,1595.3283545000013,1595.6170561999897,1595.6170561999897,1595.8822846999974,1595.898793899978,1595.3283545000013,down,1595.898793899978,None,1595.898793899978,1596.931683200004,0.15537839999888092,None,2.964762800023891,,,,,,,,,30,001,2019_Dec_25_1338,untitled,3.1.0,60.0993683035682,
_,F,N,270,_,_,_FN270__,N,0,12,12,54,,,1.167,1599.0615317000193,1599.3623607999762,1599.3623607999762,1599.5792724000057,1599.595705499989,None,up,1599.595705499989,None,1599.595705499989,1600.7451358999824,0.1895459999796003,None,2.1825315000023693,,,,,,,,,30,001,2019_Dec_25_1338,untitled,3.1.0,60.0993683035682,
_,_5,M,225,_,_,__5M225__,N,0,13,13,45,,,1.289,1601.9585888999864,1602.2602125999983,1602.2602125999983,1602.4935404999997,1602.509877400007,None,up,1602.509877400007,None,1602.509877400007,1603.7759386000107,0.17248020000988618,None,2.7005026999977417,,,,,,,,,30,001,2019_Dec_25_1338,untitled,3.1.0,60.0993683035682,
036,R,N,135,L,N,036RN135LN,HLN,0,14,14,203,,,1.212,1605.393877000024,1605.690532699984,1605.690532699984,1605.9232670000056,1605.9402356999926,None,up,1605.9402356999926,None,1605.9402356999926,1607.1393474999932,0.17629610002040863,None,2.3982758999918588,,,,,,,,,30,001,2019_Dec_25_1338,untitled,3.1.0,60.0993683035682,
_,F,N,180,_,_,_FN180__,N,0,15,15,52,,,0.753,1608.5265230999794,1608.820856700011,1608.820856700011,1609.05437909998,1609.070648199995,None,None,1609.070648199995,None,1609.070648199995,1609.803355299984,0.17983030003961176,None,,,,,,,,,,30,001,2019_Dec_25_1338,untitled,3.1.0,60.0993683035682,
_,R,M,0,_,_,_RM000__,N,0,16,16,16,,,0.803,1612.6938970999909,1612.9844862000318,1612.9844862000318,1613.2506257999921,1613.267462000018,1612.6938970999909,down,1613.267462000018,None,1613.267462000018,1614.0499542999896,0.15108739997958764,None,2.2502545000170358,,,,,,,,,30,001,2019_Dec_25_1338,untitled,3.1.0,60.0993683035682,
007,R,N,270,R,N,007RN270RN,HRN,0,17,17,198,,,0.802,1615.7129364000284,1616.014464100008,1616.014464100008,1616.2309276000015,1616.247457200021,None,up,1616.247457200021,None,1616.247457200021,1617.032184300013,0.1881565999938175,None,1.8675386999966577,,,,,,,,,30,001,2019_Dec_25_1338,untitled,3.1.0,60.0993683035682,
_,R,N,180,_,_,_RN180__,N,0,18,18,68,,,1.196,1618.3067461000173,1618.597359700012,1618.597359700012,1618.8291980000213,1618.8457775000134,None,None,1618.8457775000134,None,1618.8457775000134,1620.0276745000156,0.1822556999977678,None,,,,,,,,,,30,001,2019_Dec_25_1338,untitled,3.1.0,60.0993683035682,
035,R,N,90,L,N,035RN090LN,HLN,0,19,19,202,,,1.111,1622.4818961999845,1622.7757008000044,1622.7757008000044,1623.025374000019,1623.041946900019,1622.4818961999845,up,1623.041946900019,None,1623.041946900019,1624.140956600022,0.1657637000316754,None,1.965700700005982,,,,,,,,,30,001,2019_Dec_25_1338,untitled,3.1.0,60.0993683035682,
397,_4,M,180,R,N,397_4M180RN,HRN,0,20,20,164,,,1.063,1625.1838763999986,1625.47323350003,1625.47323350003,1625.7233169000247,1625.7396098999889,None,down,1625.7396098999889,None,1625.7396098999889,1626.7883119999897,0.16927829995984212,None,3.347639799991157,,,,,,,,,30,001,2019_Dec_25_1338,untitled,3.1.0,60.0993683035682,
039,R,N,270,L,N,039RN270LN,HLN,0,21,21,206,,,0.9420000000000001,1629.2019804000156,1629.5031787999906,1629.5198628000217,1629.8041201999877,1629.8195875000092,None,up,1629.8195875000092,None,1629.8195875000092,1630.7519544999814,0.1061362000182271,None,2.3694670000113547,,,,,,,,,30,001,2019_Dec_25_1338,untitled,3.1.0,60.0993683035682,
001,R,N,0,R,N,001RN000RN,HRN,0,22,22,192,,,1.205,1632.2864946000045,1632.6014127000235,1632.6168478999753,1632.9000514000072,1632.9173727000016,None,up,1632.9173727000016,None,1632.9173727000016,1634.1156467000255,0.0897355999913998,None,2.133078300044872,,,,,,,,,30,001,2019_Dec_25_1338,untitled,3.1.0,60.0993683035682,
135,F,N,270,R,N,135FN270RN,HRN,0,23,23,214,,,1.338,1635.1269229000318,1635.4641819000244,1635.4811659000115,1635.7642482999945,1635.780908500019,None,up,1635.780908500019,None,1635.780908500019,1637.0965487000067,0.06942990003153682,None,2.2829551000031643,,,,,,,,,30,001,2019_Dec_25_1338,untitled,3.1.0,60.0993683035682,
202,G,M,45,R,N,202GM045RN,HRN,0,24,24,129,,,0.934,1638.139312000014,1638.4794864000287,1638.4950297999894,1638.778079700016,1638.794885499985,None,down,1638.794885499985,None,1638.794885499985,1639.7107645000215,0.06876610004110262,None,2.9000035999924876,,,,,,,,,30,001,2019_Dec_25_1338,untitled,3.1.0,60.0993683035682,
161,F,N,0,L,N,161FN000LN,HLN,0,25,25,216,,,1.239,1641.7836119999993,1642.1086844999809,1642.1253918000148,1642.4086652999977,1642.4253128999844,None,up,1642.4253128999844,None,1642.4253128999844,1643.640874499979,0.08156560000497848,None,2.648186100006569,,,,,,,,,30,001,2019_Dec_25_1338,untitled,3.1.0,60.0993683035682,
431,_4,M,270,L,N,431_4M270LN,HLN,0,26,26,174,,,1.095,1645.1715218999889,1645.4888270000229,1645.5062956999755,1645.7888199000154,1645.8053133999929,None,down,1645.8053133999929,None,1645.8053133999929,1646.8875817999942,0.08995429996866733,None,2.4167463000048883,,,,,,,,,30,001,2019_Dec_25_1338,untitled,3.1.0,60.0993683035682,
240,G,M,315,L,N,240GM315LN,HLN,0,27,27,143,,,1.282,1648.4056031000218,1648.70303959999,1648.70303959999,1648.9361132999766,1648.9528560999897,None,down,1648.9528560999897,None,1648.9528560999897,1650.218911700009,0.17630230000941083,None,2.8811885999748483,,,,,,,,,30,001,2019_Dec_25_1338,untitled,3.1.0,60.0993683035682,
_,R,N,315,_,_,_RN315__,N,0,28,28,71,,,1.2750000000000001,1651.90286750003,1652.2495643000002,1652.2664249999798,1652.5496165999793,1652.5661812000326,None,up,1652.5661812000326,None,1652.5661812000326,1653.8154105999856,0.06229420000454411,None,2.26658509997651,,,,,,,,,30,001,2019_Dec_25_1338,untitled,3.1.0,60.0993683035682,
_,_4,M,135,_,_,__4M135__,N,0,29,29,35,,,0.863,1654.901766600029,1655.2475754999905,1655.264345899981,1655.5479111000313,1655.5663699000143,None,down,1655.5663699000143,None,1655.5663699000143,1656.4125614999793,0.061343799985479563,None,2.6142061999998987,,,,,,,,,30,001,2019_Dec_25_1338,untitled,3.1.0,60.0993683035682,
_,F,N,315,_,_,_FN315__,N,0,30,30,55,,,1.066,1658.2765703999903,1658.594522600004,1658.6118622000213,1658.8960599999991,1658.9108546000207,None,up,1658.9108546000207,None,1658.9108546000207,1659.960140399984,0.08956759999273345,None,2.1818392000277527,,,,,,,,,30,001,2019_Dec_25_1338,untitled,3.1.0,60.0993683035682,
195,G,N,90,R,N,195GN090RN,HRN,0,31,31,226,,,1.17,1661.1936274999753,1661.5100794000318,1661.5255975999753,1661.8078370000003,1661.8253586000064,None,up,1661.8253586000064,None,1661.8253586000064,1662.9737246999866,0.09142459998838603,None,2.781309899990447,,,,,,,,,30,001,2019_Dec_25_1338,untitled,3.1.0,60.0993683035682,
491,_5,M,90,L,N,491_5M090LN,HLN,0,32,32,186,,,0.721,1664.6788997999975,1665.0221522999927,1665.0387888000114,1665.3224398000166,1665.3392340000137,None,down,1665.3392340000137,None,1665.3392340000137,1666.0378331000102,0.06533949996810406,None,2.197679499979131,,,,,,,,,30,001,2019_Dec_25_1338,untitled,3.1.0,60.0993683035682,
_,F,M,315,_,_,_FM315__,N,0,33,33,7,,,0.89,1667.72135170002,1668.0194369999808,1668.0194369999808,1668.253499399987,1668.269303500012,None,down,1668.269303500012,None,1668.269303500012,1669.134723199997,0.17615899996599182,None,2.5341773999971338,,,,,,,,,30,001,2019_Dec_25_1338,untitled,3.1.0,60.0993683035682,
_,F,M,180,_,_,_FM180__,N,0,34,34,4,,,1.022,1670.9962295999867,1671.2840365000302,1671.2840365000302,1671.5170613999944,1671.5330929000047,None,up,1671.5330929000047,None,1671.5330929000047,1672.5323253999813,0.18361549999099225,None,2.631721900019329,,,,,,,,,30,001,2019_Dec_25_1338,untitled,3.1.0,60.0993683035682,
233,G,M,0,L,N,233GM000LN,HLN,0,35,35,136,,,1.178,1674.3525973000214,1674.64727820002,1674.64727820002,1674.87979430001,1674.8965304000303,None,down,1674.8965304000303,None,1674.8965304000303,1676.0626564000268,0.17618529999163002,None,2.881298099993728,,,,,,,,,30,001,2019_Dec_25_1338,untitled,3.1.0,60.0993683035682,
267,_2,M,90,R,N,267_2M090RN,HRN,0,36,36,146,,,0.999,1677.8587349000154,1678.1940858000307,1678.2107095000101,1678.4939811999793,1678.5106556999963,None,down,1678.5106556999963,None,1678.5106556999963,1679.492814600002,0.07410079997498542,None,2.483166899997741,,,,,,,,,30,001,2019_Dec_25_1338,untitled,3.1.0,60.0993683035682,
455,_5,N,270,R,N,455_5N270RN,HRN,0,37,37,278,,,1.23,1681.0705062000197,1681.4084813999943,1681.4249808000168,1681.707954099984,1681.724621500005,None,up,1681.724621500005,None,1681.724621500005,1682.9396703999955,0.07007630000589415,None,2.1835493000107817,,,,,,,,,30,001,2019_Dec_25_1338,untitled,3.1.0,60.0993683035682,
297,_2,M,0,L,N,297_2M000LN,HLN,0,38,38,152,,,1.326,1683.978344800009,1684.3219500000123,1684.338519299985,1684.6225883000297,1684.6385032000253,None,down,1684.6385032000253,None,1684.6385032000253,1685.9534635000164,0.06344849994638935,None,2.3322357999859378,,,,,,,,,30,001,2019_Dec_25_1338,untitled,3.1.0,60.0993683035682,
_,_2,M,270,_,_,__2M270__,N,0,39,39,30,,,0.732,1687.0445323000313,1687.3858388999943,1687.4023749000044,1687.6853830000036,1687.701965300017,None,down,1687.701965300017,None,1687.701965300017,1688.4191972999834,0.06690539995906875,None,2.4985968000255525,,,,,,,,,30,001,2019_Dec_25_1338,untitled,3.1.0,60.0993683035682,
133,F,N,180,R,N,133FN180RN,HRN,0,40,40,212,,,1.3760000000000001,1690.2941830999916,1690.6161001999862,1690.633473600028,1690.9166592999827,1690.9326460000011,None,up,1690.9326460000011,None,1690.9326460000011,1692.2988314999966,0.08706829999573529,None,2.40146000002278,,,,,,,,,30,001,2019_Dec_25_1338,untitled,3.1.0,60.0993683035682,
_,G,M,315,_,_,_GM315__,N,0,41,41,15,,,0.713,1693.4050813000067,1693.7473910999834,1693.763607700006,1694.046932999976,1694.0635353000253,None,down,1694.0635353000253,None,1694.0635353000253,1694.762662300025,0.06371339998440817,None,2.1985257000196725,,,,,,,,,30,001,2019_Dec_25_1338,untitled,3.1.0,60.0993683035682,
234,G,M,45,L,N,234GM045LN,HLN,0,42,42,137,,,0.773,1696.3412526000175,1696.6778234000085,1696.6944147000322,1696.9775457999785,1696.9939519999898,None,down,1696.9939519999898,None,1696.9939519999898,1697.7435051000211,0.07216719997813925,None,2.6520168999559246,,,,,,,,,30,001,2019_Dec_25_1338,untitled,3.1.0,60.0993683035682,
168,F,N,315,L,N,168FN315LN,HLN,0,43,43,223,,,0.872,1699.8631060000043,1700.1588441000204,1700.1588441000204,1700.3585196000058,1700.374611200008,None,up,1700.374611200008,None,1700.374611200008,1701.2406330999802,0.2061952999792993,None,1.8169190000044182,,,,,,,,,30,001,2019_Dec_25_1338,untitled,3.1.0,60.0993683035682,
_,G,N,90,_,_,_GN090__,N,0,44,44,58,,,0.712,1702.2728367000236,1702.6058409999823,1702.6227960999822,1702.9057455000002,1702.9232508999994,None,up,1702.9232508999994,None,1702.9232508999994,1703.62142879999,0.0739857999724336,None,1.799402899981942,,,,,,,,,30,001,2019_Dec_25_1338,untitled,3.1.0,60.0993683035682,
_,F,N,45,_,_,_FN045__,N,0,45,45,49,,,1.137,1704.920175199979,1705.2205096000107,1705.2205096000107,1705.437124899996,1705.453767400002,None,up,1705.453767400002,None,1705.453767400002,1706.569157799997,0.19043439999222755,None,2.0674088999512605,,,,,,,,,30,001,2019_Dec_25_1338,untitled,3.1.0,60.0993683035682,
038,R,N,225,L,N,038RN225LN,HLN,0,46,46,205,,,1.237,1707.728268900013,1708.0182982999831,1708.0182982999831,1708.2343950999784,1708.2513256000238,None,None,1708.2513256000238,None,1708.2513256000238,1709.466889399977,0.19846029998734593,None,,,,,,,,,,30,001,2019_Dec_25_1338,untitled,3.1.0,60.0993683035682,
_,_5,N,225,_,_,__5N225__,N,0,47,47,93,,,0.77,1711.7880341000273,1712.131978599995,1712.1476716999896,1712.4311163999955,1712.4485421000281,1711.7880341000273,up,1712.4485421000281,None,1712.4485421000281,1713.196998999978,0.06542780000017956,None,2.414765299996361,,,,,,,,,30,001,2019_Dec_25_1338,untitled,3.1.0,60.0993683035682,
294,_2,N,225,L,N,294_2N225LN,HLN,0,48,48,253,,,0.785,1714.9560704000178,1715.2785376000102,1715.2956357999938,1715.578176399984,1715.594703299983,None,up,1715.594703299983,None,1715.594703299983,1716.361252599978,0.08342229999834672,None,2.43167939997511,,,,,,,,,30,001,2019_Dec_25_1338,untitled,3.1.0,60.0993683035682,
430,_4,M,225,L,N,430_4M225LN,HLN,0,49,49,173,,,1.1400000000000001,1718.194783199986,1718.4927472000127,1718.4927472000127,1718.7424328000052,1718.758493500005,None,down,1718.758493500005,None,1718.758493500005,1719.8743103999877,0.16133440000703558,None,3.2161561000393704,,,,,,,,,30,001,2019_Dec_25_1338,untitled,3.1.0,60.0993683035682,
134,F,N,225,R,N,134FN225RN,HRN,0,50,50,213,,,1.192,1722.0860129999928,1722.3889828000101,1722.4053846999886,1722.688526700018,1722.7047544000088,None,up,1722.7047544000088,None,1722.7047544000088,1723.8871570000192,0.0998616999713704,None,2.0987992000300437,,,,,,,,,30,001,2019_Dec_25_1338,untitled,3.1.0,60.0993683035682,
229,G,N,180,L,N,229GN180LN,HLN,0,51,51,236,,,0.8230000000000001,1724.8768877999973,1725.219822700019,1725.2365803000284,1725.5196758999955,1725.5362989000278,None,down,1725.5362989000278,None,1725.5362989000278,1726.3356437999755,0.06655470002442598,None,2.998855200014077,,,,,,,,,30,001,2019_Dec_25_1338,untitled,3.1.0,60.0993683035682,
009,R,M,0,R,N,009RM000RN,HRN,0,52,52,96,,,0.711,1728.613295999996,1728.9501793999807,1728.9665310999844,1729.2499805000261,1729.2662485000328,None,down,1729.2662485000328,None,1729.2662485000328,1729.9653427000158,0.06977120001101866,None,2.034049700014293,,,,,,,,,30,001,2019_Dec_25_1338,untitled,3.1.0,60.0993683035682,
004,R,N,135,R,N,004RN135RN,HRN,0,53,53,195,,,1.233,1731.3751974999905,1731.7139564999961,1731.7303501000279,1732.0140609000227,1732.0302191000083,None,up,1732.0302191000083,None,1732.0302191000083,1733.246017700003,0.06825740000931546,None,2.0994573999778368,,,,,,,,,30,001,2019_Dec_25_1338,untitled,3.1.0,60.0993683035682,
167,F,N,270,L,N,167FN270LN,HLN,0,54,54,222,,,1.087,1734.3200822999934,1734.6115619000047,1734.6115619000047,1734.8455807000282,1734.862888499978,None,up,1734.862888499978,None,1734.862888499978,1735.9267702000216,0.18119159998605028,None,1.8979654000140727,,,,,,,,,30,001,2019_Dec_25_1338,untitled,3.1.0,60.0993683035682,
389,_4,N,180,R,N,389_4N180RN,HRN,0,55,55,260,,,1.131,1736.8980946000083,1737.1926371000009,1737.1926371000009,1737.475907200016,1737.4928162000142,None,down,1737.4928162000142,None,1737.4928162000142,1738.607518100005,0.12669350003125146,None,2.597243600001093,,,,,,,,,30,001,2019_Dec_25_1338,untitled,3.1.0,60.0993683035682,
131,F,N,90,R,N,131FN090RN,HRN,0,56,56,210,,,1.065,1740.333065200015,1740.6227117999806,1740.6227117999806,1740.805983600032,1740.8225280999904,None,up,1740.8225280999904,None,1740.8225280999904,1741.872697999992,0.23516559996642172,None,1.800273799977731,,,,,,,,,30,001,2019_Dec_25_1338,untitled,3.1.0,60.0993683035682,
_,_4,M,180,_,_,__4M180__,N,0,57,57,36,,,1.195,1742.6954656000016,1743.0381995000062,1743.0542886999901,1743.337112499983,1743.3544025000301,None,down,1743.3544025000301,None,1743.3544025000301,1744.5363614999806,0.06542470003478229,None,2.830551099963486,,,,,,,,,30,001,2019_Dec_25_1338,untitled,3.1.0,60.0993683035682,
452,_5,N,135,R,N,452_5N135RN,HRN,0,58,58,275,,,0.8240000000000001,1746.2562478000182,1746.6014725000132,1746.618178099976,1746.9008849000093,1746.917334800004,None,up,1746.917334800004,None,1746.917334800004,1747.7171299000038,0.06478990003233775,None,1.765204400056973,,,,,,,,,30,001,2019_Dec_25_1338,untitled,3.1.0,60.0993683035682,
385,_4,N,0,R,N,385_4N000RN,HRN,0,59,59,256,,,0.921,1748.7578886999981,1749.0989433000213,1749.115744300012,1749.399206000031,1749.4159183999873,None,up,1749.4159183999873,None,1749.4159183999873,1750.3143613000284,0.06805360002908856,None,1.7815775999915786,,,,,,,,,30,001,2019_Dec_25_1338,untitled,3.1.0,60.0993683035682,
_,_4,M,0,_,_,__4M000__,N,0,60,60,32,,,1.1260000000000001,1751.295716600027,1751.6133274000022,1751.6300630000187,1751.9132970999926,1751.9298860999988,None,down,1751.9298860999988,None,1751.9298860999988,1753.045507600007,0.0901517000165768,None,2.548121999949217,,,,,,,,,30,001,2019_Dec_25_1338,untitled,3.1.0,60.0993683035682,
423,_4,N,270,L,N,423_4N270LN,HLN,0,61,61,270,,,1.264,1754.573471700016,1754.8942966000177,1754.910311500018,1755.1942771000322,1755.2107391000027,None,up,1755.2107391000027,None,1755.2107391000027,1756.4586905000033,0.08683990000281483,None,2.1996970999753103,,,,,,,,,30,001,2019_Dec_25_1338,untitled,3.1.0,60.0993683035682,
458,_5,M,45,R,N,458_5M045RN,HRN,0,62,62,177,,,1.2610000000000001,1757.499539099983,1757.8245716000092,1757.8413349000039,1758.1243123000022,1758.1409464000026,None,down,1758.1409464000026,None,1758.1409464000026,1759.3898024000227,0.08229210000718012,None,3.0161534000071697,,,,,,,,,30,001,2019_Dec_25_1338,untitled,3.1.0,60.0993683035682,
206,G,M,225,R,N,206GM225RN,HRN,0,63,63,133,,,0.9550000000000001,1761.2468609000207,1761.5721950000152,1761.5881963000284,1761.8714389000088,1761.8881841999828,None,up,1761.8881841999828,None,1761.8881841999828,1762.8202648999868,0.08059349999530241,None,2.383167100022547,,,,,,,,,30,001,2019_Dec_25_1338,untitled,3.1.0,60.0993683035682,
_,_4,N,90,_,_,__4N090__,N,0,64,64,82,,,1.205,1764.3441524999798,1764.6852624000167,1764.7019099000026,1764.9849707999965,1765.0019264000002,None,up,1765.0019264000002,None,1765.0019264000002,1766.183466300019,0.06600890000117943,None,2.333335800038185,,,,,,,,,30,001,2019_Dec_25_1338,untitled,3.1.0,60.0993683035682,
392,_4,N,315,R,N,392_4N315RN,HRN,0,65,65,263,,,1.1400000000000001,1767.4092250000103,1767.7495074999752,1767.7660787000204,1768.048903500021,1768.065696900012,None,up,1768.065696900012,None,1768.065696900012,1769.1815922000096,0.06730689998948947,None,2.048598999972455,,,,,,,,,30,001,2019_Dec_25_1338,untitled,3.1.0,60.0993683035682,
_,_4,N,135,_,_,__4N135__,N,0,66,66,83,,,0.838,1770.1875602999935,1770.5302081999835,1770.5470443000086,1770.83078389999,1770.8467860000092,None,up,1770.8467860000092,None,1770.8467860000092,1771.6630351999775,0.06645139999454841,None,2.782600500038825,,,,,,,,,30,001,2019_Dec_25_1338,untitled,3.1.0,60.0993683035682,
_,_5,N,0,_,_,__5N000__,N,0,67,67,88,,,0.899,1773.7048025000258,1774.0434683000203,1774.0600852000061,1774.343463200028,1774.3600075999857,None,up,1774.3600075999857,None,1774.3600075999857,1775.242437399982,0.06866049999371171,None,1.6493881999631412,,,,,,,,,30,001,2019_Dec_25_1338,untitled,3.1.0,60.0993683035682,
197,G,N,180,R,N,197GN180RN,HRN,0,68,68,228,,,1.27,1776.0800464000204,1776.4254442999954,1776.4430613000295,1776.72530619998,1776.7421729000052,None,up,1776.7421729000052,None,1776.7421729000052,1777.9909940999933,0.06384359998628497,None,3.264680100022815,,,,,,,,,30,001,2019_Dec_25_1338,untitled,3.1.0,60.0993683035682,
_,F,M,270,_,_,_FM270__,N,0,69,69,6,,,0.887,1780.0784368999884,1780.4216663999832,1780.4381774999783,1780.721463199996,1780.7380727999844,None,down,1780.7380727999844,None,1780.7380727999844,1781.6037660000147,0.06488070002524182,None,2.632574899995234,,,,,,,,,30,001,2019_Dec_25_1338,untitled,3.1.0,60.0993683035682,
008,R,N,315,R,N,008RN315RN,HRN,0,70,70,199,,,1.318,1783.4861628999934,1783.7856458000024,1783.801410200016,1784.0854833999765,1784.1015875000157,None,up,1784.1015875000157,None,1784.1015875000157,1785.400758499978,0.10659550002310425,None,2.2000987999490462,,,,,,,,,30,001,2019_Dec_25_1338,untitled,3.1.0,60.0993683035682,
259,_2,N,90,R,N,259_2N090RN,HRN,0,71,71,242,,,1.296,1786.374193500029,1786.7164033000008,1786.7329730999772,1787.0156899000285,1787.0320722000324,None,up,1787.0320722000324,None,1787.0320722000324,1788.3146685999818,0.06566759996348992,None,3.0982742000487633,,,,,,,,,30,001,2019_Dec_25_1338,untitled,3.1.0,60.0993683035682,
_,G,M,135,_,_,_GM135__,N,0,72,72,11,,,0.708,1790.2043272000155,1790.5460797999986,1790.562972099986,1790.8472719999845,1790.8634839000297,None,down,1790.8634839000297,None,1790.8634839000297,1791.5452201000298,0.06730589998187497,None,2.914161199994851,,,,,,,,,30,001,2019_Dec_25_1338,untitled,3.1.0,60.0993683035682,
496,_5,M,315,L,N,496_5M315LN,HLN,0,73,73,191,,,1.033,1793.8576993999886,1794.193116599985,1794.2093851999962,1794.492826599977,1794.5092720999965,None,None,1794.5092720999965,None,1794.5092720999965,1795.5249141000095,0.0733951999573037,None,,,,,,,,,,30,001,2019_Dec_25_1338,untitled,3.1.0,60.0993683035682,
_,_4,N,180,_,_,__4N180__,N,0,74,74,84,,,1.121,1798.0465946000186,1798.389270499989,1798.4065314999898,1798.688574400032,1798.7056348000187,1798.0465946000186,up,1798.7056348000187,None,1798.7056348000187,1799.8056985000148,0.06731860002037138,None,2.8983852000092156,,,,,,,,,30,001,2019_Dec_25_1338,untitled,3.1.0,60.0993683035682,
292,_2,N,135,L,N,292_2N135LN,HLN,0,75,75,251,,,0.747,1801.6794835000183,1802.0193168999976,1802.0360490999883,1802.3196405000053,1802.335776699998,None,up,1802.335776699998,None,1802.335776699998,1803.0693253999925,0.06787900003837422,None,2.4983562999987043,,,,,,,,,30,001,2019_Dec_25_1338,untitled,3.1.0,60.0993683035682,
421,_4,N,180,L,N,421_4N180LN,HLN,0,76,76,268,,,1.1360000000000001,1804.9144898999948,1805.2500478000147,1805.266969999997,1805.549937999982,1805.5675102000241,None,up,1805.5675102000241,None,1805.5675102000241,1806.6819783999817,0.07313859998248518,None,3.2648065999965183,,,,,,,,,30,001,2019_Dec_25_1338,untitled,3.1.0,60.0993683035682,
_,_5,N,90,_,_,__5N090__,N,0,77,77,90,,,0.936,1808.9088332999963,1809.2466756000067,1809.2631882000132,1809.5461840999778,1809.562837800011,None,up,1809.562837800011,None,1809.562837800011,1810.4787096999935,0.06999240000732243,None,1.7501390999532305,,,,,,,,,30,001,2019_Dec_25_1338,untitled,3.1.0,60.0993683035682,
_,R,N,0,_,_,_RN000__,N,0,78,78,64,,,1.112,1811.5091366000124,1811.7959539000294,1811.7959539000294,1812.0275373000186,1812.0436059000203,None,up,1812.0436059000203,None,1812.0436059000203,1813.1431322999997,0.18596079997951165,None,1.8159883000189438,,,,,,,,,30,001,2019_Dec_25_1338,untitled,3.1.0,60.0993683035682,
_,_2,N,270,_,_,__2N270__,N,0,79,79,78,,,1.047,1813.9382499000058,1814.2754935999983,1814.2918523999979,1814.575190100004,1814.5919277999783,None,up,1814.5919277999783,None,1814.5919277999783,1815.6238847000059,0.07184839999536052,None,2.8667176999733783,,,,,,,,,30,001,2019_Dec_25_1338,untitled,3.1.0,60.0993683035682,
203,G,M,90,R,N,203GM090RN,HRN,0,80,80,130,,,0.775,1817.5318998000002,1817.872321199975,1817.888574599987,1818.171942999994,1818.188618300017,None,down,1818.188618300017,None,1818.188618300017,1818.954945400008,0.0663840999477543,None,2.0006364000146277,,,,,,,,,30,001,2019_Dec_25_1338,untitled,3.1.0,60.0993683035682,
_,R,N,135,_,_,_RN135__,N,0,81,81,67,,,1.0,1820.2680099999998,1820.6035759000224,1820.620277000009,1820.9031605999917,1820.919800099975,None,up,1820.919800099975,None,1820.919800099975,1821.9028715000022,0.07149000000208616,None,1.7322859999840148,,,,,,,,,30,001,2019_Dec_25_1338,untitled,3.1.0,60.0993683035682,
012,R,M,135,R,N,012RM135RN,HRN,0,82,82,99,,,1.0,1822.737765100028,1823.0673993999953,1823.0855431000236,1823.36778770003,1823.384011999995,None,down,1823.384011999995,None,1823.384011999995,1824.3667539000162,0.07686750002903864,None,2.200996799976565,,,,,,,,,30,001,2019_Dec_25_1338,untitled,3.1.0,60.0993683035682,
260,_2,N,135,R,N,260_2N135RN,HRN,0,83,83,243,,,0.723,1825.6586324999807,1825.9991188999848,1826.01536140003,1826.2986945000011,1826.3150620000088,None,up,1826.3150620000088,None,1826.3150620000088,1827.0146715000155,0.06696680001914501,None,1.8648352999589406,,,,,,,,,30,001,2019_Dec_25_1338,untitled,3.1.0,60.0993683035682,
453,_5,N,180,R,N,453_5N180RN,HRN,0,84,84,276,,,1.317,1828.2508423000108,1828.5963019999908,1828.6127455999958,1828.8956999999937,1828.9121599000064,None,None,1828.9121599000064,None,1828.9121599000064,1830.2119837999926,0.06437889998778701,None,,,,,,,,,,30,001,2019_Dec_25_1338,untitled,3.1.0,60.0993683035682,
132,F,N,135,R,N,132FN135RN,HRN,0,85,85,211,,,0.788,1832.4475118999835,1832.7927975999773,1832.8093833000166,1833.0926837000297,1833.1095221000141,1832.4475118999835,up,1833.1095221000141,None,1833.1095221000141,1833.874900499999,0.061386699962895364,None,1.8340915000298992,,,,,,,,,30,001,2019_Dec_25_1338,untitled,3.1.0,60.0993683035682,
_,G,N,180,_,_,_GN180__,N,0,86,86,60,,,1.332,1835.0216111000045,1835.3575784999994,1835.3734904000303,1835.6564804000081,1835.673016100016,None,up,1835.673016100016,None,1835.673016100016,1836.9889632000122,0.07095510000362992,None,2.5498032000032254,,,,,,,,,30,001,2019_Dec_25_1338,untitled,3.1.0,60.0993683035682,
_,F,N,90,_,_,_FN090__,N,0,87,87,50,,,0.907,1838.3623193000094,1838.6543548000045,1838.6543548000045,1838.9369980000192,1838.9541668000165,None,up,1838.9541668000165,None,1838.9541668000165,1839.8362349999952,0.13270959997316822,None,1.7841893000295386,,,,,,,,,30,001,2019_Dec_25_1338,untitled,3.1.0,60.0993683035682,
165,F,N,180,L,N,165FN180LN,HLN,0,88,88,220,,,1.2510000000000001,1840.9093975999858,1841.2021435999777,1841.2021435999777,1841.4516877999995,1841.4683283999912,None,up,1841.4683283999912,None,1841.4683283999912,1842.700218699989,0.16401649999897927,None,2.7817109000170603,,,,,,,,,30,001,2019_Dec_25_1338,untitled,3.1.0,60.0993683035682,
130,F,N,45,R,N,130FN045RN,HRN,0,89,89,209,,,0.934,1844.4339776000124,1844.7322178999893,1844.7322178999893,1844.9657675999915,1844.9823927999823,None,up,1844.9823927999823,None,1844.9823927999823,1845.8977870999952,0.17650289996527135,None,1.6994277999619953,,,,,,,,,30,001,2019_Dec_25_1338,untitled,3.1.0,60.0993683035682,
268,_2,M,135,R,N,268_2M135RN,HRN,0,90,90,147,,,1.014,1846.753224999993,1847.0971980000031,1847.113674400025,1847.3969568000175,1847.4139271000167,None,up,1847.4139271000167,None,1847.4139271000167,1848.4129527999903,0.0647095000022091,None,2.216560299973935,,,,,,,,,30,001,2019_Dec_25_1338,untitled,3.1.0,60.0993683035682,
_,_5,N,315,_,_,__5N315__,N,0,91,91,95,,,1.3840000000000001,1849.7050801999867,1850.0443494999781,1850.0608699999866,1850.3442583000287,1850.360583200003,None,up,1850.360583200003,None,1850.360583200003,1851.7260235000285,0.0668003000319004,None,2.9156437999918126,,,,,,,,,30,001,2019_Dec_25_1338,untitled,3.1.0,60.0993683035682,
301,_2,M,180,L,N,301_2M180LN,HLN,0,92,92,156,,,1.355,1853.3991377999773,1853.6910995999933,1853.6910995999933,1853.9908739000093,1854.0081576000084,None,up,1854.0081576000084,None,1854.0081576000084,1855.3560606000246,0.11239580000983551,None,2.9331617999705486,,,,,,,,,30,001,2019_Dec_25_1338,untitled,3.1.0,60.0993683035682,
_,R,M,270,_,_,_RM270__,N,0,93,93,22,,,0.921,1857.0172036000295,1857.3544950999785,1857.3708168999874,1857.6544518999872,1857.6709903000155,None,down,1857.6709903000155,None,1857.6709903000155,1858.5699326000176,0.0689097999711521,None,2.583808700030204,,,,,,,,,30,001,2019_Dec_25_1338,untitled,3.1.0,60.0993683035682,
272,_2,M,315,R,N,272_2M315RN,HRN,0,94,94,151,,,1.047,1860.328852800012,1860.668042299978,1860.684796800022,1860.967843200022,1860.9843049999909,None,None,1860.9843049999909,None,1860.9843049999909,1862.0172300999984,0.06768439995357767,None,,,,,,,,,,30,001,2019_Dec_25_1338,untitled,3.1.0,60.0993683035682,
422,_4,N,225,L,N,422_4N225LN,HLN,0,95,95,269,,,0.9580000000000001,1864.5289375000284,1864.8648210000247,1864.8811670999858,1865.164607100014,1865.1812830999843,1864.5289375000284,up,1865.1812830999843,None,1865.1812830999843,1866.1141283999896,0.07319560000905767,None,2.6501052000094205,,,,,,,,,30,001,2019_Dec_25_1338,untitled,3.1.0,60.0993683035682,
129,F,N,0,R,N,129FN000RN,HRN,0,96,96,208,,,0.758,1867.9084925000207,1868.2446941999951,1868.2621547000017,1868.5446444000117,1868.561260699993,None,up,1868.561260699993,None,1868.561260699993,1869.3104576999904,0.06990810000570491,None,1.4658933999598958,,,,,,,,,30,001,2019_Dec_25_1338,untitled,3.1.0,60.0993683035682,
225,G,N,0,L,N,225GN000LN,HLN,0,97,97,232,,,1.352,1870.1029612999992,1870.4429654999985,1870.460133799992,1870.7427799000288,1870.759607199987,None,up,1870.759607199987,None,1870.759607199987,1872.0917864000075,0.06891430000541732,None,2.315356100036297,,,,,,,,,30,001,2019_Dec_25_1338,untitled,3.1.0,60.0993683035682,
047,R,M,270,L,N,047RM270LN,HLN,0,98,98,110,,,1.332,1873.2512926000054,1873.5403006999986,1873.5403006999986,1873.7902282000287,1873.8070664000115,None,down,1873.8070664000115,None,1873.8070664000115,1875.122221000027,0.1668538000085391,None,2.282226100040134,,,,,,,,,30,001,2019_Dec_25_1338,untitled,3.1.0,60.0993683035682,
_,_5,N,135,_,_,__5N135__,N,0,99,99,91,,,1.03,1876.1600259999977,1876.5044237999828,1876.5209007000085,1876.8043814999983,1876.8205992000294,None,down,1876.8205992000294,None,1876.8205992000294,1877.8374342999887,0.06396290002157912,None,3.0661534999962896,,,,,,,,,30,001,2019_Dec_25_1338,untitled,3.1.0,60.0993683035682,
264,_2,N,315,R,N,264_2N315RN,HRN,0,100,100,247,,,1.181,1879.9566749000223,1880.3010227999766,1880.3180368000176,1880.6008475000272,1880.6179756000056,None,up,1880.6179756000056,None,1880.6179756000056,1881.783022299991,0.06332149996887892,None,2.813850700040348,,,,,,,,,30,001,2019_Dec_25_1338,untitled,3.1.0,60.0993683035682,
484,_5,N,135,L,N,484_5N135LN,HLN,0,101,101,283,,,0.977,1883.5211776000215,1883.8483083000174,1883.8656166000292,1884.1476534000249,1884.1670311000198,None,up,1884.1670311000198,None,1884.1670311000198,1885.1304539000266,0.0797558999620378,None,2.864650600007735,,,,,,,,,30,001,2019_Dec_25_1338,untitled,3.1.0,60.0993683035682,
171,F,M,90,L,N,171FM090LN,HLN,0,102,102,122,,,1.091,1887.155243300018,1887.444683699985,1887.4616865999997,1887.745030799997,1887.7611931000138,None,up,1887.7611931000138,None,1887.7611931000138,1888.844392900006,0.11175009998260066,None,2.565381799999159,,,,,,,,,30,001,2019_Dec_25_1338,untitled,3.1.0,60.0993683035682,
_,_4,M,270,_,_,__4M270__,N,0,103,103,38,,,0.869,1890.4185210000142,1890.7424278000253,1890.7605455000303,1891.0417078000028,1891.058611800021,None,down,1891.058611800021,None,1891.058611800021,1891.9075798999984,0.08369739999761805,None,2.781684099987615,,,,,,,,,30,001,2019_Dec_25_1338,untitled,3.1.0,60.0993683035682,
144,F,M,315,R,N,144FM315RN,HRN,0,104,104,119,,,1.232,1893.932912999997,1894.257214799989,1894.2726430000039,1894.5558489999967,1894.5721102000098,None,None,1894.5721102000098,None,1894.5721102000098,1895.7881327000214,0.08425829996122047,None,,,,,,,,,,30,001,2019_Dec_25_1338,untitled,3.1.0,60.0993683035682,
162,F,N,45,L,N,162FN045LN,HLN,0,105,105,217,,,1.316,1898.1177899999893,1898.4522120999754,1898.4690579000162,1898.7524228999973,1898.7699550000252,1898.1177899999893,up,1898.7699550000252,None,1898.7699550000252,1900.070734900015,0.07236420002300292,None,2.0970379999489523,,,,,,,,,30,001,2019_Dec_25_1338,untitled,3.1.0,60.0993683035682,
291,_2,N,90,L,N,291_2N090LN,HLN,0,106,106,250,,,1.349,1901.0240363000194,1901.3162437999854,1901.3162437999854,1901.582971900003,1901.5992976999842,None,up,1901.5992976999842,None,1901.5992976999842,1902.9314341000281,0.1479113000095822,None,2.7333542000269517,,,,,,,,,30,001,2019_Dec_25_1338,untitled,3.1.0,60.0993683035682,
196,G,N,135,R,N,196GN135RN,HRN,0,107,107,227,,,0.778,1904.4359198000166,1904.7465131999925,1904.763323399995,1905.0468490999774,1905.0636956000235,None,up,1905.0636956000235,None,1905.0636956000235,1905.828870999976,0.09401649999199435,None,2.4972695999895222,,,,,,,,,30,001,2019_Dec_25_1338,untitled,3.1.0,60.0993683035682,
033,R,N,0,L,N,033RN000LN,HLN,0,108,108,200,,,1.204,1907.7651335999835,1908.0603860000265,1908.0603860000265,1908.2767981999787,1908.29335360002,None,up,1908.29335360002,None,1908.29335360002,1909.4763852999895,0.1964602000080049,None,1.932964300038293,,,,,,,,,30,001,2019_Dec_25_1338,untitled,3.1.0,60.0993683035682,
386,_4,N,45,R,N,386_4N045RN,HRN,0,109,109,257,,,1.047,1910.30751220003,1910.6414860999794,1910.6585694000241,1910.9412543000071,1910.9577023999882,None,up,1910.9577023999882,None,1910.9577023999882,1911.9899049000232,0.07361719995969906,None,2.016102299967315,,,,,,,,,30,001,2019_Dec_25_1338,untitled,3.1.0,60.0993683035682,
399,_4,M,270,R,N,399_4M270RN,HRN,0,110,110,166,,,0.9570000000000001,1913.083303100022,1913.3735162999947,1913.4057882999768,1913.6889519999968,1913.7053264999995,None,down,1913.7053264999995,None,1913.7053264999995,1914.6547821999993,0.10045420000096783,None,2.7834755999501795,,,,,,,,,30,001,2019_Dec_25_1338,untitled,3.1.0,60.0993683035682,
046,R,M,225,L,N,046RM225LN,HLN,0,111,111,109,,,1.154,1916.7008477000054,1917.004064799985,1917.004064799985,1917.2028030999936,1917.2195459000068,None,down,1917.2195459000068,None,1917.2195459000068,1918.3517966999789,0.203373400028795,None,2.867150500009302,,,,,,,,,30,001,2019_Dec_25_1338,untitled,3.1.0,60.0993683035682,
_,_5,M,180,_,_,__5M180__,N,0,112,112,44,,,1.09,1920.2727392999805,1920.5667288000113,1920.5667288000113,1920.7994331999798,1920.8158877000096,None,up,1920.8158877000096,None,1920.8158877000096,1921.8981674999814,0.1776401000097394,None,2.864622099965345,,,,,,,,,30,001,2019_Dec_25_1338,untitled,3.1.0,60.0993683035682,
043,R,M,90,L,N,043RM090LN,HLN,0,113,113,106,,,1.215,1923.7566278000013,1924.097237400012,1924.1130617000163,1924.3967416000087,1924.4129517999827,None,down,1924.4129517999827,None,1924.4129517999827,1925.6117274999851,0.06961070001125336,None,2.7981020000297576,,,,,,,,,30,001,2019_Dec_25_1338,untitled,3.1.0,60.0993683035682,
006,R,N,225,R,N,006RN225RN,HRN,0,114,114,197,,,0.928,1927.2900890000165,1927.6270460999804,1927.643383799994,1927.9267572999815,1927.9430720999953,None,up,1927.9430720999953,None,1927.9430720999953,1928.8594407999772,0.07214150001527742,None,2.183942899981048,,,,,,,,,30,001,2019_Dec_25_1338,untitled,3.1.0,60.0993683035682,
208,G,M,315,R,N,208GM315RN,HRN,0,115,115,135,,,0.987,1930.1982397999964,1930.5410066000186,1930.5581007000292,1930.8404721000115,1930.8567160000093,None,down,1930.8567160000093,None,1930.8567160000093,1931.8230524000246,0.06436469999607652,None,2.4656537999981083,,,,,,,,,30,001,2019_Dec_25_1338,untitled,3.1.0,60.0993683035682,
451,_5,N,90,R,N,451_5N090RN,HRN,0,116,116,274,,,1.198,1933.407404700003,1933.7387874000124,1933.7549960000324,1934.0383425999898,1934.0543300000136,None,up,1934.0543300000136,None,1934.0543300000136,1935.2361395999906,0.07732300000498071,None,2.048603000002913,,,,,,,,,30,001,2019_Dec_25_1338,untitled,3.1.0,60.0993683035682,
_,F,M,45,_,_,_FM045__,N,0,117,117,1,,,1.318,1936.1738216999802,1936.5188072000165,1936.5353874000139,1936.8190619000234,1936.835219200002,None,down,1936.835219200002,None,1936.835219200002,1938.1337550000171,0.06488590000662953,None,3.216208799974993,,,,,,,,,30,001,2019_Dec_25_1338,untitled,3.1.0,60.0993683035682,
296,_2,N,315,L,N,296_2N315LN,HLN,0,118,118,255,,,1.123,1940.1229903000058,1940.4651085999794,1940.4819537000149,1940.7647241000086,1940.781621799979,None,up,1940.781621799979,None,1940.781621799979,1941.880690400023,0.06480189994908869,None,3.197945499967318,,,,,,,,,30,001,2019_Dec_25_1338,untitled,3.1.0,60.0993683035682,
393,_4,M,0,R,N,393_4M000RN,HRN,0,119,119,160,,,0.759,1944.053642600018,1944.3960334000294,1944.411825200019,1944.695359300007,1944.7118708000053,None,down,1944.7118708000053,None,1944.7118708000053,1945.4446295999805,0.06708840001374483,None,1.981986200029496,,,,,,,,,30,001,2019_Dec_25_1338,untitled,3.1.0,60.0993683035682,
014,R,M,225,R,N,014RM225RN,HRN,0,120,120,101,,,0.989,1946.874861599994,1947.1764993999968,1947.1764993999968,1947.4096538000158,1947.4261415000074,None,down,1947.4261415000074,None,1947.4261415000074,1948.3918002999853,0.17397110001184046,None,3.1314386000158265,,,,,,,,,30,001,2019_Dec_25_1338,untitled,3.1.0,60.0993683035682,
173,F,M,180,L,N,173FM180LN,HLN,0,121,121,124,,,0.925,1950.629723399994,1950.972877799999,1950.9896476999857,1951.2728416000027,1951.289441699977,None,up,1951.289441699977,None,1951.289441699977,1952.2058688999969,0.0648207999765873,None,2.700173699995503,,,,,,,,,30,001,2019_Dec_25_1338,untitled,3.1.0,60.0993683035682,
005,R,N,180,R,N,005RN180RN,HRN,0,122,122,196,,,1.177,1954.1709452000214,1954.4697582999943,1954.4697582999943,1954.7029252999928,1954.7195521999965,None,up,1954.7195521999965,None,1954.7195521999965,1955.8850367999985,0.1742841000086628,None,2.816240799962543,,,,,,,,,30,001,2019_Dec_25_1338,untitled,3.1.0,60.0993683035682,
_,_2,N,0,_,_,__2N000__,N,0,123,123,72,,,0.811,1957.6075857999967,1957.950300400029,1957.9675295000197,1958.2502608000068,1958.2667348000105,None,up,1958.2667348000105,None,1958.2667348000105,1959.0671008999925,0.06482959998538718,None,2.801384299993515,,,,,,,,,30,001,2019_Dec_25_1338,untitled,3.1.0,60.0993683035682,
139,F,M,90,R,N,139FM090RN,HRN,0,124,124,114,,,1.368,1961.138918199984,1961.480554800015,1961.4972977000289,1961.7802842999808,1961.7968740999931,None,down,1961.7968740999931,None,1961.7968740999931,1963.1456432000268,0.06328390003181994,None,2.916516600002069,,,,,,,,,30,001,2019_Dec_25_1338,untitled,3.1.0,60.0993683035682,
456,_5,N,315,R,N,456_5N315RN,HRN,0,125,125,279,,,1.201,1964.8157849999843,1965.127313999983,1965.1440608000266,1965.4268788999761,1965.4445294000325,None,up,1965.4445294000325,None,1965.4445294000325,1966.6260464999941,0.093588899995666,None,2.6141760000027716,,,,,,,,,30,001,2019_Dec_25_1338,untitled,3.1.0,60.0993683035682,
011,R,M,90,R,N,011RM090RN,HRN,0,126,126,98,,,1.141,1968.2180548000033,1968.5079046000028,1968.5079046000028,1968.7741311999853,1968.7908125999966,None,None,1968.7908125999966,None,1968.7908125999966,1969.9062869999907,0.14940989995375276,None,,,,,,,,,,30,001,2019_Dec_25_1338,untitled,3.1.0,60.0993683035682,
_,G,N,0,_,_,_GN000__,N,0,127,127,56,,,0.79,1972.33741919999,1972.6708690000232,1972.6878680000082,1972.9702701999922,1972.9874953000108,1972.33741919999,up,1972.9874953000108,None,1972.9874953000108,1973.7535424000234,0.07276760000968352,None,1.698430799995549,,,,,,,,,30,001,2019_Dec_25_1338,untitled,3.1.0,60.0993683035682,
271,_2,M,270,R,N,271_2M270RN,HRN,0,128,128,150,,,1.338,1974.7779054000275,1975.1017591999844,1975.119441399991,1975.4019703000085,1975.4182634000317,None,down,1975.4182634000317,None,1975.4182634000317,1976.7336521000252,0.08530569996219128,None,2.9168250000220723,,,,,,,,,30,001,2019_Dec_25_1338,untitled,3.1.0,60.0993683035682,
164,F,N,135,L,N,164FN135LN,HLN,0,129,129,219,,,1.322,1978.5452905999846,1978.8345432999777,1978.8345432999777,1979.0485316999839,1979.0650305000017,None,up,1979.0650305000017,None,1979.0650305000017,1980.3638680999866,0.20208090002415702,None,2.964730200008489,,,,,,,,,30,001,2019_Dec_25_1338,untitled,3.1.0,60.0993683035682,
494,_5,M,225,L,N,494_5M225LN,HLN,0,130,130,189,,,0.8320000000000001,1982.1164663999807,1982.4454551999806,1982.4625167999766,1982.745678999985,1982.7621601999854,None,down,1982.7621601999854,None,1982.7621601999854,1983.5776155000203,0.0765998000279069,None,2.931718300038483,,,,,,,,,30,001,2019_Dec_25_1338,untitled,3.1.0,60.0993683035682,
194,G,N,45,R,N,194GN045RN,HRN,0,131,131,225,,,0.8190000000000001,1985.7657493000152,1986.1091554000159,1986.1258845999837,1986.408929999976,1986.425405899994,None,up,1986.425405899994,None,1986.425405899994,1987.2246752000065,0.0650745999882929,None,1.632881500001531,,,,,,,,,30,001,2019_Dec_25_1338,untitled,3.1.0,60.0993683035682,
169,F,M,0,L,N,169FM000LN,HLN,0,132,132,120,,,1.353,1988.1330008999794,1988.4736913000233,1988.490392800013,1988.7730287000304,1988.7907629000256,None,down,1988.7907629000256,None,1988.7907629000256,1990.1224479000084,0.0671853999956511,None,3.1301795999752358,,,,,,,,,30,001,2019_Dec_25_1338,untitled,3.1.0,60.0993683035682,
485,_5,N,180,L,N,485_5N180LN,HLN,0,133,133,284,,,0.717,1991.989123300009,1992.3369564000168,1992.3538214000291,1992.6372455999954,1992.6535471000243,None,up,1992.6535471000243,None,1992.6535471000243,1993.3523083999753,0.06045990000711754,None,2.680734900000971,,,,,,,,,30,001,2019_Dec_25_1338,untitled,3.1.0,60.0993683035682,
_,_5,M,0,_,_,__5M000__,N,0,134,134,40,,,0.9490000000000001,1995.4096119999886,1995.750467100006,1995.7674179000314,1996.0503946000244,1996.0673044000287,None,None,1996.0673044000287,None,1996.0673044000287,1997.0001859000186,0.06831629999214783,None,,,,,,,,,,30,001,2019_Dec_25_1338,untitled,3.1.0,60.0993683035682,
175,F,M,270,L,N,175FM270LN,HLN,0,135,135,126,,,1.087,1999.6245794999995,1999.9464613000164,1999.9648234000197,2000.2467125999974,2000.2630179999978,1999.6245794999995,down,2000.2630179999978,None,2000.2630179999978,2001.329216299986,0.08239340002182871,None,2.9320928000379354,,,,,,,,,30,001,2019_Dec_25_1338,untitled,3.1.0,60.0993683035682,
_,G,M,225,_,_,_GM225__,N,0,136,136,13,,,1.288,2003.312507900002,2003.6103962999769,2003.6274638000177,2003.9101384999813,2003.9272746000206,None,None,2003.9272746000206,None,2003.9272746000206,2005.1918524000212,0.10744709998834878,None,,,,,,,,,,30,001,2019_Dec_25_1338,untitled,3.1.0,60.0993683035682,
300,_2,M,135,L,N,300_2M135LN,HLN,0,137,137,155,,,1.361,2007.4673369000084,2007.8075149999931,2007.8234256000142,2008.1069516999996,2008.122871599975,2007.4673369000084,down,2008.122871599975,None,2008.122871599975,2009.4719362999895,0.06991819996619597,None,3.180698600015603,,,,,,,,,30,001,2019_Dec_25_1338,untitled,3.1.0,60.0993683035682,
163,F,N,90,L,N,163FN090LN,HLN,0,138,138,218,,,1.091,2011.3748403000063,2011.7198893000023,2011.737426000007,2012.0199330999749,2012.0364382999833,None,up,2012.0364382999833,None,2012.0364382999833,2013.1021844000206,0.06458780000684783,None,2.25265609996859,,,,,,,,,30,001,2019_Dec_25_1338,untitled,3.1.0,60.0993683035682,
_,_2,M,180,_,_,__2M180__,N,0,139,139,28,,,0.77,2014.4104738000315,2014.701002100017,2014.718087700021,2015.0012589999824,2015.017556899984,None,None,2015.017556899984,None,2015.017556899984,2015.7829901999794,0.10954650002531707,None,,,,,,,,,,30,001,2019_Dec_25_1338,untitled,3.1.0,60.0993683035682,
230,G,N,225,L,N,230GN225LN,HLN,0,140,140,237,,,1.078,2018.5713310000137,2018.9138906000298,2018.9308827000204,2019.2136164000258,2019.230434600031,2018.5713310000137,up,2019.230434600031,None,2019.230434600031,2020.2957140000071,0.06556990003446117,None,2.9162480999948457,,,,,,,,,30,001,2019_Dec_25_1338,untitled,3.1.0,60.0993683035682,
462,_5,M,225,R,N,462_5M225RN,HRN,0,141,141,181,,,0.908,2022.2155947000138,2022.5608652000083,2022.5773057999904,2022.8604294999968,2022.877089400019,None,None,2022.877089400019,None,2022.877089400019,2023.7761264999863,0.061530300008598715,None,,,,,,,,,,30,001,2019_Dec_25_1338,untitled,3.1.0,60.0993683035682,
048,R,M,315,L,N,048RM315LN,HLN,0,142,142,111,,,0.739,2026.4358332999982,2026.7570878000115,2026.773199599993,2027.0567876999849,2027.073274400027,2026.4358332999982,down,2027.073274400027,None,2027.073274400027,2027.7895880999858,0.08746959996642545,None,1.782646499981638,,,,,,,,,30,001,2019_Dec_25_1338,untitled,3.1.0,60.0993683035682,
236,G,M,135,L,N,236GM135LN,HLN,0,143,143,139,,,1.174,2028.9276367999846,2029.27166030003,2029.288265899988,2029.5712417000323,2029.5882752999896,None,down,2029.5882752999896,None,2029.5882752999896,2030.7371364000137,0.06451779999770224,None,2.4327899999916553,,,,,,,,,30,001,2019_Dec_25_1338,untitled,3.1.0,60.0993683035682,
204,G,M,135,R,N,204GM135RN,HRN,0,144,144,131,,,0.884,2032.092460200016,2032.4349486000137,2032.451836000022,2032.7350591000286,2032.7514531000052,None,down,2032.7514531000052,None,2032.7514531000052,2033.617641400022,0.06471399997826666,None,3.1162463999935426,,,,,,,,,30,001,2019_Dec_25_1338,untitled,3.1.0,60.0993683035682,
298,_2,M,45,L,N,298_2M045LN,HLN,0,145,145,153,,,0.972,2036.0156811000197,2036.3153632999747,2036.3153632999747,2036.582292600011,2036.599197499978,None,None,2036.599197499978,None,2036.599197499978,2037.547190400015,0.14059110003290698,None,,,,,,,,,,30,001,2019_Dec_25_1338,untitled,3.1.0,60.0993683035682,
486,_5,N,225,L,N,486_5N225LN,HLN,0,146,146,285,,,0.9520000000000001,2040.1369925999898,2040.4792781000142,2040.4792781000142,2040.778286900022,2040.7948754000245,2040.1369925999898,up,2040.7948754000245,None,2040.7948754000245,2041.727175500011,0.06824439996853471,None,2.5313948999973945,,,,,,,,,30,001,2019_Dec_25_1338,untitled,3.1.0,60.0993683035682,
482,_5,N,45,L,N,482_5N045LN,HLN,0,147,147,281,,,1.289,2043.3940513000125,2043.7431342999917,2043.7584466999979,2044.0424348000088,2044.0587137999828,None,up,2044.0587137999828,None,2044.0587137999828,2045.3242337999982,0.06071130000054836,None,2.298833300010301,,,,,,,,,30,001,2019_Dec_25_1338,untitled,3.1.0,60.0993683035682,
425,_4,M,0,L,N,425_4M000LN,HLN,0,148,148,168,,,1.219,2046.433683899988,2046.7728514000191,2046.7895988000091,2047.0725813999888,2047.0891933999956,None,down,2047.0891933999956,None,2047.0891933999956,2048.2878234999953,0.06838509999215603,None,2.5004215000080876,,,,,,,,,30,001,2019_Dec_25_1338,untitled,3.1.0,60.0993683035682,
_,_2,N,45,_,_,__2N045__,N,0,149,149,73,,,0.8220000000000001,2049.692476299999,2050.0040999000194,2050.0207572000218,2050.3034589000163,2050.3214322000276,None,down,2050.3214322000276,None,2050.3214322000276,2051.1356916999794,0.09160810004686937,None,2.4968407000415027,,,,,,,,,30,001,2019_Dec_25_1338,untitled,3.1.0,60.0993683035682,
420,_4,N,135,L,N,420_4N135LN,HLN,0,150,150,267,,,1.387,2052.917674400029,2053.233911600022,2053.250425999984,2053.5336007000296,2053.551058300014,None,up,2053.551058300014,None,2053.551058300014,2054.916071499989,0.09045429999241605,None,3.1302995000150986,,,,,,,,,30,001,2019_Dec_25_1338,untitled,3.1.0,60.0993683035682,
_,R,M,135,_,_,_RM135__,N,0,151,151,19,,,0.866,2056.7522803000174,2057.097713300027,2057.097713300027,2057.397369000013,2057.414626499987,None,down,2057.414626499987,None,2057.414626499987,2058.2630442000227,0.06425729999318719,None,2.563874699990265,,,,,,,,,30,001,2019_Dec_25_1338,untitled,3.1.0,60.0993683035682,
_,G,N,315,_,_,_GN315__,N,0,152,152,63,,,0.865,2060.0486791000003,2060.394857999985,2060.4113296000287,2060.6946413000114,2060.7116309999838,None,up,2060.7116309999838,None,2060.7116309999838,2061.5608681000303,0.06356359994970262,None,2.2816406000056304,,,,,,,,,30,001,2019_Dec_25_1338,untitled,3.1.0,60.0993683035682,
_,_4,M,45,_,_,__4M045__,N,0,153,153,33,,,0.888,2063.202043999976,2063.491517300019,2063.491517300019,2063.7091108000022,2063.7252406000043,None,down,2063.7252406000043,None,2063.7252406000043,2064.590867699997,0.20155699999304488,None,2.1321175000048243,,,,,,,,,30,001,2019_Dec_25_1338,untitled,3.1.0,60.0993683035682,
002,R,N,45,R,N,002RN045RN,HRN,0,154,154,193,,,0.9590000000000001,2065.9349916999927,2066.2727022999898,2066.2893672999926,2066.5724887999822,2066.589538,None,up,2066.589538,None,2066.589538,2067.5385061000125,0.07024120003916323,None,1.7651118999929167,,,,,,,,,30,001,2019_Dec_25_1338,untitled,3.1.0,60.0993683035682,
_,R,N,270,_,_,_RN270__,N,0,155,155,70,,,1.0190000000000001,2068.4971213000244,2068.7866818999755,2068.7866818999755,2069.0703057000064,2069.0866796000046,None,up,2069.0866796000046,None,2069.0866796000046,2070.086197299999,0.1357296000351198,None,2.4167882000328973,,,,,,,,,30,001,2019_Dec_25_1338,untitled,3.1.0,60.0993683035682,
428,_4,M,135,L,N,428_4M135LN,HLN,0,156,156,171,,,0.76,2071.5768823000253,2071.917751799978,2071.9344645999954,2072.2175175999873,2072.2345329999807,None,down,2072.2345329999807,None,2072.2345329999807,2072.983056899975,0.06683790002716705,None,2.1313860999653116,,,,,,,,,30,001,2019_Dec_25_1338,untitled,3.1.0,60.0993683035682,
_,F,N,135,_,_,_FN135__,N,0,157,157,51,,,0.891,2074.437106999976,2074.7818370999885,2074.7982513000024,2075.0816604000283,2075.0980918999994,None,up,2075.0980918999994,None,2075.0980918999994,2075.963775500015,0.0643800999969244,None,2.2000864999718033,,,,,,,,,30,001,2019_Dec_25_1338,untitled,3.1.0,60.0993683035682,
015,R,M,270,R,N,015RM270RN,HRN,0,158,158,102,,,1.383,2077.376539800025,2077.7120599999907,2077.7288648000103,2078.0122165000066,2078.028964600002,None,down,2078.028964600002,None,2078.028964600002,2079.394470200001,0.07039029995212331,None,2.416973000043072,,,,,,,,,30,001,2019_Dec_25_1338,untitled,3.1.0,60.0993683035682,
_,_2,N,90,_,_,__2N090__,N,0,159,159,74,,,1.254,2080.524329899985,2080.8596298000193,2080.877029300027,2081.1596903000027,2081.176684200007,None,up,2081.176684200007,None,2081.176684200007,2082.4085281000007,0.07109469996066764,None,2.614869000040926,,,,,,,,,30,001,2019_Dec_25_1338,untitled,3.1.0,60.0993683035682,
_,G,N,225,_,_,_GN225__,N,0,160,160,61,,,0.778,2083.8793943999917,2084.2069874000154,2084.2241964000277,2084.5071307999897,2084.523918199993,None,up,2084.523918199993,None,2084.523918199993,2085.289622900018,0.08098129997961223,None,2.7160239999648184,,,,,,,,,30,001,2019_Dec_25_1338,untitled,3.1.0,60.0993683035682,
_,R,N,90,_,_,_RN090__,N,0,161,161,66,,,1.081,2087.3226376000093,2087.6539274000097,2087.6704487000243,2087.9541102999938,2087.9714230999816,None,up,2087.9714230999816,None,2087.9714230999816,2089.0356145999976,0.07476709998445585,None,2.1143874999834225,,,,,,,,,30,001,2019_Dec_25_1338,untitled,3.1.0,60.0993683035682,
304,_2,M,315,L,N,304_2M315LN,HLN,0,162,162,159,,,1.2590000000000001,2090.1538035999984,2090.5016440000036,2090.5186243000207,2090.801054599986,2090.8182701999904,None,down,2090.8182701999904,None,2090.8182701999904,2092.0498039000086,0.061389499984215945,None,2.5161679000011645,,,,,,,,,30,001,2019_Dec_25_1338,untitled,3.1.0,60.0993683035682,
464,_5,M,315,R,N,464_5M315RN,HRN,0,163,163,183,,,1.189,2093.5357049999875,2093.831741300004,2093.831741300004,2094.048781700025,2094.065149299975,None,None,2094.065149299975,None,2094.065149299975,2095.230678800028,0.19333899999037385,None,,,,,,,,,,30,001,2019_Dec_25_1338,untitled,3.1.0,60.0993683035682,
419,_4,N,90,L,N,419_4N090LN,HLN,0,164,164,266,,,0.9460000000000001,2097.601945100003,2097.9457193000126,2097.961829099979,2098.2452847000095,2098.261363300029,2097.601945100003,up,2098.261363300029,None,2098.261363300029,2099.1940966999973,0.0667993999668397,None,1.834116099984385,,,,,,,,,30,001,2019_Dec_25_1338,untitled,3.1.0,60.0993683035682,
_,_4,M,90,_,_,__4M090__,N,0,165,165,34,,,1.068,2100.1653453999897,2100.5094561000005,2100.5261963999947,2100.8103085000184,2100.827374799992,None,down,2100.827374799992,None,2100.827374799992,2101.874529200024,0.06308769999304786,None,2.0482881999923848,,,,,,,,,30,001,2019_Dec_25_1338,untitled,3.1.0,60.0993683035682,
426,_4,M,45,L,N,426_4M045LN,HLN,0,166,166,169,,,0.873,2102.948555800016,2103.291652099986,2103.3071211000206,2103.5905299999868,2103.6074764999794,None,down,2103.6074764999794,None,2103.6074764999794,2104.4561575999833,0.06550720002269372,None,1.9645757999969646,,,,,,,,,30,001,2019_Dec_25_1338,untitled,3.1.0,60.0993683035682,
136,F,N,315,R,N,136FN315RN,HRN,0,167,167,215,,,0.8210000000000001,2105.725699100003,2106.021309599979,2106.021309599979,2106.28800890001,2106.3043238000246,None,up,2106.3043238000246,None,2106.3043238000246,2107.1036541999783,0.14335900003788993,None,2.0659145999816246,,,,,,,,,30,001,2019_Dec_25_1338,untitled,3.1.0,60.0993683035682,
_,_5,M,315,_,_,__5M315__,N,0,168,168,47,,,1.242,2108.5773753999965,2108.868979700026,2108.868979700026,2109.0855813000235,2109.101555500005,None,None,2109.101555500005,None,2109.101555500005,2110.317799900018,0.19984089996432886,None,,,,,,,,,,30,001,2019_Dec_25_1338,untitled,3.1.0,60.0993683035682,
_,_2,N,180,_,_,__2N180__,N,0,169,169,76,,,0.937,2112.6374797000317,2112.981849999982,2112.9985710000037,2113.2817956000217,2113.2986254999996,2112.6374797000317,up,2113.2986254999996,None,2113.2986254999996,2114.214138099982,0.0645599999697879,None,2.516400899970904,,,,,,,,,30,001,2019_Dec_25_1338,untitled,3.1.0,60.0993683035682,
454,_5,N,225,R,N,454_5N225RN,HRN,0,170,170,277,,,1.274,2115.9211726000067,2116.2122761000064,2116.2464635000215,2116.529255200003,2116.545636499999,None,up,2116.545636499999,None,2116.545636499999,2117.8109048000188,0.09835039998870343,None,2.431494499964174,,,,,,,,,30,001,2019_Dec_25_1338,untitled,3.1.0,60.0993683035682,
166,F,N,225,L,N,166FN225LN,HLN,0,171,171,221,,,1.379,2119.050790100009,2119.393002500001,2119.409533100028,2119.6926144000026,2119.7101606000215,None,up,2119.7101606000215,None,2119.7101606000215,2121.074591899989,0.06684909999603406,None,2.2809910000069067,,,,,,,,,30,001,2019_Dec_25_1338,untitled,3.1.0,60.0993683035682,
172,F,M,135,L,N,172FM135LN,HLN,0,172,172,123,,,0.9520000000000001,2122.067001999996,2122.4070001000073,2122.4242461000104,2122.70736390003,2122.723872500006,None,down,2122.723872500006,None,2122.723872500006,2123.6560350999935,0.06915639998624101,None,3.2661885999841616,,,,,,,,,30,001,2019_Dec_25_1338,untitled,3.1.0,60.0993683035682,
227,G,N,90,L,N,227GN090LN,HLN,0,173,173,234,,,1.247,2126.1567339000176,2126.4532387999934,2126.4532387999934,2126.703717400029,2126.7196719999774,None,up,2126.7196719999774,None,2126.7196719999774,2127.952496299986,0.159294199955184,None,2.316716399975121,,,,,,,,,30,001,2019_Dec_25_1338,untitled,3.1.0,60.0993683035682,
481,_5,N,0,L,N,481_5N000LN,HLN,0,174,174,280,,,0.879,2129.1079299999983,2129.450642200012,2129.4674443000113,2129.7505401999806,2129.767045399989,None,up,2129.767045399989,None,2129.767045399989,2130.6330909000244,0.06478060001973063,None,1.7843677999917418,,,,,,,,,30,001,2019_Dec_25_1338,untitled,3.1.0,60.0993683035682,
_,_2,N,225,_,_,__2N225__,N,0,175,175,77,,,0.9580000000000001,2131.624968499993,2131.9652803000063,2131.982399599976,2132.26476250001,2132.2815218000324,None,up,2132.2815218000324,None,2132.2815218000324,2133.2310245999834,0.06586209998931736,None,3.0500373000395484,,,,,,,,,30,001,2019_Dec_25_1338,untitled,3.1.0,60.0993683035682,
398,_4,M,225,R,N,398_4M225RN,HRN,0,176,176,165,,,1.052,2135.4039983000257,2135.7454562999774,2135.7620528999832,2136.0451029000105,2136.0616816999973,None,None,2136.0616816999973,None,2136.0616816999973,2137.0941365000326,0.0656909000244923,None,,,,,,,,,,30,001,2019_Dec_25_1338,untitled,3.1.0,60.0993683035682,
141,F,M,180,R,N,141FM180RN,HRN,0,177,177,116,,,0.879,2139.5959084000206,2139.9416388000245,2139.958316000004,2140.24104480003,2140.2576750000007,2139.5959084000206,None,2140.2576750000007,None,2140.2576750000007,2141.124305800011,0.06390899996040389,None,,,,,,,,,,30,001,2019_Dec_25_1338,untitled,3.1.0,60.0993683035682,
495,_5,M,270,L,N,495_5M270LN,HLN,0,178,178,190,,,1.314,2143.7953428999754,2144.138035800017,2144.1547995000146,2144.4379437000025,2144.454430099984,2143.7953428999754,None,2144.454430099984,None,2144.454430099984,2145.75353300001,0.06685250002192333,None,,,,,,,,,,30,001,2019_Dec_25_1338,untitled,3.1.0,60.0993683035682,
265,_2,M,0,R,N,265_2M000RN,HRN,0,179,179,144,,,1.338,2147.991860500013,2148.3350414999877,2148.3507329000277,2148.634732700011,2148.6511263999855,2147.991860500013,down,2148.6511263999855,None,2148.6511263999855,2149.966404400009,0.0661802000249736,None,2.4323118000174873,,,,,,,,,30,001,2019_Dec_25_1338,untitled,3.1.0,60.0993683035682,
390,_4,N,225,R,N,390_4N225RN,HRN,0,180,180,261,,,1.207,2151.1537337999907,2151.49830690003,2151.5154008999816,2151.797989999992,2151.814581600018,None,up,2151.814581600018,None,2151.814581600018,2152.996917899989,0.06298210000386462,None,2.465343900024891,,,,,,,,,30,001,2019_Dec_25_1338,untitled,3.1.0,60.0993683035682,
457,_5,M,0,R,N,457_5M000RN,HRN,0,181,181,176,,,0.8300000000000001,2154.3556813999894,2154.695361900027,2154.7122466000146,2154.9952337000286,2155.0119636000018,None,down,2155.0119636000018,None,2155.0119636000018,2155.827886199986,0.06894440000178292,None,3.28114530001767,,,,,,,,,30,001,2019_Dec_25_1338,untitled,3.1.0,60.0993683035682,
138,F,M,45,R,N,138FM045RN,HRN,0,182,182,113,,,1.042,2158.365065800026,2158.709464400017,2158.72562490002,2159.008615300001,2159.0254562000046,None,down,2159.0254562000046,None,2159.0254562000046,2160.040971199982,0.06410489999689162,None,3.0314800000051036,,,,,,,,,30,001,2019_Dec_25_1338,untitled,3.1.0,60.0993683035682,
258,_2,N,45,R,N,258_2N045RN,HRN,0,183,183,241,,,0.735,2162.135277800029,2162.4719107000274,2162.489151799993,2162.7712680000113,2162.7892323000124,None,up,2162.7892323000124,None,2162.7892323000124,2163.5044451000285,0.07157759997062385,None,1.683230500028003,,,,,,,,,30,001,2019_Dec_25_1338,untitled,3.1.0,60.0993683035682,
_,R,N,45,_,_,_RN045__,N,0,184,184,65,,,1.308,2164.5484862999874,2164.8865763000213,2164.9033122999826,2165.186523100012,2165.203030899982,None,up,2165.203030899982,None,2165.203030899982,2166.501833599992,0.06887750001624227,None,2.2998754999716766,,,,,,,,,30,001,2019_Dec_25_1338,untitled,3.1.0,60.0993683035682,
_,G,N,135,_,_,_GN135__,N,0,185,185,59,,,1.311,2167.5757863000035,2167.918126799981,2167.9337190000224,2168.217532199982,2168.2338297999813,None,up,2168.2338297999813,None,2168.2338297999813,2169.5325013999827,0.06635749997803941,None,2.5504569999757223,,,,,,,,,30,001,2019_Dec_25_1338,untitled,3.1.0,60.0993683035682,
_,_2,M,225,_,_,__2M225__,N,0,186,186,29,,,1.217,2170.881499900017,2171.1987930000178,2171.2141367000295,2171.4973287999746,2171.514155199984,None,down,2171.514155199984,None,2171.514155199984,2172.7127923999797,0.08862990001216531,None,2.8644852999714203,,,,,,,,,30,001,2019_Dec_25_1338,untitled,3.1.0,60.0993683035682,
_,R,N,225,_,_,_RN225__,N,0,187,187,69,,,1.1360000000000001,2174.4581543999957,2174.7949420000077,2174.8117309000227,2175.0945527000003,2175.110848099983,None,up,2175.110848099983,None,2175.110848099983,2176.2271529000136,0.07173680001869798,None,2.431614700006321,,,,,,,,,30,001,2019_Dec_25_1338,untitled,3.1.0,60.0993683035682,
489,_5,M,0,L,N,489_5M000LN,HLN,0,188,188,184,,,1.3,2177.6158343999996,2177.958140100003,2177.9750354000134,2178.259699699993,2178.2750210000086,None,down,2178.2750210000086,None,2178.2750210000086,2179.557255599997,0.0669243999873288,None,2.548121200001333,,,,,,,,,30,001,2019_Dec_25_1338,untitled,3.1.0,60.0993683035682,
303,_2,M,270,L,N,303_2M270LN,HLN,0,189,189,158,,,1.158,2181.007579899975,2181.3058077000314,2181.3058077000314,2181.538692299975,2181.5564425999764,None,down,2181.5564425999764,None,2181.5564425999764,2182.687848899979,0.17676120001124218,None,2.8144037000020035,,,,,,,,,30,001,2019_Dec_25_1338,untitled,3.1.0,60.0993683035682,
395,_4,M,90,R,N,395_4M090RN,HRN,0,190,190,162,,,0.91,2184.447123799997,2184.785962700029,2184.802908200014,2185.0856997999945,2185.1017940000165,None,down,2185.1017940000165,None,2185.1017940000165,2186.002050100011,0.06952000001911074,None,2.715050600003451,,,,,,,,,30,001,2019_Dec_25_1338,untitled,3.1.0,60.0993683035682,
_,G,N,45,_,_,_GN045__,N,0,191,191,57,,,0.899,2187.8837965999846,2188.2333799999906,2188.2502618000144,2188.5329893000307,2188.5496750000166,None,up,2188.5496750000166,None,2188.5496750000166,2189.4317119999905,0.05979359999764711,None,1.682143600017298,,,,,,,,,30,001,2019_Dec_25_1338,untitled,3.1.0,60.0993683035682,
_,_2,M,315,_,_,__2M315__,N,0,192,192,31,,,0.899,2190.321890000021,2190.648289499979,2190.664149100019,2190.947051600029,2190.9639295000234,None,down,2190.9639295000234,None,2190.9639295000234,2191.8458204999915,0.0818046000204049,None,2.049293200019747,,,,,,,,,30,001,2019_Dec_25_1338,untitled,3.1.0,60.0993683035682,
_,F,N,0,_,_,_FN000__,N,0,193,193,48,,,1.278,2193.112423899991,2193.428263399983,2193.4467223000247,2193.72823399998,2193.744813200028,None,up,2193.744813200028,None,2193.744813200028,2195.0100262999767,0.08950379997259006,None,2.3499144000234082,,,,,,,,,30,001,2019_Dec_25_1338,untitled,3.1.0,60.0993683035682,
034,R,N,45,L,N,034RN045LN,HLN,0,194,194,201,,,1.334,2196.2846145000076,2196.575765900023,2196.575765900023,2196.809289099998,2196.8253481999855,None,up,2196.8253481999855,None,2196.8253481999855,2198.141011999978,0.18252500001108274,None,2.0508657000027597,,,,,,,,,30,001,2019_Dec_25_1338,untitled,3.1.0,60.0993683035682,
302,_2,M,225,L,N,302_2M225LN,HLN,0,195,195,157,,,1.26,2199.0629969,2199.356743399985,2199.356743399985,2199.589824100025,2199.6061991000315,None,down,2199.6061991000315,None,2199.6061991000315,2200.8549633999937,0.18004569999175146,None,2.5482422000495717,,,,,,,,,30,001,2019_Dec_25_1338,untitled,3.1.0,60.0993683035682,
388,_4,N,135,R,N,388_4N135RN,HRN,0,196,196,259,,,1.297,2202.230583299999,2202.5712101000245,2202.5878663000185,2202.8707008999772,2202.887001700001,None,up,2202.887001700001,None,2202.887001700001,2204.1698085999815,0.0688415999757126,None,2.515108700026758,,,,,,,,,30,001,2019_Dec_25_1338,untitled,3.1.0,60.0993683035682,
427,_4,M,90,L,N,427_4M090LN,HLN,0,197,197,170,,,0.881,2205.4712577000028,2205.8177578999894,2205.834667899995,2206.1175267000217,2206.1341952999937,None,down,2206.1341952999937,None,2206.1341952999937,2206.9881362000015,0.061973199946805835,None,1.9996819999651052,,,,,,,,,30,001,2019_Dec_25_1338,untitled,3.1.0,60.0993683035682,
394,_4,M,45,R,N,394_4M045RN,HRN,0,198,198,161,,,1.283,2208.214268699987,2208.549040200014,2208.5659543999936,2208.8488737000152,2208.867146499979,None,down,2208.867146499979,None,2208.867146499979,2210.1302217000048,0.07312590000219643,None,2.4322050000191666,,,,,,,,,30,001,2019_Dec_25_1338,untitled,3.1.0,60.0993683035682,
232,G,N,315,L,N,232GN315LN,HLN,0,199,199,239,,,0.76,2211.5003586999956,2211.79570170003,2211.79570170003,2212.0121467999998,2212.0288263999973,None,up,2212.0288263999973,None,2212.0288263999973,2212.7780935000046,0.19379570003366098,None,1.99899600003846,,,,,,,,,30,001,2019_Dec_25_1338,untitled,3.1.0,60.0993683035682,
003,R,N,90,R,N,003RN090RN,HRN,0,200,200,194,,,1.182,2214.103731099982,2214.4436706000124,2214.46004179999,2214.7430178999784,2214.7613671,None,up,2214.7613671,None,2214.7613671,2215.926228700031,0.06914490001508966,None,1.8990128999575973,,,,,,,,,30,001,2019_Dec_25_1338,untitled,3.1.0,60.0993683035682,
_,_5,N,270,_,_,__5N270__,N,0,201,201,94,,,1.266,2216.7374381999834,2217.0748276999802,2217.0916185000096,2217.374166099995,2217.3913459000178,None,up,2217.3913459000178,None,2217.3913459000178,2218.6396912999917,0.07019880000734702,None,2.0665561000350863,,,,,,,,,30,001,2019_Dec_25_1338,untitled,3.1.0,60.0993683035682,
016,R,M,315,R,N,016RM315RN,HRN,0,202,202,103,,,0.75,2219.528736200009,2219.8722603999777,2219.8888432999956,2220.171763100021,2220.189232399978,None,down,2220.189232399978,None,2220.189232399978,2220.921359000029,0.06431629997678101,None,1.8816540999687277,,,,,,,,,30,001,2019_Dec_25_1338,untitled,3.1.0,60.0993683035682,
_,_2,M,135,_,_,__2M135__,N,0,203,203,27,,,1.002,2222.242938100011,2222.5369919000077,2222.5369919000077,2222.7869634000235,2222.8031027999823,None,None,2222.8031027999823,None,2222.8031027999823,2223.786251900019,0.16443509998498484,None,,,,,,,,,,30,001,2019_Dec_25_1338,untitled,3.1.0,60.0993683035682,
261,_2,N,180,R,N,261_2N180RN,HRN,0,204,204,244,,,1.343,2226.340051200008,2226.6828477000236,2226.699559699977,2226.9824867999996,2226.9997248,2226.340051200008,up,2226.9997248,None,2226.9997248,2228.331053800008,0.06378019996918738,None,3.081097700051032,,,,,,,,,30,001,2019_Dec_25_1338,untitled,3.1.0,60.0993683035682,
_,R,M,90,_,_,_RM090__,N,0,205,205,18,,,1.042,2230.1531159000006,2230.496149100014,2230.513243500027,2230.7955815999885,2230.812158000015,None,down,2230.812158000015,None,2230.812158000015,2231.828440900019,0.06484289997024462,None,3.1821868999977596,,,,,,,,,30,001,2019_Dec_25_1338,untitled,3.1.0,60.0993683035682,
263,_2,N,270,R,N,263_2N270RN,HRN,0,206,206,246,,,1.162,2234.0886518000043,2234.4092113000224,2234.426372600021,2234.709293599997,2234.7262494000024,None,up,2234.7262494000024,None,2234.7262494000024,2235.875055600016,0.0851375000202097,None,2.4148736999486573,,,,,,,,,30,001,2019_Dec_25_1338,untitled,3.1.0,60.0993683035682,
493,_5,M,180,L,N,493_5M180LN,HLN,0,207,207,188,,,0.989,2237.2189429000136,2237.5569370000158,2237.57351810002,2237.856188500009,2237.8726128999842,None,None,2237.8726128999842,None,2237.8726128999842,2238.838798700017,0.07100050000008196,None,,,,,,,,,,30,001,2019_Dec_25_1338,untitled,3.1.0,60.0993683035682,
137,F,M,0,R,N,137FM000RN,HRN,0,208,208,112,,,0.858,2241.4163923999877,2241.7531995000318,2241.7695424000267,2242.052383100032,2242.069047200028,2241.4163923999877,down,2242.069047200028,None,2242.069047200028,2242.901808900002,0.07228959997883067,None,2.049270900024567,,,,,,,,,30,001,2019_Dec_25_1338,untitled,3.1.0,60.0993683035682,
_,_5,M,90,_,_,__5M090__,N,0,209,209,42,,,0.8130000000000001,2244.211040300026,2244.5337666000123,2244.5508898000116,2244.833549699979,2244.8502682999824,None,None,2244.8502682999824,None,2244.8502682999824,2245.6496134999907,0.08476260001771152,None,,,,,,,,,,30,001,2019_Dec_25_1338,untitled,3.1.0,60.0993683035682,
_,_4,N,45,_,_,__4N045__,N,0,210,210,81,,,1.105,2248.385157199984,2248.730390099983,2248.7479969999986,2249.030238999985,2249.046782899997,2248.385157199984,up,2249.046782899997,None,2249.046782899997,2250.1287488000235,0.06420570000773296,None,1.9817043000366539,,,,,,,,,30,001,2019_Dec_25_1338,untitled,3.1.0,60.0993683035682,
237,G,M,180,L,N,237GM180LN,HLN,0,211,211,140,,,0.763,2251.1167081000167,2251.4459945000126,2251.4614250999875,2251.744384700025,2251.7611166000133,None,down,2251.7611166000133,None,2251.7611166000133,2252.5095664000255,0.0811416000360623,None,3.0819209000328556,,,,,,,,,30,001,2019_Dec_25_1338,untitled,3.1.0,60.0993683035682,
_,F,M,135,_,_,_FM135__,N,0,212,212,3,,,0.709,2254.9138575000106,2255.2595542999916,2255.2747711000266,2255.557867800002,2255.574446399987,None,down,2255.574446399987,None,2255.574446399987,2256.2744726000237,0.06348980002803728,None,2.366947899980005,,,,,,,,,30,001,2019_Dec_25_1338,untitled,3.1.0,60.0993683035682,
_,_4,N,225,_,_,__4N225__,N,0,213,213,85,,,1.117,2258.0138020000304,2258.3553508999757,2258.3720362000167,2258.6547615000163,2258.67159480002,None,up,2258.67159480002,None,2258.67159480002,2259.7705746000283,0.06556159997126088,None,2.699854700011201,,,,,,,,,30,001,2019_Dec_25_1338,untitled,3.1.0,60.0993683035682,
238,G,M,225,L,N,238GM225LN,HLN,0,214,214,141,,,1.314,2261.4454710999853,2261.7863723000046,2261.8025055000326,2262.0858184000244,2262.101505699975,None,down,2262.101505699975,None,2262.101505699975,2263.4007388000027,0.06539389997487888,None,3.1829602000070736,,,,,,,,,30,001,2019_Dec_25_1338,untitled,3.1.0,60.0993683035682,
_,_2,M,45,_,_,__2M045__,N,0,215,215,25,,,0.8290000000000001,2265.372499099991,2265.699102899991,2265.7160743999993,2265.9989558000234,2266.0160060999915,None,down,2266.0160060999915,None,2266.0160060999915,2266.831755799998,0.08140779996756464,None,3.4461703000124544,,,,,,,,,30,001,2019_Dec_25_1338,untitled,3.1.0,60.0993683035682,
193,G,N,0,R,N,193GN000RN,HRN,0,216,216,224,,,1.228,2269.5377593000303,2269.878807400004,2269.8952451000223,2270.1784364000196,2270.195044799999,None,up,2270.195044799999,None,2270.195044799999,2271.410765699984,0.06721559999277815,None,2.2812176000443287,,,,,,,,,30,001,2019_Dec_25_1338,untitled,3.1.0,60.0993683035682,
459,_5,M,90,R,N,459_5M090RN,HRN,0,217,217,178,,,1.176,2272.5489674999844,2272.893088200013,2272.9092742999783,2273.1926936000236,2273.2089336999925,None,down,2273.2089336999925,None,2273.2089336999925,2274.3579796000267,0.06586580001749098,None,3.4140050999703817,,,,,,,,,30,001,2019_Dec_25_1338,untitled,3.1.0,60.0993683035682,
_,F,M,0,_,_,_FM000__,N,0,218,218,0,,,0.857,2276.693836599996,2277.0388368000276,2277.0556557999807,2277.3389468999812,2277.355632700026,None,down,2277.355632700026,None,2277.355632700026,2278.187630100001,0.06394309998722747,None,2.1495887000346556,,,,,,,,,30,001,2019_Dec_25_1338,untitled,3.1.0,60.0993683035682,
_,_2,N,135,_,_,__2N135__,N,0,219,219,75,,,0.741,2279.577401300019,2279.9198663000134,2279.9367428999976,2280.2195219999994,2280.236289500026,None,up,2280.236289500026,None,2280.236289500026,2280.9521201000316,0.06541829998604953,None,3.1977932000299916,,,,,,,,,30,001,2019_Dec_25_1338,untitled,3.1.0,60.0993683035682,
201,G,M,0,R,N,201GM000RN,HRN,0,220,220,128,,,0.9560000000000001,2283.5078263999894,2283.8495139000006,2283.867246299982,2284.1495925000054,2284.1662206000183,None,down,2284.1662206000183,None,2284.1662206000183,2285.0990249000024,0.06694019999122247,None,2.4495734000229277,,,,,,,,,30,001,2019_Dec_25_1338,untitled,3.1.0,60.0993683035682,
176,F,M,315,L,N,176FM315LN,HLN,0,221,221,127,,,0.892,2286.7460719000082,2287.0469103999785,2287.0469103999785,2287.3298162000137,2287.3463188000023,None,down,2287.3463188000023,None,2287.3463188000023,2288.2292725000298,0.12315279996255413,None,2.665292599995155,,,,,,,,,30,001,2019_Dec_25_1338,untitled,3.1.0,60.0993683035682,
_,R,M,315,_,_,_RM315__,N,0,222,222,23,,,1.303,2290.1933985999785,2290.4941914000083,2290.4941914000083,2290.726871700026,2290.743329400022,None,down,2290.743329400022,None,2290.743329400022,2292.025920999993,0.17277990002185106,None,2.7813735000090674,,,,,,,,,30,001,2019_Dec_25_1338,untitled,3.1.0,60.0993683035682,
198,G,N,225,R,N,198GN225RN,HRN,0,223,223,229,,,1.088,2293.614250899991,2293.9405726999976,2293.957700400031,2294.241889900004,2294.2569717000006,None,up,2294.2569717000006,None,2294.2569717000006,2295.3230240999837,0.08233489998383448,None,3.1653071000473574,,,,,,,,,30,001,2019_Dec_25_1338,untitled,3.1.0,60.0993683035682,
226,G,N,45,L,N,226GN045LN,HLN,0,224,224,233,,,0.7020000000000001,2297.533558299998,2297.821388499986,2297.8542319000117,2298.137280600029,2298.1540589000215,None,up,2298.1540589000215,None,2298.1540589000215,2298.836501199985,0.10259289998793975,None,1.5842276000184938,,,,,,,,,30,001,2019_Dec_25_1338,untitled,3.1.0,60.0993683035682,
199,G,N,270,R,N,199GN270RN,HRN,0,225,225,230,,,1.383,2299.8121886000154,2300.15235400002,2300.169068899995,2300.452111200022,2300.4686958999955,None,up,2300.4686958999955,None,2300.4686958999955,2301.8337908000103,0.06705949996830896,None,2.2153954000095837,,,,,,,,,30,001,2019_Dec_25_1338,untitled,3.1.0,60.0993683035682,
293,_2,N,180,L,N,293_2N180LN,HLN,0,226,226,252,,,1.334,2302.7577136000036,2303.099795599992,2303.1166057999944,2303.399735199986,2303.4158292000066,None,up,2303.4158292000066,None,2303.4158292000066,2304.731175600027,0.06572250003227964,None,3.1318909999681637,,,,,,,,,30,001,2019_Dec_25_1338,untitled,3.1.0,60.0993683035682,
_,G,N,270,_,_,_GN270__,N,0,227,227,62,,,0.92,2306.6202010000125,2306.9626656000037,2306.9794305000105,2307.2622473000083,2307.279163500003,None,up,2307.279163500003,None,2307.279163500003,2308.1781048999983,0.0646353000192903,None,1.7990834999945946,,,,,,,,,30,001,2019_Dec_25_1338,untitled,3.1.0,60.0993683035682,
424,_4,N,315,L,N,424_4N315LN,HLN,0,228,228,271,,,1.246,2309.149572300026,2309.49465030001,2309.5102222000132,2309.793397500005,2309.81062449998,None,up,2309.81062449998,None,2309.81062449998,2311.042768299987,0.06468489998951554,None,2.050437600002624,,,,,,,,,30,001,2019_Dec_25_1338,untitled,3.1.0,60.0993683035682,
045,R,M,180,L,N,045RM180LN,HLN,0,229,229,108,,,1.059,2312.0640749000013,2312.358637700032,2312.358637700032,2312.574616900005,2312.5911526000127,None,None,2312.5911526000127,None,2312.5911526000127,2313.640296700003,0.1950094000203535,None,,,,,,,,,,30,001,2019_Dec_25_1338,untitled,3.1.0,60.0993683035682,
_,R,M,180,_,_,_RM180__,N,0,230,230,20,,,1.05,2316.2494314999785,2316.538206600002,2316.538206600002,2316.771224200027,2316.787774800032,2316.2494314999785,None,2316.787774800032,None,2316.787774800032,2317.8196969000273,0.18785980000393465,None,,,,,,,,,,30,001,2019_Dec_25_1338,untitled,3.1.0,60.0993683035682,
_,_2,N,315,_,_,__2N315__,N,0,231,231,79,,,0.977,2320.3468117000302,2320.6677385999938,2320.684048600029,2320.9671414999757,2320.9838343000156,2320.3468117000302,up,2320.9838343000156,None,2320.9838343000156,2321.949634300021,0.08763740002177656,None,3.418635300011374,,,,,,,,,30,001,2019_Dec_25_1338,untitled,3.1.0,60.0993683035682,
483,_5,N,90,L,N,483_5N090LN,HLN,0,232,232,282,,,0.757,2324.5109847999993,2324.814011599985,2324.830908200005,2325.1134288000176,2325.1311109000235,None,up,2325.1311109000235,None,2325.1311109000235,2325.8794939999934,0.0977083999896422,None,1.8983574000303634,,,,,,,,,30,001,2019_Dec_25_1338,untitled,3.1.0,60.0993683035682,
_,F,N,225,_,_,_FN225__,N,0,233,233,53,,,0.736,2327.1010136000114,2327.445094500028,2327.4620613000006,2327.744856400008,2327.7613484999747,None,up,2327.7613484999747,None,2327.7613484999747,2328.476690199983,0.06494710000697523,None,2.564438199973665,,,,,,,,,30,001,2019_Dec_25_1338,untitled,3.1.0,60.0993683035682,
417,_4,N,0,L,N,417_4N000LN,HLN,0,234,234,264,,,1.149,2330.3995595999877,2330.7420960000018,2330.7583679999807,2331.041505799978,2331.0586223999853,None,up,2331.0586223999853,None,2331.0586223999853,2332.190631699981,0.06691310001770034,None,2.2324753999710083,,,,,,,,,30,001,2019_Dec_25_1338,untitled,3.1.0,60.0993683035682,
_,_5,M,270,_,_,__5M270__,N,0,235,235,46,,,1.289,2333.3731242999784,2333.7067133000237,2333.7233170000254,2334.0062235000078,2334.023007699987,None,None,2334.023007699987,None,2334.023007699987,2335.2885962,0.07434370002010837,None,,,,,,,,,,30,001,2019_Dec_25_1338,untitled,3.1.0,60.0993683035682,
488,_5,N,315,L,N,488_5N315LN,HLN,0,236,236,287,,,0.9540000000000001,2337.6320831999765,2337.920051000023,2337.920051000023,2338.2025159000186,2338.2191332000075,2337.6320831999765,up,2338.2191332000075,None,2338.2191332000075,2339.151442400005,0.138528999988921,None,1.8652601999929175,,,,,,,,,30,001,2019_Dec_25_1338,untitled,3.1.0,60.0993683035682,
170,F,M,45,L,N,170FM045LN,HLN,0,237,237,121,,,1.214,2340.157346400025,2340.500507800025,2340.5170569000184,2340.800113699981,2340.816860400024,None,down,2340.816860400024,None,2340.816860400024,2342.015457600006,0.06603829999221489,None,3.38188539998373,,,,,,,,,30,001,2019_Dec_25_1338,untitled,3.1.0,60.0993683035682,
396,_4,M,135,R,N,396_4M135RN,HRN,0,238,238,163,,,0.894,2344.2888189000078,2344.6143212000025,2344.6302871999796,2344.9135388000286,2344.93005309999,None,down,2344.93005309999,None,2344.93005309999,2345.8119796999963,0.08183849998749793,None,2.4656281999778003,,,,,,,,,30,001,2019_Dec_25_1338,untitled,3.1.0,60.0993683035682,
270,_2,M,225,R,N,270_2M225RN,HRN,0,239,239,149,,,1.2730000000000001,2347.467625099991,2347.810609499982,2347.8268631999963,2348.1102792000165,2348.1268529000226,None,down,2348.1268529000226,None,2348.1268529000226,2349.3763895999873,0.06555280002066866,None,2.8503824999788776,,,,,,,,,30,001,2019_Dec_25_1338,untitled,3.1.0,60.0993683035682,
207,G,M,270,R,N,207GM270RN,HRN,0,240,240,134,,,0.777,2351.0533778999816,2351.3907583000255,2351.407962199999,2351.6908729000133,2351.7075511000003,None,down,2351.7075511000003,None,2351.7075511000003,2352.472996700031,0.06936590000987053,None,1.9686996000236832,,,,,,,,,30,001,2019_Dec_25_1338,untitled,3.1.0,60.0993683035682,
400,_4,M,315,R,N,400_4M315RN,HRN,0,241,241,167,,,1.237,2353.7733313000062,2354.0881902999827,2354.104752300016,2354.3880234999815,2354.405014400021,None,down,2354.405014400021,None,2354.405014400021,2355.62030900002,0.08827109995763749,None,2.4155525999958627,,,,,,,,,30,001,2019_Dec_25_1338,untitled,3.1.0,60.0993683035682,
_,G,M,0,_,_,_GM000__,N,0,242,242,8,,,0.745,2356.8916696999804,2357.235863699985,2357.252400199999,2357.535785300017,2357.553203699994,None,down,2357.553203699994,None,2357.553203699994,2358.2847522000084,0.06435179995605722,None,1.7161833999562077,,,,,,,,,30,001,2019_Dec_25_1338,untitled,3.1.0,60.0993683035682,
460,_5,M,135,R,N,460_5M135RN,HRN,0,243,243,179,,,0.978,2359.3465706999996,2359.683433600003,2359.700147800031,2359.9832981000072,2360.0000369999907,None,down,2360.0000369999907,None,2360.0000369999907,2360.9658192999777,0.07018410001182929,None,3.165150100016035,,,,,,,,,30,001,2019_Dec_25_1338,untitled,3.1.0,60.0993683035682,
463,_5,M,270,R,N,463_5M270RN,HRN,0,244,244,182,,,0.725,2363.258832600026,2363.5809312000056,2363.5972894000006,2363.8805381000275,2363.897086800018,None,down,2363.897086800018,None,2363.897086800018,2364.5961026999867,0.08661450003273785,None,2.3330818000249565,,,,,,,,,30,001,2019_Dec_25_1338,untitled,3.1.0,60.0993683035682,
205,G,M,180,R,N,205GM180RN,HRN,0,245,245,132,,,1.1440000000000001,2366.3014903999865,2366.644482599979,2366.660922100011,2366.9437835999997,2366.9610034999787,None,down,2366.9610034999787,None,2366.9610034999787,2368.0928606999805,0.0645113000064157,None,3.1656542000127956,,,,,,,,,30,001,2019_Dec_25_1338,untitled,3.1.0,60.0993683035682,
_,F,M,225,_,_,_FM225__,N,0,246,246,5,,,1.193,2370.1985639000195,2370.541308099986,2370.5572369000292,2370.8413408999913,2370.857171999989,None,down,2370.857171999989,None,2370.857171999989,2372.039301600016,0.06463209999492392,None,2.8147438000305556,,,,,,,,,30,001,2019_Dec_25_1338,untitled,3.1.0,60.0993683035682,
299,_2,M,90,L,N,299_2M090LN,HLN,0,247,247,154,,,1.311,2373.762145399989,2374.0880219999817,2374.104864299996,2374.388069799985,2374.4047470000223,None,None,2374.4047470000223,None,2374.4047470000223,2375.7026174999774,0.08259700000053272,None,,,,,,,,,,30,001,2019_Dec_25_1338,untitled,3.1.0,60.0993683035682,
289,_2,N,0,L,N,289_2N000LN,HLN,0,248,248,248,,,1.053,2377.9458135000314,2378.2840702999965,2378.3005188999814,2378.5836788000306,2378.600293299998,2377.9458135000314,up,2378.600293299998,None,2378.600293299998,2379.632704399992,0.07046540000010282,None,2.348501300031785,,,,,,,,,30,001,2019_Dec_25_1338,untitled,3.1.0,60.0993683035682,
_,_2,M,0,_,_,__2M000__,N,0,249,249,24,,,0.779,2381.035151500022,2381.364510299987,2381.381637400016,2381.665147199994,2381.6810365000274,None,down,2381.6810365000274,None,2381.6810365000274,2382.4468158999807,0.07838130003074184,None,1.999416399979964,,,,,,,,,30,001,2019_Dec_25_1338,untitled,3.1.0,60.0993683035682,
449,_5,N,0,R,N,449_5N000RN,HRN,0,250,250,272,,,1.344,2383.762827300001,2384.095944600005,2384.1122860999894,2384.3951236000285,2384.4116900999798,None,up,2384.4116900999798,None,2384.4116900999798,2385.7443848000257,0.07515969994710758,None,2.1319058999652043,,,,,,,,,30,001,2019_Dec_25_1338,untitled,3.1.0,60.0993683035682,
044,R,M,135,L,N,044RM135LN,HLN,0,251,251,107,,,1.037,2386.62020830001,2386.959858599992,2386.9767928000074,2387.2590831000125,2387.2763271000003,None,down,2387.2763271000003,None,2387.2763271000003,2388.2922039999976,0.06923720001941547,None,2.7312361000222154,,,,,,,,,30,001,2019_Dec_25_1338,untitled,3.1.0,60.0993683035682,
461,_5,M,180,R,N,461_5M180RN,HRN,0,252,252,180,,,0.985,2390.0821380999987,2390.4234462000313,2390.4401857000194,2390.7234108999837,2390.7398681999766,None,down,2390.7398681999766,None,2390.7398681999766,2391.7057687999913,0.06712989998050034,None,2.91472669999348,,,,,,,,,30,001,2019_Dec_25_1338,untitled,3.1.0,60.0993683035682,
429,_4,M,180,L,N,429_4M180LN,HLN,0,253,253,172,,,0.722,2393.7420401999843,2394.0710284999805,2394.0870600999915,2394.370250099979,2394.3870023000054,None,None,2394.3870023000054,None,2394.3870023000054,2395.0858593999874,0.08029070001794025,None,,,,,,,,,,30,001,2019_Dec_25_1338,untitled,3.1.0,60.0993683035682,
200,G,N,315,R,N,200GN315RN,HRN,0,254,254,231,,,1.09,2397.9221534000244,2398.2668316999916,2398.2834252999746,2398.567839800031,2398.5839129000087,2397.9221534000244,up,2398.5839129000087,None,2398.5839129000087,2399.64839560003,0.0649455999955535,None,1.949305500020273,,,,,,,,,30,001,2019_Dec_25_1338,untitled,3.1.0,60.0993683035682,
_,_5,N,180,_,_,__5N180__,N,0,255,255,92,,,1.352,2400.612149499997,2400.948583599995,2400.964264900016,2401.2479999000207,2401.2640393999754,None,down,2401.2640393999754,None,2401.2640393999754,2402.5963033000007,0.07164110004669055,None,3.2651556999771856,,,,,,,,,30,001,2019_Dec_25_1338,untitled,3.1.0,60.0993683035682,
387,_4,N,90,R,N,387_4N090RN,HRN,0,256,256,258,,,0.86,2404.6008269999875,2404.943853500008,2404.9612548000296,2405.2443144000135,2405.260633400001,None,up,2405.260633400001,None,2405.260633400001,2406.1097621999797,0.06436899997061118,None,1.7000527000054717,,,,,,,,,30,001,2019_Dec_25_1338,untitled,3.1.0,60.0993683035682,
010,R,M,45,R,N,010RM045RN,HRN,0,257,257,97,,,1.131,2407.113474700018,2407.408964000002,2407.408964000002,2407.6758282000083,2407.6919005999807,None,down,2407.6919005999807,None,2407.6919005999807,2408.8073246999993,0.1452794999931939,None,2.2348741000168957,,,,,,,,,30,001,2019_Dec_25_1338,untitled,3.1.0,60.0993683035682,
_,F,M,90,_,_,_FM090__,N,0,258,258,2,,,1.23,2410.0007386999787,2410.339394700015,2410.3561746000196,2410.6390645999927,2410.655775399995,None,down,2410.655775399995,None,2410.655775399995,2411.871565999987,0.06584830000065267,None,2.9147392999730073,,,,,,,,,30,001,2019_Dec_25_1338,untitled,3.1.0,60.0993683035682,
295,_2,N,270,L,N,295_2N270LN,HLN,0,259,259,254,,,0.91,2413.640375900024,2413.9871001000283,2414.0037197999773,2414.2860432000016,2414.303152800014,None,up,2414.303152800014,None,2414.303152800014,2415.201890400029,0.06341449997853488,None,2.1151791000156663,,,,,,,,,30,001,2019_Dec_25_1338,untitled,3.1.0,60.0993683035682,
140,F,M,135,R,N,140FM135RN,HRN,0,260,260,115,,,0.926,2416.560928800027,2416.8507209999952,2416.8507209999952,2417.1348302999977,2417.1502379000303,None,down,2417.1502379000303,None,2417.1502379000303,2418.066234899976,0.13374150003073737,None,2.883105999964755,,,,,,,,,30,001,2019_Dec_25_1338,untitled,3.1.0,60.0993683035682,
_,R,M,45,_,_,_RM045__,N,0,261,261,17,,,0.803,2420.1359913999913,2420.446796700009,2420.4645427999785,2420.7473839999875,2420.7640869999886,None,down,2420.7640869999886,None,2420.7640869999886,2421.5463738000253,0.09601310000289232,None,1.9318796999868937,,,,,,,,,30,001,2019_Dec_25_1338,untitled,3.1.0,60.0993683035682,
013,R,M,180,R,N,013RM180RN,HRN,0,262,262,100,,,1.393,2422.7675538000185,2423.111904599995,2423.128513899981,2423.4114987999783,2423.428793800005,None,down,2423.428793800005,None,2423.428793800005,2424.810444600007,0.06469319999450818,None,2.9322778999921866,,,,,,,,,30,001,2019_Dec_25_1338,untitled,3.1.0,60.0993683035682,
391,_4,N,270,R,N,391_4N270RN,HRN,0,263,263,262,,,1.0090000000000001,2426.4322439000243,2426.7752043000073,2426.7922377000214,2427.074891299999,2427.091231200029,None,up,2427.091231200029,None,2427.091231200029,2428.090545299987,0.061552400002256036,None,1.916499599989038,,,,,,,,,30,001,2019_Dec_25_1338,untitled,3.1.0,60.0993683035682,
_,G,M,90,_,_,_GM090__,N,0,264,264,10,,,0.936,2429.085246199975,2429.4234914000263,2429.4401054999908,2429.7224151000264,2429.738830599992,None,down,2429.738830599992,None,2429.738830599992,2430.655225800001,0.0704620000324212,None,1.9346492999466136,,,,,,,,,30,001,2019_Dec_25_1338,untitled,3.1.0,60.0993683035682,
143,F,M,270,R,N,143FM270RN,HRN,0,265,265,118,,,1.066,2431.7471665000194,2432.0871865000227,2432.104211100028,2432.387102700013,2432.4039857999887,None,down,2432.4039857999887,None,2432.4039857999887,2433.4524751999998,0.06694160000188276,None,2.564782200031914,,,,,,,,,30,001,2019_Dec_25_1338,untitled,3.1.0,60.0993683035682,
228,G,N,135,L,N,228GN135LN,HLN,0,266,266,235,,,1.236,2435.052420800028,2435.384101099975,2435.4006431000307,2435.683835499978,2435.700384900032,None,up,2435.700384900032,None,2435.700384900032,2436.9163441000273,0.07559379999293014,None,2.2152941999956965,,,,,,,,,30,001,2019_Dec_25_1338,untitled,3.1.0,60.0993683035682,
262,_2,N,225,R,N,262_2N225RN,HRN,0,267,267,245,,,0.7010000000000001,2438.0788114999887,2438.3672500000102,2438.3672500000102,2438.632029999979,2438.647844400024,None,None,2438.647844400024,None,2438.647844400024,2439.3303781999857,0.1554859000025317,None,,,,,,,,,,30,001,2019_Dec_25_1338,untitled,3.1.0,60.0993683035682,
492,_5,M,135,L,N,492_5M135LN,HLN,0,268,268,187,,,1.3840000000000001,2442.2191563000088,2442.511468200013,2442.5444337999797,2442.827544800006,2442.8444286999875,2442.2191563000088,None,2442.8444286999875,None,2442.8444286999875,2444.2104678000323,0.10070780001115054,None,,,,,,,,,,30,001,2019_Dec_25_1338,untitled,3.1.0,60.0993683035682,
290,_2,N,45,L,N,290_2N045LN,HLN,0,269,269,249,,,1.036,2446.381455200026,2446.724824499979,2446.74097470002,2447.0244519999833,2447.040836100001,2446.381455200026,up,2447.040836100001,None,2447.040836100001,2448.0566933000227,0.06670520000625402,None,1.8486627000384033,,,,,,,,,30,001,2019_Dec_25_1338,untitled,3.1.0,60.0993683035682,
_,_4,N,0,_,_,__4N000__,N,0,270,270,80,,,1.161,2449.0472975000157,2449.3388477999833,2449.3388477999833,2449.605849799991,2449.623483299976,None,up,2449.623483299976,None,2449.623483299976,2450.7712907000096,0.15100280003389344,None,1.8657056999509223,,,,,,,,,30,001,2019_Dec_25_1338,untitled,3.1.0,60.0993683035682,
037,R,N,180,L,N,037RN180LN,HLN,0,271,271,204,,,0.848,2451.5606965000043,2451.9032514999853,2451.9200594000285,2452.2029204000137,2452.219527199981,None,up,2452.219527199981,None,2452.219527199981,2453.052247799991,0.0645784999942407,None,2.432014399964828,,,,,,,,,30,001,2019_Dec_25_1338,untitled,3.1.0,60.0993683035682,
257,_2,N,0,R,N,257_2N000RN,HRN,0,272,272,240,,,1.0010000000000001,2454.828257300018,2455.117265500012,2455.117265500012,2455.3669908000156,2455.383716900018,None,up,2455.383716900018,None,2455.383716900018,2456.3658713999903,0.16935430001467466,None,2.1339104999788105,,,,,,,,,30,001,2019_Dec_25_1338,untitled,3.1.0,60.0993683035682,
450,_5,N,45,R,N,450_5N045RN,HRN,0,273,273,273,,,1.192,2457.588635799999,2457.9312286999775,2457.9480202000123,2458.230881299998,2458.2475574000273,None,up,2458.2475574000273,None,2458.2475574000273,2459.4138833000325,0.06422260002000257,None,1.8824774000095204,,,,,,,,,30,001,2019_Dec_25_1338,untitled,3.1.0,60.0993683035682,
432,_4,M,315,L,N,432_4M315LN,HLN,0,274,274,175,,,1.157,2460.212753300031,2460.545531700016,2460.562261999992,2460.8452778999927,2460.862146999978,None,up,2460.862146999978,None,2460.862146999978,2461.994278899976,0.0755310999811627,None,1.8004493999760598,,,,,,,,,30,001,2019_Dec_25_1338,untitled,3.1.0,60.0993683035682,
_,_4,N,315,_,_,__4N315__,N,0,275,275,87,,,1.235,2462.7319840000127,2463.0768162999884,2463.0934932000237,2463.3766646999866,2463.3930772999884,None,up,2463.3930772999884,None,2463.3930772999884,2464.608526199998,0.06257349997758865,None,1.8825682000024244,,,,,,,,,30,001,2019_Dec_25_1338,untitled,3.1.0,60.0993683035682,
040,R,N,315,L,N,040RN315LN,HLN,0,276,276,207,,,0.892,2465.3484275999945,2465.6912843000027,2465.7083202999784,2465.9915925000096,2466.008053700032,None,up,2466.008053700032,None,2466.008053700032,2466.873374800023,0.06581309996545315,None,1.814773200021591,,,,,,,,,30,001,2019_Dec_25_1338,untitled,3.1.0,60.0993683035682,
266,_2,M,45,R,N,266_2M045RN,HRN,0,277,277,145,,,0.8160000000000001,2467.9080549000064,2468.239901599998,2468.2559063999797,2468.538699800032,2468.5553315000143,None,down,2468.5553315000143,None,2468.5553315000143,2469.354360700003,0.07830230001127347,None,2.132811399991624,,,,,,,,,30,001,2019_Dec_25_1338,untitled,3.1.0,60.0993683035682,
_,_4,N,270,_,_,__4N270__,N,0,278,278,86,,,1.337,2470.766606900026,2471.103330300015,2471.120198299992,2471.403547600028,2471.41923509998,None,up,2471.41923509998,None,2471.41923509998,2472.735473699984,0.0712171999621205,None,2.3840034999884665,,,,,,,,,30,001,2019_Dec_25_1338,untitled,3.1.0,60.0993683035682,
_,_4,M,315,_,_,__4M315__,N,0,279,279,39,,,1.347,2473.870227699983,2474.2177694999846,2474.2340404000133,2474.517287900031,2474.534022899985,None,down,2474.534022899985,None,2474.534022899985,2475.865599200013,0.06047070003114641,None,2.6141167000168934,,,,,,,,,30,001,2019_Dec_25_1338,untitled,3.1.0,60.0993683035682,
487,_5,N,270,L,N,487_5N270LN,HLN,0,280,280,286,,,1.036,2477.2188606000273,2477.5643836000236,2477.5820164000033,2477.8642471000203,2477.880909200001,None,up,2477.880909200001,None,2477.880909200001,2478.8963773000287,0.06352460000198334,None,1.9497476000105962,,,,,,,,,30,001,2019_Dec_25_1338,untitled,3.1.0,60.0993683035682,
235,G,M,90,L,N,235GM090LN,HLN,0,281,281,138,,,1.222,2480.040712099988,2480.3287540000165,2480.3287540000165,2480.5450859999983,2480.5617487999843,None,down,2480.5617487999843,None,2480.5617487999843,2481.761605800013,0.20189319999190047,None,2.2480545999715105,,,,,,,,,30,001,2019_Dec_25_1338,untitled,3.1.0,60.0993683035682,
041,R,M,0,L,N,041RM000LN,HLN,0,282,282,104,,,1.3920000000000001,2482.8944787000073,2483.2258369000047,2483.243071999983,2483.5255030000117,2483.541964199976,None,down,2483.541964199976,None,2483.541964199976,2484.9081348000327,0.07766120001906529,None,2.3153840000159107,,,,,,,,,30,001,2019_Dec_25_1338,untitled,3.1.0,60.0993683035682,
_,_4,M,225,_,_,__4M225__,N,0,283,283,37,,,0.756,2485.9289192000288,2486.2735919000115,2486.2910625999793,2486.57371159998,2486.5896552000195,None,down,2486.5896552000195,None,2486.5896552000195,2487.322618599981,0.06491149996872991,None,2.134441500005778,,,,,,,,,30,001,2019_Dec_25_1338,untitled,3.1.0,60.0993683035682,
_,G,M,180,_,_,_GM180__,N,0,284,284,12,,,1.139,2488.819397700019,2489.140755500004,2489.1546282999916,2489.437159800029,2489.4537060000002,None,down,2489.4537060000002,None,2489.4537060000002,2490.5858518999885,0.08662209997419268,None,3.2316818000399508,,,,,,,,,30,001,2019_Dec_25_1338,untitled,3.1.0,60.0993683035682,
_,_2,M,90,_,_,__2M090__,N,0,285,285,26,,,0.804,2492.7524597999873,2493.1013953000074,2493.117993300024,2493.401140299975,2493.4177101000096,None,down,2493.4177101000096,None,2493.4177101000096,2494.2004011999816,0.060108000005129725,None,2.15039780002553,,,,,,,,,30,001,2019_Dec_25_1338,untitled,3.1.0,60.0993683035682,
239,G,M,270,L,N,239GM270LN,HLN,0,286,286,142,,,0.8200000000000001,2495.642655999982,2495.9818174000247,2495.998082700011,2496.281392199977,2496.298078300024,None,down,2496.298078300024,None,2496.298078300024,2497.0974100999883,0.06745660002343357,None,2.350435800035484,,,,,,,,,30,001,2019_Dec_25_1338,untitled,3.1.0,60.0993683035682,
_,G,M,270,_,_,_GM270__,N,0,287,287,14,,,1.262,2498.738263599982,2499.0621654000133,2499.078908400028,2499.3619832000113,2499.379112800001,None,down,2499.379112800001,None,2499.379112800001,2500.627975900017,0.08166039997013286,None,3.2982856000307947,,,,,,,,,30,001,2019_Dec_25_1338,untitled,3.1.0,60.0993683035682,
,,,,,,,,,,,,,,,,,,,,,,,,,,,,,2502.692655400024,None,2511.4020785000175,None,2514.065365699993,None,2518.1788304999936,None,,,,,,,
