Number,Letter,type,Orientation,human,face_type,image,picture,trials.thisRepN,trials.thisTrialN,trials.thisN,trials.thisIndex,text.started,text.stopped,stimulus_duration,CROSS.started,CROSS.stopped,BLANK.started,BLANK.stopped,TEST.started,TEST.stopped,key_JUDGE.keys,key_JUDGE.rt,key_JUDGE.started,key_JUDGE.stopped,image_2.started,image_2.stopped,ISI.started,ISI.stopped,q1.started,q1.stopped,q2.started,q2.stopped,q3.started,q3.stopped,text_2.started,text_2.stopped,participant,session,date,expName,psychopyVersion,frameRate,
043,R,M,90,L,N,043RM090LN,HLN,0,0,0,106,354.68718209495273,None,1.307,386.3531720650117,386.6531794146522,386.6531794146522,386.7365117547906,386.78644759441704,None,down,2.583503169615142,386.78644759441704,None,386.78644759441704,388.05303758645823,0.3054202603761951,None,,,,,,,,,31,001,2019_Dec_25_1257,untitled,3.1.0,59.99213492953721,
450,_5,N,45,R,N,450_5N045RN,HRN,0,1,1,273,,,1.211,389.4863746939318,389.7863648281982,389.80303659326455,390.0863576109841,390.1196902159736,None,up,2.0334471534388285,390.1196902159736,None,390.1196902159736,391.3029753462615,0.09122360254332307,None,,,,,,,,,31,001,2019_Dec_25_1257,untitled,3.1.0,59.99213492953721,
_,F,M,315,_,_,_FM315__,N,0,2,2,7,,,0.73,392.2362965626198,392.56963287553845,392.5863009988898,392.86959586248486,392.90295826331385,None,down,2.050210292409247,392.90295826331385,None,392.90295826331385,393.61960844295027,0.07646671672227967,None,,,,,,,,,31,001,2019_Dec_25_1257,untitled,3.1.0,59.99213492953721,
004,R,N,135,R,N,004RN135RN,HRN,0,3,3,195,,,0.8260000000000001,395.05290615370177,395.3695286563143,395.3862133329112,395.669541302992,395.7028467606633,None,up,2.700166128353885,395.7028467606633,None,395.7028467606633,396.486215451725,0.07788466759120638,None,,,,,,,,,31,001,2019_Dec_25_1257,untitled,3.1.0,59.99213492953721,
131,F,N,90,R,N,131FN090RN,HRN,0,4,4,210,,,1.3,398.5361579126493,398.83613679071095,398.83613679071095,399.1194654229221,399.15278544744797,None,up,2.5168210753254243,399.15278544744797,None,399.15278544744797,400.43606739951247,0.11297688240119896,None,,,,,,,,,31,001,2019_Dec_25_1257,untitled,3.1.0,59.99213492953721,
231,G,N,270,L,N,231GN270LN,HLN,0,5,5,238,,,1.387,401.8193736517387,402.11943662027807,402.11943662027807,402.3860372063955,402.419402255744,None,up,2.666791478124651,402.419402255744,None,402.419402255744,403.769359349737,0.12808602124823665,None,,,,,,,,,31,001,2019_Dec_25_1257,untitled,3.1.0,59.99213492953721,
457,_5,M,0,R,N,457_5M000RN,HRN,0,6,6,176,,,1.312,405.1859922477852,405.5026303104478,405.51927559032265,405.80266315208246,405.83592623344884,None,down,2.5001767886442394,405.83592623344884,None,405.83592623344884,407.1192535414011,0.0799703763150319,None,,,,,,,,,31,001,2019_Dec_25_1257,untitled,3.1.0,59.99213492953721,
266,_2,M,45,R,N,266_2M045RN,HRN,0,7,7,145,,,1.347,408.4359134543447,408.75258826520803,408.7692464566135,409.052564163685,409.085867303902,None,up,3.0168118055080413,409.085867303902,None,409.085867303902,410.40251066359997,0.0787351732597017,None,,,,,,,,,31,001,2019_Dec_25_1257,untitled,3.1.0,59.99213492953721,
417,_4,N,0,L,N,417_4N000LN,HLN,0,8,8,264,,,1.285,412.2524740478257,412.55249066728175,412.55249066728175,412.819148527622,412.8524632551107,None,up,2.5168180957407458,412.8524632551107,None,412.8524632551107,414.1024198856121,0.13188234219160222,None,,,,,,,,,31,001,2019_Dec_25_1257,untitled,3.1.0,59.99213492953721,
_,F,N,0,_,_,_FN000__,N,0,9,9,48,,,1.333,415.45242332868656,415.78574970965747,415.8024161776848,416.0857239528086,416.11903470751895,None,up,2.350234195293524,416.11903470751895,None,416.11903470751895,417.4357009106934,0.07377913205345976,None,,,,,,,,,31,001,2019_Dec_25_1257,untitled,3.1.0,59.99213492953721,
_,_2,N,90,_,_,__2N090__,N,0,10,10,74,,,1.36,418.5690084871803,418.8856763456806,418.9023448000971,419.18564893350776,419.2189812074339,None,up,2.9168063760444056,419.2189812074339,None,419.2189812074339,420.5356047032401,0.08915941303530417,None,,,,,,,,,31,001,2019_Dec_25_1257,untitled,3.1.0,59.99213492953721,
_,F,M,0,_,_,_FM000__,N,0,11,11,0,,,1.3900000000000001,422.2356029817038,422.55225660441465,422.56892141711796,422.8521904576519,422.8855614661679,None,down,2.2835060829856957,422.8855614661679,None,422.8855614661679,424.23553279595035,0.08574878267427266,None,,,,,,,,,31,001,2019_Dec_25_1257,untitled,3.1.0,59.99213492953721,
_,R,M,315,_,_,_RM315__,N,0,12,12,23,,,1.276,425.2688630834855,425.58552398962456,425.6022066798305,425.8855094889823,425.9188427561021,None,down,2.6001487805569923,425.9188427561021,None,425.9188427561021,427.1687851508141,0.07696099658642197,None,,,,,,,,,31,001,2019_Dec_25_1257,untitled,3.1.0,59.99213492953721,
_,G,M,135,_,_,_GM135__,N,0,13,13,11,,,0.809,428.6187592615406,428.93544036263665,428.9520992161724,429.2354073223614,429.26872138771796,None,down,3.250150303454575,429.26872138771796,None,429.26872138771796,430.0520573033591,0.07510769540385809,None,,,,,,,,,31,001,2019_Dec_25_1257,untitled,3.1.0,59.99213492953721,
302,_2,M,225,L,N,302_2M225LN,HLN,0,14,14,157,,,0.9470000000000001,432.6020242630839,432.9353423674329,432.95200055883834,433.2353351502188,433.2686548436777,None,up,2.850124943885021,433.2686548436777,None,433.2686548436777,434.18526158760324,0.07648757381139148,None,,,,,,,,,31,001,2019_Dec_25_1257,untitled,3.1.0,59.99213492953721,
_,R,N,45,_,_,_RN045__,N,0,15,15,65,,,0.97,436.2186041245386,436.53522927567064,436.55190567564387,436.83518233067116,436.8685824728964,None,up,2.0667996223201044,436.8685824728964,None,436.8685824728964,437.8185403614443,0.0782680407173757,None,,,,,,,,,31,001,2019_Dec_25_1257,untitled,3.1.0,59.99213492953721,
198,G,N,225,R,N,198GN225RN,HRN,0,16,16,229,,,0.923,439.0351809401982,439.3518597238399,439.36852685399754,439.6518170826839,439.6851821320324,None,up,2.200203869750112,439.6851821320324,None,439.6851821320324,440.5684784523128,0.07561621105560334,None,,,,,,,,,31,001,2019_Dec_25_1257,untitled,3.1.0,59.99213492953721,
304,_2,M,315,L,N,304_2M315LN,HLN,0,17,17,159,,,1.042,442.00180463464494,442.30179841062454,442.31846487865187,442.6017792750754,442.6351158528432,None,up,2.150139576951915,442.6351158528432,None,442.6351158528432,443.65173266113925,0.09634749364158779,None,,,,,,,,,31,001,2019_Dec_25_1257,untitled,3.1.0,59.99213492953721,
419,_4,N,90,L,N,419_4N090LN,HLN,0,18,18,266,,,0.776,444.9184001223621,445.2183899255633,445.2183899255633,445.50166989123863,445.53502964354993,None,up,1.6501574544545292,445.53502964354993,None,445.53502964354993,446.28501242817583,0.12159185262498795,None,,,,,,,,,31,001,2019_Dec_25_1257,untitled,3.1.0,59.99213492953721,
_,F,M,180,_,_,_FM180__,N,0,19,19,4,,,1.204,447.3183443710368,447.6183345053032,447.6183345053032,447.9016581715423,447.9349834931054,None,None,,447.9349834931054,None,447.9349834931054,449.11825207014954,0.11345527114826837,None,,,,,,,,,31,001,2019_Dec_25_1257,untitled,3.1.0,59.99213492953721,
205,G,M,180,R,N,205GM180RN,HRN,0,20,20,132,,,0.854,451.4682263795148,451.80157130011867,451.8182371060175,452.10153561132574,452.13486523673237,451.4682263795148,up,2.8169585334617295,452.13486523673237,None,452.13486523673237,452.9515433582437,0.05908349323908624,None,,,,,,,,,31,001,2019_Dec_25_1257,untitled,3.1.0,59.99213492953721,
_,R,N,135,_,_,_RN135__,N,0,21,21,67,,,1.344,455.0348372948556,455.3681292450801,455.38478578116155,455.6681514926404,455.7014543017922,None,up,2.733504361447558,455.7014543017922,None,455.7014543017922,457.0181046138532,0.06866384864224528,None,,,,,,,,,31,001,2019_Dec_25_1257,untitled,3.1.0,59.99213492953721,
_,_4,N,180,_,_,__4N180__,N,0,22,22,84,,,0.71,458.51807183843084,458.851384976806,458.86806501849424,459.1513751110724,459.18471996546396,None,up,2.8834674808204,459.18471996546396,None,459.18471996546396,459.86804879631563,0.07304814080634969,None,,,,,,,,,31,001,2019_Dec_25_1257,untitled,3.1.0,59.99213492953721,
_,_5,M,180,_,_,__5M180__,N,0,23,23,44,,,0.876,462.168001520251,462.4846617642579,462.50133551571344,462.7846333588932,462.8179722541154,None,None,,462.8179722541154,None,462.8179722541154,463.66797006908746,0.07643063065188471,None,,,,,,,,,31,001,2019_Dec_25_1257,untitled,3.1.0,59.99213492953721,
_,G,M,225,_,_,_GM225__,N,0,24,24,13,,,1.09,466.3678855813305,466.6846077344708,466.70121957679476,466.98452404127056,467.0178669092711,466.3678855813305,None,,467.0178669092711,None,467.0178669092711,468.0678447941373,0.07601381997119461,None,,,,,,,,,31,001,2019_Dec_25_1257,untitled,3.1.0,59.99213492953721,
144,F,M,315,R,N,144FM315RN,HRN,0,25,25,119,,,1.161,470.5678113565864,470.8844808704107,470.9011340958423,471.1844610727312,471.21779400878586,470.5678113565864,down,2.3834664876267198,471.21779400878586,None,471.21779400878586,472.36775745922387,0.07678321474486438,None,,,,,,,,,31,001,2019_Dec_25_1257,untitled,3.1.0,59.99213492953721,
163,F,N,90,L,N,163FN090LN,HLN,0,26,26,218,,,0.931,473.7010805295449,474.017741435684,474.0343956543111,474.3177319010156,474.35105556725466,None,up,1.9834566881054343,474.35105556725466,None,474.35105556725466,475.26769674192474,0.09389198544886312,None,,,,,,,,,31,001,2019_Dec_25_1257,untitled,3.1.0,59.99213492953721,
268,_2,M,135,R,N,268_2M135RN,HRN,0,27,27,147,,,1.024,476.467680784599,476.7676672771504,476.7676672771504,477.05097505227604,477.0842897797629,None,down,2.900165731078232,477.0842897797629,None,477.0842897797629,478.06761900789206,0.12202918932780449,None,,,,,,,,,31,001,2019_Dec_25_1257,untitled,3.1.0,59.99213492953721,
263,_2,N,270,R,N,263_2N270RN,HRN,0,28,28,246,,,1.385,480.0675958333504,480.4009324773324,480.4175890134138,480.7008938089548,480.73422111690707,None,up,2.4335069437547645,480.73422111690707,None,480.73422111690707,482.08421363484194,0.058194252978864824,None,,,,,,,,,31,001,2019_Dec_25_1257,untitled,3.1.0,59.99213492953721,
206,G,M,225,R,N,206GM225RN,HRN,0,29,29,133,,,0.8300000000000001,483.2508558027075,483.5841808594196,483.6008453410577,483.8841918507733,483.91751187529735,None,down,1.9001541438065033,483.91751187529735,None,483.91751187529735,484.7341767542148,0.057694676079336205,None,,,,,,,,,31,001,2019_Dec_25_1257,untitled,3.1.0,59.99213492953721,
_,R,N,315,_,_,_RN315__,N,0,30,30,71,,,1.343,485.8841484812747,486.23412742554683,486.25077601607154,486.53411292490637,486.56743758433913,None,up,2.4334807896284474,486.56743758433913,None,486.56743758433913,487.8840696878324,0.05598538812046172,None,,,,,,,,,31,001,2019_Dec_25_1257,untitled,3.1.0,59.99213492953721,
400,_4,M,315,R,N,400_4M315RN,HRN,0,31,31,167,,,0.846,489.08406697310056,489.4173701795298,489.43404856589405,489.71735137504584,489.75070020221574,None,down,1.8334938997977588,489.75070020221574,None,489.75070020221574,490.5673438929789,0.07086178836107138,None,,,,,,,,,31,001,2019_Dec_25_1257,untitled,3.1.0,59.99213492953721,
006,R,N,225,R,N,006RN225RN,HRN,0,32,32,197,,,1.3860000000000001,491.7173444226828,492.0173173415769,492.0173173415769,492.30062246818306,492.3339557353029,None,up,2.4835096584865823,492.3339557353029,None,492.3339557353029,493.6839515638858,0.1204867580672726,None,,,,,,,,,31,001,2019_Dec_25_1257,untitled,3.1.0,59.99213492953721,
303,_2,M,270,L,N,303_2M270LN,HLN,0,33,33,158,,,1.068,494.9005981018072,495.2339092537932,495.25056545881125,495.533913954916,495.56722404749416,None,down,2.333498203643103,495.56722404749416,None,495.56722404749416,496.6172247758368,0.07063600211404264,None,,,,,,,,,31,001,2019_Dec_25_1257,untitled,3.1.0,59.99213492953721,
289,_2,N,0,L,N,289_2N000LN,HLN,0,34,34,248,,,1.041,498.0005396357501,498.31718100906073,498.33383953153134,498.61717279865115,498.6505067279013,None,up,2.3001434173056623,498.6505067279013,None,498.6505067279013,499.6671301574952,0.0809718475684349,None,,,,,,,,,31,001,2019_Dec_25_1257,untitled,3.1.0,59.99213492953721,
425,_4,M,0,L,N,425_4M000LN,HLN,0,35,35,168,,,0.9410000000000001,501.0504556114847,501.3671128759088,501.38378166139046,501.6670848016074,501.7004154202077,None,down,2.0668280939007673,501.7004154202077,None,501.7004154202077,502.61709168775633,0.0831310526937159,None,,,,,,,,,31,001,2019_Dec_25_1257,untitled,3.1.0,59.99213492953721,
_,_2,N,315,_,_,__2N315__,N,0,36,36,79,,,0.845,503.88372471823095,504.1837297504171,504.2003813205265,504.4836950548179,504.5170193831873,None,up,2.6501501710281445,504.5170193831873,None,504.5170193831873,505.33369022127044,0.10371236289029184,None,,,,,,,,,31,001,2019_Dec_25_1257,untitled,3.1.0,59.99213492953721,
461,_5,M,180,R,N,461_5M180RN,HRN,0,37,37,180,,,1.228,507.2502966341308,507.5836309606584,507.60030636743795,507.8836323511314,507.9169692599644,None,up,2.9500906455632503,507.9169692599644,None,507.9169692599644,509.1336048727462,0.07332855275490147,None,,,,,,,,,31,001,2019_Dec_25_1257,untitled,3.1.0,59.99213492953721,
171,F,M,90,L,N,171FM090LN,HLN,0,38,38,122,,,0.9550000000000001,511.0002122125861,511.30022121755064,511.30022121755064,511.58351575008055,511.6168695432243,None,down,2.2501466617413826,511.6168695432243,None,511.6168695432243,512.5334935025221,0.11350989685342938,None,,,,,,,,,31,001,2019_Dec_25_1257,untitled,3.1.0,59.99213492953721,
_,_5,M,225,_,_,__5M225__,N,0,39,39,45,,,1.029,513.9668322653197,514.2834872122894,514.3001682471713,514.5834389430293,514.6167771761229,None,up,2.98348681501011,514.6167771761229,None,514.6167771761229,515.6334125240519,0.08139527954517689,None,,,,,,,,,31,001,2019_Dec_25_1257,untitled,3.1.0,59.99213492953721,
142,F,M,225,R,N,142FM225RN,HRN,0,40,40,117,,,1.359,517.7000777340345,518.0167396333654,518.0334067635231,518.3167324161514,518.3500699871165,None,down,3.3501103770304326,518.3500699871165,None,518.3500699871165,519.6666742811594,0.08047359492775286,None,,,,,,,,,31,001,2019_Dec_25_1257,untitled,3.1.0,59.99213492953721,
463,_5,M,270,R,N,463_5M270RN,HRN,0,41,41,182,,,0.977,521.7833289632781,522.1166477297556,522.1333214812112,522.4166464717091,522.449941004239,None,up,2.4835156176559394,522.449941004239,None,522.449941004239,523.3999508699726,0.05762846310426539,None,,,,,,,,,31,001,2019_Dec_25_1257,untitled,3.1.0,59.99213492953721,
234,G,M,45,L,N,234GM045LN,HLN,0,42,42,137,,,1.117,525.0165793979668,525.3499074342617,525.3665745644194,525.6498839948672,525.683220903702,None,down,3.416920924491933,525.683220903702,None,525.683220903702,526.766503253044,0.06750644583371468,None,,,,,,,,,31,001,2019_Dec_25_1257,untitled,3.1.0,59.99213492953721,
_,F,M,225,_,_,_FM225__,N,0,43,43,5,,,1.1500000000000001,529.1831593256356,529.5164863687351,529.5331127779136,529.8164549837857,529.8497945411382,None,None,,529.8497945411382,None,529.8497945411382,530.9664197584825,0.06676452944338962,None,,,,,,,,,31,001,2019_Dec_25_1257,untitled,3.1.0,59.99213492953721,
010,R,M,45,R,N,010RM045RN,HRN,0,44,44,97,,,1.209,533.383051663337,533.7163873141253,533.7330249795086,534.0163704960287,534.0496842303219,533.383051663337,up,2.1834970118088677,534.0496842303219,None,534.0496842303219,535.2330239863131,0.07400756681818166,None,,,,,,,,,31,001,2019_Dec_25_1257,untitled,3.1.0,59.99213492953721,
015,R,M,270,R,N,015RM270RN,HRN,0,45,45,102,,,1.141,536.3496717160688,536.6496572154265,536.6663253387796,536.9496602612235,536.9829869070472,None,down,2.966768369797137,536.9829869070472,None,536.9829869070472,538.0996141107807,0.10353888489407836,None,,,,,,,,,31,001,2019_Dec_25_1257,untitled,3.1.0,59.99213492953721,
133,F,N,180,R,N,133FN180RN,HRN,0,46,46,212,,,0.918,540.0162433671157,540.3662411820878,540.3829347974352,540.6662561462199,540.6995728600959,None,up,2.3834913174923713,540.6995728600959,None,540.6995728600959,541.5828830851024,0.05754337943108112,None,,,,,,,,,31,001,2019_Dec_25_1257,untitled,3.1.0,59.99213492953721,
265,_2,M,0,R,N,265_2M000RN,HRN,0,47,47,144,,,1.149,543.1661760285206,543.4995040648155,543.5161718571035,543.7994994961209,543.8328294525909,None,down,2.6501369284342218,543.8328294525909,None,543.8328294525909,544.9494612912331,0.07533182632687385,None,,,,,,,,,31,001,2019_Dec_25_1257,untitled,3.1.0,59.99213492953721,
_,_4,N,90,_,_,__4N090__,N,0,48,48,82,,,1.339,546.6161190191488,546.9160681013709,546.9160681013709,547.1993964025169,547.232728676443,None,up,3.1501902298768982,547.232728676443,None,547.232728676443,548.5493902447106,0.12418077996153443,None,,,,,,,,,31,001,2019_Dec_25_1257,untitled,3.1.0,59.99213492953721,
_,R,M,225,_,_,_RM225__,N,0,49,49,21,,,0.742,550.4826753749985,550.7993362811358,550.8159971210607,551.099353231657,551.1326732561829,None,down,2.333499858967116,551.1326732561829,None,551.1326732561829,551.8492866876168,0.07654021312555415,None,,,,,,,,,31,001,2019_Dec_25_1257,untitled,3.1.0,59.99213492953721,
233,G,M,0,L,N,233GM000LN,HLN,0,50,50,136,,,1.238,553.5492730477436,553.8825967801968,553.8992705316505,554.1825819484893,554.2158953517173,None,down,2.4668316031893482,554.2158953517173,None,554.2158953517173,555.4325548011693,0.07030758575456275,None,,,,,,,,,31,001,2019_Dec_25_1257,untitled,3.1.0,59.99213492953721,
431,_4,M,270,L,N,431_4M270LN,HLN,0,51,51,174,,,0.9,556.7658649599616,557.0992019350088,557.1158710515556,557.3991927314055,557.4325349372775,None,down,2.7169401924675185,557.4325349372775,None,557.4325349372775,558.3158405273734,0.07493024462928588,None,,,,,,,,,31,001,2019_Dec_25_1257,untitled,3.1.0,59.99213492953721,
299,_2,M,90,L,N,299_2M090LN,HLN,0,52,52,154,,,1.24,560.2324631624124,560.5657653756462,560.582456673541,560.8657896095956,560.8991146000935,None,None,,560.8991146000935,None,560.8991146000935,562.1157561720429,0.0583902433863841,None,,,,,,,,,31,001,2019_Dec_25_1257,untitled,3.1.0,59.99213492953721,
173,F,M,180,L,N,173FM180LN,HLN,0,53,53,124,,,0.867,564.4323809921098,564.7656997585891,564.7823658955513,565.0656647319247,565.0990066067316,564.4323809921098,up,2.800151693927546,565.0990066067316,None,565.0990066067316,565.9489865441992,0.06941205526527483,None,,,,,,,,,31,001,2019_Dec_25_1257,untitled,3.1.0,59.99213492953721,
493,_5,M,180,L,N,493_5M180LN,HLN,0,54,54,188,,,0.708,568.0156176544988,568.3156193760369,568.3322841887402,568.6155856736314,568.6489156301031,None,up,1.9168408067926066,568.6489156301031,None,568.6489156301031,569.3322623384574,0.10651482707180548,None,,,,,,,,,31,001,2019_Dec_25_1257,untitled,3.1.0,59.99213492953721,
451,_5,N,90,R,N,451_5N090RN,HRN,0,55,55,274,,,0.706,570.6822349924987,570.9822281063498,570.9988783521985,571.2822016873724,571.3155385962054,None,up,2.0334875433527486,571.3155385962054,None,571.3155385962054,571.9988439214503,0.09349603185546584,None,,,,,,,,,31,001,2019_Dec_25_1257,untitled,3.1.0,59.99213492953721,
_,_5,M,0,_,_,__5M000__,N,0,56,56,40,,,1.216,573.4488299505138,573.7655001264684,573.7821642770414,574.065458147441,574.0988030018325,None,down,3.233469930702995,574.0988030018325,None,574.0988030018325,575.2821033611035,0.07482960090783308,None,,,,,,,,,31,001,2019_Dec_25_1257,untitled,3.1.0,59.99213492953721,
_,_4,M,0,_,_,__4M000__,N,0,57,57,32,,,0.969,577.4320889928877,577.748743608794,577.7654107389517,578.0487367226433,578.0820703208283,None,down,2.083470394190954,578.0820703208283,None,578.0820703208283,579.0320546945677,0.07422739389585331,None,,,,,,,,,31,001,2019_Dec_25_1257,untitled,3.1.0,59.99213492953721,
487,_5,N,270,L,N,487_5N270LN,HLN,0,58,58,286,,,0.9470000000000001,580.2486820307258,580.5820143708643,580.5986828252826,580.8819743782278,580.9153278403064,None,up,2.0668188240852032,580.9153278403064,None,580.9153278403064,581.8319898720638,0.07582743044804374,None,,,,,,,,,31,001,2019_Dec_25_1257,untitled,3.1.0,59.99213492953721,
_,F,N,225,_,_,_FN225__,N,0,59,59,53,,,0.893,583.0652823519922,583.3986021116652,583.4152510332551,583.6986137651493,583.7319414041667,None,up,2.1502945153133624,583.7319414041667,None,583.7319414041667,584.5819170377908,0.07390592990122968,None,,,,,,,,,31,001,2019_Dec_25_1257,untitled,3.1.0,59.99213492953721,
292,_2,N,135,L,N,292_2N135LN,HLN,0,60,60,251,,,1.333,585.9818986967966,586.2985788046972,586.3152287194807,586.5985305354388,586.6318528774173,None,None,,586.6318528774173,None,586.6318528774173,587.948521729113,0.07464519777204259,None,,,,,,,,,31,001,2019_Dec_25_1257,untitled,3.1.0,59.99213492953721,
496,_5,M,315,L,N,496_5M315LN,HLN,0,61,61,191,,,1.2530000000000001,590.1651245664707,590.4984592240635,590.515128009547,590.7984566417581,590.831752829612,590.1651245664707,down,2.8169687964746117,590.831752829612,None,590.831752829612,592.0484285012444,0.05832833425301942,None,,,,,,,,,31,001,2019_Dec_25_1257,untitled,3.1.0,59.99213492953721,
_,_4,N,225,_,_,__4N225__,N,0,62,62,85,,,1.336,593.7150541158662,594.065083382,594.0817468704445,594.3650467000116,594.3983763254182,None,up,2.7335553454395267,594.3983763254182,None,594.3983763254182,595.714969032193,0.0557642367821245,None,,,,,,,,,31,001,2019_Dec_25_1257,untitled,3.1.0,59.99213492953721,
426,_4,M,45,L,N,426_4M045LN,HLN,0,63,63,169,,,0.717,597.2149826058521,597.5482921025141,597.5649645297108,597.8482895202087,597.8816108689934,None,down,1.9503270258865086,597.8816108689934,None,597.8816108689934,598.5649446658172,0.0634767241517693,None,,,,,,,,,31,001,2019_Dec_25_1257,untitled,3.1.0,59.99213492953721,
_,_4,N,270,_,_,__4N270__,N,0,64,64,86,,,1.381,599.8982518450248,600.2482486668032,600.2649316880743,600.5482384700044,600.5815737235134,None,down,2.2667800232811715,600.5815737235134,None,600.5815737235134,601.931519892365,0.05720668644971738,None,,,,,,,,,31,001,2019_Dec_25_1257,untitled,3.1.0,59.99213492953721,
045,R,M,180,L,N,045RM180LN,HLN,0,65,65,108,,,1.1260000000000001,602.9315268447281,603.2648452801404,603.2815107549741,603.564839387187,603.5981739785657,None,down,3.38344728586344,603.5981739785657,None,603.5981739785657,604.6814619560118,0.06947859930369304,None,,,,,,,,,31,001,2019_Dec_25_1257,untitled,3.1.0,59.99213492953721,
009,R,M,0,R,N,009RM000RN,HRN,0,66,66,96,,,0.976,607.0814330209414,607.3980942581438,607.414755429134,607.6980479752747,607.7313928296644,None,down,2.100122626430675,607.7313928296644,None,607.7313928296644,608.6813828315062,0.08485788709185726,None,,,,,,,,,31,001,2019_Dec_25_1257,untitled,3.1.0,59.99213492953721,
483,_5,N,90,L,N,483_5N090LN,HLN,0,67,67,282,,,1.327,609.9313676025213,610.2480248669453,610.2646923281682,610.5479981169046,610.5813144997155,None,up,2.0501559977710713,610.5813144997155,None,610.5813144997155,611.8646275718784,0.07778435493310099,None,,,,,,,,,31,001,2019_Dec_25_1257,untitled,3.1.0,59.99213492953721,
391,_4,N,270,R,N,391_4N270RN,HRN,0,68,68,262,,,0.773,612.7979746112978,613.081303243509,613.081303243509,613.3479571310727,613.3813013233339,None,up,1.6334502654481184,613.3813013233339,None,613.3813013233339,614.1312801351814,0.1432246248696174,None,,,,,,,,,31,001,2019_Dec_25_1257,untitled,3.1.0,59.99213492953721,
161,F,N,0,L,N,161FN000LN,HLN,0,69,69,216,,,0.903,615.1312526567963,615.4312470949062,615.4479291229836,615.7312130614373,615.7645691720336,None,up,2.7001336839966825,615.7645691720336,None,615.7645691720336,616.6478254334634,0.09557644354208605,None,,,,,,,,,31,001,2019_Dec_25_1257,untitled,3.1.0,59.99213492953721,
232,G,N,315,L,N,232GN315LN,HLN,0,70,70,239,,,1.165,618.5478008022365,618.8811679041883,618.8978337100853,619.1811514171568,619.2144727659415,None,up,2.600149442685506,619.2144727659415,None,619.2144727659415,620.3644679986082,0.07458428183417709,None,,,,,,,,,31,001,2019_Dec_25_1257,untitled,3.1.0,59.99213492953721,
_,_4,M,180,_,_,__4M180__,N,0,71,71,36,,,0.723,621.8977665039165,622.2310981819246,622.2477610082387,622.5310869919322,622.5644109892364,None,up,2.133492641753037,622.5644109892364,None,622.5644109892364,623.2477388268926,0.0750570424770558,None,,,,,,,,,31,001,2019_Dec_25_1257,untitled,3.1.0,59.99213492953721,
197,G,N,180,R,N,197GN180RN,HRN,0,72,72,228,,,1.381,624.7810177993724,625.1143647063654,625.1310288569402,625.4143227273398,625.4477016814126,None,up,3.233449735744216,625.4477016814126,None,625.4477016814126,626.797674666519,0.058110824629693525,None,,,,,,,,,31,001,2019_Dec_25_1257,untitled,3.1.0,59.99213492953721,
_,_4,N,45,_,_,__4N045__,N,0,73,73,81,,,1.288,628.7642897532787,629.0975668055817,629.114241881296,629.3976013025422,629.4309494675817,None,up,2.7501165348367067,629.4309494675817,None,629.4309494675817,630.6809239755876,0.06831854797565029,None,,,,,,,,,31,001,2019_Dec_25_1257,untitled,3.1.0,59.99213492953721,
_,_4,M,90,_,_,__4M090__,N,0,74,74,34,,,0.745,632.2641940755293,632.597531712705,632.6141978496689,632.89752648188,632.930878619698,None,down,2.2334520531985618,632.930878619698,None,632.930878619698,633.6474983413664,0.06741176127979998,None,,,,,,,,,31,001,2019_Dec_25_1257,untitled,3.1.0,59.99213492953721,
432,_4,M,315,L,N,432_4M315LN,HLN,0,75,75,175,,,1.0210000000000001,635.2474792720295,635.5807967142482,635.5974654997299,635.8807904902278,635.9141303786455,None,up,2.2834656930717756,635.9141303786455,None,635.9141303786455,636.8974152440824,0.0708389448827802,None,,,,,,,,,31,001,2019_Dec_25_1257,untitled,3.1.0,59.99213492953721,
141,F,M,180,R,N,141FM180RN,HRN,0,76,76,116,,,1.249,638.2807466572394,638.6140498636687,638.6307100414633,638.9140654899311,638.9473884940398,None,up,2.4335112475982896,638.9473884940398,None,638.9473884940398,640.1639979526954,0.0712007987931429,None,,,,,,,,,31,001,2019_Dec_25_1257,untitled,3.1.0,59.99213492953721,
035,R,N,90,L,N,035RN090LN,HLN,0,77,77,202,,,0.886,641.4639996742335,641.7973373114091,641.8139815980903,642.0973002983574,642.1306434974231,None,up,2.899995232664878,642.1306434974231,None,642.1306434974231,642.9806002603509,0.07215525883293594,None,,,,,,,,,31,001,2019_Dec_25_1257,untitled,3.1.0,59.99213492953721,
_,_5,M,315,_,_,__5M315__,N,0,78,78,47,,,1.349,645.097260570572,645.4472904988361,645.4639215429215,645.7472147511926,645.7805437144689,None,down,3.0668515995075722,645.7805437144689,None,645.7805437144689,647.0971867431035,0.05498623432140448,None,,,,,,,,,31,001,2019_Dec_25_1257,untitled,3.1.0,59.99213492953721,
293,_2,N,180,L,N,293_2N180LN,HLN,0,79,79,252,,,1.016,648.9471653563123,649.2638275867102,649.2804967032571,649.5638243422745,649.5971566162007,None,up,2.2336205652209173,649.5971566162007,None,649.5971566162007,650.5804613455275,0.0769540442233847,None,,,,,,,,,31,001,2019_Dec_25_1257,untitled,3.1.0,59.99213492953721,
_,_4,M,225,_,_,__4M225__,N,0,80,80,37,,,1.196,651.8970884830487,652.2470962299667,652.2637636911895,652.547091330207,652.5804100304722,None,down,2.8334793329449894,652.5804100304722,None,652.5804100304722,653.7637117140039,0.05661639777645178,None,,,,,,,,,31,001,2019_Dec_25_1257,untitled,3.1.0,59.99213492953721,
262,_2,N,225,R,N,262_2N225RN,HRN,0,81,81,245,,,1.234,655.4970260442133,655.8303100488793,655.8470182310812,656.1303442147746,656.1636768197659,None,up,2.550147390084021,656.1636768197659,None,656.1636768197659,657.3802856162911,0.05817438908707118,None,,,,,,,,,31,001,2019_Dec_25_1257,untitled,3.1.0,59.99213492953721,
494,_5,M,225,L,N,494_5M225LN,HLN,0,82,82,189,,,1.175,658.7969443374004,659.1302889269409,659.1469514221899,659.4302717777791,659.4636133215226,None,down,2.8667940604318574,659.4636133215226,None,659.4636133215226,660.6135691574673,0.0741108590609656,None,,,,,,,,,31,001,2019_Dec_25_1257,untitled,3.1.0,59.99213492953721,
_,_2,M,135,_,_,__2M135__,N,0,83,83,27,,,0.769,662.4135390967767,662.7468654777476,662.7635309525813,663.0468380655748,663.0801759676033,None,up,2.600216648856076,663.0801759676033,None,663.0801759676033,663.8301302806503,0.0735321576557908,None,,,,,,,,,31,001,2019_Dec_25_1257,untitled,3.1.0,59.99213492953721,
_,F,M,270,_,_,_FM270__,N,0,84,84,6,,,0.904,665.7634379233496,666.096792444836,666.1134572575393,666.3967815859069,666.4301396828942,None,down,3.000238697775785,666.4301396828942,None,666.4301396828942,667.3134088558545,0.0659918240216939,None,,,,,,,,,31,001,2019_Dec_25_1257,untitled,3.1.0,59.99213492953721,
136,F,N,315,R,N,136FN315RN,HRN,0,85,85,215,,,0.8260000000000001,669.5133866082942,669.8467090164868,669.8633728359946,670.1466676995897,670.1799960007374,None,down,2.2668263723644486,670.1799960007374,None,670.1799960007374,670.963338868738,0.06718100905891333,None,,,,,,,,,31,001,2019_Dec_25_1257,untitled,3.1.0,59.99213492953721,
298,_2,M,45,L,N,298_2M045LN,HLN,0,86,86,153,,,1.285,672.513299869297,672.8633148996414,672.8799727599835,673.1633242356711,673.196637307834,None,up,2.733461654079292,673.196637307834,None,673.196637307834,674.4466061877356,0.05604994577151956,None,,,,,,,,,31,001,2019_Dec_25_1257,untitled,3.1.0,59.99213492953721,
_,_5,M,90,_,_,__5M090__,N,0,87,87,42,,,0.882,676.0298944962451,676.3465640100712,676.3632308091637,676.6465236863678,676.6798536428396,None,down,2.183494032226008,676.6798536428396,None,676.6798536428396,677.5298378841526,0.0761303548097203,None,,,,,,,,,31,001,2019_Dec_25_1257,untitled,3.1.0,59.99213492953721,
495,_5,M,270,L,N,495_5M270LN,HLN,0,88,88,190,,,1.2690000000000001,678.9465237525819,679.279831924985,679.2965089870886,679.5798452337931,679.6131592991496,None,down,3.2668919232091866,679.6131592991496,None,679.6131592991496,680.8630712358918,0.07220392536873987,None,,,,,,,,,31,001,2019_Dec_25_1257,untitled,3.1.0,59.99213492953721,
225,G,N,0,L,N,225GN000LN,HLN,0,89,89,232,,,1.26,682.9797623351478,683.2963944386411,683.313055278566,683.5963958291122,683.6297052595619,None,up,2.3502087032975396,683.6297052595619,None,683.6297052595619,684.846356432392,0.07732285049496568,None,,,,,,,,,31,001,2019_Dec_25_1257,untitled,3.1.0,59.99213492953721,
453,_5,N,180,R,N,453_5N180RN,HRN,0,90,90,276,,,0.711,686.0796826809383,686.396340938556,686.4130117104269,686.6963026012436,686.7296537458678,None,up,2.0502357844052312,686.7296537458678,None,686.7296537458678,687.4129690030586,0.08126947489108716,None,,,,,,,,,31,001,2019_Dec_25_1257,untitled,3.1.0,59.99213492953721,
165,F,N,180,L,N,165FN180LN,HLN,0,91,91,220,,,0.966,688.8629616534181,689.1962807509626,689.2129353006549,689.4962467174919,689.5296051455443,None,up,2.45013004228349,689.5296051455443,None,689.5296051455443,690.4795666758055,0.07056449209994753,None,,,,,,,,,31,001,2019_Dec_25_1257,untitled,3.1.0,59.99213492953721,
454,_5,N,225,R,N,454_5N225RN,HRN,0,92,92,277,,,1.09,692.0628642541324,692.3962095057996,692.4128749806332,692.6961870596024,692.7295236373702,None,up,1.9169752191319276,692.7295236373702,None,692.7295236373702,693.7795018533016,0.0588249315678695,None,,,,,,,,,31,001,2019_Dec_25_1257,untitled,3.1.0,59.99213492953721,
394,_4,M,45,R,N,394_4M045RN,HRN,0,93,93,161,,,1.24,694.7294845717151,695.0627963858315,695.0794638470543,695.3628096946395,695.3961383268525,None,down,2.066980714807869,695.3961383268525,None,695.3961383268525,696.6127467923125,0.05763773291982943,None,,,,,,,,,31,001,2019_Dec_25_1257,untitled,3.1.0,59.99213492953721,
238,G,M,225,L,N,238GM225LN,HLN,0,94,94,141,,,1.125,697.5461113781712,697.8794122671461,697.8960618508645,698.1793802200664,698.2127277229756,None,down,2.8667771761211043,698.2127277229756,None,698.2127277229756,699.2960547660768,0.07079160260582285,None,,,,,,,,,31,001,2019_Dec_25_1257,untitled,3.1.0,59.99213492953721,
137,F,M,0,R,N,137FM000RN,HRN,0,95,95,112,,,1.078,701.1459893476567,701.4960066954573,701.5126731634846,701.7959670338842,701.8293138746649,None,down,2.3501530844005174,701.8293138746649,None,701.8293138746649,702.8793324805101,0.05805123295249359,None,,,,,,,,,31,001,2019_Dec_25_1257,untitled,3.1.0,59.99213492953721,
398,_4,M,225,R,N,398_4M225RN,HRN,0,96,96,165,,,1.026,704.2792813640935,704.5959416081023,704.6125961577945,704.8959148580598,704.9292686512035,None,down,2.8667775071880897,704.9292686512035,None,704.9292686512035,705.9125766911802,0.07763504467402527,None,,,,,,,,,31,001,2019_Dec_25_1257,untitled,3.1.0,59.99213492953721,
420,_4,N,135,L,N,420_4N135LN,HLN,0,97,97,267,,,0.759,707.8791765489532,708.2125204763634,708.2291942278189,708.5125000165535,708.545851492243,None,up,1.6169966721354285,708.545851492243,None,708.545851492243,709.2625033272034,0.07301106153863657,None,,,,,,,,,31,001,2019_Dec_25_1257,untitled,3.1.0,59.99213492953721,
385,_4,N,0,R,N,385_4N000RN,HRN,0,98,98,256,,,1.08,710.2791376819368,710.5791420519945,710.595781703767,710.8791268892219,710.9124647912504,None,up,2.1501375905627356,710.9124647912504,None,710.9124647912504,711.9624092385657,0.10460094101836148,None,,,,,,,,,31,001,2019_Dec_25_1257,untitled,3.1.0,59.99213492953721,
260,_2,N,135,R,N,260_2N135RN,HRN,0,99,99,243,,,1.194,713.1290709392579,713.4790776929822,713.4957425056855,713.7790615370159,713.8124024186291,None,up,2.566824452185756,713.8124024186291,None,713.8124024186291,714.9957186690135,0.05750166525649547,None,,,,,,,,,31,001,2019_Dec_25_1257,untitled,3.1.0,59.99213492953721,
228,G,N,135,L,N,228GN135LN,HLN,0,100,100,235,,,1.3940000000000001,716.4456848341833,716.7956363000721,716.8123256115778,717.0956880124068,717.1289832070652,None,up,2.5834826435930154,717.1289832070652,None,717.1289832070652,718.5122977359151,0.05667698264915089,None,,,,,,,,,31,001,2019_Dec_25_1257,untitled,3.1.0,59.99213492953721,
_,R,M,45,_,_,_RM045__,N,0,101,101,17,,,0.857,719.7956048489086,720.1289206358051,720.1456198792548,720.4288965342821,720.4622516516829,None,down,1.9669686640463624,720.4622516516829,None,720.4622516516829,721.2789344081029,0.07273991940564883,None,,,,,,,,,31,001,2019_Dec_25_1257,untitled,3.1.0,59.99213492953721,
240,G,M,315,L,N,240GM315LN,HLN,0,102,102,143,,,0.851,722.5122146386311,722.8455380400173,722.8622025216555,723.1455463828515,723.1788948789563,None,down,2.416761351221794,723.1788948789563,None,723.1788948789563,723.9955230096712,0.06846520971521386,None,,,,,,,,,31,001,2019_Dec_25_1257,untitled,3.1.0,59.99213492953721,
003,R,N,90,R,N,003RN090RN,HRN,0,103,103,194,,,0.747,725.7287707958403,726.0287996646985,726.0287996646985,726.312119027094,726.3454572601877,None,up,1.6334757574422838,726.3454572601877,None,726.3454572601877,727.0621127368613,0.11544662638334557,None,,,,,,,,,31,001,2019_Dec_25_1257,untitled,3.1.0,59.99213492953721,
132,F,N,135,R,N,132FN135RN,HRN,0,104,104,211,,,0.917,728.0787447741423,728.3953782018943,728.4120546018694,728.6953723089391,728.7287025964761,None,up,1.9668474943027832,728.7287025964761,None,728.7287025964761,729.6120194427785,0.07858520087029319,None,,,,,,,,,31,001,2019_Dec_25_1257,untitled,3.1.0,59.99213492953721,
427,_4,M,90,L,N,427_4M090LN,HLN,0,105,105,170,,,0.88,730.7786947171317,731.1120191117134,731.1286882282602,731.4120115634341,731.4453438373603,None,down,2.11684570655234,731.4453438373603,None,731.4453438373603,732.2952979517686,0.05745796469273046,None,,,,,,,,,31,001,2019_Dec_25_1257,untitled,3.1.0,59.99213492953721,
001,R,N,0,R,N,001RN000RN,HRN,0,106,106,192,,,1.048,733.6286283055179,733.9786261204899,733.9953038447238,734.2785821550751,734.3119309822432,None,down,1.950179370949627,734.3119309822432,None,734.3119309822432,735.3285732825352,0.05795025816405541,None,,,,,,,,,31,001,2019_Dec_25_1257,untitled,3.1.0,59.99213492953721,
272,_2,M,315,R,N,272_2M315RN,HRN,0,107,107,151,,,0.9530000000000001,736.3785670585166,736.6785634830158,736.6952405451193,736.9785562658017,737.0118911882455,None,up,2.3668178971020097,737.0118911882455,None,737.0118911882455,737.9285270658784,0.10722694762262108,None,,,,,,,,,31,001,2019_Dec_25_1257,untitled,3.1.0,59.99213492953721,
261,_2,N,180,R,N,261_2N180RN,HRN,0,108,108,244,,,0.936,739.4618391448475,739.7951592355857,739.8118121299522,740.0951205672081,740.1284637662739,None,up,2.4833467745665985,740.1284637662739,None,740.1284637662739,741.0451334125246,0.059203007656833506,None,,,,,,,,,31,001,2019_Dec_25_1257,untitled,3.1.0,59.99213492953721,
_,G,M,315,_,_,_GM315__,N,0,109,109,15,,,0.98,742.6951048085193,743.0284229128683,743.0450811042738,743.3284170199131,743.3617532666176,None,down,2.100173610420825,743.3617532666176,None,743.3617532666176,744.3117287016048,0.06843276535801124,None,,,,,,,,,31,001,2019_Dec_25_1257,untitled,3.1.0,59.99213492953721,
039,R,N,270,L,N,039RN270LN,HLN,0,110,110,206,,,0.964,745.545027140699,745.8783240568955,745.894967350383,746.1783416695471,746.2116666600468,None,up,1.8668460376175062,746.2116666600468,None,746.2116666600468,747.1616463988757,0.07522555449941137,None,,,,,,,,,31,001,2019_Dec_25_1257,untitled,3.1.0,59.99213492953721,
264,_2,N,315,R,N,264_2N315RN,HRN,0,111,111,247,,,0.902,748.1783244541748,748.494944639333,748.51162600528,748.7949443744801,748.8282279818686,None,down,1.9336751247119537,748.8282279818686,None,748.8282279818686,749.7116107100828,0.07649485723959515,None,,,,,,,,,31,001,2019_Dec_25_1257,untitled,3.1.0,59.99213492953721,
235,G,M,90,L,N,235GM090LN,HLN,0,112,112,138,,,1.139,750.8782532090136,751.1782545994847,751.1948952444527,751.4782351328704,751.5115693931857,None,down,2.783475956082839,751.5115693931857,None,751.5115693931857,752.6282111637738,0.09707351891483995,None,,,,,,,,,31,001,2019_Dec_25_1257,untitled,3.1.0,59.99213492953721,
489,_5,M,0,L,N,489_5M000LN,HLN,0,113,113,184,,,0.71,754.3781462750576,754.7114643794066,754.728146407484,755.0114571621925,755.0447854633385,None,down,1.8835300520822784,755.0447854633385,None,755.0447854633385,755.7281434278993,0.0708829765117116,None,,,,,,,,,31,001,2019_Dec_25_1257,untitled,3.1.0,59.99213492953721,
_,_2,M,225,_,_,__2M225__,N,0,114,114,29,,,0.728,757.0114180965375,757.3447732801524,757.3614384239208,757.6447561309906,757.6781003232518,None,down,2.4667915443387756,757.6781003232518,None,757.6781003232518,758.3947150789463,0.07295643583529454,None,,,,,,,,,31,001,2019_Dec_25_1257,untitled,3.1.0,59.99213492953721,
_,_5,M,45,_,_,__5M045__,N,0,115,115,41,,,0.9530000000000001,760.2280451016304,760.5613708204728,760.5780343089154,760.8613612858044,760.894694221859,None,down,3.3336289742692315,760.894694221859,None,760.894694221859,761.8113330790766,0.07054462820815388,None,,,,,,,,,31,001,2019_Dec_25_1257,untitled,3.1.0,59.99213492953721,
_,_4,N,135,_,_,__4N135__,N,0,116,116,83,,,1.093,764.3113065938869,764.6446114556402,764.661302422468,764.9445694766146,764.9779010884104,None,up,2.150284914432632,764.9779010884104,None,764.9779010884104,766.0278846013789,0.07029235677146062,None,,,,,,,,,31,001,2019_Dec_25_1257,untitled,3.1.0,59.99213492953721,
481,_5,N,0,L,N,481_5N000LN,HLN,0,117,117,280,,,1.252,767.1945555718885,767.544547427693,767.5612145578507,767.8445514666837,767.877875463988,None,up,2.333486616371374,767.877875463988,None,767.877875463988,769.0944958477849,0.05542092250470887,None,,,,,,,,,31,001,2019_Dec_25_1257,untitled,3.1.0,59.99213492953721,
_,R,N,270,_,_,_RN270__,N,0,118,118,70,,,1.367,770.2944875049507,770.6278145480501,770.6444896237663,770.9278046823183,770.9611379494381,None,up,2.2668280276866426,770.9611379494381,None,770.9611379494381,772.3111086170902,0.07182551821642846,None,,,,,,,,,31,001,2019_Dec_25_1257,untitled,3.1.0,59.99213492953721,
204,G,M,135,R,N,204GM135RN,HRN,0,119,119,131,,,1.162,773.294428575402,773.6444121545846,773.6610792847423,773.9444062616294,773.9777372112949,None,down,3.316760556665031,773.9777372112949,None,773.9777372112949,775.1276615960778,0.05746822770379367,None,,,,,,,,,31,001,2019_Dec_25_1257,untitled,3.1.0,59.99213492953721,
_,G,N,135,_,_,_GN135__,N,0,120,120,59,,,1.336,777.377689074463,777.7109667888963,777.7276319326647,778.0109810908998,778.0443143580196,None,down,2.20016943900373,778.0443143580196,None,778.0443143580196,779.3609183209992,0.07496467537748686,None,,,,,,,,,31,001,2019_Dec_25_1257,untitled,3.1.0,59.99213492953721,
418,_4,N,45,L,N,418_4N045LN,HLN,0,121,121,265,,,1.133,780.344267081955,780.6609197114703,780.6775911454715,780.9609194466193,780.994252382674,None,up,2.7001353393206955,780.994252382674,None,780.994252382674,782.1108660127484,0.07534705530997599,None,,,,,,,,,31,001,2019_Dec_25_1257,untitled,3.1.0,59.99213492953721,
042,R,M,45,L,N,042RM045LN,HLN,0,122,122,105,,,0.799,783.7775287066361,784.1108554186721,784.1274867938228,784.4108253579816,784.4441533280642,None,down,1.7501711605418677,784.4441533280642,None,784.4441533280642,785.2274918922212,0.06863603919373418,None,,,,,,,,,31,001,2019_Dec_25_1257,untitled,3.1.0,59.99213492953721,
_,_2,M,315,_,_,__2M315__,N,0,123,123,31,,,1.233,786.2774562034283,786.6107925163451,786.6274477281677,786.9107826506115,786.9441195594463,None,down,2.916821936094493,786.9441195594463,None,786.9441195594463,788.160758151811,0.07105181959923357,None,,,,,,,,,31,001,2019_Dec_25_1257,untitled,3.1.0,59.99213492953721,
257,_2,N,0,R,N,257_2N000RN,HRN,0,124,124,240,,,1.006,789.944054339665,790.2773502626678,790.294014744306,790.5773529773996,790.6106809474823,None,up,1.9668610679618723,790.6106809474823,None,790.6106809474823,791.5939956087568,0.05766554237015953,None,,,,,,,,,31,001,2019_Dec_25_1257,untitled,3.1.0,59.99213492953721,
_,_4,M,270,_,_,__4M270__,N,0,125,125,38,,,1.0,792.6606455897527,792.9939868686433,793.0106434047248,793.2939776650401,793.3273089457707,None,down,2.3501365311549307,793.3273089457707,None,793.3273089457707,794.3105964597253,0.06531049250406795,None,,,,,,,,,31,001,2019_Dec_25_1257,untitled,3.1.0,59.99213492953721,
389,_4,N,180,R,N,389_4N180RN,HRN,0,126,126,260,,,0.979,795.7605636180888,796.093914497862,796.1105826212133,796.3939086049068,796.4272425341569,None,up,2.1168023370519222,796.4272425341569,None,796.4272425341569,797.37720075377,0.06146318757237168,None,,,,,,,,,31,001,2019_Dec_25_1257,untitled,3.1.0,59.99213492953721,
002,R,N,45,R,N,002RN045RN,HRN,0,127,127,193,,,0.8260000000000001,798.6438543102668,798.9605224998322,798.9771856572115,799.2605212417857,799.2938439148293,None,up,2.1000034430762753,799.2938439148293,None,799.2938439148293,800.077161952966,0.07829320164819364,None,,,,,,,,,31,001,2019_Dec_25_1257,untitled,3.1.0,59.99213492953721,
392,_4,N,315,R,N,392_4N315RN,HRN,0,128,128,263,,,0.841,801.4771323557652,801.8104567503469,801.8271169281434,802.1104409254458,802.1437573082585,None,up,1.7834839016395563,802.1437573082585,None,802.1437573082585,802.9604291395372,0.058984835903174826,None,,,,,,,,,31,001,2019_Dec_25_1257,untitled,3.1.0,59.99213492953721,
169,F,M,0,L,N,169FM000LN,HLN,0,129,129,120,,,1.31,804.0270784584045,804.3437337364394,804.3604002044667,804.6437086417209,804.6770382671275,None,down,2.2003276880150224,804.6770382671275,None,804.6770382671275,805.9603380966964,0.07770423723195563,None,,,,,,,,,31,001,2019_Dec_25_1257,untitled,3.1.0,59.99213492953721,
396,_4,M,135,R,N,396_4M135RN,HRN,0,130,130,163,,,0.965,806.9603291579442,807.2936512350716,807.3103001566615,807.5936436867923,807.6269736432641,None,down,2.9001475225104514,807.6269736432641,None,807.6269736432641,808.5769722527912,0.0742664595527458,None,,,,,,,,,31,001,2019_Dec_25_1257,untitled,3.1.0,59.99213492953721,
_,F,N,45,_,_,_FN045__,N,0,131,131,49,,,1.2510000000000001,810.610249569947,810.9435872071244,810.9602533440866,811.2435895907911,811.2769278238848,None,up,2.0834634418297355,811.2769278238848,None,811.2769278238848,812.4935359582814,0.07486866656290658,None,,,,,,,,,31,001,2019_Dec_25_1257,untitled,3.1.0,59.99213492953721,
_,G,M,45,_,_,_GM045__,N,0,132,132,9,,,0.9390000000000001,813.4268535329265,813.7768278422918,813.793524768289,814.0768408200347,814.1101618377561,None,down,2.283323997304251,814.1101618377561,None,814.1101618377561,815.0268318150702,0.058331644901045365,None,,,,,,,,,31,001,2019_Dec_25_1257,untitled,3.1.0,59.99213492953721,
046,R,M,225,L,N,046RM225LN,HLN,0,133,133,109,,,1.054,816.4767787784767,816.8101190641737,816.8267918224337,817.1100962869095,817.1434199531486,None,up,2.8334859542410413,817.1434199531486,None,817.1434199531486,818.1600797998781,0.0626530347381049,None,,,,,,,,,31,001,2019_Dec_25_1257,untitled,3.1.0,59.99213492953721,
295,_2,N,270,L,N,295_2N270LN,HLN,0,134,134,254,,,1.2610000000000001,820.0600419260572,820.3933457946168,820.41003378186,820.6933716838903,820.7266979986471,None,up,2.43350065352206,820.7266979986471,None,820.7266979986471,821.976640393359,0.07250155269503011,None,,,,,,,,,31,001,2019_Dec_25_1257,untitled,3.1.0,59.99213492953721,
016,R,M,315,R,N,016RM315RN,HRN,0,135,135,103,,,0.856,823.2599835924248,823.5766329112921,823.5933069938128,823.8766061612514,823.9099394283712,None,down,1.9502879602296161,823.9099394283712,None,823.9099394283712,824.7265821259407,0.08095694964868017,None,,,,,,,,,31,001,2019_Dec_25_1257,untitled,3.1.0,59.99213492953721,
013,R,M,180,R,N,013RM180RN,HRN,0,136,136,100,,,0.7010000000000001,826.0099021504666,826.3099147971443,826.3099147971443,826.5765484897493,826.6099026139564,None,None,,826.6099026139564,None,826.6099026139564,827.2931725152594,0.1389846769925498,None,,,,,,,,,31,001,2019_Dec_25_1257,untitled,3.1.0,59.99213492953721,
294,_2,N,225,L,N,294_2N225LN,HLN,0,137,137,253,,,1.231,830.1264995583606,830.4764771783739,830.4931204718614,830.7764613534728,830.8097999176316,830.1264995583606,up,2.7168233265656454,830.8097999176316,None,830.8097999176316,832.0264259295309,0.058164788204521756,None,,,,,,,,,31,001,2019_Dec_25_1257,untitled,3.1.0,59.99213492953721,
_,F,N,270,_,_,_FN270__,N,0,138,138,54,,,0.803,833.609739398973,833.9430773672138,833.9597375450085,834.2430307532795,834.2763994443412,None,up,2.1834390754538617,834.2763994443412,None,834.2763994443412,835.0596926526123,0.06433418218330189,None,,,,,,,,,31,001,2019_Dec_25_1257,untitled,3.1.0,59.99213492953721,
258,_2,N,45,R,N,258_2N045RN,HRN,0,139,139,241,,,0.753,836.526361702945,836.8763442889322,836.8930051288571,837.1763407134331,837.2096935133814,None,up,1.91679247132015,837.2096935133814,None,837.2096935133814,837.9263221738001,0.057472531547318795,None,,,,,,,,,31,001,2019_Dec_25_1257,untitled,3.1.0,59.99213492953721,
269,_2,M,180,R,N,269_2M180RN,HRN,0,140,140,148,,,1.2570000000000001,839.2096329285087,839.542955005636,839.5596198183393,839.8429471262916,839.8762797312829,None,down,2.650130307136351,839.8762797312829,None,839.8762797312829,841.0928858792886,0.06887010206082778,None,,,,,,,,,31,001,2019_Dec_25_1257,untitled,3.1.0,59.99213492953721,
_,_5,N,270,_,_,__5N270__,N,0,141,141,94,,,0.785,842.60956956269,842.942887667039,842.9595471827051,843.2428536335701,843.2762117305556,None,up,2.3834578799396695,843.2762117305556,None,843.2762117305556,844.0261935219878,0.07309084817461553,None,,,,,,,,,31,001,2019_Dec_25_1257,untitled,3.1.0,59.99213492953721,
_,G,M,180,_,_,_GM180__,N,0,142,142,12,,,1.312,845.7261368436812,846.0761323411989,846.0927743104257,846.3761029426387,846.4094322369801,None,down,2.9668286236046697,846.4094322369801,None,846.4094322369801,847.6927651730348,0.0540999736476806,None,,,,,,,,,31,001,2019_Dec_25_1257,untitled,3.1.0,59.99213492953721,
230,G,N,225,L,N,230GN225LN,HLN,0,143,143,237,,,0.762,849.442743653819,849.7927202806386,849.809395356353,850.0926862471679,850.1260297773006,None,up,2.016829351947308,850.1260297773006,None,850.1260297773006,850.876035405403,0.057421216492002713,None,,,,,,,,,31,001,2019_Dec_25_1257,untitled,3.1.0,59.99213492953721,
202,G,M,45,R,N,202GM045RN,HRN,0,144,144,129,,,0.745,852.2093213964581,852.5593324540259,852.5759989220533,852.8593206019032,852.8926601592557,None,down,2.650128651812338,852.8926601592557,None,852.8926601592557,853.609288157546,0.05726362961104314,None,,,,,,,,,31,001,2019_Dec_25_1257,untitled,3.1.0,59.99213492953721,
_,R,M,0,_,_,_RM000__,N,0,145,145,16,,,0.981,855.6259380723295,855.9592627979764,855.9759236379014,856.2592327372859,856.2925858682975,None,down,2.1001279234678805,856.2925858682975,None,856.2925858682975,857.2425434257802,0.07189437970919244,None,,,,,,,,,31,001,2019_Dec_25_1257,untitled,3.1.0,59.99213492953721,
456,_5,N,315,R,N,456_5N315RN,HRN,0,146,146,279,,,1.094,858.4758375610327,858.8091947310368,858.8258618611944,859.1091861895638,859.142503234505,None,up,2.133484365129334,859.142503234505,None,859.142503234505,860.2258319329303,0.07019171304818883,None,,,,,,,,,31,001,2019_Dec_25_1257,untitled,3.1.0,59.99213492953721,
_,_5,N,0,_,_,__5N000__,N,0,147,147,88,,,0.927,861.3758076327686,861.6924506614014,861.7091105081327,861.9924229181652,862.025778366633,None,up,1.8834813855464745,862.025778366633,None,862.025778366633,862.9090789907568,0.07700237969402224,None,,,,,,,,,31,001,2019_Dec_25_1257,untitled,3.1.0,59.99213492953721,
_,R,N,225,_,_,_RN225__,N,0,148,148,69,,,1.051,863.9923951087167,864.3257327458923,864.3423872955846,864.6256990434886,864.6590415804258,None,up,2.100167982318453,864.6590415804258,None,864.6590415804258,865.6757150008161,0.058796128923859214,None,,,,,,,,,31,001,2019_Dec_25_1257,untitled,3.1.0,59.99213492953721,
005,R,N,180,R,N,005RN180RN,HRN,0,149,149,196,,,1.077,866.8423634589144,867.1756967922465,867.1923410789277,867.4756597791929,867.5090016540016,None,up,1.900152157417324,867.5090016540016,None,867.5090016540016,868.5589441149259,0.07256511715058878,None,,,,,,,,,31,001,2019_Dec_25_1257,untitled,3.1.0,59.99213492953721,
_,F,M,135,_,_,_FM135__,N,0,150,150,3,,,1.124,869.4922842019823,869.8256112450836,869.8422830101481,870.1256106491655,870.1589429230917,None,down,3.2834521194108675,870.1589429230917,None,870.1589429230917,871.2422603653104,0.0735427517320204,None,,,,,,,,,31,001,2019_Dec_25_1257,untitled,3.1.0,59.99213492953721,
428,_4,M,135,L,N,428_4M135LN,HLN,0,151,151,171,,,1.01,873.5255260951963,873.8588908796937,873.8755278829467,874.1588409551096,874.1921656145441,None,up,3.183474499397562,874.1921656145441,None,874.1921656145441,875.1754643847034,0.07493156888995145,None,,,,,,,,,31,001,2019_Dec_25_1257,untitled,3.1.0,59.99213492953721,
_,_5,N,315,_,_,__5N315__,N,0,152,152,95,,,1.198,877.475451539387,877.7921094659396,877.8087736165144,878.0920817227034,878.125419955797,None,up,2.3168578897384577,878.125419955797,None,878.125419955797,879.3087295848854,0.07905498193031235,None,,,,,,,,,31,001,2019_Dec_25_1257,untitled,3.1.0,59.99213492953721,
_,G,N,45,_,_,_GN045__,N,0,153,153,57,,,0.937,880.5253665219261,880.8587061454928,880.8753752620378,881.1586674771152,881.1920209391919,None,up,2.766804853145004,881.1920209391919,None,881.1920209391919,882.1086680730314,0.06689662433018384,None,,,,,,,,,31,001,2019_Dec_25_1257,untitled,3.1.0,59.99213492953721,
464,_5,M,315,R,N,464_5M315RN,HRN,0,154,154,183,,,0.708,884.0586378799144,884.3752779289644,884.391963598755,884.6752935552267,884.7086023235461,None,down,1.8834926417512179,884.7086023235461,None,884.7086023235461,885.3919341339806,0.08088543963458505,None,,,,,,,,,31,001,2019_Dec_25_1257,untitled,3.1.0,59.99213492953721,
_,_5,N,135,_,_,__5N135__,N,0,155,155,91,,,1.284,886.6919153294966,887.008569614336,887.025237406624,887.3085680252261,887.3418900361394,None,up,2.8168804021515825,887.3418900361394,None,887.3418900361394,888.5918499772906,0.07682327359543706,None,,,,,,,,,31,001,2019_Dec_25_1257,untitled,3.1.0,59.99213492953721,
176,F,M,315,L,N,176FM315LN,HLN,0,156,156,127,,,1.2550000000000001,890.2918154803301,890.5751586793958,890.5918238231643,890.8751438476902,890.9084751284208,None,down,3.0667920078285533,890.9084751284208,None,890.9084751284208,892.1251057752288,0.11111861524841515,None,,,,,,,,,31,001,2019_Dec_25_1257,untitled,3.1.0,59.99213492953721,
_,F,N,90,_,_,_FN090__,N,0,157,157,50,,,1.365,894.0750755821118,894.3917282116272,894.4083791196063,894.6917133799216,894.7250370461607,None,up,2.4001654000112467,894.7250370461607,None,894.7250370461607,896.0750037410344,0.0801769607969618,None,,,,,,,,,31,001,2019_Dec_25_1257,untitled,3.1.0,59.99213492953721,
270,_2,M,225,R,N,270_2M225RN,HRN,0,158,158,149,,,0.809,897.2083033719628,897.5416519342798,897.5583177401786,897.841633460861,897.8749743424723,None,down,2.600156063983377,897.8749743424723,None,897.8749743424723,898.6583119134375,0.07288956072989095,None,,,,,,,,,31,001,2019_Dec_25_1257,untitled,3.1.0,59.99213492953721,
_,_2,M,0,_,_,__2M000__,N,0,159,159,24,,,1.2550000000000001,900.5416105511704,900.8915964478074,900.908263577965,901.1915922101762,901.2249277947503,None,down,2.6335946097333363,901.2249277947503,None,901.2249277947503,902.44152732146,0.057025593963771826,None,,,,,,,,,31,001,2019_Dec_25_1257,untitled,3.1.0,59.99213492953721,
239,G,M,270,L,N,239GM270LN,HLN,0,160,160,142,,,1.048,903.9582146465764,904.2748646275722,904.2915228189777,904.574848471606,904.6081817387276,None,down,2.5834766844236583,904.6081817387276,None,904.6081817387276,905.6248256943436,0.08000182747673534,None,,,,,,,,,31,001,2019_Dec_25_1257,untitled,3.1.0,59.99213492953721,
386,_4,N,45,R,N,386_4N045RN,HRN,0,161,161,257,,,1.016,907.291457268133,907.608080432874,907.624748225162,907.9080814922818,907.9414316437123,None,up,3.183456952958295,907.9414316437123,None,907.9414316437123,908.924752926283,0.07749864594552491,None,,,,,,,,,31,001,2019_Dec_25_1257,untitled,3.1.0,59.99213492953721,
_,G,N,90,_,_,_GN090__,N,0,162,162,58,,,0.911,911.2080216357535,911.5413602661247,911.5580273962823,911.8413540421043,911.8746879713544,None,up,2.4334850934719725,911.8746879713544,None,911.8746879713544,912.7579909129327,0.06673473360388016,None,,,,,,,,,31,001,2019_Dec_25_1257,untitled,3.1.0,59.99213492953721,
301,_2,M,180,L,N,301_2M180LN,HLN,0,163,163,156,,,0.996,914.4079493973968,914.7245795145009,914.7412774336917,915.0246186463701,915.0579489339052,None,down,3.4001617582998733,915.0579489339052,None,915.0579489339052,916.0412765067103,0.07918310403692885,None,,,,,,,,,31,001,2019_Dec_25_1257,untitled,3.1.0,59.99213492953721,
_,_2,N,135,_,_,__2N135__,N,0,164,164,75,,,1.113,918.5411960579459,918.8745403164194,918.8912031427335,919.174510586794,919.2078614003531,None,up,2.6668060449792392,919.2078614003531,None,919.2078614003531,920.2911556680301,0.07420024657767499,None,,,,,,,,,31,001,2019_Dec_25_1257,untitled,3.1.0,59.99213492953721,
_,_2,N,45,_,_,__2N045__,N,0,165,165,73,,,1.173,921.9911165361609,922.2911222304774,922.3077913470242,922.5911163375222,922.6244562259399,None,up,2.2835967947630706,922.6244562259399,None,922.6244562259399,923.7744226559626,0.09816106703510741,None,,,,,,,,,31,001,2019_Dec_25_1257,untitled,3.1.0,59.99213492953721,
291,_2,N,90,L,N,291_2N090LN,HLN,0,166,166,250,,,1.239,925.0077207639933,925.3243786905459,925.3410451585751,925.6243665073598,925.6576792484575,None,up,2.116926486381999,925.6576792484575,None,925.6576792484575,926.8743353872615,0.07826274368017039,None,,,,,,,,,31,001,2019_Dec_25_1257,untitled,3.1.0,59.99213492953721,
166,F,N,225,L,N,166FN225LN,HLN,0,167,167,221,,,1.371,927.9076640194726,928.2076574643888,928.2076574643888,928.4909519969187,928.524282615519,None,up,3.4167987615528546,928.524282615519,None,928.524282615519,929.8742612287278,0.11308480955267441,None,,,,,,,,,31,001,2019_Dec_25_1257,untitled,3.1.0,59.99213492953721,
162,F,N,45,L,N,162FN045LN,HLN,0,168,168,217,,,1.231,932.0242309693986,932.3575705929652,932.3742387163165,932.6575269586137,932.6908863798599,None,up,2.5168078327315015,932.6908863798599,None,932.6908863798599,933.9075243100942,0.07220955347293057,None,,,,,,,,,31,001,2019_Dec_25_1257,untitled,3.1.0,59.99213492953721,
201,G,M,0,R,N,201GM000RN,HRN,0,169,169,128,,,0.858,935.2741538312821,935.624154625837,935.6408270530337,935.924135821353,935.9574555148138,None,down,2.5001761265157256,935.9574555148138,None,935.9574555148138,936.7741184073402,0.057887355837010546,None,,,,,,,,,31,001,2019_Dec_25_1257,untitled,3.1.0,59.99213492953721,
193,G,N,0,R,N,193GN000RN,HRN,0,170,170,224,,,0.759,938.5241025162268,938.8740890749923,938.8907545498259,939.1740722568957,939.2073790388276,None,up,1.9668352449007216,939.2073790388276,None,939.2073790388276,939.9240259078142,0.0541274520328443,None,,,,,,,,,31,001,2019_Dec_25_1257,untitled,3.1.0,59.99213492953721,
140,F,M,135,R,N,140FM135RN,HRN,0,171,171,115,,,1.247,941.2740276955647,941.5906965472586,941.6073663259358,941.8906889989794,941.924025576749,None,None,,941.924025576749,None,941.924025576749,943.1406416567024,0.07726358988293214,None,,,,,,,,,31,001,2019_Dec_25_1257,untitled,3.1.0,59.99213492953721,
492,_5,M,135,L,N,492_5M135LN,HLN,0,172,172,187,,,1.362,945.4572598554714,945.790605769269,945.8072775343353,946.0905968967309,946.1239278463981,945.4572598554714,down,3.3834803923509753,946.1239278463981,None,946.1239278463981,947.4738654075609,0.07397015648712113,None,,,,,,,,,31,001,2019_Dec_25_1257,untitled,3.1.0,59.99213492953721,
388,_4,N,135,R,N,388_4N135RN,HRN,0,173,173,259,,,1.089,949.6071888751612,949.9238471327808,949.9405116144189,950.2238395845015,950.257172189491,None,up,2.400146529313133,950.257172189491,None,950.257172189491,951.3071129950913,0.07512789036263712,None,,,,,,,,,31,001,2019_Dec_25_1257,untitled,3.1.0,59.99213492953721,
462,_5,M,225,R,N,462_5M225RN,HRN,0,174,174,181,,,0.738,952.7404603655759,953.0737754903403,953.0904419583694,953.373744436456,953.407108492609,None,up,2.3001377892014716,953.407108492609,None,953.407108492609,954.1237510577539,0.07382448794305674,None,,,,,,,,,31,001,2019_Dec_25_1257,untitled,3.1.0,59.99213492953721,
_,_4,N,315,_,_,__4N315__,N,0,175,175,87,,,1.187,955.7903846179324,956.1237179512646,956.1403811086439,956.4237067612721,956.4570393662634,None,up,2.1501339488495432,956.4570393662634,None,956.4570393662634,957.6069961954036,0.06496353651345999,None,,,,,,,,,31,001,2019_Dec_25_1257,untitled,3.1.0,59.99213492953721,
452,_5,N,135,R,N,452_5N135RN,HRN,0,176,176,275,,,1.192,958.6903202589201,959.0236492884105,959.0403121147247,959.3236357809637,959.3569697102139,None,up,2.316996605923123,959.3569697102139,None,959.3569697102139,960.5069202491213,0.06464074825817079,None,,,,,,,,,31,001,2019_Dec_25_1257,untitled,3.1.0,59.99213492953721,
490,_5,M,45,L,N,490_5M045LN,HLN,0,177,177,185,,,1.056,961.7569185937955,962.0902436505075,962.1068823090864,962.3902016714819,962.4235670518938,None,down,2.9168381582730945,962.4235670518938,None,962.4235670518938,963.4402461003883,0.0707773668164009,None,,,,,,,,,31,001,2019_Dec_25_1257,untitled,3.1.0,59.99213492953721,
290,_2,N,45,L,N,290_2N045LN,HLN,0,178,178,249,,,1.32,965.4568268226121,965.7568176190089,965.7734675337924,966.0568113949885,966.0901317505795,None,up,2.4835281981213484,966.0901317505795,None,966.0901317505795,967.3734415120925,0.10391828524188895,None,,,,,,,,,31,001,2019_Dec_25_1257,untitled,3.1.0,59.99213492953721,
_,_2,M,45,_,_,__2M045__,N,0,179,179,25,,,1.036,968.656765840462,968.9900531557778,969.0067560409425,969.2900840110233,969.3234017180948,None,down,3.41681266627711,969.3234017180948,None,969.3234017180948,970.3400618958894,0.060456419281763374,None,,,,,,,,,31,001,2019_Dec_25_1257,untitled,3.1.0,59.99213492953721,
488,_5,N,315,L,N,488_5N315LN,HLN,0,180,180,287,,,0.87,972.823340802157,973.156665858869,973.1733094834199,973.4566473854484,973.4899713827526,None,up,2.6834827760176267,973.4899713827526,None,973.4899713827526,974.3399516512854,0.06610074436503055,None,,,,,,,,,31,001,2019_Dec_25_1257,untitled,3.1.0,59.99213492953721,
484,_5,N,135,L,N,484_5N135LN,HLN,0,181,181,283,,,1.313,976.2565852114658,976.5899152341499,976.6065995796816,976.8899136450382,976.9232647896624,None,up,2.550145734758189,976.9232647896624,None,976.9232647896624,978.2065176080177,0.05784795911677065,None,,,,,,,,,31,001,2019_Dec_25_1257,untitled,3.1.0,59.99213492953721,
_,G,N,315,_,_,_GN315__,N,0,182,182,63,,,1.22,979.5564985386809,979.8898484252568,979.9065165486099,980.1898412080427,980.2231810964604,None,up,2.3167963116720784,980.2231810964604,None,980.2231810964604,981.4064473560502,0.07382183942354459,None,,,,,,,,,31,001,2019_Dec_25_1257,untitled,3.1.0,59.99213492953721,
460,_5,M,135,R,N,460_5M135RN,HRN,0,183,183,179,,,0.916,982.639792806358,982.9564600027279,982.9731128970961,983.2564468263463,983.2897728100397,None,down,2.5836362576956162,983.2897728100397,None,983.2897728100397,984.1730598605027,0.07611909860315791,None,,,,,,,,,31,001,2019_Dec_25_1257,untitled,3.1.0,59.99213492953721,
143,F,M,270,R,N,143FM270RN,HRN,0,184,184,118,,,0.833,985.9730321172665,986.2897065970647,986.306345917772,986.5896841508657,986.6230127830786,None,down,2.5335166770619253,986.6230127830786,None,986.6230127830786,987.4396813037074,0.07515569981114822,None,,,,,,,,,31,001,2019_Dec_25_1257,untitled,3.1.0,59.99213492953721,
237,G,M,180,L,N,237GM180LN,HLN,0,185,185,140,,,0.758,989.2563031441896,989.5729498145374,989.589625221317,989.8729363070906,989.9062715606015,None,up,2.7001456023335777,989.9062715606015,None,989.9062715606015,990.6229396177405,0.07639686203401652,None,,,,,,,,,31,001,2019_Dec_25_1257,untitled,3.1.0,59.99213492953721,
195,G,N,90,R,N,195GN090RN,HRN,0,186,186,226,,,1.356,992.6728893620912,993.022839172656,993.0395384161075,993.3228604270207,993.3562205103972,None,None,,993.3562205103972,None,993.3562205103972,994.6728502964361,0.05576589210795646,None,,,,,,,,,31,001,2019_Dec_25_1257,untitled,3.1.0,59.99213492953721,
207,G,M,270,R,N,207GM270RN,HRN,0,187,187,134,,,0.896,996.8728141441516,997.2227824943493,997.2394436653394,997.5227852090811,997.5561244353703,996.8728141441516,down,2.183624140719985,997.5561244353703,None,997.5561244353703,998.439426383753,0.05713517643744126,None,,,,,,,,,31,001,2019_Dec_25_1257,untitled,3.1.0,59.99213492953721,
040,R,N,315,L,N,040RN315LN,HLN,0,188,188,207,,,0.804,999.8393961244237,1000.1560196202299,1000.1727033036314,1000.4560607384865,1000.4893572574056,None,up,1.8334995279019495,1000.4893572574056,None,1000.4893572574056,1001.2726819168402,0.07671567751276598,None,,,,,,,,,31,001,2019_Dec_25_1257,untitled,3.1.0,59.99213492953721,
491,_5,M,90,L,N,491_5M090LN,HLN,0,189,189,186,,,1.291,1002.4226711903375,1002.7393413662921,1002.7560217390455,1003.0393477227371,1003.0726475523061,None,down,2.450171756458076,1003.0726475523061,None,1003.0726475523061,1004.3226412620734,0.07913443750112492,None,,,,,,,,,31,001,2019_Dec_25_1257,untitled,3.1.0,59.99213492953721,
175,F,M,270,L,N,175FM270LN,HLN,0,190,190,126,,,1.039,1005.6059245383967,1005.9392495951088,1005.9559054690599,1006.2392529719709,1006.2725624024188,None,down,1.9668402108763985,1006.2725624024188,None,1006.2725624024188,1007.289208344424,0.07400723575483426,None,,,,,,,,,31,001,2019_Dec_25_1257,untitled,3.1.0,59.99213492953721,
486,_5,N,225,L,N,486_5N225LN,HLN,0,191,191,285,,,1.123,1008.3391925195228,1008.6558822283059,1008.6725453856852,1008.9558382628893,1008.9891930492267,None,up,1.983618578831738,1008.9891930492267,None,1008.9891930492267,1010.0725061876037,0.07811012277124973,None,,,,,,,,,31,001,2019_Dec_25_1257,untitled,3.1.0,59.99213492953721,
_,G,M,270,_,_,_GM270__,N,0,192,192,14,,,0.78,1011.0724883100993,1011.3891515336927,1011.40582958899,1011.6891168380935,1011.7224365315542,None,down,1.5503450358155533,1011.7224365315542,None,1011.7224365315542,1012.4724279238671,0.0794194843601872,None,,,,,,,,,31,001,2019_Dec_25_1257,untitled,3.1.0,59.99213492953721,
_,_4,M,45,_,_,__4M045__,N,0,193,193,33,,,0.788,1013.3557828426292,1013.6891009469782,1013.7057756916292,1013.9890669135093,1014.0224273279491,None,down,1.7834961510379799,1014.0224273279491,None,1014.0224273279491,1014.7724091193813,0.0695636829786963,None,,,,,,,,,31,001,2019_Dec_25_1257,untitled,3.1.0,59.99213492953721,
_,R,M,180,_,_,_RM180__,N,0,194,194,20,,,1.2,1015.8723814423574,1016.2224070667799,1016.2390338070218,1016.52237104692,1016.5556957063545,None,down,2.4668074354522105,1016.5556957063545,None,1016.5556957063545,1017.7390099703498,0.0554520426048839,None,,,,,,,,,31,001,2019_Dec_25_1257,untitled,3.1.0,59.99213492953721,
390,_4,N,225,R,N,390_4N225RN,HRN,0,195,195,261,,,0.716,1019.1056540583922,1019.4389393873189,1019.4556386307686,1019.7389493854789,1019.7722892738966,None,up,1.7668260412992822,1019.7722892738966,None,1019.7722892738966,1020.4556157872921,0.07151365510071628,None,,,,,,,,,31,001,2019_Dec_25_1257,untitled,3.1.0,59.99213492953721,
_,_5,N,225,_,_,__5N225__,N,0,196,196,93,,,1.163,1021.6222649075207,1021.9555843361304,1021.9722517973514,1022.2555453366876,1022.2888819144555,None,down,2.5668234589920758,1022.2888819144555,None,1022.2888819144555,1023.4388586074892,0.06991229429331725,None,,,,,,,,,31,001,2019_Dec_25_1257,untitled,3.1.0,59.99213492953721,
_,_4,M,315,_,_,__4M315__,N,0,197,197,39,,,1.223,1024.9221673095963,1025.272178036097,1025.2888193431954,1025.5721373813303,1025.6054819046567,None,up,2.800146396888522,1025.6054819046567,None,1025.6054819046567,1026.7887951754583,0.05695573927368969,None,,,,,,,,,31,001,2019_Dec_25_1257,untitled,3.1.0,59.99213492953721,
421,_4,N,180,L,N,421_4N180LN,HLN,0,198,198,268,,,0.988,1028.4887669687305,1028.8221022884536,1028.8387644526374,1029.1220695792435,1029.1554071502069,None,up,1.9336883673076954,1029.1554071502069,None,1029.1554071502069,1030.1054047665402,0.06372932665362896,None,,,,,,,,,31,001,2019_Dec_25_1257,untitled,3.1.0,59.99213492953721,
300,_2,M,135,L,N,300_2M135LN,HLN,0,199,199,155,,,1.067,1031.172051436888,1031.505355967578,1031.5220383267188,1031.8053401426769,1031.8387005571167,None,down,3.150118719866441,1031.8387005571167,None,1031.8387005571167,1032.8886744692045,0.07209963993409474,None,,,,,,,,,31,001,2019_Dec_25_1257,untitled,3.1.0,59.99213492953721,
_,G,N,225,_,_,_GN225__,N,0,200,200,61,,,0.935,1035.0886115006651,1035.4052952502789,1035.4219534416843,1035.7052549265773,1035.738612030369,None,up,2.333615069543157,1035.738612030369,None,1035.738612030369,1036.6552187742927,0.07518317819631193,None,,,,,,,,,31,001,2019_Dec_25_1257,untitled,3.1.0,59.99213492953721,
041,R,M,0,L,N,041RM000LN,HLN,0,201,201,104,,,0.786,1038.1718948432026,1038.488559391053,1038.5052195688477,1038.788545221476,1038.8218778264672,None,down,2.133552564495403,1038.8218778264672,None,1038.8218778264672,1039.5718291599296,0.07660410864809819,None,,,,,,,,,31,001,2019_Dec_25_1257,untitled,3.1.0,59.99213492953721,
_,G,N,270,_,_,_GN270__,N,0,202,202,62,,,0.882,1041.0218194928366,1041.371787180904,1041.3884519936073,1041.6718153876318,1041.7051625594759,None,up,2.1836135466455744,1041.7051625594759,None,1041.7051625594759,1042.55512991648,0.05568113949811959,None,,,,,,,,,31,001,2019_Dec_25_1257,untitled,3.1.0,59.99213492953721,
_,_2,N,0,_,_,__2N000__,N,0,203,203,72,,,1.2630000000000001,1043.9884332553356,1044.3050905197597,1044.3217583120459,1044.6050743637934,1044.6384265016113,None,up,2.366805647701767,1044.6384265016113,None,1044.6384265016113,1045.888382138919,0.07611313943561981,None,,,,,,,,,31,001,2019_Dec_25_1257,untitled,3.1.0,59.99213492953721,
199,G,N,270,R,N,199GN270RN,HRN,0,204,204,230,,,1.343,1047.071699382499,1047.4216508483878,1047.438335524983,1047.7216211187624,1047.7549719323197,None,up,2.7168143878152478,1047.7549719323197,None,1047.7549719323197,1049.0716335005873,0.05659289216782781,None,,,,,,,,,31,001,2019_Dec_25_1257,untitled,3.1.0,59.99213492953721,
482,_5,N,45,L,N,482_5N045LN,HLN,0,205,205,281,,,1.063,1050.554962066588,1050.8882556721346,1050.904942666186,1051.1882540830247,1051.2216181391777,None,up,2.1334572178111557,1051.2216181391777,None,1051.2216181391777,1052.2715615932975,0.07297729292258737,None,,,,,,,,,31,001,2019_Dec_25_1257,untitled,3.1.0,59.99213492953721,
044,R,M,135,L,N,044RM135LN,HLN,0,206,206,107,,,1.36,1053.4215462318862,1053.7715480196366,1053.788214487664,1054.0715325258006,1054.1048720831532,None,down,2.6668136594726093,1054.1048720831532,None,1054.1048720831532,1055.4214760461327,0.059558571336310706,None,,,,,,,,,31,001,2019_Dec_25_1257,untitled,3.1.0,59.99213492953721,
174,F,M,225,L,N,174FM225LN,HLN,0,207,207,125,,,0.991,1056.8381552932642,1057.1881302647598,1057.204805009409,1057.4880985487453,1057.5214523418872,None,down,2.6337022058196453,1057.5214523418872,None,1057.5214523418872,1058.4714360534963,0.057677129641888314,None,,,,,,,,,31,001,2019_Dec_25_1257,untitled,3.1.0,59.99213492953721,
449,_5,N,0,R,N,449_5N000RN,HRN,0,208,208,272,,,1.106,1060.321383877672,1060.6213968554148,1060.6213968554148,1060.8713640799906,1060.904724163367,None,up,2.0001459996110498,1060.904724163367,None,1060.904724163367,1061.9880144582658,0.14575230520495097,None,,,,,,,,,31,001,2019_Dec_25_1257,untitled,3.1.0,59.99213492953721,
011,R,M,90,R,N,011RM090RN,HRN,0,209,209,98,,,1.033,1063.0046868854624,1063.321336204328,1063.3380000238376,1063.6213124338701,1063.6546258370981,None,down,2.3502530659916374,1063.6546258370981,None,1063.6546258370981,1064.671284690634,0.07930493591084087,None,,,,,,,,,31,001,2019_Dec_25_1257,untitled,3.1.0,59.99213492953721,
_,F,M,90,_,_,_FM090__,N,0,210,210,2,,,0.7010000000000001,1066.1045744558287,1066.4212979332297,1066.4379392403262,1066.7212278136885,1066.7545577701603,None,down,1.833502507484809,1066.7545577701603,None,1066.7545577701603,1067.4378786554535,0.08085796124942135,None,,,,,,,,,31,001,2019_Dec_25_1257,untitled,3.1.0,59.99213492953721,
_,R,N,180,_,_,_RN180__,N,0,211,211,68,,,1.211,1068.68786276434,1069.0045170491794,1069.0212083470742,1069.3045277094698,1069.3378503825134,None,up,2.0168379596343584,1069.3378503825134,None,1069.3378503825134,1070.521182192948,0.07749732168485934,None,,,,,,,,,31,001,2019_Dec_25_1257,untitled,3.1.0,59.99213492953721,
012,R,M,135,R,N,012RM135RN,HRN,0,212,212,99,,,1.399,1071.4378376034092,1071.7711497485907,1071.787816216618,1072.0711408760508,1072.104470170394,None,down,2.383516147358023,1072.104470170394,None,1072.104470170394,1073.487741660807,0.059277166190440767,None,,,,,,,,,31,001,2019_Dec_25_1257,untitled,3.1.0,59.99213492953721,
167,F,N,270,L,N,167FN270LN,HLN,0,213,213,222,,,0.927,1074.5877573532835,1074.9044132934469,1074.9210824099937,1075.204405083039,1075.2377515927546,None,up,1.9834646336639707,1075.2377515927546,None,1075.2377515927546,1076.1210151376108,0.07532354970499,None,,,,,,,,,31,001,2019_Dec_25_1257,untitled,3.1.0,59.99213492953721,
038,R,N,225,L,N,038RN225LN,HLN,0,214,214,205,,,1.059,1077.3043456237865,1077.6376673698487,1077.6543537017697,1077.9376680981914,1077.9709924265608,None,up,2.266964426416962,1077.9709924265608,None,1077.9709924265608,1078.9876396928248,0.07537718221465184,None,,,,,,,,,31,001,2019_Dec_25_1257,untitled,3.1.0,59.99213492953721,
_,G,N,0,_,_,_GN000__,N,0,215,215,56,,,1.188,1080.3209382643472,1080.6542858334706,1080.6709536257567,1080.9542802715805,1080.9876069174024,None,up,2.066827762835601,1080.9876069174024,None,1080.9876069174024,1082.1375706989056,0.07510306049516657,None,,,,,,,,,31,001,2019_Dec_25_1257,untitled,3.1.0,59.99213492953721,
139,F,M,90,R,N,139FM090RN,HRN,0,216,216,114,,,1.086,1083.1542186273,1083.4708924449678,1083.4875565955408,1083.7708829102994,1083.8042115425123,None,down,2.0334713211741473,1083.8042115425123,None,1083.8042115425123,1084.8541914137677,0.08050835673930123,None,,,,,,,,,31,001,2019_Dec_25_1257,untitled,3.1.0,59.99213492953721,
_,_2,M,90,_,_,__2M090__,N,0,217,217,26,,,0.796,1085.9208211998066,1086.2541436079991,1086.2708196769072,1086.5540933523498,1086.5874481386873,None,down,2.2335325019630545,1086.5874481386873,None,1086.5874481386873,1087.3708039182202,0.057583107216487406,None,,,,,,,,,31,001,2019_Dec_25_1257,untitled,3.1.0,59.99213492953721,
_,_2,N,270,_,_,__2N270__,N,0,218,218,78,,,1.28,1088.8874313205924,1089.2374291355645,1089.2540972589159,1089.5374136417286,1089.5707051946738,None,up,2.1335350180561363,1089.5707051946738,None,1089.5707051946738,1090.8206757298994,0.05728614202052995,None,,,,,,,,,31,001,2019_Dec_25_1257,untitled,3.1.0,59.99213492953721,
422,_4,N,225,L,N,422_4N225LN,HLN,0,219,219,269,,,1.035,1091.8040612390578,1092.1206873833835,1092.137337298167,1092.420667585704,1092.4540035013433,None,up,2.166825908872852,1092.4540035013433,None,1092.4540035013433,1093.470668976177,0.07654948294293717,None,,,,,,,,,31,001,2019_Dec_25_1257,untitled,3.1.0,59.99213492953721,
_,F,N,180,_,_,_FN180__,N,0,220,220,52,,,0.837,1094.7206236202874,1095.0372881681396,1095.053966554502,1095.3372730053688,1095.370598326932,None,up,1.9500085414729256,1095.370598326932,None,1095.370598326932,1096.1872804212217,0.07433631424100895,None,,,,,,,,,31,001,2019_Dec_25_1257,untitled,3.1.0,59.99213492953721,
_,G,M,90,_,_,_GM090__,N,0,221,221,10,,,1.285,1097.3872677745421,1097.7372374490005,1097.7539072276759,1098.0372232794234,1098.0705535669604,None,down,2.350120971106662,1098.0705535669604,None,1098.0705535669604,1099.3205201294077,0.056528665583755355,None,,,,,,,,,31,001,2019_Dec_25_1257,untitled,3.1.0,59.99213492953721,
172,F,M,135,L,N,172FM135LN,HLN,0,222,222,123,,,1.101,1100.520500861432,1100.8371793140086,1100.853828897727,1101.1371313758136,1101.1704868242814,None,down,2.850102431473715,1101.1704868242814,None,1101.1704868242814,1102.2538089014088,0.08365545945889608,None,,,,,,,,,31,001,2019_Dec_25_1257,untitled,3.1.0,59.99213492953721,
138,F,M,45,R,N,138FM045RN,HRN,0,223,223,113,,,0.924,1104.1037332199776,1104.4371142266536,1104.4537250757821,1104.7370527147996,1104.7703810159455,None,down,2.766819088936245,1104.7703810159455,None,1104.7703810159455,1105.6536985243783,0.05888617857090139,None,,,,,,,,,31,001,2019_Dec_25_1257,untitled,3.1.0,59.99213492953721,
164,F,N,135,L,N,164FN135LN,HLN,0,224,224,219,,,1.1340000000000001,1107.6203367856779,1107.9536754160508,1107.9703498296349,1108.2536489970735,1108.286970014793,None,up,2.2168316031893482,1108.286970014793,None,1108.286970014793,1109.4036256901054,0.07266807832638733,None,,,,,,,,,31,001,2019_Dec_25_1257,untitled,3.1.0,59.99213492953721,
399,_4,M,270,R,N,399_4M270RN,HRN,0,225,225,166,,,0.8160000000000001,1110.6036345626435,1110.920282557252,1110.9369490252793,1111.2202375986417,1111.2535715278918,None,down,2.233495091633813,1111.2535715278918,None,1111.2535715278918,1112.036907112466,0.0777555522890907,None,,,,,,,,,31,001,2019_Dec_25_1257,untitled,3.1.0,59.99213492953721,
008,R,N,315,R,N,008RN315RN,HRN,0,226,226,199,,,1.3860000000000001,1113.5868859905277,1113.9035498762496,1113.9202176685358,1114.203543321164,1114.2368726155055,None,up,2.4669981288207055,1114.2368726155055,None,1114.2368726155055,1115.5868548704293,0.08484365130061633,None,,,,,,,,,31,001,2019_Dec_25_1257,untitled,3.1.0,59.99213492953721,
037,R,N,180,L,N,037RN180LN,HLN,0,227,227,204,,,0.782,1116.8034894900156,1117.1201119926282,1117.1367873994059,1117.420121328656,1117.4534440017014,None,up,1.9667829366517253,1117.4534440017014,None,1117.4534440017014,1118.2034373804036,0.07730662831636437,None,,,,,,,,,31,001,2019_Dec_25_1257,untitled,3.1.0,59.99213492953721,
459,_5,M,90,R,N,459_5M090RN,HRN,0,228,228,178,,,0.791,1119.5367621060504,1119.8367532335124,1119.8534177151505,1120.1367281387938,1120.1700574331353,None,down,2.316822796861743,1120.1700574331353,None,1120.1700574331353,1120.9200617369788,0.09896522362032556,None,,,,,,,,,31,001,2019_Dec_25_1257,untitled,3.1.0,59.99213492953721,
271,_2,M,270,R,N,271_2M270RN,HRN,0,229,229,150,,,1.301,1122.586694966094,1122.9033002533324,1122.9200057870148,1123.2033181970473,1123.2366882123697,None,down,2.8001470590188546,1123.2366882123697,None,1123.2366882123697,1124.5199638742015,0.07321003153083439,None,,,,,,,,,31,001,2019_Dec_25_1257,untitled,3.1.0,59.99213492953721,
226,G,N,45,L,N,226GN045LN,HLN,0,230,230,233,,,1.3900000000000001,1126.1032588040089,1126.4532678751875,1126.4699389781235,1126.753262975426,1126.7865978978716,None,up,2.3001384513318044,1126.7865978978716,None,1126.7865978978716,1128.1365692276522,0.06002669707231689,None,,,,,,,,,31,001,2019_Dec_25_1257,untitled,3.1.0,59.99213492953721,
_,_5,M,270,_,_,__5M270__,N,0,231,231,46,,,1.101,1129.1865461193247,1129.5032050390728,1129.5198705139064,1129.803184579263,1129.8365122182804,None,down,2.950135670385862,1129.8365122182804,None,1129.8365122182804,1130.9198064859593,0.07895897311755107,None,,,,,,,,,31,001,2019_Dec_25_1257,untitled,3.1.0,59.99213492953721,
_,R,N,90,_,_,_RN090__,N,0,232,232,66,,,0.8300000000000001,1132.8865083117162,1133.2031245240942,1133.2197959580953,1133.503122272854,1133.53646613405,None,up,1.6834705266192032,1133.53646613405,None,1133.53646613405,1134.3530969132844,0.0761416110162827,None,,,,,,,,,31,001,2019_Dec_25_1257,untitled,3.1.0,59.99213492953721,
296,_2,N,315,L,N,296_2N315LN,HLN,0,233,233,255,,,0.799,1135.3197361677794,1135.6364073369277,1135.65307744667,1135.9363971401308,1135.9697201442395,None,down,3.266798231848952,1135.9697201442395,None,1135.9697201442395,1136.753010703991,0.07794425926840631,None,,,,,,,,,31,001,2019_Dec_25_1257,untitled,3.1.0,59.99213492953721,
229,G,N,180,L,N,229GN180LN,HLN,0,234,234,236,,,0.765,1139.3029819675594,1139.6529814378555,1139.6696657833872,1139.9529397898932,1139.986283320026,None,up,2.7667843271246966,1139.986283320026,None,1139.986283320026,1140.7362717327542,0.05496173552091932,None,,,,,,,,,31,001,2019_Dec_25_1257,untitled,3.1.0,59.99213492953721,
395,_4,M,90,R,N,395_4M090RN,HRN,0,235,235,162,,,1.324,1142.8362500148996,1143.1695350127593,1143.1862044603713,1143.469562888422,1143.5028805954935,None,down,2.766783664994364,1143.5028805954935,None,1143.5028805954935,1144.7861817493213,0.07426248677438707,None,,,,,,,,,31,001,2019_Dec_25_1257,untitled,3.1.0,59.99213492953721,
236,G,M,135,L,N,236GM135LN,HLN,0,236,236,139,,,0.934,1146.386168970217,1146.6861587734184,1146.7028295452892,1146.9861505630106,1147.0194874718436,None,down,2.833469732064259,1147.0194874718436,None,1147.0194874718436,1147.9361382473962,0.10013818648076267,None,,,,,,,,,31,001,2019_Dec_25_1257,untitled,3.1.0,59.99213492953721,
259,_2,N,90,R,N,259_2N090RN,HRN,0,237,237,242,,,1.247,1149.9360789867842,1150.2693785514984,1150.2860622348999,1150.5694054339674,1150.6027506194223,None,up,2.516813129768707,1150.6027506194223,None,1150.6027506194223,1151.8193590848841,0.058119101251577376,None,,,,,,,,,31,001,2019_Dec_25_1257,untitled,3.1.0,59.99213492953721,
_,_5,N,180,_,_,__5N180__,N,0,238,238,92,,,0.929,1153.202669640954,1153.5359966840551,1153.5526598414344,1153.8359719204018,1153.8693190922477,None,up,2.466836569161387,1153.8693190922477,None,1153.8693190922477,1154.785920208069,0.07274687176686712,None,,,,,,,,,31,001,2019_Dec_25_1257,untitled,3.1.0,59.99213492953721,
430,_4,M,225,L,N,430_4M225LN,HLN,0,239,239,173,,,1.0030000000000001,1156.4192704919242,1156.7526034941911,1156.7692481119375,1157.0525972701726,1157.0859278887729,None,down,2.7836090441633132,1157.0859278887729,None,1157.0859278887729,1158.0692173891166,0.07173811708889843,None,,,,,,,,,31,001,2019_Dec_25_1257,untitled,3.1.0,59.99213492953721,
036,R,N,135,L,N,036RN135LN,HLN,0,240,240,203,,,1.387,1159.9692013655767,1160.285823537124,1160.30249795071,1160.5858404876453,1160.6192105029677,None,up,2.4167779044655617,1160.6192105029677,None,1160.6192105029677,1161.9691371389908,0.07426546635724662,None,,,,,,,,,31,001,2019_Dec_25_1257,untitled,3.1.0,59.99213492953721,
048,R,M,315,L,N,048RM315LN,HLN,0,241,241,111,,,1.111,1163.1524590174795,1163.4524657049897,1163.4691212478774,1163.7524233948989,1163.7857679182252,None,down,2.2669664128061413,1163.7857679182252,None,1163.7857679182252,1164.869078739146,0.09649647283367813,None,,,,,,,,,31,001,2019_Dec_25_1257,untitled,3.1.0,59.99213492953721,
007,R,N,270,R,N,007RN270RN,HRN,0,242,242,198,,,1.307,1166.1690195447463,1166.4690206041541,1166.485686410053,1166.7690368925469,1166.8023595655905,None,up,2.9334605946714873,1166.8023595655905,None,1166.8023595655905,1168.0856497942768,0.09926483733579516,None,,,,,,,,,31,001,2019_Dec_25_1257,untitled,3.1.0,59.99213492953721,
_,G,M,0,_,_,_GM000__,N,0,243,243,8,,,1.246,1169.8189750496276,1170.1522719658242,1170.1689635947823,1170.4522789843995,1170.4856165553629,None,down,2.3668126000648044,1170.4856165553629,None,1170.4856165553629,1171.7022462089772,0.06067260464624269,None,,,,,,,,,31,001,2019_Dec_25_1257,untitled,3.1.0,59.99213492953721,
458,_5,M,45,R,N,458_5M045RN,HRN,0,244,244,177,,,1.029,1172.9522250208247,1173.2689024802057,1173.2855706035589,1173.5689038706787,1173.6022308475658,None,down,2.516887950430828,1173.6022308475658,None,1173.6022308475658,1174.6188728167926,0.07668058463423222,None,,,,,,,,,31,001,2019_Dec_25_1257,untitled,3.1.0,59.99213492953721,
297,_2,M,0,L,N,297_2M000LN,HLN,0,245,245,152,,,1.3880000000000001,1176.2021502001626,1176.5354884994686,1176.552128151241,1176.8354478447018,1176.868787070991,None,down,2.6002017509363213,1176.868787070991,None,1176.868787070991,1178.2187977974918,0.07180101941412431,None,,,,,,,,,31,001,2019_Dec_25_1257,untitled,3.1.0,59.99213492953721,
423,_4,N,270,L,N,423_4N270LN,HLN,0,246,246,270,,,0.767,1179.6020977594853,1179.9020905422713,1179.9020905422713,1180.1854158638344,1180.2187550901235,None,up,1.6335250861102395,1180.2187550901235,None,1180.2187550901235,1180.9687156934033,0.11149834666139213,None,,,,,,,,,31,001,2019_Dec_25_1257,untitled,3.1.0,59.99213492953721,
_,_4,N,0,_,_,__4N000__,N,0,247,247,80,,,0.987,1181.9353877233207,1182.2687051655394,1182.2853633569448,1182.5686913270274,1182.60200770984,None,up,1.7334636404684716,1182.60200770984,None,1182.60200770984,1183.5519728818144,0.0742555344113498,None,,,,,,,,,31,001,2019_Dec_25_1257,untitled,3.1.0,59.99213492953721,
387,_4,N,90,R,N,387_4N090RN,HRN,0,248,248,258,,,0.926,1184.4353291248372,1184.7519738087958,1184.7686406078883,1185.0519424238464,1185.0852958859232,None,up,1.5835084666523471,1185.0852958859232,None,1185.0852958859232,1185.968624981626,0.0759138383782556,None,,,,,,,,,31,001,2019_Dec_25_1257,untitled,3.1.0,59.99213492953721,
_,_5,N,90,_,_,__5N090__,N,0,249,249,90,,,0.916,1186.7519244801297,1187.0852641036963,1187.1019325581128,1187.3852184829557,1187.4185537364647,None,up,2.0168320004650013,1187.4185537364647,None,1187.4185537364647,1188.3018851496217,0.07005862496953341,None,,,,,,,,,31,001,2019_Dec_25_1257,untitled,3.1.0,59.99213492953721,
424,_4,N,315,L,N,424_4N315LN,HLN,0,250,250,271,,,0.9580000000000001,1189.5185591659283,1189.851835887168,1189.8685026862604,1190.1518627696369,1190.1851960367567,None,up,1.8168231279269094,1190.1851960367567,None,1190.1851960367567,1191.101842839531,0.06365715451102005,None,,,,,,,,,31,001,2019_Dec_25_1257,untitled,3.1.0,59.99213492953721,
429,_4,M,180,L,N,429_4M180LN,HLN,0,251,251,172,,,1.3940000000000001,1192.0851558454815,1192.4184918273331,1192.4351503498037,1192.718472691784,1192.7518056278386,None,up,2.333475691229978,1192.7518056278386,None,1192.7518056278386,1194.1350757939945,0.0596370337116241,None,,,,,,,,,31,001,2019_Dec_25_1257,untitled,3.1.0,59.99213492953721,
168,F,N,315,L,N,168FN315LN,HLN,0,252,252,223,,,1.321,1195.1684398501475,1195.501745374031,1195.5184125041887,1195.8017378257518,1195.8350727481975,None,up,3.266787306707556,1195.8350727481975,None,1195.8350727481975,1197.1183795301276,0.06737964798594476,None,,,,,,,,,31,001,2019_Dec_25_1257,untitled,3.1.0,59.99213492953721,
_,F,N,135,_,_,_FN135__,N,0,253,253,51,,,1.3880000000000001,1199.18498647269,1199.5183207992177,1199.53499090896,1199.8183152373276,1199.8516634023672,None,up,2.5334521194108675,1199.8516634023672,None,1199.8516634023672,1201.201601625662,0.0690578158464632,None,,,,,,,,,31,001,2019_Dec_25_1257,untitled,3.1.0,59.99213492953721,
047,R,M,270,L,N,047RM270LN,HLN,0,254,254,110,,,1.258,1202.4682492229913,1202.8015875222973,1202.8182420719895,1203.101578318694,1203.1349122479442,None,down,2.316929399754372,1203.1349122479442,None,1203.1349122479442,1204.351515416367,0.07619060861543403,None,,,,,,,,,31,001,2019_Dec_25_1257,untitled,3.1.0,59.99213492953721,
227,G,N,90,L,N,227GN090LN,HLN,0,255,255,234,,,1.2510000000000001,1205.5181983052134,1205.868172945644,1205.8848142527404,1206.168167714819,1206.201493036382,None,up,2.5503029905739822,1206.201493036382,None,1206.201493036382,1207.4181299734228,0.05782975054898998,None,,,,,,,,,31,001,2019_Dec_25_1257,untitled,3.1.0,59.99213492953721,
034,R,N,45,L,N,034RN045LN,HLN,0,256,256,201,,,1.04,1208.8347810800406,1209.1681137512442,1209.184775915428,1209.4681038855106,1209.5014358283715,None,up,2.0335739512865985,1209.5014358283715,None,1209.5014358283715,1210.518080446118,0.07089787443146633,None,,,,,,,,,31,001,2019_Dec_25_1257,untitled,3.1.0,59.99213492953721,
_,_4,M,135,_,_,__4M135__,N,0,257,257,35,,,0.753,1211.6347251962889,1211.9513715355715,1211.9680476044814,1212.2513441234005,1212.2847078484901,None,down,2.366802999182255,1212.2847078484901,None,1212.2847078484901,1213.0013242595087,0.0802540989152476,None,,,,,,,,,31,001,2019_Dec_25_1257,untitled,3.1.0,59.99213492953721,
_,_2,M,180,_,_,__2M180__,N,0,258,258,28,,,1.091,1214.7179929787762,1215.067954707678,1215.084618858251,1215.3679464972683,1215.401269501377,None,down,2.98358481021387,1215.401269501377,None,1215.401269501377,1216.4512563249955,0.05666572644258849,None,,,,,,,,,31,001,2019_Dec_25_1257,untitled,3.1.0,59.99213492953721,
_,R,M,90,_,_,_RM090__,N,0,259,259,18,,,1.359,1218.4845737010019,1218.8012405663067,1218.8178974334533,1219.101208519227,1219.1345182807418,None,down,2.283486881222416,1219.1345182807418,None,1219.1345182807418,1220.451199381836,0.0771877760253119,None,,,,,,,,,31,001,2019_Dec_25_1257,untitled,3.1.0,59.99213492953721,
_,_2,N,180,_,_,__2N180__,N,0,260,260,76,,,0.759,1221.5011544232257,1221.834497026377,1221.8511638254695,1222.1344894780977,1222.1678230762827,None,up,1.9668375623550673,1222.1678230762827,None,1222.1678230762827,1222.8844212787317,0.058668337882409105,None,,,,,,,,,31,001,2019_Dec_25_1257,untitled,3.1.0,59.99213492953721,
196,G,N,135,R,N,196GN135RN,HRN,0,261,261,227,,,1.125,1224.2177642129463,1224.5510899317887,1224.5677438193507,1224.8510347101674,1224.8844398183646,None,up,2.816791014633054,1224.8844398183646,None,1224.8844398183646,1225.967711242567,0.06952329306295724,None,,,,,,,,,31,001,2019_Dec_25_1257,untitled,3.1.0,59.99213492953721,
129,F,N,0,R,N,129FN000RN,HRN,0,262,262,208,,,0.778,1227.767659993724,1228.1176935637031,1228.134347451265,1228.4176688000498,1228.4510176272197,None,up,1.7501893691078294,1228.4510176272197,None,1228.4510176272197,1229.2009898177694,0.05905998763228126,None,,,,,,,,,31,001,2019_Dec_25_1257,untitled,3.1.0,59.99213492953721,
208,G,M,315,R,N,208GM315RN,HRN,0,263,263,135,,,1.038,1230.2676460889998,1230.6176107974825,1230.634284548938,1230.9176582059736,1230.950967305358,None,down,1.983484166490598,1230.950967305358,None,1230.950967305358,1231.9675725263842,0.05761555157369003,None,,,,,,,,,31,001,2019_Dec_25_1257,untitled,3.1.0,59.99213492953721,
267,_2,M,90,R,N,267_2M090RN,HRN,0,264,264,146,,,0.9530000000000001,1233.0342516410892,1233.3509072501893,1233.367573056088,1233.6508675886162,1233.6842276719926,None,down,1.9168219360926742,1233.6842276719926,None,1233.6842276719926,1234.6008466653166,0.0749732830645371,None,,,,,,,,,31,001,2019_Dec_25_1257,untitled,3.1.0,59.99213492953721,
134,F,N,225,R,N,134FN225RN,HRN,0,265,265,213,,,1.096,1235.6841862888832,1236.0175136630478,1236.0341758272334,1236.3175094254184,1236.3508595768471,None,up,2.250268162550128,1236.3508595768471,None,1236.3508595768471,1237.4341511960065,0.05935993241109827,None,,,,,,,,,31,001,2019_Dec_25_1257,untitled,3.1.0,59.99213492953721,
033,R,N,0,L,N,033RN000LN,HLN,0,266,266,200,,,1.315,1238.7007981312054,1239.0174487743316,1239.0341165666196,1239.317449502676,1239.3507834319262,None,up,2.400145536119453,1239.3507834319262,None,1239.3507834319262,1240.6340706810279,0.07911854638587101,None,,,,,,,,,31,001,2019_Dec_25_1257,untitled,3.1.0,59.99213492953721,
203,G,M,90,R,N,203GM090RN,HRN,0,267,267,130,,,1.1360000000000001,1241.8173733577532,1242.1673804425427,1242.184057173581,1242.4673742185223,1242.5007068235136,None,down,2.083507473458667,1242.5007068235136,None,1242.5007068235136,1243.6172966169142,0.05770990506243834,None,,,,,,,,,31,001,2019_Dec_25_1257,untitled,3.1.0,59.99213492953721,
_,R,M,270,_,_,_RM270__,N,0,268,268,22,,,1.151,1244.6673287964204,1245.0006164428014,1245.0172825797636,1245.3006105498462,1245.3339633497944,None,down,2.2001783777559467,1245.3339633497944,None,1245.3339633497944,1246.4506067757065,0.05946719742860296,None,,,,,,,,,31,001,2019_Dec_25_1257,untitled,3.1.0,59.99213492953721,
_,_5,M,135,_,_,__5M135__,N,0,269,269,43,,,1.1400000000000001,1247.63392832313,1247.9505859186193,1247.967241461507,1248.2505436085285,1248.283898394866,None,up,2.366961910322061,1248.283898394866,None,1248.283898394866,1249.4005322198973,0.0774330950989679,None,,,,,,,,,31,001,2019_Dec_25_1257,untitled,3.1.0,59.99213492953721,
485,_5,N,180,L,N,485_5N180LN,HLN,0,270,270,284,,,0.8200000000000001,1250.733848006792,1251.0671826643847,1251.0838481392184,1251.3671731297163,1251.4004905057227,None,up,2.0001668566983426,1251.4004905057227,None,1251.4004905057227,1252.1837860314463,0.07378310483363748,None,,,,,,,,,31,001,2019_Dec_25_1257,untitled,3.1.0,59.99213492953721,
130,F,N,45,R,N,130FN045RN,HRN,0,271,271,209,,,1.095,1253.5004525656877,1253.817115127149,1253.833767359387,1254.1170973158587,1254.1504362110827,None,up,1.983621889479764,1254.1504362110827,None,1254.1504362110827,1255.2337231953334,0.0763809709205816,None,,,,,,,,,31,001,2019_Dec_25_1257,untitled,3.1.0,59.99213492953721,
_,R,N,0,_,_,_RN000__,N,0,272,272,64,,,1.195,1256.2337116080616,1256.5504125730495,1256.5670684470024,1256.850353709715,1256.8836846593822,None,up,2.0834938997995778,1256.8836846593822,None,1256.8836846593822,1258.066994950601,0.07634554697870044,None,,,,,,,,,31,001,2019_Dec_25_1257,untitled,3.1.0,59.99213492953721,
170,F,M,45,L,N,170FM045LN,HLN,0,273,273,121,,,0.839,1259.0669975991186,1259.3836389724274,1259.4003064336503,1259.683647977392,1259.7169855483553,None,down,1.650130307134532,1259.7169855483553,None,1259.7169855483553,1260.5336265906008,0.07788235013504163,None,,,,,,,,,31,001,2019_Dec_25_1257,untitled,3.1.0,59.99213492953721,
397,_4,M,180,R,N,397_4M180RN,HRN,0,274,274,164,,,0.7020000000000001,1261.4835960664204,1261.7835828900388,1261.8002443920923,1262.083584611577,1262.1169096020749,None,up,2.816879077890917,1262.1169096020749,None,1262.1169096020749,1262.800255648297,0.1067369716038229,None,,,,,,,,,31,001,2019_Dec_25_1257,untitled,3.1.0,59.99213492953721,
194,G,N,45,R,N,194GN045RN,HRN,0,275,275,225,,,0.897,1265.0002065844856,1265.3502222769603,1265.366854976368,1265.6501574544563,1265.6835317736222,None,up,2.7668045220816566,1265.6835317736222,None,1265.6835317736222,1266.5668045882958,0.05755529776433832,None,,,,,,,,,31,001,2019_Dec_25_1257,untitled,3.1.0,59.99213492953721,
_,_2,M,270,_,_,__2M270__,N,0,276,276,30,,,1.006,1268.5334792667309,1268.8667831352905,1268.883444968411,1269.166748439693,1269.2001028949635,None,down,2.616807965157932,1269.2001028949635,None,1269.2001028949635,1270.1834268260536,0.07324644866457675,None,,,,,,,,,31,001,2019_Dec_25_1257,untitled,3.1.0,59.99213492953721,
_,F,M,45,_,_,_FM045__,N,0,277,277,1,,,1.322,1271.9000574728634,1272.2333828606388,1272.250017215374,1272.5333564416615,1272.566677459381,None,down,2.3168678216861736,1272.566677459381,None,1272.566677459381,1273.850053433871,0.06916739832013263,None,,,,,,,,,31,001,2019_Dec_25_1257,untitled,3.1.0,59.99213492953721,
014,R,M,225,R,N,014RM225RN,HRN,0,278,278,101,,,1.2530000000000001,1274.983307046783,1275.299958683103,1275.3166188608993,1275.5999650395497,1275.6332757942582,None,None,,1275.6332757942582,None,1275.6332757942582,1276.849918359403,0.08503070295409998,None,,,,,,,,,31,001,2019_Dec_25_1257,untitled,3.1.0,59.99213492953721,
_,F,N,315,_,_,_FN315__,N,0,279,279,55,,,1.02,1279.1498780356997,1279.499888431139,1279.5165522506468,1279.7998798896624,1279.8332224266014,1279.1498780356997,up,2.916785518958932,1279.8332224266014,None,1279.8332224266014,1280.8164735234168,0.05814426218421431,None,,,,,,,,,31,001,2019_Dec_25_1257,untitled,3.1.0,59.99213492953721,
135,F,N,270,R,N,135FN270RN,HRN,0,280,280,214,,,0.718,1282.8331257556565,1283.166473324778,1283.1831437655856,1283.4664422708956,1283.499771234172,None,up,2.1001550707878778,1283.499771234172,None,1283.499771234172,1284.1830990718263,0.06002603494198411,None,,,,,,,,,31,001,2019_Dec_25_1257,untitled,3.1.0,59.99213492953721,
_,_5,N,45,_,_,__5N045__,N,0,281,281,89,,,0.887,1285.6830715934411,1286.0163996297379,1286.0330541794283,1286.3163682447885,1286.3497356115913,None,up,2.5834650971519295,1286.3497356115913,None,1286.3497356115913,1287.1996887328023,0.06803581857093377,None,,,,,,,,,31,001,2019_Dec_25_1257,untitled,3.1.0,59.99213492953721,
455,_5,N,270,R,N,455_5N270RN,HRN,0,282,282,278,,,1.028,1289.0163026277296,1289.3496697296796,1289.3663358666417,1289.6496280817191,1289.6829861787046,None,up,2.750315173761919,1289.6829861787046,None,1289.6829861787046,1290.6996248372816,0.07584961179236416,None,,,,,,,,,31,001,2019_Dec_25_1257,untitled,3.1.0,59.99213492953721,
_,R,M,135,_,_,_RM135__,N,0,283,283,19,,,1.166,1292.5162688591117,1292.8495922604998,1292.8662577353316,1293.1495754424031,1293.1828812311396,None,down,2.9168146526681085,1293.1828812311396,None,1293.1828812311396,1294.332875801676,0.06639671636730782,None,,,,,,,,,31,001,2019_Dec_25_1257,untitled,3.1.0,59.99213492953721,
_,_2,N,225,_,_,__2N225__,N,0,284,284,77,,,1.135,1296.1828381927044,1296.5161685464554,1296.5328177991069,1296.8161202771953,1296.8494442744995,None,up,2.2669323131231067,1296.8494442744995,None,1296.8494442744995,1297.9661426571802,0.06489268863151665,None,,,,,,,,,31,001,2019_Dec_25_1257,untitled,3.1.0,59.99213492953721,
393,_4,M,0,R,N,393_4M000RN,HRN,0,285,285,160,,,0.98,1299.1994500350265,1299.5327764159993,1299.5494074600829,1299.8327768132767,1299.8661027969683,None,down,2.4168189565098146,1299.8661027969683,None,1299.8661027969683,1300.8160828668624,0.07248499945126241,None,,,,,,,,,31,001,2019_Dec_25_1257,untitled,3.1.0,59.99213492953721,
200,G,N,315,R,N,200GN315RN,HRN,0,286,286,231,,,1.032,1302.3493595218897,1302.699376538625,1302.7160347300305,1302.9993673350218,1303.0327015953371,None,up,2.2167865783630987,1303.0327015953371,None,1303.0327015953371,1304.0493137687226,0.05781816328089917,None,,,,,,,,,31,001,2019_Dec_25_1257,untitled,3.1.0,59.99213492953721,
_,G,N,180,_,_,_GN180__,N,0,287,287,60,,,0.85,1305.3326476979746,1305.6659793759827,1305.6826312771555,1305.9659714966401,1305.9992802649576,None,up,2.266679710621247,1305.9992802649576,None,1305.9992802649576,1306.8159315702142,0.07351659760752227,None,,,,,,,,,31,001,2019_Dec_25_1257,untitled,3.1.0,59.99213492953721,
,,,,,,,,,,,,,,,,,,,,,,,,,,,,,1308.2825754596197,None,1313.2657970916625,None,1315.8990589811947,None,1318.482428400599,None,,,,,,,
