Number,Letter,type,Orientation,human,face_type,image,picture,trials.thisRepN,trials.thisTrialN,trials.thisN,trials.thisIndex,text.started,text.stopped,stimulus_duration,CROSS.started,CROSS.stopped,BLANK.started,BLANK.stopped,TEST.started,TEST.stopped,key_JUDGE.keys,key_JUDGE.started,key_JUDGE.stopped,image_2.started,image_2.stopped,ISI.started,ISI.stopped,key_JUDGE.rt,q1.started,q1.stopped,q2.started,q2.stopped,q3.started,q3.stopped,text_2.started,text_2.stopped,participant,session,date,expName,psychopyVersion,frameRate,
428,_4,M,135,L,N,428_4M135LN,HLN,0,0,0,171,938.1027916714665,None,1.055,944.1693602105042,944.4693109480504,944.4693109480504,944.6192902896037,944.65263481293,None,None,944.65263481293,None,944.65263481293,945.702597137748,0.25288456827183836,None,,,,,,,,,,32,001,2019_Dec_25_1339,untitled,3.1.0,60.00417170741802,
_,G,M,90,_,_,_GM090__,N,0,1,1,10,,,0.847,948.185915771799,948.5192130190626,948.5358612785203,948.8191750128135,948.8525142391009,948.185915771799,None,948.8525142391009,None,948.8525142391009,949.6691440251416,0.05789199074570206,None,,,,,,,,,,32,001,2019_Dec_25_1339,untitled,3.1.0,60.00417170741802,
133,F,N,180,R,N,133FN180RN,HRN,0,2,2,212,,,0.773,952.3691277367507,952.7190937694941,952.7357681830763,953.0190799309821,953.0524184951391,952.3691277367507,down,953.0524184951391,None,953.0524184951391,953.8024006176347,0.056437622741214,None,2.133472446796077,,,,,,,,,32,001,2019_Dec_25_1339,untitled,3.1.0,60.00417170741802,
488,_5,N,315,L,N,488_5N315LN,HLN,0,3,3,287,,,0.931,955.2523737351694,955.6023371193914,955.6189929933425,955.9023183149075,955.9356605207795,None,up,955.9356605207795,None,955.9356605207795,956.8523275185107,0.05819955001788912,None,2.083492575540731,,,,,,,,,32,001,2019_Dec_25_1339,untitled,3.1.0,60.00417170741802,
204,G,M,135,R,N,204GM135RN,HRN,0,4,4,131,,,1.197,958.1023040129039,958.4356244347073,958.4522909027364,958.7356149000407,958.7689339313692,None,None,958.7689339313692,None,958.7689339313692,959.9522607758336,0.05922750645913766,None,,,,,,,,,,32,001,2019_Dec_25_1339,untitled,3.1.0,60.00417170741802,
460,_5,M,135,R,N,460_5M135RN,HRN,0,5,5,179,,,1.066,962.3021685411586,962.6355171034738,962.6521743016856,962.9355161764943,962.9688520921336,962.3021685411586,None,962.9688520921336,None,962.9688520921336,964.0187925666687,0.05811843912306358,None,,,,,,,,,,32,001,2019_Dec_25_1339,untitled,3.1.0,60.00417170741802,
418,_4,N,45,L,N,418_4N045LN,HLN,0,6,6,265,,,0.997,966.4854599616774,966.8354309603928,966.8520742538785,967.1354128180392,967.1687374774738,966.4854599616774,down,967.1687374774738,None,967.1687374774738,968.1520587600426,0.056468080711056245,None,2.133501911568601,,,,,,,,,32,001,2019_Dec_25_1339,untitled,3.1.0,60.00417170741802,
449,_5,N,0,R,N,449_5N000RN,HRN,0,7,7,272,,,1.231,969.3686841098133,969.718691525668,969.7353543519821,970.018680997804,970.052009630017,None,down,970.052009630017,None,970.052009630017,971.2686273652944,0.058108176112000365,None,2.6501418944062607,,,,,,,,,32,001,2019_Dec_25_1339,untitled,3.1.0,60.00417170741802,
240,G,M,315,L,N,240GM315LN,HLN,0,8,8,143,,,1.338,972.7686406078901,973.1186069716969,973.1352694669476,973.4185951195759,973.4519303730849,None,down,973.4519303730849,None,973.4519303730849,974.7685710842634,0.05782312925293809,None,3.433455959766434,,,,,,,,,32,001,2019_Dec_25_1339,untitled,3.1.0,60.00417170741802,
234,G,M,45,L,N,234GM045LN,HLN,0,9,9,137,,,0.8320000000000001,976.9518386681157,977.3018480703577,977.3185142073198,977.601830921194,977.635162864055,None,down,977.635162864055,None,977.635162864055,978.4518138382482,0.05779200915276306,None,2.94998205628508,,,,,,,,,32,001,2019_Dec_25_1339,untitled,3.1.0,60.00417170741802,
035,R,N,90,L,N,035RN090LN,HLN,0,10,10,202,,,0.738,980.6517631191091,981.0017215373591,981.0184211118758,981.3017421295954,981.335076720974,None,up,981.335076720974,None,981.335076720974,982.0517302112603,0.0565425703098299,None,1.8501785763946828,,,,,,,,,32,001,2019_Dec_25_1339,untitled,3.1.0,60.00417170741802,
_,_5,N,225,_,_,__5N225__,N,0,11,11,93,,,1.184,983.2517122675454,983.601668368341,983.618359666234,983.9016879673836,983.9350209034383,None,down,983.9350209034383,None,983.9350209034383,985.0849853470681,0.05716331694929977,None,2.4168103488227644,,,,,,,,,32,001,2019_Dec_25_1339,untitled,3.1.0,60.00417170741802,
400,_4,M,315,R,N,400_4M315RN,HRN,0,12,12,167,,,1.163,986.4349619738896,986.76829100338,986.7849551539548,987.0683056364469,987.1016097698594,None,down,987.1016097698594,None,987.1016097698594,988.2515967259023,0.05910501245671185,None,3.116766913110041,,,,,,,,,32,001,2019_Dec_25_1339,untitled,3.1.0,60.00417170741802,
034,R,N,45,L,N,034RN045LN,HLN,0,13,13,201,,,0.806,990.3015451459942,990.6348629192798,990.65153236689,990.9348500739616,990.9681624839941,None,up,990.9681624839941,None,990.9681624839941,991.7514997238941,0.05881963453066419,None,2.8001513628623798,,,,,,,,,32,001,2019_Dec_25_1339,untitled,3.1.0,60.00417170741802,
_,R,N,270,_,_,_RN270__,N,0,14,14,70,,,0.715,993.8348231252785,994.1847845231168,994.201441721325,994.4847736641859,994.5181171943186,None,down,994.5181171943186,None,994.5181171943186,995.2014384106769,0.056000617103563854,None,2.7501506345179223,,,,,,,,,32,001,2019_Dec_25_1339,untitled,3.1.0,60.00417170741802,
_,G,M,270,_,_,_GM270__,N,0,15,15,14,,,1.186,997.3346976516914,997.6846967909223,997.701338760151,997.984677324308,998.0180221786977,None,down,998.0180221786977,None,998.0180221786977,999.1680157560404,0.05737221889285138,None,2.2668008803702833,,,,,,,,,32,001,2019_Dec_25_1339,untitled,3.1.0,60.00417170741802,
_,R,N,90,_,_,_RN090__,N,0,16,16,66,,,1.233,1000.3680117170479,1000.7012838033806,1000.7179360356167,1001.0012928083452,1001.0345909825883,None,None,1001.0345909825883,None,1001.0345909825883,1002.2512570533399,0.0582396088684618,None,,,,,,,,,,32,001,2019_Dec_25_1339,untitled,3.1.0,60.00417170741802,
_,_2,N,225,_,_,__2N225__,N,0,17,17,77,,,0.912,1004.5678861772467,1004.9011989845603,1004.9178621419378,1005.2011639578959,1005.2345220548814,1004.5678861772467,down,1005.2345220548814,None,1005.2345220548814,1006.1178352594688,0.06182669680492836,None,2.8668066408972663,,,,,,,,,32,001,2019_Dec_25_1339,untitled,3.1.0,60.00417170741802,
003,R,N,90,R,N,003RN090RN,HRN,0,18,18,194,,,1.0090000000000001,1008.1678035434561,1008.5177513676317,1008.5344830554386,1008.817771297734,1008.8511108550883,None,up,1008.8511108550883,None,1008.8511108550883,1009.8344152533537,0.057056382996961474,None,1.9501303733486566,,,,,,,,,32,001,2019_Dec_25_1339,untitled,3.1.0,60.00417170741802,
197,G,N,180,R,N,197GN180RN,HRN,0,19,19,228,,,0.834,1010.9177297159877,1011.217716539606,1011.2343883046706,1011.5176861478503,1011.5510369614094,None,down,1011.5510369614094,None,1011.5510369614094,1012.3676972054163,0.09437898188116378,None,2.466823657632631,,,,,,,,,32,001,2019_Dec_25_1339,untitled,3.1.0,60.00417170741802,
131,F,N,90,R,N,131FN090RN,HRN,0,20,20,210,,,1.0050000000000001,1014.1009840572406,1014.4343091139526,1014.4509755819818,1014.7343018967367,1014.7676268872383,None,up,1014.7676268872383,None,1014.7676268872383,1015.7509438659654,0.05886664574427414,None,1.9168305437815434,,,,,,,,,32,001,2019_Dec_25_1339,untitled,3.1.0,60.00417170741802,
006,R,N,225,R,N,006RN225RN,HRN,0,21,21,197,,,1.194,1016.7675606742596,1017.1009132093568,1017.1175753735406,1017.4008907631578,1017.434265413387,None,down,1017.434265413387,None,1017.434265413387,1018.6175518679338,0.057856235740473494,None,3.2834203371821786,,,,,,,,,32,001,2019_Dec_25_1339,untitled,3.1.0,60.00417170741802,
463,_5,M,270,R,N,463_5M270RN,HRN,0,22,22,182,,,1.27,1020.7841619225073,1021.1341541093789,1021.1508195842107,1021.434144905772,1021.4674993610461,None,down,1021.4674993610461,None,1021.4674993610461,1022.7174732069216,0.05577946576886461,None,3.333458806922863,,,,,,,,,32,001,2019_Dec_25_1339,untitled,3.1.0,60.00417170741802,
_,_2,N,45,_,_,__2N045__,N,0,23,23,73,,,1.099,1024.8674032198069,1025.2173901096357,1025.2340671717393,1025.517365014919,1025.5507184769958,None,up,1025.5507184769958,None,1025.5507184769958,1026.6340263183338,0.05741691264847759,None,2.7834762871461862,,,,,,,,,32,001,2019_Dec_25_1339,untitled,3.1.0,60.00417170741802,
494,_5,M,225,L,N,494_5M225LN,HLN,0,24,24,189,,,1.106,1028.4006646458474,1028.750646238641,1028.7673322394949,1029.050637697168,1029.0839739438707,None,down,1029.0839739438707,None,1029.0839739438707,1030.1672956899347,0.05813797194787185,None,2.283474300758826,,,,,,,,,32,001,2019_Dec_25_1339,untitled,3.1.0,60.00417170741802,
_,G,N,90,_,_,_GN090__,N,0,25,25,58,,,1.067,1031.433926402955,1031.78390402297,1031.8005701599322,1032.0839087240893,1032.1172333835239,None,up,1032.1172333835239,None,1032.1172333835239,1033.1672125926489,0.05763177375411033,None,2.266805846342322,,,,,,,,,32,001,2019_Dec_25_1339,untitled,3.1.0,60.00417170741802,
391,_4,N,270,R,N,391_4N270RN,HRN,0,26,26,262,,,0.806,1034.450504145596,1034.8005026226965,1034.8171750498914,1035.1004821628885,1035.1338008631537,None,down,1035.1338008631537,None,1035.1338008631537,1035.9171530009735,0.05753510280919727,None,2.6668053828507254,,,,,,,,,32,001,2019_Dec_25_1339,untitled,3.1.0,60.00417170741802,
048,R,M,315,L,N,048RM315LN,HLN,0,27,27,111,,,1.248,1037.867129760216,1038.2170759290675,1038.2337407417726,1038.5170571245835,1038.550418532217,None,down,1038.550418532217,None,1038.550418532217,1039.7670594420379,0.05863390713420813,None,2.566800284454075,,,,,,,,,32,001,2019_Dec_25_1339,untitled,3.1.0,60.00417170741802,
132,F,N,135,R,N,132FN135RN,HRN,0,28,28,211,,,1.287,1041.2003631119587,1041.5336805541774,1041.5503556298936,1041.833684262103,1041.8669950168114,None,up,1041.8669950168114,None,1041.8669950168114,1043.11698409167,0.05876831947534811,None,2.4168398135989264,,,,,,,,,32,001,2019_Dec_25_1339,untitled,3.1.0,60.00417170741802,
462,_5,M,225,R,N,462_5M225RN,HRN,0,29,29,181,,,0.755,1044.3503169615142,1044.7002849806486,1044.7169272809406,1045.0002502850475,1045.033627583798,None,down,1045.033627583798,None,1045.033627583798,1045.750274783848,0.056602824115543626,None,3.2834110673684336,,,,,,,,,32,001,2019_Dec_25_1339,untitled,3.1.0,60.00417170741802,
452,_5,N,135,R,N,452_5N135RN,HRN,0,30,30,275,,,1.2610000000000001,1048.383518133749,1048.7335262117304,1048.7501771197094,1049.033495157848,1049.066857558675,None,up,1049.066857558675,None,1049.066857558675,1050.3168396811707,0.05633532369392924,None,2.2001797020166123,,,,,,,,,32,001,2019_Dec_25_1339,untitled,3.1.0,60.00417170741802,
143,F,M,270,R,N,143FM270RN,HRN,0,31,31,118,,,0.834,1051.3334644350252,1051.6834523180514,1051.700124083116,1051.9834437765785,1052.0167800232812,None,down,1052.0167800232812,None,1052.0167800232812,1052.8334071608006,0.05805884744404466,None,2.050168247169495,,,,,,,,,32,001,2019_Dec_25_1339,untitled,3.1.0,60.00417170741802,
_,_5,N,0,_,_,__5N000__,N,0,32,32,88,,,1.297,1054.1334022610426,1054.483396765365,1054.500064557651,1054.7833912034766,1054.8167178492986,None,up,1054.8167178492986,None,1054.8167178492986,1056.1000084090483,0.05639723282729392,None,2.933473837267229,,,,,,,,,32,001,2019_Dec_25_1339,untitled,3.1.0,60.00417170741802,
390,_4,N,225,R,N,390_4N225RN,HRN,0,33,33,261,,,1.045,1057.8333316780117,1058.1666514376848,1058.1833182367773,1058.4666203837987,1058.4999718594881,None,down,1058.4999718594881,None,1058.4999718594881,1059.5166108491285,0.05758145189247443,None,3.4167719452998426,,,,,,,,,32,001,2019_Dec_25_1339,untitled,3.1.0,60.00417170741802,
228,G,N,135,L,N,228GN135LN,HLN,0,34,34,235,,,1.1420000000000001,1061.9832130243594,1062.3332191159534,1062.3498852529156,1062.6332983066713,1062.6665458279895,None,down,1062.6665458279895,None,1062.6665458279895,1063.7831528367642,0.05613204986002529,None,3.166775587011216,,,,,,,,,32,001,2019_Dec_25_1339,untitled,3.1.0,60.00417170741802,
396,_4,M,135,R,N,396_4M135RN,HRN,0,35,35,163,,,0.79,1065.8998061946222,1066.2497973882964,1066.2664754435937,1066.5498140077543,1066.583109533476,None,up,1066.583109533476,None,1066.583109533476,1067.3330952976867,0.0581452553778945,None,2.400112760697084,,,,,,,,,32,001,2019_Dec_25_1339,untitled,3.1.0,60.00417170741802,
225,G,N,0,L,N,225GN000LN,HLN,0,36,36,232,,,1.101,1069.0664473692923,1069.3997310428967,1069.416393538144,1069.6997215082265,1069.7330491472458,None,up,1069.7330491472458,None,1069.7330491472458,1070.8163305033922,0.05900734831448062,None,3.283447484500357,,,,,,,,,32,001,2019_Dec_25_1339,untitled,3.1.0,60.00417170741802,
_,R,M,90,_,_,_RM090__,N,0,37,37,18,,,1.285,1073.0829797560473,1073.4329620109675,1073.4496076219075,1073.7329634014422,1073.766299648145,None,up,1073.766299648145,None,1073.766299648145,1075.0162784599925,0.055336832028842764,None,2.4668140567519004,,,,,,,,,32,001,2019_Dec_25_1339,untitled,3.1.0,60.00417170741802,
206,G,M,225,R,N,206GM225RN,HRN,0,38,38,133,,,1.285,1076.2995597499284,1076.6495592202227,1076.6662336338086,1076.9495599485672,1076.9829094378656,None,down,1076.9829094378656,None,1076.9829094378656,1078.2328620955886,0.055751656320353504,None,3.01677538837248,,,,,,,,,32,001,2019_Dec_25_1339,untitled,3.1.0,60.00417170741802,
_,_5,N,180,_,_,__5N180__,N,0,39,39,92,,,0.8220000000000001,1080.0661490798411,1080.4161247134653,1080.4327951542691,1080.7161194826404,1080.749442155684,None,up,1080.749442155684,None,1080.749442155684,1081.5327800577106,0.05741989223315613,None,2.5004803751362488,,,,,,,,,32,001,2019_Dec_25_1339,untitled,3.1.0,60.00417170741802,
144,F,M,315,R,N,144FM315RN,HRN,0,40,40,119,,,1.1300000000000001,1083.332755294061,1083.666084985678,1083.6827451634745,1083.9660479726263,1083.9994007725727,None,down,1083.9994007725727,None,1083.9994007725727,1085.1160581032127,0.06255967444303678,None,2.3001050137791026,,,,,,,,,32,001,2019_Dec_25_1339,untitled,3.1.0,60.00417170741802,
453,_5,N,180,R,N,453_5N180RN,HRN,0,41,41,276,,,0.757,1086.382685505585,1086.7160148661387,1086.7326753749985,1087.01599308207,1087.0493326394208,None,up,1087.0493326394208,None,1087.0493326394208,1087.7659785152136,0.058385608477692585,None,1.7501536141026008,,,,,,,,,32,001,2019_Dec_25_1339,untitled,3.1.0,60.00417170741802,
483,_5,N,90,L,N,483_5N090LN,HLN,0,42,42,282,,,1.047,1088.865986924262,1089.21594765997,1089.2326171075802,1089.5159444155324,1089.5492766894567,None,up,1089.5492766894567,None,1089.5492766894567,1090.5659170033614,0.05725005595013499,None,2.86679372936851,,,,,,,,,32,001,2019_Dec_25_1339,untitled,3.1.0,60.00417170741802,
010,R,M,45,R,N,010RM045RN,HRN,0,43,43,97,,,1.081,1092.4825694342362,1092.8325391086946,1092.8492055767238,1093.1325318914824,1093.1658608547586,None,down,1093.1658608547586,None,1093.1658608547586,1094.215840726014,0.05898516696834122,None,2.3001420930449967,,,,,,,,,32,001,2019_Dec_25_1339,untitled,3.1.0,60.00417170741802,
202,G,M,45,R,N,202GM045RN,HRN,0,44,44,129,,,1.4000000000000001,1095.5491237374845,1095.8824805764234,1095.8991179107434,1096.1824753455985,1096.2157940458674,None,down,1096.2157940458674,None,1096.2157940458674,1097.5991002980918,0.05870905886331457,None,3.1001272613393667,,,,,,,,,32,001,2019_Dec_25_1339,untitled,3.1.0,60.00417170741802,
421,_4,N,180,L,N,421_4N180LN,HLN,0,45,45,268,,,1.294,1099.399061298649,1099.7323883417484,1099.7490594446863,1100.0323764896275,1100.0657130673972,None,down,1100.0657130673972,None,1100.0657130673972,1101.3490152144186,0.05809758203395177,None,3.383414510441071,,,,,,,,,32,001,2019_Dec_25_1339,untitled,3.1.0,60.00417170741802,
140,F,M,135,R,N,140FM135RN,HRN,0,46,46,115,,,1.2730000000000001,1103.5156464571446,1103.8656383129492,1103.8822938558333,1104.1656178531375,1104.1989497959985,None,None,1104.1989497959985,None,1104.1989497959985,1105.4489312563674,0.05552520794299198,None,,,,,,,,,,32,001,2019_Dec_25_1339,untitled,3.1.0,60.00417170741802,
_,_2,M,180,_,_,__2M180__,N,0,47,47,28,,,1.262,1107.715550382116,1108.065528002131,1108.0821928148325,1108.3655287304719,1108.3988600112061,1107.715550382116,up,1108.3988600112061,None,1108.3988600112061,1109.6488553762974,0.057149412226863205,None,2.950128386957658,,,,,,,,,32,001,2019_Dec_25_1339,untitled,3.1.0,60.00417170741802,
036,R,N,135,L,N,036RN135LN,HLN,0,48,48,203,,,1.084,1111.4321330245184,1111.7654345756237,1111.782112630921,1112.0654458980425,1112.0987705574735,None,up,1112.0987705574735,None,1112.0987705574735,1113.1487530772501,0.05921426386703388,None,2.2001830126646382,,,,,,,,,32,001,2019_Dec_25_1339,untitled,3.1.0,60.00417170741802,
257,_2,N,0,R,N,257_2N000RN,HRN,0,49,49,240,,,1.362,1114.3820945547777,1114.7153931262983,1114.732053966225,1115.0153786256597,1115.0486956706009,None,down,1115.0486956706009,None,1115.0486956706009,1116.398676270197,0.05865575741700013,None,2.4835209146913257,,,,,,,,,32,001,2019_Dec_25_1339,untitled,3.1.0,60.00417170741802,
130,F,N,45,R,N,130FN045RN,HRN,0,50,50,209,,,1.087,1117.598644421756,1117.9486491890893,1117.9653179745728,1118.2486449514618,1118.281975570062,None,down,1118.281975570062,None,1118.281975570062,1119.331951468539,0.05653992179213674,None,2.1668676230474375,,,,,,,,,32,001,2019_Dec_25_1339,untitled,3.1.0,60.00417170741802,
_,R,N,135,_,_,_RN135__,N,0,51,51,67,,,0.919,1120.515285596426,1120.8652526223668,1120.8819124690963,1121.1652632826554,1121.1985780101422,None,up,1121.1985780101422,None,1121.1985780101422,1122.081888566212,0.057344740507687675,None,1.6668146526644705,,,,,,,,,32,001,2019_Dec_25_1339,untitled,3.1.0,60.00417170741802,
176,F,M,315,L,N,176FM315LN,HLN,0,52,52,127,,,0.911,1122.948540268746,1123.2818659875884,1123.2985314624202,1123.581836257963,1123.6151566135522,None,down,1123.6151566135522,None,1123.6151566135522,1124.4984969654615,0.059116599724802654,None,2.6001785763946828,,,,,,,,,32,001,2019_Dec_25_1339,untitled,3.1.0,60.00417170741802,
_,F,N,90,_,_,_FN090__,N,0,53,53,50,,,1.057,1126.2984791541712,1126.6317903061572,1126.6484716721025,1126.9317787850996,1126.965116356063,None,up,1126.965116356063,None,1126.965116356063,1127.9817530282526,0.05723747548472602,None,1.9668107461002364,,,,,,,,,32,001,2019_Dec_25_1339,untitled,3.1.0,60.00417170741802,
045,R,M,180,L,N,045RM180LN,HLN,0,54,54,108,,,1.323,1128.9984241311868,1129.3483974473602,1129.3650652396464,1129.648389899081,1129.6817125721245,None,up,1129.6817125721245,None,1129.6817125721245,1130.965028292805,0.05774897071751184,None,2.9001289828775043,,,,,,,,,32,001,2019_Dec_25_1339,untitled,3.1.0,60.00417170741802,
431,_4,M,270,L,N,431_4M270LN,HLN,0,55,55,174,,,1.156,1132.6483306384653,1132.998285415004,1133.0149806856753,1133.2982781977917,1133.3316250385687,None,down,1133.3316250385687,None,1133.3316250385687,1134.4482823692088,0.058377662920975126,None,3.2001452712684113,,,,,,,,,32,001,2019_Dec_25_1339,untitled,3.1.0,60.00417170741802,
_,G,M,180,_,_,_GM180__,N,0,56,56,12,,,0.924,1136.5982345634402,1136.9482323784105,1136.9648763340265,1137.2482221816135,1137.2815501516961,None,down,1137.2815501516961,None,1137.2815501516961,1138.16488619976,0.058218420712364605,None,2.2666575292751077,,,,,,,,,32,001,2019_Dec_25_1339,untitled,3.1.0,60.00417170741802,
496,_5,M,315,L,N,496_5M315LN,HLN,0,57,57,191,,,1.169,1139.631527109581,1139.964848193511,1139.9814944665814,1140.2648048902265,1140.2981550416553,None,None,1140.2981550416553,None,1140.2981550416553,1141.4481426598286,0.058337273007055046,None,,,,,,,,,,32,001,2019_Dec_25_1339,untitled,3.1.0,60.00417170741802,
387,_4,N,90,R,N,387_4N090RN,HRN,0,58,58,258,,,1.393,1143.8147198727675,1144.1647375516295,1144.1814397746639,1144.4647256995086,1144.498068567511,1143.8147198727675,up,1144.498068567511,None,1144.498068567511,1145.8480051354782,0.05713550750078866,None,2.2001346771940007,,,,,,,,,32,001,2019_Dec_25_1339,untitled,3.1.0,60.00417170741802,
457,_5,M,0,R,N,457_5M000RN,HRN,0,59,59,176,,,1.307,1146.764675443861,1147.114679549064,1147.1313430375085,1147.4146577649954,1147.4479986466067,None,down,1147.4479986466067,None,1147.4479986466067,1148.7312938412688,0.05841308686285629,None,2.233455694909935,,,,,,,,,32,001,2019_Dec_25_1339,untitled,3.1.0,60.00417170741802,
493,_5,M,180,L,N,493_5M180LN,HLN,0,60,60,188,,,1.318,1149.7646509450606,1150.097940577827,1150.1146050594689,1150.397909855008,1150.4312775528742,None,down,1150.4312775528742,None,1150.4312775528742,1151.7145492419295,0.05927319341208204,None,2.68341424558821,,,,,,,,,32,001,2019_Dec_25_1339,untitled,3.1.0,60.00417170741802,
_,F,N,180,_,_,_FN180__,N,0,61,61,52,,,1.244,1153.1812123330965,1153.5312286877015,1153.5478627113698,1153.831192005713,1153.8644941527346,None,up,1153.8644941527346,None,1153.8644941527346,1155.0811612166763,0.057512921459419886,None,2.4668375623550673,,,,,,,,,32,001,2019_Dec_25_1339,untitled,3.1.0,60.00417170741802,
231,G,N,270,L,N,231GN270LN,HLN,0,62,62,238,,,1.214,1156.3978290751766,1156.7477749129648,1156.7644695215058,1157.047788552838,1157.081118840375,None,down,1157.081118840375,None,1157.081118840375,1158.2644198617745,0.05782842628832441,None,2.233463971533638,,,,,,,,,32,001,2019_Dec_25_1339,untitled,3.1.0,60.00417170741802,
042,R,M,45,L,N,042RM045LN,HLN,0,63,63,105,,,1.331,1159.3810603081038,1159.7310266719105,1159.7476941331333,1160.0310528922491,1160.0643901321491,None,up,1160.0643901321491,None,1160.0643901321491,1161.3810073377244,0.058544519619317725,None,2.1834625810624857,,,,,,,,,32,001,2019_Dec_25_1339,untitled,3.1.0,60.00417170741802,
_,R,M,315,_,_,_RM315__,N,0,64,64,23,,,0.72,1162.3143331889914,1162.664309153679,1162.6809607237883,1162.9642996190123,1162.9976726139175,None,down,1162.9976726139175,None,1162.9976726139175,1163.6809915128215,0.05846572617883794,None,2.1500981938406767,,,,,,,,,32,001,2019_Dec_25_1339,untitled,3.1.0,60.00417170741802,
236,G,M,135,L,N,236GM135LN,HLN,0,65,65,139,,,1.285,1165.2309223864759,1165.564265982819,1165.5809122558894,1165.8642355910633,1165.8975936880524,None,up,1165.8975936880524,None,1165.8975936880524,1167.1475552845259,0.05827999878238188,None,3.183492376901995,,,,,,,,,32,001,2019_Dec_25_1339,untitled,3.1.0,60.00417170741802,
015,R,M,270,R,N,015RM270RN,HRN,0,66,66,102,,,1.089,1169.1474953617835,1169.4975113853216,1169.5141735495054,1169.7975044991726,1169.830847036108,None,down,1169.830847036108,None,1169.830847036108,1170.8808057192145,0.057654286163597135,None,3.300095412894734,,,,,,,,,32,001,2019_Dec_25_1339,untitled,3.1.0,60.00417170741802,
_,F,N,270,_,_,_FN270__,N,0,67,67,54,,,1.231,1173.197430870343,1173.5474220640172,1173.5641107133924,1173.8474178263896,1173.8807388441091,None,up,1173.8807388441091,None,1173.8807388441091,1175.0973969693005,0.05743677654390922,None,2.8001291815126024,,,,,,,,,32,001,2019_Dec_25_1339,untitled,3.1.0,60.00417170741802,
_,F,M,180,_,_,_FM180__,N,0,68,68,4,,,0.78,1176.7473405558449,1177.0973439989211,1177.1140160950526,1177.397343403005,1177.4306657449815,None,up,1177.4306657449815,None,1177.4306657449815,1178.1806521713224,0.058233318635757314,None,2.8501530844005174,,,,,,,,,32,001,2019_Dec_25_1339,untitled,3.1.0,60.00417170741802,
_,_5,N,135,_,_,__5N135__,N,0,69,69,91,,,1.081,1180.3472873868268,1180.6972722902683,1180.7139298195434,1180.9972634177284,1181.030603637213,None,up,1181.030603637213,None,1181.030603637213,1182.0805649688336,0.057776780169660924,None,2.7001032260304783,,,,,,,,,32,001,2019_Dec_25_1339,untitled,3.1.0,60.00417170741802,
_,_4,M,90,_,_,__4M090__,N,0,70,70,34,,,0.928,1183.7971853526324,1184.1471878025113,1184.1638516220191,1184.4471809163624,1184.4804903468103,None,down,1184.4804903468103,None,1184.4804903468103,1185.3971619794502,0.05607245818464435,None,2.150195195848937,,,,,,,,,32,001,2019_Dec_25_1339,untitled,3.1.0,60.00417170741802,
043,R,M,90,L,N,043RM090LN,HLN,0,71,71,106,,,1.185,1186.6971213246834,1187.0471257609533,1187.0637717029604,1187.347118543741,1187.380425987798,None,down,1187.380425987798,None,1187.380425987798,1188.5303953974035,0.0583395904614008,None,2.8668116068693053,,,,,,,,,32,001,2019_Dec_25_1339,untitled,3.1.0,60.00417170741802,
040,R,N,315,L,N,040RN315LN,HLN,0,72,72,207,,,0.811,1190.3303954636176,1190.6637185339387,1190.680377056411,1190.963707012881,1190.9970343208333,None,up,1190.9970343208333,None,1190.9970343208333,1191.780353683229,0.05936125666994485,None,1.6501743387671013,,,,,,,,,32,001,2019_Dec_25_1339,untitled,3.1.0,60.00417170741802,
200,G,N,315,R,N,200GN315RN,HRN,0,73,73,231,,,0.799,1192.730359907251,1193.06366245155,1193.0803438174953,1193.363624776368,1193.3969825422864,None,down,1193.3969825422864,None,1193.3969825422864,1194.1802694603248,0.05835084666250623,None,2.50013341914746,,,,,,,,,32,001,2019_Dec_25_1339,untitled,3.1.0,60.00417170741802,
423,_4,N,270,L,N,423_4N270LN,HLN,0,74,74,270,,,1.293,1195.9636106730031,1196.3136164335338,1196.3302544299804,1196.613580413672,1196.6469153361177,None,down,1196.6469153361177,None,1196.6469153361177,1197.8969103701456,0.05803633503455785,None,2.833479001878004,,,,,,,,,32,001,2019_Dec_25_1339,untitled,3.1.0,60.00417170741802,
419,_4,N,90,L,N,419_4N090LN,HLN,0,75,75,266,,,0.77,1199.5468797797512,1199.8968815674998,1199.9135357861269,1200.196846209772,1200.230188415644,None,up,1200.230188415644,None,1200.230188415644,1200.980186429253,0.05736526652617613,None,1.5000132425957418,,,,,,,,,32,001,2019_Dec_25_1339,untitled,3.1.0,60.00417170741802,
170,F,M,45,L,N,170FM045LN,HLN,0,76,76,121,,,1.302,1201.8134955948517,1202.1468103885527,1202.1634646071798,1202.4468197245806,1202.4801473635998,None,down,1202.4801473635998,None,1202.4801473635998,1203.7634180594578,0.0589636477525346,None,2.4500042376312194,,,,,,,,,32,001,2019_Dec_25_1339,untitled,3.1.0,60.00417170741802,
004,R,N,135,R,N,004RN135RN,HRN,0,77,77,195,,,0.7000000000000001,1205.0134213701058,1205.3467222590807,1205.3634036250296,1205.646734574697,1205.6800569166735,None,up,1205.6800569166735,None,1205.6800569166735,1206.3633751534508,0.05862033347511897,None,1.500320139733958,,,,,,,,,32,001,2019_Dec_25_1339,untitled,3.1.0,60.00417170741802,
207,G,M,270,R,N,207GM270RN,HRN,0,78,78,134,,,0.9540000000000001,1207.2466972967886,1207.5967014019952,1207.6133695253484,1207.8966948469097,1207.9300281140313,None,up,1207.9300281140313,None,1207.9300281140313,1208.8466388307315,0.057818494344246574,None,1.7501466617432015,,,,,,,,,32,001,2019_Dec_25_1339,untitled,3.1.0,60.00417170741802,
272,_2,M,315,R,N,272_2M315RN,HRN,0,79,79,151,,,0.884,1209.7466532651633,1210.0966176425827,1210.1132771582452,1210.3966044661975,1210.4299354158647,None,down,1210.4299354158647,None,1210.4299354158647,1211.2799292580567,0.057962507562479004,None,2.350159374629584,,,,,,,,,32,001,2019_Dec_25_1339,untitled,3.1.0,60.00417170741802,
290,_2,N,45,L,N,290_2N045LN,HLN,0,80,80,249,,,1.158,1212.8632433896273,1213.1965753987024,1213.2132743110888,1213.4965704989409,1213.5298713217053,None,down,1213.5298713217053,None,1213.5298713217053,1214.646544874522,0.06249908957397565,None,2.516832662597153,,,,,,,,,32,001,2019_Dec_25_1339,untitled,3.1.0,60.00417170741802,
227,G,N,90,L,N,227GN090LN,HLN,0,81,81,234,,,1.358,1216.1298476174597,1216.46313725023,1216.4798202714992,1216.7631770442276,1216.7964924338448,None,up,1216.7964924338448,None,1216.7964924338448,1218.1131341382206,0.058374683336296584,None,2.116847361878172,,,,,,,,,32,001,2019_Dec_25_1339,untitled,3.1.0,60.00417170741802,
002,R,N,45,R,N,002RN045RN,HRN,0,82,82,193,,,1.303,1218.9797716049652,1219.3297796829465,1219.346457076117,1219.6297598852689,1219.6631010979436,None,down,1219.6631010979436,None,1219.6631010979436,1220.946405231356,0.05766951514669927,None,2.333476353360311,,,,,,,,,32,001,2019_Dec_25_1339,untitled,3.1.0,60.00417170741802,
239,G,M,270,L,N,239GM270LN,HLN,0,83,83,142,,,1.157,1222.0630291244415,1222.4130401820075,1222.4297046636457,1222.7130038310825,1222.7463347807497,None,down,1222.7463347807497,None,1222.7463347807497,1223.8629970773618,0.05773970090376679,None,2.416855373649014,,,,,,,,,32,001,2019_Dec_25_1339,untitled,3.1.0,60.00417170741802,
_,_5,N,45,_,_,__5N045__,N,0,84,84,89,,,0.844,1225.2296196461866,1225.5796161368962,1225.5962912126124,1225.8795711782877,1225.9129411936083,None,down,1225.9129411936083,None,1225.9129411936083,1226.7296093831756,0.05794959603372263,None,2.1002951112313895,,,,,,,,,32,001,2019_Dec_25_1339,untitled,3.1.0,60.00417170741802,
237,G,M,180,L,N,237GM180LN,HLN,0,85,85,140,,,1.0,1228.0795724363343,1228.4295728998259,1228.446242347436,1228.7295408527461,1228.7628459793523,None,down,1228.7628459793523,None,1228.7628459793523,1229.7461851394255,0.057440087188297184,None,2.1002067169101792,,,,,,,,,32,001,2019_Dec_25_1339,untitled,3.1.0,60.00417170741802,
_,F,M,0,_,_,_FM000__,N,0,86,86,0,,,0.921,1230.9294835123073,1231.2794849689926,1231.2961669970719,1231.5795055612289,1231.612871934838,None,down,1231.612871934838,None,1231.612871934838,1232.4961566678467,0.054651527734677074,None,2.2501844031357905,,,,,,,,,32,001,2019_Dec_25_1339,untitled,3.1.0,60.00417170741802,
296,_2,N,315,L,N,296_2N315LN,HLN,0,87,87,255,,,1.193,1233.9461248194057,1234.2794293500956,1234.29607727849,1234.5794390171905,1234.6127716221781,None,down,1234.6127716221781,None,1234.6127716221781,1235.7627224921525,0.058799108508537756,None,2.7002949125926534,,,,,,,,,32,001,2019_Dec_25_1339,untitled,3.1.0,60.00417170741802,
267,_2,M,90,R,N,267_2M090RN,HRN,0,88,88,146,,,1.042,1237.3960654925795,1237.7293514836347,1237.7459990809657,1238.0293618128599,1238.0626947489145,None,down,1238.0626947489145,None,1238.0626947489145,1239.0793387045305,0.05853028382989578,None,3.0502712083471124,,,,,,,,,32,001,2019_Dec_25_1339,untitled,3.1.0,60.00417170741802,
_,G,N,225,_,_,_GN225__,N,0,89,89,61,,,1.121,1241.1792756035647,1241.5292833504827,1241.5459504806422,1241.8292827545665,1241.8625888743663,None,up,1241.8625888743663,None,1241.8625888743663,1242.9458934050563,0.05620058028944186,None,3.1668249156791717,,,,,,,,,32,001,2019_Dec_25_1339,untitled,3.1.0,60.00417170741802,
_,_5,N,90,_,_,__5N090__,N,0,90,90,90,,,1.107,1245.0958538759114,1245.4458871148236,1245.4625314015066,1245.745824609774,1245.7791386751342,None,up,1245.7791386751342,None,1245.7791386751342,1246.862495183006,0.054189692229556385,None,2.0335613708193705,,,,,,,,,32,001,2019_Dec_25_1339,untitled,3.1.0,60.00417170741802,
014,R,M,225,R,N,014RM225RN,HRN,0,91,91,101,,,0.932,1247.8791424492738,1248.2291237110003,1248.2458054080125,1248.5291313917041,1248.5624593617868,None,down,1248.5624593617868,None,1248.5624593617868,1249.4790849764104,0.058211799419950694,None,2.350174603616324,,,,,,,,,32,001,2019_Dec_25_1339,untitled,3.1.0,60.00417170741802,
_,F,N,225,_,_,_FN225__,N,0,92,92,53,,,1.367,1250.9790627950642,1251.3290682245279,1251.3457333682964,1251.6290514064312,1251.6623714309571,None,up,1251.6623714309571,None,1251.6623714309571,1253.0123454092573,0.05683225207394571,None,2.4001654000130657,,,,,,,,,32,001,2019_Dec_25_1339,untitled,3.1.0,60.00417170741802,
167,F,N,270,L,N,167FN270LN,HLN,0,93,93,222,,,0.838,1254.1289944632736,1254.4789816841694,1254.4956385513142,1254.779003931726,1254.812325611576,None,up,1254.812325611576,None,1254.812325611576,1255.6289736061844,0.05629096100165043,None,2.3167701575475803,,,,,,,,,32,001,2019_Dec_25_1339,untitled,3.1.0,60.00417170741802,
_,R,N,45,_,_,_RN045__,N,0,94,94,65,,,0.93,1257.1956037232885,1257.5455978965474,1257.5622640335096,1257.845566180531,1257.8789179872874,None,up,1257.8789179872874,None,1257.8789179872874,1258.795569756032,0.05502000294291065,None,2.4168980810172798,,,,,,,,,32,001,2019_Dec_25_1339,untitled,3.1.0,60.00417170741802,
165,F,N,180,L,N,165FN180LN,HLN,0,95,95,220,,,1.185,1260.3622184127707,1260.7122122549627,1260.7288856753548,1261.0121716001959,1261.0455025498632,None,up,1261.0455025498632,None,1261.0455025498632,1262.1954703041447,0.05759966046025511,None,3.400138914821582,,,,,,,,,32,001,2019_Dec_25_1339,untitled,3.1.0,60.00417170741802,
289,_2,N,0,L,N,289_2N000LN,HLN,0,96,96,248,,,1.377,1264.512099096988,1264.8621041953884,1264.8787643731812,1265.1620615542306,1265.1953789302388,None,None,1265.1953789302388,None,1265.1953789302388,1266.5453999197525,0.05752550192846684,None,,,,,,,,,,32,001,2019_Dec_25_1339,untitled,3.1.0,60.00417170741802,
_,_2,M,45,_,_,__2M045__,N,0,97,97,25,,,1.018,1268.7120136160374,1269.062012093138,1269.0786616768564,1269.3619942818477,1269.3952855037314,1268.7120136160374,down,1269.3952855037314,None,1269.3952855037314,1270.3786256569983,0.05575662229239242,None,2.716678320150095,,,,,,,,,32,001,2019_Dec_25_1339,untitled,3.1.0,60.00417170741802,
395,_4,M,90,R,N,395_4M090RN,HRN,0,98,98,162,,,1.24,1272.1785777188052,1272.528602018967,1272.5453025866773,1272.828574275729,1272.8619227718336,None,up,1272.8619227718336,None,1272.8619227718336,1274.0785686476265,0.05613370518403826,None,2.5334537747330614,,,,,,,,,32,001,2019_Dec_25_1339,untitled,3.1.0,60.00417170741802,
037,R,N,180,L,N,037RN180LN,HLN,0,99,99,204,,,1.353,1275.4618851628657,1275.8118674177895,1275.828527264519,1276.1118539103409,1276.1451878395892,None,up,1276.1451878395892,None,1276.1451878395892,1277.4618252401233,0.05864880505396286,None,2.5502404193139228,,,,,,,,,32,001,2019_Dec_25_1339,untitled,3.1.0,60.00417170741802,
263,_2,N,270,R,N,263_2N270RN,HRN,0,100,100,246,,,0.779,1278.778466944499,1279.1117552530086,1279.1284293355275,1279.4117619405188,1279.445094214443,None,up,1279.445094214443,None,1279.445094214443,1280.1950356159614,0.05900006488809595,None,1.6835234969985322,,,,,,,,,32,001,2019_Dec_25_1339,untitled,3.1.0,60.00417170741802,
491,_5,M,90,L,N,491_5M090LN,HLN,0,101,101,186,,,1.16,1281.2117355215414,1281.5450691859405,1281.5617349918357,1281.8450348214064,1281.8783949047793,None,down,1281.8783949047793,None,1281.8783949047793,1282.9950383306932,0.05776155118292081,None,3.2667588351287122,,,,,,,,,32,001,2019_Dec_25_1339,untitled,3.1.0,60.00417170741802,
135,F,N,270,R,N,135FN270RN,HRN,0,102,102,214,,,0.888,1285.211658383425,1285.5616475907082,1285.578326970266,1285.861646994792,1285.8949627154761,None,up,1285.8949627154761,None,1285.8949627154761,1286.7448946485347,0.05515143569573411,None,1.750162221789651,,,,,,,,,32,001,2019_Dec_25_1339,untitled,3.1.0,60.00417170741802,
464,_5,M,315,R,N,464_5M315RN,HRN,0,103,103,183,,,0.967,1287.7115934947105,1288.0615668108803,1288.0782316235818,1288.3615579383404,1288.3949077587058,None,up,1288.3949077587058,None,1288.3949077587058,1289.3448719374865,0.05826344553861418,None,2.966803793737199,,,,,,,,,32,001,2019_Dec_25_1339,untitled,3.1.0,60.00417170741802,
_,_2,M,135,_,_,__2M135__,N,0,104,104,27,,,0.794,1291.4448697524567,1291.7781693171746,1291.7948381026545,1292.078169714452,1292.1115019883764,None,down,1292.1115019883764,None,1292.1115019883764,1292.8947898996084,0.05876103604896343,None,2.900106139397394,,,,,,,,,32,001,2019_Dec_25_1339,untitled,3.1.0,60.00417170741802,
420,_4,N,135,L,N,420_4N135LN,HLN,0,105,105,267,,,1.123,1295.0947451396387,1295.4280950262146,1295.4447737436421,1295.728097409883,1295.7614296838074,None,down,1295.7614296838074,None,1295.7614296838074,1296.8447259378736,0.0583015179981885,None,3.3502524038594856,,,,,,,,,32,001,2019_Dec_25_1339,untitled,3.1.0,60.00417170741802,
_,G,M,225,_,_,_GM225__,N,0,106,106,13,,,1.1500000000000001,1299.1780082872174,1299.5279776306088,1299.544671577023,1299.8279803453406,1299.8613103018142,None,down,1299.8613103018142,None,1299.8613103018142,1300.9779848478247,0.05601617715365137,None,3.233561304608884,,,,,,,,,32,001,2019_Dec_25_1339,untitled,3.1.0,60.00417170741802,
424,_4,N,315,L,N,424_4N315LN,HLN,0,107,107,271,,,1.262,1303.1779298248402,1303.5112469359956,1303.527896519714,1303.8111824445587,1303.8445590811752,None,down,1303.8445590811752,None,1303.8445590811752,1305.0945140563526,0.05876765734501532,None,2.9334539733754355,,,,,,,,,32,001,2019_Dec_25_1339,untitled,3.1.0,60.00417170741802,
495,_5,M,270,L,N,495_5M270LN,HLN,0,108,108,190,,,0.794,1306.8611556945143,1307.1945032636395,1307.211180325743,1307.4944675748447,1307.527807132199,None,None,1307.527807132199,None,1307.527807132199,1308.311128480982,0.05875673220361932,None,,,,,,,,,,32,001,2019_Dec_25_1339,untitled,3.1.0,60.00417170741802,
013,R,M,180,R,N,013RM180RN,HRN,0,109,109,100,,,1.385,1311.061086104677,1311.3943919596277,1311.4110521374205,1311.6943827560244,1311.7277256240268,1311.061086104677,up,1311.7277256240268,None,1311.7277256240268,1313.077655570698,0.05812075657740934,None,2.5002794187566906,,,,,,,,,32,001,2019_Dec_25_1339,untitled,3.1.0,60.00417170741802,
_,_2,N,135,_,_,__2N135__,N,0,110,110,75,,,1.232,1314.2943514372855,1314.6443373339207,1314.6610041330168,1314.9443129013343,1314.9776584178544,None,down,1314.9776584178544,None,1314.9776584178544,1316.1942738356774,0.055655978569120634,None,2.316817830887885,,,,,,,,,32,001,2019_Dec_25_1339,untitled,3.1.0,60.00417170741802,
450,_5,N,45,R,N,450_5N045RN,HRN,0,111,111,273,,,0.8220000000000001,1317.3609448061907,1317.7109363309282,1317.7276064406688,1318.010930437973,1318.0442650293517,None,down,1318.0442650293517,None,1318.0442650293517,1318.8275886955926,0.058286951141781174,None,2.2335980528077926,,,,,,,,,32,001,2019_Dec_25_1339,untitled,3.1.0,60.00417170741802,
486,_5,N,225,L,N,486_5N225LN,HLN,0,112,112,285,,,0.871,1320.360848797376,1320.6941721987605,1320.7108701179532,1320.994165974742,1321.027508180614,None,up,1321.027508180614,None,1321.027508180614,1321.8774517009479,0.059602602963423124,None,1.8668129311299708,,,,,,,,,32,001,2019_Dec_25_1339,untitled,3.1.0,60.00417170741802,
489,_5,M,0,L,N,489_5M000LN,HLN,0,113,113,184,,,1.262,1322.9774925543534,1323.3108106587024,1323.3274814305732,1323.6108146976912,1323.6441304183754,None,down,1323.6441304183754,None,1323.6441304183754,1324.8941115476773,0.057662562787299976,None,2.7834815841852105,,,,,,,,,32,001,2019_Dec_25_1339,untitled,3.1.0,60.00417170741802,
161,F,N,0,L,N,161FN000LN,HLN,0,114,114,216,,,0.806,1326.494076587227,1326.8440565246929,1326.8607362353177,1327.144070164566,1327.1773726426545,None,down,1327.1773726426545,None,1327.1773726426545,1327.960690349726,0.05648430288783857,None,2.700199565904768,,,,,,,,,32,001,2019_Dec_25_1339,untitled,3.1.0,60.00417170741802,
046,R,M,225,L,N,046RM225LN,HLN,0,115,115,109,,,0.7010000000000001,1329.9440050109988,1330.2940001774514,1330.3106639969592,1330.5939916359785,1330.6273169575397,None,down,1330.6273169575397,None,1330.6273169575397,1331.3106027499598,0.05837534546299139,None,2.300129843646573,,,,,,,,,32,001,2019_Dec_25_1339,untitled,3.1.0,60.00417170741802,
303,_2,M,270,L,N,303_2M270LN,HLN,0,116,116,158,,,1.211,1333.0105871236956,1333.343905890175,1333.360563750517,1333.6438927137933,1333.6772597495292,None,down,1333.6772597495292,None,1333.6772597495292,1334.8605322993535,0.059147719821339706,None,2.6502869008218113,,,,,,,,,32,001,2019_Dec_25_1339,untitled,3.1.0,60.00417170741802,
304,_2,M,315,L,N,304_2M315LN,HLN,0,117,117,159,,,0.733,1336.4105287238526,1336.743850469913,1336.7605149515548,1337.0438253751963,1337.0771910866752,None,down,1337.0771910866752,None,1337.0771910866752,1337.7938270305203,0.05801051197340712,None,2.8001576530950842,,,,,,,,,32,001,2019_Dec_25_1339,untitled,3.1.0,60.00417170741802,
169,F,M,0,L,N,169FM000LN,HLN,0,118,118,120,,,0.991,1339.9437858460515,1340.2937535341189,1340.310421657472,1340.593756910981,1340.6270994479164,None,None,1340.6270994479164,None,1340.6270994479164,1341.5770881254975,0.0567604109965032,None,,,,,,,,,,32,001,2019_Dec_25_1339,untitled,3.1.0,60.00417170741802,
_,_2,M,270,_,_,__2M270__,N,0,119,119,30,,,1.072,1344.1436953991251,1344.4936581212205,1344.5103341901304,1344.7936386546062,1344.827011318448,1344.1436953991251,down,1344.827011318448,None,1344.827011318448,1345.8769935071577,0.05650052506825887,None,2.9835987149381253,,,,,,,,,32,001,2019_Dec_25_1339,untitled,3.1.0,60.00417170741802,
265,_2,M,0,R,N,265_2M000RN,HRN,0,120,120,144,,,0.748,1347.89360534948,1348.226938682812,1348.2435958810238,1348.5269291481454,1348.5602561250307,None,down,1348.5602561250307,None,1348.5602561250307,1349.276907628926,0.05929371943784645,None,2.350260349419841,,,,,,,,,32,001,2019_Dec_25_1339,untitled,3.1.0,60.00417170741802,
299,_2,M,90,L,N,299_2M090LN,HLN,0,121,121,154,,,1.393,1350.993516425453,1351.3268583664758,1351.3435082812575,1351.626878296578,1351.6601605797077,None,up,1351.6601605797077,None,1351.6601605797077,1353.010121977546,0.0582230556246941,None,2.166858022163069,,,,,,,,,32,001,2019_Dec_25_1339,untitled,3.1.0,60.00417170741802,
_,_2,M,90,_,_,__2M090__,N,0,122,122,26,,,1.2670000000000001,1353.893456039219,1354.2434293553924,1354.260103106848,1354.5434565689247,1354.5767726206723,None,up,1354.5767726206723,None,1354.5767726206723,1355.826763350855,0.056477350524801295,None,2.116828160113073,,,,,,,,,32,001,2019_Dec_25_1339,untitled,3.1.0,60.00417170741802,
226,G,N,45,L,N,226GN045LN,HLN,0,123,123,233,,,1.1260000000000001,1356.7600769527198,1357.11005821445,1357.1267213718274,1357.4100678815448,1357.443388237134,None,down,1357.443388237134,None,1357.443388237134,1358.526682504813,0.0577118914516177,None,2.800282795615203,,,,,,,,,32,001,2019_Dec_25_1339,untitled,3.1.0,60.00417170741802,
_,G,N,45,_,_,_GN045__,N,0,124,124,57,,,0.7030000000000001,1360.3266557547686,1360.6599768387023,1360.6766429756644,1360.9599822019518,1360.9933250699542,None,down,1360.9933250699542,None,1360.9933250699542,1361.6765800733374,0.0579731016405276,None,1.7834921782632591,,,,,,,,,32,001,2019_Dec_25_1339,untitled,3.1.0,60.00417170741802,
_,_4,N,315,_,_,__4N315__,N,0,125,125,87,,,1.362,1362.8599238021088,1363.1932303191861,1363.209911685135,1363.4932456143833,1363.5265709359483,None,down,1363.5265709359483,None,1363.5265709359483,1364.8765286920716,0.05778141507835244,None,2.40015546806535,,,,,,,,,32,001,2019_Dec_25_1339,untitled,3.1.0,60.00417170741802,
300,_2,M,135,L,N,300_2M135LN,HLN,0,126,126,155,,,1.2510000000000001,1365.9931833741866,1366.343185161939,1366.3598347456573,1366.6431786068533,1366.6764992935096,None,up,1366.6764992935096,None,1366.6764992935096,1367.8931415275874,0.057211321360227885,None,2.0001691741526884,,,,,,,,,32,001,2019_Dec_25_1339,untitled,3.1.0,60.00417170741802,
039,R,N,270,L,N,039RN270LN,HLN,0,127,127,206,,,1.25,1368.7431496055688,1369.093102064653,1369.1097665462912,1369.393135568418,1369.4264751257724,None,up,1369.4264751257724,None,1369.4264751257724,1370.6430994823495,0.05799428979298682,None,3.2835630261433835,,,,,,,,,32,001,2019_Dec_25_1339,untitled,3.1.0,60.00417170741802,
201,G,M,0,R,N,201GM000RN,HRN,0,128,128,128,,,0.788,1372.7930331369462,1373.126380043941,1373.1430465119665,1373.426373157792,1373.45970642491,None,None,1373.45970642491,None,1373.45970642491,1374.2097001346774,0.05919307571457466,None,,,,,,,,,,32,001,2019_Dec_25_1339,untitled,3.1.0,60.00417170741802,
008,R,N,315,R,N,008RN315RN,HRN,0,129,129,199,,,0.907,1376.992937061921,1377.3262872795603,1377.3429514301351,1377.6262890010985,1377.6596007490007,1376.992937061921,up,1377.6596007490007,None,1377.6596007490007,1378.542897400348,0.05811148675638833,None,2.7168183605936065,,,,,,,,,32,001,2019_Dec_25_1339,untitled,3.1.0,60.00417170741802,
_,F,M,270,_,_,_FM270__,N,0,130,130,6,,,1.205,1380.4428820389367,1380.792883495622,1380.8095440044817,1381.092866346462,1381.126196633999,None,down,1381.126196633999,None,1381.126196633999,1382.3094910341024,0.056324067492823815,None,3.116905629292887,,,,,,,,,32,001,2019_Dec_25_1339,untitled,3.1.0,60.00417170741802,
482,_5,N,45,L,N,482_5N045LN,HLN,0,131,131,281,,,1.252,1384.3094638867806,1384.6594256156823,1384.6761059884338,1384.9594528292146,1384.9927834478185,None,up,1384.9927834478185,None,1384.9927834478185,1386.2094256818964,0.058163463945675176,None,3.2501314327564614,,,,,,,,,32,001,2019_Dec_25_1339,untitled,3.1.0,60.00417170741802,
399,_4,M,270,R,N,399_4M270RN,HRN,0,132,132,166,,,1.042,1388.3260502371086,1388.6593680103942,1388.6760500384698,1388.9593647659567,1388.9926953845606,None,down,1388.9926953845606,None,1388.9926953845606,1390.0093075579462,0.05931490758666769,None,3.150117726672761,,,,,,,,,32,001,2019_Dec_25_1339,untitled,3.1.0,60.00417170741802,
_,_4,N,45,_,_,__4N045__,N,0,133,133,81,,,1.343,1392.2092647843638,1392.5592841185535,1392.5759502555156,1392.8592782255982,1392.8926018918391,None,up,1392.8926018918391,None,1392.8926018918391,1394.209204530558,0.056746506270428654,None,3.200264454622811,,,,,,,,,32,001,2019_Dec_25_1339,untitled,3.1.0,60.00417170741802,
271,_2,M,270,R,N,271_2M270RN,HRN,0,134,134,150,,,0.862,1396.159209761383,1396.5091949958878,1396.5258617949803,1396.8091778467278,1396.8424733724532,None,down,1396.8424733724532,None,1396.8424733724532,1397.6925092598867,0.056445237234584056,None,3.200195593126409,,,,,,,,,32,001,2019_Dec_25_1339,untitled,3.1.0,60.00417170741802,
386,_4,N,45,R,N,386_4N045RN,HRN,0,135,135,257,,,1.203,1400.1090971331105,1400.4591085217435,1400.4757498288418,1400.7590672048464,1400.7924322541949,None,up,1400.7924322541949,None,1400.7924322541949,1401.9757514841658,0.05754371049624751,None,2.416805713914073,,,,,,,,,32,001,2019_Dec_25_1339,untitled,3.1.0,60.00417170741802,
195,G,N,90,R,N,195GN090RN,HRN,0,136,136,226,,,0.967,1403.2923845808546,1403.6257023541366,1403.642370808553,1403.9256726245112,1403.959012512929,None,down,1403.959012512929,None,1403.959012512929,1404.9089905964356,0.05950096605010913,None,2.433499660324742,,,,,,,,,32,001,2019_Dec_25_1339,untitled,3.1.0,60.00417170741802,
168,F,N,315,L,N,168FN315LN,HLN,0,137,137,223,,,1.018,1406.47562965229,1406.8089504051568,1406.8256195217036,1407.1089630518363,1407.1422781103902,None,down,1407.1422781103902,None,1407.1422781103902,1408.1256103181004,0.05911726185513544,None,3.266939265486144,,,,,,,,,32,001,2019_Dec_25_1339,untitled,3.1.0,60.00417170741802,
141,F,M,180,R,N,141FM180RN,HRN,0,138,138,116,,,0.76,1410.4755501967193,1410.8255473495628,1410.8422042167076,1411.125504708405,1411.1588532045098,None,up,1411.1588532045098,None,1411.1588532045098,1411.875533511051,0.05657004869135562,None,3.1168606044739136,,,,,,,,,32,001,2019_Dec_25_1339,untitled,3.1.0,60.00417170741802,
258,_2,N,45,R,N,258_2N045RN,HRN,0,139,139,241,,,1.287,1414.3421499220676,1414.692114630554,1414.708768518114,1414.992099136718,1415.0254304174487,None,up,1415.0254304174487,None,1415.0254304174487,1416.2754406804597,0.05758509360384778,None,2.8002596210790216,,,,,,,,,32,001,2019_Dec_25_1339,untitled,3.1.0,60.00417170741802,
_,G,N,0,_,_,_GN000__,N,0,140,140,56,,,1.326,1417.9087310415707,1418.2420253092496,1418.2586808521373,1418.5420078290226,1418.5753536766097,None,None,1418.5753536766097,None,1418.5753536766097,1419.8586806534986,0.06262390103074722,None,,,,,,,,,,32,001,2019_Dec_25_1339,untitled,3.1.0,60.00417170741802,
233,G,M,0,L,N,233GM000LN,HLN,0,141,141,136,,,1.231,1422.0919383716137,1422.4419845220546,1422.4586062963244,1422.7419485021965,1422.7752926944595,1422.0919383716137,down,1422.7752926944595,None,1422.7752926944595,1423.991927645111,0.057574830596422544,None,2.7667793611508387,,,,,,,,,32,001,2019_Dec_25_1339,untitled,3.1.0,60.00417170741802,
_,R,N,0,_,_,_RN000__,N,0,142,142,64,,,1.162,1425.6085469032878,1425.9585092943162,1425.9751757623453,1426.2585381631725,1426.2918803690445,None,up,1426.2918803690445,None,1426.2918803690445,1427.4418319011493,0.05367356208444107,None,2.833459800116543,,,,,,,,,32,001,2019_Dec_25_1339,untitled,3.1.0,60.00417170741802,
302,_2,M,225,L,N,302_2M225LN,HLN,0,143,143,157,,,0.867,1429.1917882005837,1429.54179992028,1429.5584597670095,1429.8417698595913,1429.8751021335156,None,down,1429.8751021335156,None,1429.8751021335156,1430.7250863748268,0.057859215325152036,None,1.9834739034813538,,,,,,,,,32,001,2019_Dec_25_1339,untitled,3.1.0,60.00417170741802,
_,_2,N,270,_,_,__2N270__,N,0,144,144,78,,,0.773,1431.9250594923578,1432.2750569762648,1432.2917154987372,1432.5750560492852,1432.6083840193678,None,down,1432.6083840193678,None,1432.6083840193678,1433.3583797155225,0.05694812478031963,None,2.1001848666273872,,,,,,,,,32,001,2019_Dec_25_1339,untitled,3.1.0,60.00417170741802,
012,R,M,135,R,N,012RM135RN,HRN,0,145,145,99,,,0.937,1434.7750129446395,1435.1249667279808,1435.1416464386057,1435.4249979142915,1435.458364950031,None,up,1435.458364950031,None,1435.458364950031,1436.3749803016399,0.05614595458609983,None,1.7169021200097632,,,,,,,,,32,001,2019_Dec_25_1339,untitled,3.1.0,60.00417170741802,
_,_4,N,180,_,_,__4N180__,N,0,146,146,84,,,0.932,1437.241640611861,1437.5915844632582,1437.608265829207,1437.8916282300343,1437.9249032297375,None,up,1437.9249032297375,None,1437.9249032297375,1438.8415304996852,0.054697214683983475,None,1.9669984598840529,,,,,,,,,32,001,2019_Dec_25_1339,untitled,3.1.0,60.00417170741802,
230,G,N,225,L,N,230GN225LN,HLN,0,147,147,237,,,0.715,1439.9582414628312,1440.308226697336,1440.3248918411045,1440.6082337159132,1440.6415587064112,None,down,1440.6415587064112,None,1440.6415587064112,1441.324866018047,0.05793204959627474,None,2.450134015063668,,,,,,,,,32,001,2019_Dec_25_1339,untitled,3.1.0,60.00417170741802,
047,R,M,270,L,N,047RM270LN,HLN,0,148,148,110,,,1.064,1443.1581539954896,1443.5081567764355,1443.5248258929823,1443.8081545251953,1443.84146428671,None,down,1443.84146428671,None,1443.84146428671,1444.89142429407,0.0572106592298951,None,2.633501911568601,,,,,,,,,32,001,2019_Dec_25_1339,untitled,3.1.0,60.00417170741802,
393,_4,M,0,R,N,393_4M000RN,HRN,0,149,149,160,,,1.031,1446.5580793734662,1446.8914136999956,1446.9080920863598,1447.1913449047133,1447.2247241898513,None,up,1447.2247241898513,None,1447.2247241898513,1448.24138999575,0.057051085961575154,None,2.683624802852137,,,,,,,,,32,001,2019_Dec_25_1339,untitled,3.1.0,60.00417170741802,
007,R,N,270,R,N,007RN270RN,HRN,0,150,150,198,,,1.156,1449.974678171835,1450.3246706897698,1450.34132457733,1450.6246449329192,1450.6579858145342,None,down,1450.6579858145342,None,1450.6579858145342,1451.7746242744724,0.055177920887217624,None,3.4334026583201194,,,,,,,,,32,001,2019_Dec_25_1339,untitled,3.1.0,60.00417170741802,
175,F,M,270,L,N,175FM270LN,HLN,0,151,151,126,,,0.9450000000000001,1454.1579245675312,1454.5079111262967,1454.5245782564562,1454.8078784170866,1454.8412169812473,None,up,1454.8412169812473,None,1454.8412169812473,1455.7578637840197,0.05794959603372263,None,2.666949396068958,,,,,,,,,32,001,2019_Dec_25_1339,untitled,3.1.0,60.00417170741802,
_,G,N,180,_,_,_GN180__,N,0,152,152,60,,,1.364,1457.5745750120186,1457.9244751628503,1457.941142624073,1458.2244811882338,1458.2578075029924,None,up,1458.2578075029924,None,1458.2578075029924,1459.6077781706445,0.057441411448962754,None,2.9668276304109895,,,,,,,,,32,001,2019_Dec_25_1339,untitled,3.1.0,60.00417170741802,
_,_2,M,225,_,_,__2M225__,N,0,153,153,29,,,1.01,1461.3077423494215,1461.6410687303942,1461.6577186451796,1461.9410740936437,1461.97441861697,None,down,1461.97441861697,None,1461.97441861697,1462.95769487472,0.05668823885571328,None,2.300156659897766,,,,,,,,,32,001,2019_Dec_25_1339,untitled,3.1.0,60.00417170741802,
_,R,M,270,_,_,_RM270__,N,0,154,154,22,,,1.227,1464.3410252946815,1464.6909992729816,1464.7076657410107,1464.9909927178996,1465.024328302472,None,down,1465.024328302472,None,1465.024328302472,1466.2076445528583,0.05404303048635484,None,2.100324907067261,,,,,,,,,32,001,2019_Dec_25_1339,untitled,3.1.0,60.00417170741802,
294,_2,N,225,L,N,294_2N225LN,HLN,0,155,155,253,,,0.792,1467.1909790780264,1467.540931868174,1467.5576049574993,1467.8409504740193,1467.8742857275283,None,down,1467.8742857275283,None,1467.8742857275283,1468.6242559316888,0.05788901116102352,None,2.7834494708913553,,,,,,,,,32,001,2019_Dec_25_1339,untitled,3.1.0,60.00417170741802,
_,_4,N,0,_,_,__4N000__,N,0,156,156,80,,,1.089,1470.724200114153,1471.0742108406557,1471.0908650592828,1471.3742162039052,1471.4075441739878,None,None,1471.4075441739878,None,1471.4075441739878,1472.4574806757446,0.057874113244906766,None,,,,,,,,,,32,001,2019_Dec_25_1339,untitled,3.1.0,60.00417170741802,
425,_4,M,0,L,N,425_4M000LN,HLN,0,157,157,168,,,0.754,1474.9407963302147,1475.2741001987742,1475.2907544174013,1475.5741015892454,1475.6073941353861,1474.9407963302147,up,1475.6073941353861,None,1475.6073941353861,1476.3241015892454,0.05786318809987279,None,1.3502093654278724,,,,,,,,,32,001,2019_Dec_25_1339,untitled,3.1.0,60.00417170741802,
_,R,M,180,_,_,_RM180__,N,0,158,158,20,,,0.74,1477.0240617952477,1477.374054313179,1477.3907168084297,1477.674030211656,1477.707372748595,None,up,1477.707372748595,None,1477.707372748595,1478.4240229282295,0.05634194499361911,None,2.116845044420188,,,,,,,,,32,001,2019_Dec_25_1339,untitled,3.1.0,60.00417170741802,
041,R,M,0,L,N,041RM000LN,HLN,0,159,159,104,,,1.027,1479.8906654933744,1480.240665625799,1480.2573397083215,1480.5406392068217,1480.5740148502482,None,down,1480.5740148502482,None,1480.5740148502482,1481.5572781964656,0.05758741106183152,None,2.1167973710798833,,,,,,,,,32,001,2019_Dec_25_1339,untitled,3.1.0,60.00417170741802,
_,_2,N,90,_,_,__2N090__,N,0,160,160,74,,,0.847,1482.7739545302284,1483.1072835597151,1483.1239328123702,1483.4072644241678,1483.4405957048984,None,up,1483.4405957048984,None,1483.4405957048984,1484.2572281394569,0.05828364049375523,None,2.1001395107377903,,,,,,,,,32,001,2019_Dec_25_1339,untitled,3.1.0,60.00417170741802,
_,_4,N,90,_,_,__4N090__,N,0,161,161,82,,,0.971,1485.6238920913893,1485.9572300596337,1485.9738819608065,1486.2571867563456,1486.2905107536499,None,up,1486.2905107536499,None,1486.2905107536499,1487.2405179708658,0.057006723265658366,None,2.3669026497118466,,,,,,,,,32,001,2019_Dec_25_1339,untitled,3.1.0,60.00417170741802,
426,_4,M,45,L,N,426_4M045LN,HLN,0,162,162,169,,,1.099,1488.723815085701,1489.0737543021896,1489.0904707610134,1489.373776218683,1489.4071369641897,None,down,1489.4071369641897,None,1489.4071369641897,1490.4904580481234,0.056904424218373606,None,2.5668029329717683,,,,,,,,,32,001,2019_Dec_25_1339,untitled,3.1.0,60.00417170741802,
_,R,M,0,_,_,_RM000__,N,0,163,163,16,,,1.037,1492.0404173933566,1492.3903821018394,1492.407069426954,1492.6903672701337,1492.7237197390168,None,down,1492.7237197390168,None,1492.7237197390168,1493.7403431686107,0.05715305394187453,None,2.2834269584818685,,,,,,,,,32,001,2019_Dec_25_1339,untitled,3.1.0,60.00417170741802,
038,R,N,225,L,N,038RN225LN,HLN,0,164,164,205,,,1.381,1495.0903509155287,1495.423662398578,1495.440340122812,1495.7236657754402,1495.7569675913983,None,down,1495.7569675913983,None,1495.7569675913983,1497.106932630948,0.059142422785953386,None,3.283478604600532,,,,,,,,,32,001,2019_Dec_25_1339,untitled,3.1.0,60.00417170741802,
_,G,M,0,_,_,_GM000__,N,0,165,165,8,,,1.343,1499.1068786673713,1499.4568890628107,1499.4735753947316,1499.7568997230992,1499.790203856508,None,None,1499.790203856508,None,1499.790203856508,1501.1068703907513,0.05741558838781202,None,,,,,,,,,,32,001,2019_Dec_25_1339,untitled,3.1.0,60.00417170741802,
398,_4,M,225,R,N,398_4M225RN,HRN,0,166,166,165,,,0.982,1503.3068170230908,1503.6568148380647,1503.6734644217831,1503.9568208634446,1503.9901501577879,1503.3068170230908,down,1503.9901501577879,None,1503.9901501577879,1504.9401024182298,0.055587448139704065,None,2.083448874975147,,,,,,,,,32,001,2019_Dec_25_1339,untitled,3.1.0,60.00417170741802,
_,_5,M,270,_,_,__5M270__,N,0,167,167,46,,,0.792,1506.1400987103043,1506.4900733507347,1506.5067510749686,1506.7900525598598,1506.823367949477,None,down,1506.823367949477,None,1506.823367949477,1507.573376888231,0.05687529050919693,None,2.950152554694796,,,,,,,,,32,001,2019_Dec_25_1339,untitled,3.1.0,60.00417170741802,
291,_2,N,90,L,N,291_2N090LN,HLN,0,168,168,250,,,0.8,1509.856663144139,1510.1899901872384,1510.2066559931372,1510.4899823078958,1510.5233265001552,None,up,1510.5233265001552,None,1510.5233265001552,1511.3066355995397,0.05786484342752374,None,1.4668766280119598,,,,,,,,,32,001,2019_Dec_25_1339,untitled,3.1.0,60.00417170741802,
_,_5,N,315,_,_,__5N315__,N,0,169,169,95,,,1.364,1512.0566458625508,1512.4066006390894,1512.4232363180818,1512.7066126236386,1512.7399184123715,None,down,1512.7399184123715,None,1512.7399184123715,1514.0898940459992,0.05743710760725662,None,2.816792669957067,,,,,,,,,32,001,2019_Dec_25_1339,untitled,3.1.0,60.00417170741802,
_,_4,N,270,_,_,__4N270__,N,0,170,170,86,,,1.072,1515.6232210228845,1515.9732271144785,1515.9898727254185,1516.27322089046,1516.3065472052185,None,down,1516.3065472052185,None,1516.3065472052185,1517.3565181377198,0.05810983143601334,None,2.13346847401408,,,,,,,,,32,001,2019_Dec_25_1339,untitled,3.1.0,60.00417170741802,
193,G,N,0,R,N,193GN000RN,HRN,0,171,171,224,,,0.9430000000000001,1518.506483574547,1518.8564860244296,1518.8731634175965,1519.15647781402,1519.1897965142853,None,down,1519.1897965142853,None,1519.1897965142853,1520.1064684779885,0.058267087253625505,None,3.066958202398382,,,,,,,,,32,001,2019_Dec_25_1339,untitled,3.1.0,60.00417170741802,
481,_5,N,0,L,N,481_5N000LN,HLN,0,172,172,280,,,1.297,1522.339749370647,1522.673050259622,1522.6897024918617,1522.9730629063015,1523.0063776337884,None,None,1523.0063776337884,None,1523.0063776337884,1524.2897095766493,0.06046304057963425,None,,,,,,,,,,32,001,2019_Dec_25_1339,untitled,3.1.0,60.00417170741802,
205,G,M,180,R,N,205GM180RN,HRN,0,173,173,132,,,0.711,1526.5396619033054,1526.872976365943,1526.8896494552682,1527.1729595478464,1527.2062630191285,1526.5396619033054,down,1527.2062630191285,None,1527.2062630191285,1527.8896024440546,0.060228977712540654,None,2.2335368058083986,,,,,,,,,32,001,2019_Dec_25_1339,untitled,3.1.0,60.00417170741802,
142,F,M,225,R,N,142FM225RN,HRN,0,174,174,117,,,0.795,1529.5062256750098,1529.8562506373019,1529.872911477225,1530.1562341502686,1530.1895727144292,None,down,1530.1895727144292,None,1530.1895727144292,1530.9728943942791,0.05893318978269235,None,2.0501536803130875,,,,,,,,,32,001,2019_Dec_25_1339,untitled,3.1.0,60.00417170741802,
392,_4,N,315,R,N,392_4N315RN,HRN,0,175,175,263,,,1.116,1532.306167804869,1532.6561782003046,1532.6728456615274,1532.9561401940591,1532.9894830620615,None,down,1532.9894830620615,None,1532.9894830620615,1534.072835597155,0.05790159163007047,None,2.3835512402329186,,,,,,,,,32,001,2019_Dec_25_1339,untitled,3.1.0,60.00417170741802,
_,_5,M,135,_,_,__5M135__,N,0,176,176,43,,,0.883,1535.456121323361,1535.7894251919206,1535.8061072199962,1536.0894351900788,1536.1227707746548,None,up,1536.1227707746548,None,1536.1227707746548,1536.972698734935,0.05987937320242054,None,2.3169449598026404,,,,,,,,,32,001,2019_Dec_25_1339,untitled,3.1.0,60.00417170741802,
_,G,M,135,_,_,_GM135__,N,0,177,177,11,,,1.081,1538.5227213135622,1538.856049018792,1538.8727151557541,1539.1560600101438,1539.1893793725394,None,up,1539.1893793725394,None,1539.1893793725394,1540.2393188538808,0.05911097162243095,None,3.2836246042134007,,,,,,,,,32,001,2019_Dec_25_1339,untitled,3.1.0,60.00417170741802,
_,G,N,135,_,_,_GN135__,N,0,178,178,59,,,0.993,1542.5392871378644,1542.8892766762146,1542.9059491034095,1543.1892790598831,1543.2226123270048,None,up,1543.2226123270048,None,1543.2226123270048,1544.1725695534224,0.05656177207129076,None,2.466745526318846,,,,,,,,,32,001,2019_Dec_25_1339,untitled,3.1.0,60.00417170741802,
394,_4,M,45,R,N,394_4M045RN,HRN,0,179,179,161,,,1.2570000000000001,1545.755883353926,1546.1058517041238,1546.1225569067428,1546.4058815661774,1546.4392317176062,None,down,1546.4392317176062,None,1546.4392317176062,1547.6558461422355,0.0579221176521969,None,2.5669138397061033,,,,,,,,,32,001,2019_Dec_25_1339,untitled,3.1.0,60.00417170741802,
_,_4,M,0,_,_,__4M000__,N,0,180,180,32,,,1.0010000000000001,1549.0724959245927,1549.4224808280342,1549.4391403437003,1549.7224474566938,1549.7557651637653,None,up,1549.7557651637653,None,1549.7557651637653,1550.739092405507,0.05828761327575194,None,1.7502996137118316,,,,,,,,,32,001,2019_Dec_25_1339,untitled,3.1.0,60.00417170741802,
203,G,M,90,R,N,203GM090RN,HRN,0,181,181,130,,,1.133,1551.5890988281644,1551.9223798532475,1551.9390671783622,1552.222420971506,1552.2557264291754,None,down,1552.2557264291754,None,1552.2557264291754,1553.3723867393965,0.059678085755876964,None,3.150135273106571,,,,,,,,,32,001,2019_Dec_25_1339,untitled,3.1.0,60.00417170741802,
485,_5,N,180,L,N,485_5N180LN,HLN,0,182,182,284,,,1.223,1555.47232231417,1555.8223330406727,1555.8389905699478,1556.122313242995,1556.155645185856,None,up,1556.155645185856,None,1556.155645185856,1557.338965409017,0.05900138914512354,None,2.45014825085309,,,,,,,,,32,001,2019_Dec_25_1339,untitled,3.1.0,60.00417170741802,
_,_4,M,270,_,_,__4M270__,N,0,183,183,38,,,1.332,1558.6722583524352,1559.0222677546808,1559.0389358780303,1559.3222294173684,1559.3555683125887,None,down,1559.3555683125887,None,1559.3555683125887,1560.672168633857,0.05700970285033691,None,2.3168433228856884,,,,,,,,,32,001,2019_Dec_25_1339,untitled,3.1.0,60.00417170741802,
199,G,N,270,R,N,199GN270RN,HRN,0,184,184,230,,,1.225,1561.7555403707156,1562.0888564886736,1562.1055279226748,1562.3888654936381,1562.4221947879814,None,down,1562.4221947879814,None,1562.4221947879814,1563.6054630339604,0.061039755597448675,None,2.966785254106071,,,,,,,,,32,001,2019_Dec_25_1339,untitled,3.1.0,60.00417170741802,
_,_4,M,135,_,_,__4M135__,N,0,185,185,35,,,0.9490000000000001,1565.4721223509841,1565.8053878160208,1565.8220923565095,1566.1054441632623,1566.1387790857043,None,up,1566.1387790857043,None,1566.1387790857043,1567.05541694973,0.058534918734949315,None,1.8001586462887644,,,,,,,,,32,001,2019_Dec_25_1339,untitled,3.1.0,60.00417170741802,
397,_4,M,180,R,N,397_4M180RN,HRN,0,186,186,164,,,1.205,1568.0053887430004,1568.3553868890376,1568.3720560055845,1568.6553816582127,1568.6887265126024,None,down,1568.6887265126024,None,1568.6887265126024,1569.87197555682,0.05920135233463952,None,2.583482312529668,,,,,,,,,32,001,2019_Dec_25_1339,untitled,3.1.0,60.00417170741802,
166,F,N,225,L,N,166FN225LN,HLN,0,187,187,221,,,1.235,1571.3386211015459,1571.6886414289293,1571.7052860466756,1571.9886431504674,1572.021974431198,None,down,1572.021974431198,None,1572.021974431198,1573.2385828966617,0.058486583264311776,None,2.466872655233601,,,,,,,,,32,001,2019_Dec_25_1339,untitled,3.1.0,60.00417170741802,
_,_2,M,0,_,_,__2M000__,N,0,188,188,24,,,1.078,1574.5719152368001,1574.9052379760542,1574.9219094100554,1575.2052350626836,1575.2385494591072,None,down,1575.2385494591072,None,1575.2385494591072,1576.288538269113,0.059388735055108555,None,2.45015685854014,,,,,,,,,32,001,2019_Dec_25_1339,untitled,3.1.0,60.00417170741802,
_,R,M,45,_,_,_RM045__,N,0,189,189,17,,,1.065,1577.7718267762648,1578.105177324971,1578.1218288950804,1578.4051234276085,1578.4384593432478,None,down,1578.4384593432478,None,1578.4384593432478,1579.4884613958493,0.05955658494713134,None,1.916855373645376,,,,,,,,,32,001,2019_Dec_25_1339,untitled,3.1.0,60.00417170741802,
_,F,M,135,_,_,_FM135__,N,0,190,190,3,,,0.77,1580.421784929662,1580.7717287810592,1580.7883932626974,1581.0717530150105,1581.1050859510651,None,up,1581.1050859510651,None,1581.1050859510651,1581.8550885995828,0.05733447749298648,None,2.1335787186180823,,,,,,,,,32,001,2019_Dec_25_1339,untitled,3.1.0,60.00417170741802,
298,_2,M,45,L,N,298_2M045LN,HLN,0,191,191,153,,,1.116,1583.3050527783635,1583.6550138451348,1583.6716813063576,1583.955029140332,1583.9883604210627,None,down,1583.9883604210627,None,1583.9883604210627,1585.0716325073954,0.0585465060066781,None,2.9168173011858016,,,,,,,,,32,001,2019_Dec_25_1339,untitled,3.1.0,60.00417170741802,
458,_5,M,45,R,N,458_5M045RN,HRN,0,192,192,177,,,1.3840000000000001,1586.9716515767323,1587.3215974145169,1587.3383072520446,1587.6216137029078,1587.6549592194315,None,down,1587.6549592194315,None,1587.6549592194315,1589.004894463138,0.05839388509775745,None,2.516806508469017,,,,,,,,,32,001,2019_Dec_25_1339,untitled,3.1.0,60.00417170741802,
297,_2,M,0,L,N,297_2M000LN,HLN,0,193,193,152,,,1.301,1590.2382140903865,1590.5882119053604,1590.6048757248682,1590.8882338218536,1590.921561460873,None,down,1590.921561460873,None,1590.921561460873,1592.2048642700247,0.057918144870200194,None,2.983631159298966,,,,,,,,,32,001,2019_Dec_25_1339,untitled,3.1.0,60.00417170741802,
194,G,N,45,R,N,194GN045RN,HRN,0,194,194,225,,,1.242,1593.971487699615,1594.321467306021,1594.33813311192,1594.6215094174731,1594.6547993150925,None,down,1594.6547993150925,None,1594.6547993150925,1595.8714233406063,0.05593043135013431,None,2.4834603298186266,,,,,,,,,32,001,2019_Dec_25_1339,untitled,3.1.0,60.00417170741802,
005,R,N,180,R,N,005RN180RN,HRN,0,195,195,196,,,1.186,1597.20473714111,1597.5547392599256,1597.5714067211484,1597.854731380583,1597.8880653098313,None,up,1597.8880653098313,None,1597.8880653098313,1599.0380506105503,0.05852399359719129,None,2.1501164024084574,,,,,,,,,32,001,2019_Dec_25_1339,untitled,3.1.0,60.00417170741802,
261,_2,N,180,R,N,261_2N180RN,HRN,0,196,196,244,,,0.8230000000000001,1600.1213392501268,1600.4546447740104,1600.471340706812,1600.7546666905037,1600.7880069099883,None,down,1600.7880069099883,None,1600.7880069099883,1601.5712948212204,0.05848559007063159,None,2.8667874391321675,,,,,,,,,32,001,2019_Dec_25_1339,untitled,3.1.0,60.00417170741802,
198,G,N,225,R,N,198GN225RN,HRN,0,197,197,229,,,1.311,1603.7212496639695,1604.0712630389899,1604.087941756421,1604.3712617809433,1604.404586440378,None,down,1604.404586440378,None,1604.404586440378,1605.6878707098986,0.057017317343706964,None,2.6002649843285326,,,,,,,,,32,001,2019_Dec_25_1339,untitled,3.1.0,60.00417170741802,
_,G,N,270,_,_,_GN270__,N,0,198,198,62,,,0.871,1607.071187225134,1607.4211615345012,1607.4378180705826,1607.7211718637227,1607.7545196977007,None,down,1607.7545196977007,None,1607.7545196977007,1608.6044609005767,0.055345108648907626,None,2.1168420648355095,,,,,,,,,32,001,2019_Dec_25_1339,untitled,3.1.0,60.00417170741802,
_,_4,N,225,_,_,__4N225__,N,0,199,199,85,,,0.897,1609.9377766874713,1610.287802642957,1610.3044624896902,1610.5877550358273,1610.6210783710048,None,down,1610.6210783710048,None,1610.6210783710048,1611.5044352761543,0.05688025648123585,None,3.066869808077172,,,,,,,,,32,001,2019_Dec_25_1339,untitled,3.1.0,60.00417170741802,
_,_5,M,90,_,_,__5M090__,N,0,200,200,42,,,1.236,1613.7543766776726,1614.104351318103,1614.1210171240018,1614.4043662822369,1614.4376982250978,None,None,1614.4376982250978,None,1614.4376982250978,1615.6543166225056,0.05647006709841662,None,,,,,,,,,,32,001,2019_Dec_25_1339,untitled,3.1.0,60.00417170741802,
173,F,M,180,L,N,173FM180LN,HLN,0,201,201,124,,,0.992,1617.9542829200982,1618.3042810661354,1618.3209472030976,1618.6042784838282,1618.637627311,1617.9542829200982,down,1618.637627311,None,1618.637627311,1619.5875785782482,0.05780293429415906,None,2.2834630445504445,,,,,,,,,32,001,2019_Dec_25_1339,untitled,3.1.0,60.00417170741802,
044,R,M,135,L,N,044RM135LN,HLN,0,202,202,107,,,1.0010000000000001,1620.987552291699,1621.3375431543063,1621.3542112776595,1621.6375551388555,1621.6708410637002,None,up,1621.6708410637002,None,1621.6708410637002,1622.6541739335407,0.05663526847274625,None,2.116792074044497,,,,,,,,,32,001,2019_Dec_25_1339,untitled,3.1.0,60.00417170741802,
208,G,M,315,R,N,208GM315RN,HRN,0,203,203,135,,,1.026,1623.8541371191277,1624.204148838824,1624.220834839678,1624.5040813678024,1624.5374523763203,None,down,1624.5374523763203,None,1624.5374523763203,1625.5207624026843,0.05780194110047887,None,2.6168159107146494,,,,,,,,,32,001,2019_Dec_25_1339,untitled,3.1.0,60.00417170741802,
196,G,N,135,R,N,196GN135RN,HRN,0,204,204,227,,,1.004,1627.2374172172276,1627.570740949679,1627.5874226466913,1627.8707314150124,1627.9040570676407,None,up,1627.9040570676407,None,1627.9040570676407,1628.8873899374812,0.0591927446439513,None,2.950069457408972,,,,,,,,,32,001,2019_Dec_25_1339,untitled,3.1.0,60.00417170741802,
259,_2,N,90,R,N,259_2N090RN,HRN,0,205,205,242,,,1.044,1630.9206781797802,1631.270660103637,1631.287336172547,1631.5706098479895,1631.6039722488204,None,up,1631.6039722488204,None,1631.6039722488204,1632.6206274606411,0.05726958877858124,None,2.116870867481339,,,,,,,,,32,001,2019_Dec_25_1339,untitled,3.1.0,60.00417170741802,
487,_5,N,270,L,N,487_5N270LN,HLN,0,206,206,286,,,1.105,1633.7872726080896,1634.1372667813484,1634.153933580441,1634.4372463215404,1634.4705872031518,None,down,1634.4705872031518,None,1634.4705872031518,1635.5538616069389,0.05608768716774648,None,2.8501285855963943,,,,,,,,,32,001,2019_Dec_25_1339,untitled,3.1.0,60.00417170741802,
484,_5,N,135,L,N,484_5N135LN,HLN,0,207,207,283,,,0.725,1637.3871866636473,1637.7371473993553,1637.7538112188631,1638.0371434927874,1638.070454247496,None,up,1638.070454247496,None,1638.070454247496,1638.7537824162173,0.05801845753012458,None,1.6335386597711476,,,,,,,,,32,001,2019_Dec_25_1339,untitled,3.1.0,60.00417170741802,
_,F,M,45,_,_,_FM045__,N,0,208,208,1,,,1.185,1639.770477024762,1640.1204278285186,1640.1371098565978,1640.420421935567,1640.4537813568095,None,down,1640.4537813568095,None,1640.4537813568095,1641.6037616915564,0.057786381050391356,None,2.4334781411089352,,,,,,,,,32,001,2019_Dec_25_1339,untitled,3.1.0,60.00417170741802,
295,_2,N,270,L,N,295_2N270LN,HLN,0,209,209,254,,,1.316,1642.9704001514947,1643.3036891221345,1643.3203870413272,1643.6037163356705,1643.6370618521905,None,down,1643.6370618521905,None,1643.6370618521905,1644.9203196365197,0.057858884258166654,None,2.066927082298207,,,,,,,,,32,001,2019_Dec_25_1339,untitled,3.1.0,60.00417170741802,
422,_4,N,225,L,N,422_4N225LN,HLN,0,210,210,269,,,0.74,1645.770312485518,1646.1202944093748,1646.1369688229606,1646.4202954687826,1646.453631384422,None,down,1646.453631384422,None,1646.453631384422,1647.1702782534085,0.0570543966096011,None,1.7168375623550673,,,,,,,,,32,001,2019_Dec_25_1339,untitled,3.1.0,60.00417170741802,
129,F,N,0,R,N,129FN000RN,HRN,0,211,211,208,,,0.715,1648.2369355178344,1648.5869416094283,1648.6036074153235,1648.886915190451,1648.920245146921,None,down,1648.920245146921,None,1648.920245146921,1649.6035445129965,0.05778009081768687,None,2.3668596112765954,,,,,,,,,32,001,2019_Dec_25_1339,untitled,3.1.0,60.00417170741802,
_,_5,N,270,_,_,__5N270__,N,0,212,212,94,,,0.88,1651.3535647079552,1651.7035386862553,1651.7202054853478,1652.003509287697,1652.0368448722693,None,down,1652.0368448722693,None,1652.0368448722693,1652.886855598772,0.057465910249447916,None,2.4001971822399355,,,,,,,,,32,001,2019_Dec_25_1339,untitled,3.1.0,60.00417170741802,
_,R,N,180,_,_,_RN180__,N,0,213,213,68,,,1.058,1654.5034556551836,1654.853469361271,1654.8701338429091,1655.1534263890499,1655.1867414476037,None,up,1655.1867414476037,None,1655.1867414476037,1656.203438042532,0.0557188808961655,None,2.55019274596998,,,,,,,,,32,001,2019_Dec_25_1339,untitled,3.1.0,60.00417170741802,
262,_2,N,225,R,N,262_2N225RN,HRN,0,214,214,245,,,0.764,1657.8033845424507,1658.15340321451,1658.1700614059155,1658.4533526277955,1658.4867329061271,None,down,1658.4867329061271,None,1658.4867329061271,1659.2366832463958,0.05581058586540166,None,2.7835262779444747,,,,,,,,,32,001,2019_Dec_25_1339,untitled,3.1.0,60.00417170741802,
389,_4,N,180,R,N,389_4N180RN,HRN,0,215,215,260,,,1.027,1661.3533283276338,1661.6866288855454,1661.7032850905598,1661.9866839085262,1662.020002277728,None,up,1662.020002277728,None,1662.020002277728,1663.0032666171392,0.05863688671888667,None,1.9667730047040095,,,,,,,,,32,001,2019_Dec_25_1339,untitled,3.1.0,60.00417170741802,
_,F,M,315,_,_,_FM315__,N,0,216,216,7,,,0.881,1664.0699364620305,1664.4032373510054,1664.4198932249565,1664.7032374172195,1664.7365610834568,None,down,1664.7365610834568,None,1664.7365610834568,1665.5865761138011,0.05827437068001018,None,2.383495290268911,,,,,,,,,32,001,2019_Dec_25_1339,untitled,3.1.0,60.00417170741802,
_,_5,M,0,_,_,__5M000__,N,0,217,217,40,,,0.849,1667.2031804740582,1667.5365108278093,1667.5531521349076,1667.8365605537547,1667.8698464785957,None,up,1667.8698464785957,None,1667.8698464785957,1668.6864524279663,0.05808069772683666,None,2.416807700305071,,,,,,,,,32,001,2019_Dec_25_1339,untitled,3.1.0,60.00417170741802,
451,_5,N,90,R,N,451_5N090RN,HRN,0,218,218,274,,,0.9410000000000001,1670.35309459583,1670.7031192270588,1670.7197770873972,1671.003091814884,1671.0364343518231,None,up,1671.0364343518231,None,1671.0364343518231,1671.953056986862,0.057850938701449195,None,1.8001629501304706,,,,,,,,,32,001,2019_Dec_25_1339,untitled,3.1.0,60.00417170741802,
461,_5,M,180,R,N,461_5M180RN,HRN,0,219,219,180,,,0.984,1672.9197425904385,1673.2530534113612,1673.269718886193,1673.5530346068736,1673.58635595566,None,down,1673.58635595566,None,1673.58635595566,1674.536369463105,0.058886178569082404,None,1.8502305535803316,,,,,,,,,32,001,2019_Dec_25_1339,untitled,3.1.0,60.00417170741802,
162,F,N,45,L,N,162FN045LN,HLN,0,220,220,217,,,0.997,1675.519676509888,1675.8529754124756,1675.8696696899533,1676.1529933561906,1676.1863262922452,None,down,1676.1863262922452,None,1676.1863262922452,1677.1696386360672,0.059567841151874745,None,1.6668202807704802,,,,,,,,,32,001,2019_Dec_25_1339,untitled,3.1.0,60.00417170741802,
_,_2,N,180,_,_,__2N180__,N,0,221,221,76,,,1.118,1677.919609502358,1678.2696146007584,1678.2862532593354,1678.569586526457,1678.6029168139903,None,up,1678.6029168139903,None,1678.6029168139903,1679.686241539639,0.05708286818844499,None,2.416811010953097,,,,,,,,,32,001,2019_Dec_25_1339,untitled,3.1.0,60.00417170741802,
490,_5,M,45,L,N,490_5M045LN,HLN,0,222,222,185,,,1.052,1681.0862119424382,1681.4362097574085,1681.4528775496983,1681.7361704269024,1681.7695096531897,None,down,1681.7695096531897,None,1681.7695096531897,1682.7861582437145,0.057364604395843344,None,2.5001718226703815,,,,,,,,,32,001,2019_Dec_25_1339,untitled,3.1.0,60.00417170741802,
163,F,N,90,L,N,163FN090LN,HLN,0,223,223,218,,,1.2630000000000001,1684.3361434120088,1684.6861389095247,1684.7028153095016,1684.9860979236946,1685.0194431091513,None,up,1685.0194431091513,None,1685.0194431091513,1686.2694113269208,0.05848227942260564,None,2.183474499397562,,,,,,,,,32,001,2019_Dec_25_1339,untitled,3.1.0,60.00417170741802,
134,F,N,225,R,N,134FN225RN,HRN,0,224,224,213,,,1.044,1687.2860615727695,1687.619406493377,1687.6360716371419,1687.9193757705543,1687.9527136725847,None,down,1687.9527136725847,None,1687.9527136725847,1688.9693556418097,0.05959267101934529,None,2.1501465293113142,,,,,,,,,32,001,2019_Dec_25_1339,untitled,3.1.0,60.00417170741802,
429,_4,M,180,L,N,429_4M180LN,HLN,0,225,225,172,,,1.047,1690.1860025107962,1690.5193414722344,1690.536014892623,1690.8193382277968,1690.8526695085275,None,down,1690.8526695085275,None,1690.8526695085275,1691.8692899585403,0.05830549077654723,None,2.7002800146728987,,,,,,,,,32,001,2019_Dec_25_1339,untitled,3.1.0,60.00417170741802,
_,R,N,315,_,_,_RN315__,N,0,226,226,71,,,0.724,1693.6192661218665,1693.9692662542948,1693.985954572603,1694.2692517536525,1694.3025916420702,None,down,1694.3025916420702,None,1694.3025916420702,1694.9858853800433,0.05593771477651899,None,2.283628908058745,,,,,,,,,32,001,2019_Dec_25_1339,untitled,3.1.0,60.00417170741802,
016,R,M,315,R,N,016RM315RN,HRN,0,227,227,103,,,1.158,1696.6692085827926,1697.002520396909,1697.0191722980817,1697.3024982817733,1697.3358358527366,None,down,1697.3358358527366,None,1697.3358358527366,1698.452478285457,0.05851836549481959,None,2.4335052884307515,,,,,,,,,32,001,2019_Dec_25_1339,untitled,3.1.0,60.00417170741802,
459,_5,M,90,R,N,459_5M090RN,HRN,0,228,228,178,,,1.316,1699.8524423980234,1700.1857657994115,1700.2024590836918,1700.4857993031765,1700.5191282664528,None,down,1700.5191282664528,None,1700.5191282664528,1701.802393003145,0.05907554768054979,None,3.1835983176606533,,,,,,,,,32,001,2019_Dec_25_1339,untitled,3.1.0,60.00417170741802,
430,_4,M,225,L,N,430_4M225LN,HLN,0,229,229,173,,,0.8180000000000001,1703.7857202448831,1704.1190406666865,1704.1356852844328,1704.4190152409028,1704.4523451973764,None,down,1704.4523451973764,None,1704.4523451973764,1705.2356883964421,0.05828132304304745,None,2.566830411353294,,,,,,,,,32,001,2019_Dec_25_1339,untitled,3.1.0,60.00417170741802,
033,R,N,0,L,N,033RN000LN,HLN,0,230,230,200,,,0.76,1707.085638207005,1707.4356287385526,1707.4522981861628,1707.7356251630517,1707.7689412147956,None,down,1707.7689412147956,None,1707.7689412147956,1708.4855956982756,0.056709095941187115,None,1.7503145116315864,,,,,,,,,32,001,2019_Dec_25_1339,untitled,3.1.0,60.00417170741802,
_,R,M,225,_,_,_RM225__,N,0,231,231,21,,,0.857,1709.585582588108,1709.935590335026,1709.9522428983291,1710.2355529909073,1710.2688872512226,None,down,1710.2688872512226,None,1710.2688872512226,1711.085555109723,0.05632770920419716,None,2.366831470761099,,,,,,,,,32,001,2019_Dec_25_1339,untitled,3.1.0,60.00417170741802,
164,F,N,135,L,N,164FN135LN,HLN,0,232,232,219,,,0.866,1712.7188517610666,1713.0521751624547,1713.0688409683535,1713.352168607369,1713.3854926046733,None,up,1713.3854926046733,None,1713.3854926046733,1714.235486446869,0.05907323022620403,None,1.5503076254826738,,,,,,,,,32,001,2019_Dec_25_1339,untitled,3.1.0,60.00417170741802,
_,_2,N,0,_,_,__2N000__,N,0,233,233,72,,,0.743,1715.0188094509758,1715.3521265621312,1715.368807597013,1715.6520829277797,1715.6854300996238,None,down,1715.6854300996238,None,1715.6854300996238,1716.402088555882,0.05730666804447537,None,1.4668461700457556,,,,,,,,,32,001,2019_Dec_25_1339,untitled,3.1.0,60.00417170741802,
456,_5,N,315,R,N,456_5N315RN,HRN,0,234,234,279,,,1.119,1717.218752772671,1717.5687396624999,1717.585411096501,1717.8687135745895,1717.9020448553201,None,down,1717.9020448553201,None,1717.9020448553201,1718.9853874584696,0.05705174809190794,None,2.100188177275413,,,,,,,,,32,001,2019_Dec_25_1339,untitled,3.1.0,60.00417170741802,
264,_2,N,315,R,N,264_2N315RN,HRN,0,235,235,247,,,1.361,1720.0686817261485,1720.4186547112513,1720.4353367393305,1720.718659412374,1720.751977450509,None,down,1720.751977450509,None,1720.751977450509,1722.1019673199262,0.057823791379632894,None,2.466870999909588,,,,,,,,,32,001,2019_Dec_25_1339,untitled,3.1.0,60.00417170741802,
_,F,N,0,_,_,_FN000__,N,0,236,236,48,,,1.165,1723.3019497072746,1723.6352462924042,1723.65190514594,1723.935244041164,1723.9685783014793,None,down,1723.9685783014793,None,1723.9685783014793,1725.1185394344611,0.05819623936986318,None,1.8335207160525897,,,,,,,,,32,001,2019_Dec_25_1339,untitled,3.1.0,60.00417170741802,
260,_2,N,135,R,N,260_2N135RN,HRN,0,237,237,243,,,1.225,1725.8852449681472,1726.218538904759,1726.235211663021,1726.5185151342994,1726.551855022717,None,up,1726.551855022717,None,1726.551855022717,1727.7351765701424,0.05856968054649769,None,2.43348542453532,,,,,,,,,32,001,2019_Dec_25_1339,untitled,3.1.0,60.00417170741802,
301,_2,M,180,L,N,301_2M180LN,HLN,0,238,238,156,,,0.81,1729.051804700859,1729.4017978809206,1729.418456072326,1729.7018048994978,1729.7351368423588,None,down,1729.7351368423588,None,1729.7351368423588,1730.5184512387787,0.05708584777312353,None,2.933592027427949,,,,,,,,,32,001,2019_Dec_25_1339,untitled,3.1.0,60.00417170741802,
388,_4,N,135,R,N,388_4N135RN,HRN,0,239,239,259,,,1.26,1732.7350719536407,1733.0850446076838,1733.1017027990893,1733.3850059393044,1733.4183809206006,None,up,1733.4183809206006,None,1733.4183809206006,1734.634995014163,0.058245568034180906,None,1.9335198552871589,,,,,,,,,32,001,2019_Dec_25_1339,untitled,3.1.0,60.00417170741802,
_,G,M,45,_,_,_GM045__,N,0,240,240,9,,,0.9470000000000001,1735.4183335783237,1735.768346622277,1735.7850134213695,1736.0683288109867,1736.101666713017,None,down,1736.101666713017,None,1736.101666713017,1737.0182681599035,0.05824093312548939,None,2.266905827935261,,,,,,,,,32,001,2019_Dec_25_1339,untitled,3.1.0,60.00417170741802,
136,F,N,315,R,N,136FN315RN,HRN,0,241,241,215,,,0.976,1738.451618509971,1738.784919730013,1738.8015914950774,1739.0849300592345,1739.1182623331624,None,down,1739.1182623331624,None,1739.1182623331624,1740.068219228513,0.05898384271131363,None,1.8834956213358964,,,,,,,,,32,001,2019_Dec_25_1339,untitled,3.1.0,60.00417170741802,
139,F,M,90,R,N,139FM090RN,HRN,0,242,242,114,,,1.2570000000000001,1741.0682337953695,1741.4182163813566,1741.4348758970227,1741.7182094952077,1741.7515361410296,None,up,1741.7515361410296,None,1741.7515361410296,1742.9681843342769,0.05705307234893553,None,2.2504757402275573,,,,,,,,,32,001,2019_Dec_25_1339,untitled,3.1.0,60.00417170741802,
293,_2,N,180,L,N,293_2N180LN,HLN,0,243,243,252,,,0.9420000000000001,1744.0848112069434,1744.4181448713425,1744.4348199470587,1744.7181211008829,1744.7514321866583,None,up,1744.7514321866583,None,1744.7514321866583,1745.668118717218,0.058833870320086135,None,2.4501220967285917,,,,,,,,,32,001,2019_Dec_25_1339,untitled,3.1.0,60.00417170741802,
_,R,N,225,_,_,_RN225__,N,0,244,244,69,,,1.16,1747.2847359890038,1747.618074619375,1747.6347397631434,1747.918057801282,1747.9513768326105,None,down,1747.9513768326105,None,1747.9513768326105,1749.06803283899,0.05810453439698904,None,2.800161625869805,,,,,,,,,32,001,2019_Dec_25_1339,untitled,3.1.0,60.00417170741802,
_,F,M,90,_,_,_FM090__,N,0,245,245,2,,,0.84,1750.8346721596972,1751.1680141007164,1751.1846726231888,1751.467979405119,1751.5013222731177,None,up,1751.5013222731177,None,1751.5013222731177,1752.3179858277763,0.05736261800848297,None,1.5835207160525897,,,,,,,,,32,001,2019_Dec_25_1339,untitled,3.1.0,60.00417170741802,
009,R,M,0,R,N,009RM000RN,HRN,0,246,246,96,,,0.976,1753.1512781090642,1753.5012623503753,1753.5179387503522,1753.8012630787198,1753.8345857517634,None,down,1753.8345857517634,None,1753.8345857517634,1754.7845707876295,0.056826292908226606,None,2.3335743485658895,,,,,,,,,32,001,2019_Dec_25_1339,untitled,3.1.0,60.00417170741802,
_,F,N,45,_,_,_FN045__,N,0,247,247,49,,,1.181,1756.2345382770618,1756.5845231805033,1756.6011856757505,1756.8845325165312,1756.9178700874945,None,up,1756.9178700874945,None,1756.9178700874945,1758.0678391660367,0.0578727889842412,None,2.350295442298375,,,,,,,,,32,001,2019_Dec_25_1339,untitled,3.1.0,60.00417170741802,
292,_2,N,135,L,N,292_2N135LN,HLN,0,248,248,251,,,1.147,1759.3511482654212,1759.6844514718505,1759.701116615619,1759.9844664359807,1760.0177970545847,None,up,1760.0177970545847,None,1760.0177970545847,1761.134410353592,0.059803559346619295,None,2.866872853872337,,,,,,,,,32,001,2019_Dec_25_1339,untitled,3.1.0,60.00417170741802,
011,R,M,90,R,N,011RM090RN,HRN,0,249,249,98,,,0.706,1762.9677350792372,1763.3010406031208,1763.3177133613826,1763.6010496080853,1763.6344020769684,None,down,1763.6344020769684,None,1763.6344020769684,1764.3177100507346,0.05862165773214656,None,1.8667977021468687,,,,,,,,,32,001,2019_Dec_25_1339,untitled,3.1.0,60.00417170741802,
001,R,N,0,R,N,001RN000RN,HRN,0,250,250,192,,,1.108,1765.5676865451278,1765.9176502604168,1765.9343107692766,1766.2176523130183,1766.2509630677268,None,up,1766.2509630677268,None,1766.2509630677268,1767.3342808410125,0.056785902994306525,None,2.683489728384302,,,,,,,,,32,001,2019_Dec_25_1339,untitled,3.1.0,60.00417170741802,
268,_2,M,135,R,N,268_2M135RN,HRN,0,251,251,147,,,1.36,1769.0175901390357,1769.3509158578781,1769.3676074868345,1769.6508960601968,1769.6842488601433,None,down,1769.6842488601433,None,1769.6842488601433,1771.0008524920595,0.06535617946065031,None,3.0001483170635765,,,,,,,,,32,001,2019_Dec_25_1339,untitled,3.1.0,60.00417170741802,
174,F,M,225,L,N,174FM225LN,HLN,0,252,252,125,,,0.926,1772.7674914817035,1773.1008138898942,1773.117479695793,1773.400803030967,1773.4341644386004,None,down,1773.4341644386004,None,1773.4341644386004,1774.3174591035568,0.05893848682171665,None,2.550013639873214,,,,,,,,,32,001,2019_Dec_25_1339,untitled,3.1.0,60.00417170741802,
_,_5,M,225,_,_,__5M225__,N,0,253,253,45,,,1.153,1776.067430631978,1776.400767607025,1776.4174390410262,1776.7007458229564,1776.7340714755846,None,down,1776.7340714755846,None,1776.7340714755846,1777.8507172189493,0.057073929434409365,None,2.8168165066308575,,,,,,,,,32,001,2019_Dec_25_1339,untitled,3.1.0,60.00417170741802,
269,_2,M,180,R,N,269_2M180RN,HRN,0,254,254,148,,,1.316,1779.6173343583105,1779.9673252209213,1779.984031085667,1780.2673229696811,1780.300625778833,None,up,1780.300625778833,None,1780.300625778833,1781.5839550731725,0.05728084498332464,None,2.500188044850802,,,,,,,,,32,001,2019_Dec_25_1339,untitled,3.1.0,60.00417170741802,
_,_4,M,45,_,_,__4M045__,N,0,255,255,33,,,1.1480000000000001,1782.8672797326071,1783.2172957561452,1783.2339234895844,1783.5172673507805,1783.5505910170177,None,down,1783.5505910170177,None,1783.5505910170177,1784.6672374225163,0.057771483130636625,None,2.000157917944307,,,,,,,,,32,001,2019_Dec_25_1339,untitled,3.1.0,60.00417170741802,
235,G,M,90,L,N,235GM090LN,HLN,0,256,256,138,,,0.97,1785.6338766770095,1785.967216300578,1785.9838877345755,1786.2672067659078,1786.3005267904337,None,down,1786.3005267904337,None,1786.3005267904337,1787.2505052050037,0.05946752849558834,None,2.383465825496387,,,,,,,,,32,001,2019_Dec_25_1339,untitled,3.1.0,60.00417170741802,
_,_2,M,315,_,_,__2M315__,N,0,257,257,31,,,0.786,1788.7504896449536,1789.1004497185313,1789.1171343951246,1789.4004832222963,1789.4338168204813,None,down,1789.4338168204813,None,1789.4338168204813,1790.183777092694,0.05751821850208216,None,2.6834708576825506,,,,,,,,,32,001,2019_Dec_25_1339,untitled,3.1.0,60.00417170741802,
_,_5,M,45,_,_,__5M045__,N,0,258,258,41,,,1.092,1792.1837065758773,1792.5337053840449,1792.550373176331,1792.8337087609034,1792.8670496425184,None,up,1792.8670496425184,None,1792.8670496425184,1793.9170427563695,0.05511038365148124,None,2.4667975035044947,,,,,,,,,32,001,2019_Dec_25_1339,untitled,3.1.0,60.00417170741802,
_,_4,N,135,_,_,__4N135__,N,0,259,259,83,,,0.9470000000000001,1795.4003411954618,1795.750327754231,1795.7669846213757,1796.050323847663,1796.0836382440866,None,None,1796.0836382440866,None,1796.0836382440866,1797.0002790876933,0.05708948948449688,None,,,,,,,,,,32,001,2019_Dec_25_1339,untitled,3.1.0,60.00417170741802,
232,G,N,315,L,N,232GN315LN,HLN,0,260,260,239,,,1.0230000000000001,1799.6169201961493,1799.9502164502192,1799.9668839114383,1800.25021717856,1800.283566336795,1799.6169201961493,down,1800.283566336795,None,1800.283566336795,1801.266852857556,0.05833627980973688,None,1.933608249604731,,,,,,,,,32,001,2019_Dec_25_1339,untitled,3.1.0,60.00417170741802,
_,G,M,315,_,_,_GM315__,N,0,261,261,15,,,1.312,1802.283510386831,1802.6334817166135,1802.6501491778363,1802.9335122407938,1802.966822333372,None,down,1802.966822333372,None,1802.966822333372,1804.2501499723912,0.05634492457829765,None,2.700166128357523,,,,,,,,,32,001,2019_Dec_25_1339,untitled,3.1.0,60.00417170741802,
_,G,N,315,_,_,_GN315__,N,0,262,262,63,,,0.711,1805.7334553638466,1806.0834296732137,1806.100072635636,1806.3833919980316,1806.416755392056,None,up,1806.416755392056,None,1806.416755392056,1807.1000901820735,0.054674371207511285,None,2.7834699969134817,,,,,,,,,32,001,2019_Dec_25_1339,untitled,3.1.0,60.00417170741802,
137,F,M,0,R,N,137FM000RN,HRN,0,263,263,112,,,0.9490000000000001,1809.2666601777964,1809.6167020243956,1809.6333615400617,1809.9166577279175,1809.9499989405922,None,down,1809.9499989405922,None,1809.9499989405922,1810.8666493850797,0.0584902249793231,None,1.950333978249546,,,,,,,,,32,001,2019_Dec_25_1339,untitled,3.1.0,60.00417170741802,
238,G,M,225,L,N,238GM225LN,HLN,0,264,264,141,,,1.006,1811.983313668079,1812.3166344209494,1812.3333018821722,1812.616636473551,1812.649939613766,None,down,1812.649939613766,None,1812.649939613766,1813.6332307694356,0.05841308686285629,None,2.3334750290996453,,,,,,,,,32,001,2019_Dec_25_1339,untitled,3.1.0,60.00417170741802,
454,_5,N,225,R,N,454_5N225RN,HRN,0,265,265,277,,,1.331,1815.049910016569,1815.3999058451518,1815.4165723131773,1815.6998678389027,1815.7332279222792,None,up,1815.7332279222792,None,1815.7332279222792,1817.0498259260894,0.056677975844650064,None,2.250140371510497,,,,,,,,,32,001,2019_Dec_25_1339,untitled,3.1.0,60.00417170741802,
266,_2,M,45,R,N,266_2M045RN,HRN,0,266,266,145,,,0.999,1818.049818311596,1818.39983996324,1818.4165077555263,1818.6998334081545,1818.7331736276392,None,down,1818.7331736276392,None,1818.7331736276392,1819.7164627969178,0.057008047522685956,None,2.0668098853348056,,,,,,,,,32,001,2019_Dec_25_1339,untitled,3.1.0,60.00417170741802,
385,_4,N,0,R,N,385_4N000RN,HRN,0,267,267,256,,,0.753,1820.866450415091,1821.216405522693,1821.233044512337,1821.5164317430317,1821.549775935291,None,up,1821.549775935291,None,1821.549775935291,1822.2664052578402,0.05857729503986775,None,2.050257303624676,,,,,,,,,32,001,2019_Dec_25_1339,untitled,3.1.0,60.00417170741802,
_,F,N,315,_,_,_FN315__,N,0,268,268,55,,,1.022,1823.6830603372364,1824.0163549359786,1824.0330137895144,1824.3163480498297,1824.34970151191,None,down,1824.34970151191,None,1824.34970151191,1825.3329906811887,0.05818465209813439,None,1.8335180675348965,,,,,,,,,32,001,2019_Dec_25_1339,untitled,3.1.0,60.00417170741802,
_,_4,M,225,_,_,__4M225__,N,0,269,269,37,,,0.862,1826.2663267954667,1826.5996508589815,1826.6162898486255,1826.8995916645836,1826.932954727541,None,down,1826.932954727541,None,1826.932954727541,1827.7829316854259,0.05707955753678107,None,2.2336331456826883,,,,,,,,,32,001,2019_Dec_25_1339,untitled,3.1.0,60.00417170741802,
_,_5,M,180,_,_,__5M180__,N,0,270,270,44,,,0.982,1829.2329216872677,1829.5829304273793,1829.5995919294328,1829.8828907658062,1829.9162213844102,None,up,1829.9162213844102,None,1829.9162213844102,1830.8661961572652,0.05573907585130655,None,2.0668323977442924,,,,,,,,,32,001,2019_Dec_25_1339,untitled,3.1.0,60.00417170741802,
455,_5,N,270,R,N,455_5N270RN,HRN,0,271,271,278,,,1.248,1832.0495140629755,1832.3995221409568,1832.4161856294013,1832.699515254808,1832.7328419006299,None,up,1832.7328419006299,None,1832.7328419006299,1833.9494771823483,0.057445715294306865,None,2.4002349236361624,,,,,,,,,32,001,2019_Dec_25_1339,untitled,3.1.0,60.00417170741802,
_,_4,M,180,_,_,__4M180__,N,0,272,272,36,,,1.371,1835.1994573184566,1835.5494187162913,1835.5660931298771,1835.849409181621,1835.8827507253627,None,down,1835.8827507253627,None,1835.8827507253627,1837.2327604586717,0.05784332421171712,None,2.3501640095382754,,,,,,,,,32,001,2019_Dec_25_1339,untitled,3.1.0,60.00417170741802,
171,F,M,90,L,N,171FM090LN,HLN,0,273,273,122,,,1.1340000000000001,1838.3160580369986,1838.6493844179677,1838.6660479064121,1838.9493755454314,1838.9827237104691,None,down,1838.9827237104691,None,1838.9827237104691,1840.0993254222085,0.058428646912943805,None,3.433570508208504,,,,,,,,,32,001,2019_Dec_25_1339,untitled,3.1.0,60.00417170741802,
_,_4,M,315,_,_,__4M315__,N,0,274,274,39,,,0.972,1842.4826462412893,1842.8326228681071,1842.8492899982666,1843.13261929261,1843.1659485869495,None,down,1843.1659485869495,None,1843.1659485869495,1844.115934284946,0.055483493764768355,None,2.1001722861619783,,,,,,,,,32,001,2019_Dec_25_1339,untitled,3.1.0,60.00417170741802,
417,_4,N,0,L,N,417_4N000LN,HLN,0,275,275,264,,,1.191,1845.3492496083527,1845.6825256674601,1845.6991884937743,1845.9825359966853,1846.0158616493136,None,down,1846.0158616493136,None,1846.0158616493136,1847.1658658207307,0.058747793449583696,None,3.150294184251834,,,,,,,,,32,001,2019_Dec_25_1339,untitled,3.1.0,60.00417170741802,
427,_4,M,90,L,N,427_4M090LN,HLN,0,276,276,170,,,1.35,1849.2491508185922,1849.5824742199802,1849.5991562480558,1849.882482231751,1849.9157797438638,None,up,1849.9157797438638,None,1849.9157797438638,1851.2324204550423,0.059849246299563674,None,3.283460064965766,,,,,,,,,32,001,2019_Dec_25_1339,untitled,3.1.0,60.00417170741802,
_,_2,N,315,_,_,__2N315__,N,0,277,277,79,,,0.895,1853.2657361757265,1853.6156538729956,1853.632363048393,1853.915691680606,1853.9490044217055,None,down,1853.9490044217055,None,1853.9490044217055,1854.8323576851435,0.057072605177381774,None,2.900148846769298,,,,,,,,,32,001,2019_Dec_25_1339,untitled,3.1.0,60.00417170741802,
138,F,M,45,R,N,138FM045RN,HRN,0,278,278,113,,,1.345,1856.9156009688304,1857.2656083846814,1857.282299682578,1857.5656283147873,1857.5989552916762,None,down,1857.5989552916762,None,1857.5989552916762,1858.9155645516912,0.05707194304341101,None,2.183488735186984,,,,,,,,,32,001,2019_Dec_25_1339,untitled,3.1.0,60.00417170741802,
_,R,M,135,_,_,_RM135__,N,0,279,279,19,,,1.226,1859.848897024258,1860.1989067575632,1860.2155735566594,1860.4988786832619,1860.5322079776051,None,None,1860.5322079776051,None,1860.5322079776051,1861.715504695163,0.05703122206614353,None,,,,,,,,,,32,001,2019_Dec_25_1339,untitled,3.1.0,60.00417170741802,
432,_4,M,315,L,N,432_4M315LN,HLN,0,280,280,175,,,1.349,1864.0654747006847,1864.3987990952664,1864.4154685428803,1864.6987951887022,1864.7321208413305,1864.0654747006847,down,1864.7321208413305,None,1864.7321208413305,1866.0487814164044,0.05923975585756125,None,2.050129843642935,,,,,,,,,32,001,2019_Dec_25_1339,untitled,3.1.0,60.00417170741802,
172,F,M,135,L,N,172FM135LN,HLN,0,281,281,123,,,0.89,1866.8654168305438,1867.1987415561925,1867.2154159697748,1867.4987323525893,1867.5320467490092,None,up,1867.5320467490092,None,1867.5320467490092,1868.3820164234676,0.05869581626757281,None,2.5003211329312762,,,,,,,,,32,001,2019_Dec_25_1339,untitled,3.1.0,60.00417170741802,
_,F,M,225,_,_,_FM225__,N,0,282,282,5,,,1.319,1870.0986771971802,1870.4486405814023,1870.4653242648055,1870.7486499174338,1870.7819712662167,None,down,1870.7819712662167,None,1870.7819712662167,1872.065312478895,0.055627838053624146,None,2.366815579647664,,,,,,,,,32,001,2019_Dec_25_1339,untitled,3.1.0,60.00417170741802,
_,_5,M,315,_,_,__5M315__,N,0,283,283,47,,,1.182,1873.2152610314151,1873.5652509008287,1873.5819120718188,1873.8652668581562,1873.8985683430474,None,down,1873.8985683430474,None,1873.8985683430474,1875.0485546369637,0.05635651184638846,None,2.1167722101490654,,,,,,,,,32,001,2019_Dec_25_1339,untitled,3.1.0,60.00417170741802,
_,F,N,135,_,_,_FN135__,N,0,284,284,51,,,1.106,1876.0985503993325,1876.4318751249775,1876.448540599813,1876.7318702252196,1876.7652038234046,None,up,1876.7652038234046,None,1876.7652038234046,1877.8484997464038,0.058322375087300315,None,1.8501739414859912,,,,,,,,,32,001,2019_Dec_25_1339,untitled,3.1.0,60.00417170741802,
270,_2,M,225,R,N,270_2M225RN,HRN,0,285,285,149,,,0.8190000000000001,1878.6984783596163,1879.0318083823004,1879.048483458013,1879.331781963323,1879.3651384049845,None,down,1879.3651384049845,None,1879.3651384049845,1880.1484650508064,0.05876997479936108,None,1.5501924149066326,,,,,,,,,32,001,2019_Dec_25_1339,untitled,3.1.0,60.00417170741802,
229,G,N,180,L,N,229GN180LN,HLN,0,286,286,236,,,0.718,1880.9817513729286,1881.3317657411426,1881.3484322091717,1881.6317601792543,1881.665091459985,None,down,1881.665091459985,None,1881.665091459985,1882.348376590271,0.057700304183526896,None,1.5503569541506295,,,,,,,,,32,001,2019_Dec_25_1339,untitled,3.1.0,60.00417170741802,
492,_5,M,135,L,N,492_5M135LN,HLN,0,287,287,187,,,0.992,1883.2983599708132,1883.6317191272065,1883.6483581168504,1883.9316884043874,1883.9650226647027,None,down,1883.9650226647027,None,1883.9650226647027,1884.9150060452448,0.058603449164365884,None,2.66711426637994,,,,,,,,,32,001,2019_Dec_25_1339,untitled,3.1.0,60.00417170741802,
,,,,,,,,,,,,,,,,,,,,,,,,,,,,,1886.6483187201302,None,1911.3311449944995,None,1913.7310839461352,None,1915.9644048976443,None,,,,,,,
