Number,Letter,type,Orientation,human,face_type,image,picture,trials.thisRepN,trials.thisTrialN,trials.thisN,trials.thisIndex,text.started,text.stopped,stimulus_duration,CROSS.started,CROSS.stopped,BLANK.started,BLANK.stopped,TEST.started,TEST.stopped,key_JUDGE.keys,key_JUDGE.started,key_JUDGE.stopped,image_2.started,image_2.stopped,ISI.started,ISI.stopped,key_JUDGE.rt,q1.started,q1.stopped,q2.started,q2.stopped,q3.started,q3.stopped,text_2.started,text_2.stopped,participant,session,date,expName,psychopyVersion,frameRate,
038,R,N,225,L,N,038RN225LN,HLN,0,0,0,205,302.7948287000181,None,1.332,316.5135396000114,316.85772580001503,316.85772580001503,317.1569558000192,317.1569558000192,None,None,317.1569558000192,None,317.1569558000192,318.48985989997163,0.06890429998748004,None,,,,,,,,,,33,001,2019_Dec_25_1401,untitled,3.1.0,59.943664940406116,
207,G,M,270,R,N,207GM270RN,HRN,0,1,1,134,,,1.225,320.74139330000617,321.0883299999987,321.10416509996867,321.38688519998686,321.403302599967,320.74139330000617,up,321.403302599967,None,321.403302599967,322.6192813999951,0.06138450000435114,None,2.7147690000128932,,,,,,,,,33,001,2019_Dec_25_1401,untitled,3.1.0,59.943664940406116,
432,_4,M,315,L,N,432_4M315LN,HLN,0,2,2,175,,,1.319,324.1871941999998,324.53411780000897,324.5516220999998,324.8340632999898,324.85097610001685,None,up,324.85097610001685,None,324.85097610001685,326.1498392999638,0.06205959996441379,None,3.247669100004714,,,,,,,,,33,001,2019_Dec_25_1401,untitled,3.1.0,59.943664940406116,
_,R,N,45,_,_,_RN045__,N,0,3,3,65,,,0.7020000000000001,328.2052407999872,328.51503189996583,328.5307701000129,328.81400409998605,328.8306002999889,None,up,328.8306002999889,None,328.8306002999889,329.5129779999843,0.09752960002515465,None,2.5661001999978907,,,,,,,,,33,001,2019_Dec_25_1401,untitled,3.1.0,59.943664940406116,
456,_5,N,315,R,N,456_5N315RN,HRN,0,4,4,279,,,1.037,331.46483509999234,331.81119049998233,331.8277905000141,332.1115388000035,332.1278415999841,None,up,332.1278415999841,None,332.1278415999841,333.14317439997103,0.061061899992637336,None,1.9330448999535292,,,,,,,,,33,001,2019_Dec_25_1401,untitled,3.1.0,59.943664940406116,
460,_5,M,135,R,N,460_5M135RN,HRN,0,5,5,179,,,1.217,334.1295588000212,334.47570650000125,334.49266960000386,334.7756877000211,334.7926377999829,None,down,334.7926377999829,None,334.7926377999829,335.9932281000074,0.06041370000457391,None,2.5155872000032105,,,,,,,,,33,001,2019_Dec_25_1401,untitled,3.1.0,59.943664940406116,
195,G,N,90,R,N,195GN090RN,HRN,0,6,6,226,,,0.763,337.38125560001936,337.7232579999836,337.74000709998654,338.0225851999712,338.0392507999786,None,up,338.0392507999786,None,338.0392507999786,338.7891912999912,0.06622840004274622,None,2.315341899986379,,,,,,,,,33,001,2019_Dec_25_1401,untitled,3.1.0,59.943664940406116,
487,_5,N,270,L,N,487_5N270LN,HLN,0,7,7,286,,,0.838,340.4285654000123,340.7701637999853,340.78686789999483,341.0702074000146,341.0872975999955,None,up,341.0872975999955,None,341.0872975999955,341.90249389997916,0.06525069999042898,None,1.8990775999845937,,,,,,,,,33,001,2019_Dec_25_1401,untitled,3.1.0,59.943664940406116,
227,G,N,90,L,N,227GN090LN,HLN,0,8,8,234,,,1.107,343.0540766000049,343.40123449999373,343.4175581000163,343.701336099999,343.71817760000704,None,up,343.71817760000704,None,343.71817760000704,344.8002175000147,0.06079000001773238,None,2.4642404000042006,,,,,,,,,33,001,2019_Dec_25_1401,untitled,3.1.0,59.943664940406116,
134,F,N,225,R,N,134FN225RN,HRN,0,9,9,213,,,0.8150000000000001,346.2529050000012,346.59828510001535,346.6145698999753,346.8978887000121,346.914222899999,None,down,346.914222899999,None,346.914222899999,347.71373010001844,0.06347739999182522,None,2.9667194999638014,,,,,,,,,33,001,2019_Dec_25_1401,untitled,3.1.0,59.943664940406116,
239,G,M,270,L,N,239GM270LN,HLN,0,10,10,142,,,0.889,349.9705468000029,350.2949581000139,350.3119677999639,350.59563130000606,350.61214450001717,None,up,350.61214450001717,None,350.61214450001717,351.49385359999724,0.0806068999809213,None,3.331251799943857,,,,,,,,,33,001,2019_Dec_25_1401,untitled,3.1.0,59.943664940406116,
490,_5,M,45,L,N,490_5M045LN,HLN,0,11,11,185,,,1.175,354.0191255999962,354.35921289998805,354.3752724999795,354.65857630001847,354.6751995999948,None,None,354.6751995999948,None,354.6751995999948,355.84073240001453,0.06770499999402091,None,,,,,,,,,,33,001,2019_Dec_25_1401,untitled,3.1.0,59.943664940406116,
495,_5,M,270,L,N,495_5M270LN,HLN,0,12,12,190,,,1.0170000000000001,358.22855250001885,358.5541749999975,358.57091880001826,358.8542032999685,358.87063670001226,358.22855250001885,down,358.87063670001226,None,358.87063670001226,359.8705847999663,0.08276340004522353,None,2.34906099998625,,,,,,,,,33,001,2019_Dec_25_1401,untitled,3.1.0,59.943664940406116,
453,_5,N,180,R,N,453_5N180RN,HRN,0,13,13,276,,,1.346,361.2886401999858,361.6353147000191,361.65198450000025,361.93515919998754,361.9519203999662,None,up,361.9519203999662,None,361.9519203999662,363.2836266999948,0.06210860004648566,None,2.5149015999631956,,,,,,,,,33,001,2019_Dec_25_1401,untitled,3.1.0,59.943664940406116,
492,_5,M,135,L,N,492_5M135LN,HLN,0,14,14,187,,,0.8230000000000001,364.542713599978,364.8827139000059,364.8992167999968,365.18241880001733,365.1993799000047,None,None,365.1993799000047,None,365.1993799000047,365.9980207000044,0.0687614000053145,None,,,,,,,,,,33,001,2019_Dec_25_1401,untitled,3.1.0,59.943664940406116,
421,_4,N,180,L,N,421_4N180LN,HLN,0,15,15,268,,,0.773,368.7368098999723,369.07894320000196,369.0950897000148,369.37840159999905,369.39535979996435,368.7368098999723,up,369.39535979996435,None,369.39535979996435,370.1446908999933,0.06780710001476109,None,1.8180169999832287,,,,,,,,,33,001,2019_Dec_25_1401,untitled,3.1.0,59.943664940406116,
430,_4,M,225,L,N,430_4M225LN,HLN,0,16,16,173,,,0.723,371.28262939996785,371.6260717000114,371.6433420999674,371.9264448999893,371.942746500019,None,down,371.942746500019,None,371.942746500019,372.6425936999731,0.06188019999535754,None,3.0832028999575414,,,,,,,,,33,001,2019_Dec_25_1401,untitled,3.1.0,59.943664940406116,
303,_2,M,270,L,N,303_2M270LN,HLN,0,17,17,158,,,0.853,375.1083351999987,375.43973789998563,375.45688080001855,375.74057239998365,375.75837479997426,None,up,375.75837479997426,None,375.75837479997426,376.5899744000053,0.07390730001498014,None,2.282738599984441,,,,,,,,,33,001,2019_Dec_25_1401,untitled,3.1.0,59.943664940406116,
162,F,N,45,L,N,162FN045LN,HLN,0,18,18,217,,,1.1300000000000001,378.1097903000191,378.454513899982,378.4711908000172,378.7543449999648,378.77029439999023,None,down,378.77029439999023,None,378.77029439999023,379.88584589998936,0.06177269999170676,None,2.3007706999778748,,,,,,,,,33,001,2019_Dec_25_1401,untitled,3.1.0,59.943664940406116,
429,_4,M,180,L,N,429_4M180LN,HLN,0,19,19,172,,,0.768,381.15341709996574,381.4847464999766,381.50192269997206,381.7843788000173,381.8012182000093,None,up,381.8012182000093,None,381.8012182000093,382.55013250000775,0.07343899999978021,None,2.0326592000201344,,,,,,,,,33,001,2019_Dec_25_1401,untitled,3.1.0,59.943664940406116,
034,R,N,45,L,N,034RN045LN,HLN,0,20,20,201,,,1.1500000000000001,383.90628250001464,384.24885729997186,384.265901900013,384.5491080000065,384.5650667999871,None,up,384.5650667999871,None,384.5650667999871,385.6977188999881,0.06523539999034256,None,2.0506941999774426,,,,,,,,,33,001,2019_Dec_25_1401,untitled,3.1.0,59.943664940406116,
484,_5,N,135,L,N,484_5N135LN,HLN,0,21,21,283,,,0.812,386.6844369000173,387.0298744000029,387.04657549998956,387.3293311999878,387.3461810000008,None,up,387.3461810000008,None,387.3461810000008,388.14534899999853,0.06150999997043982,None,1.9659009000170045,,,,,,,,,33,001,2019_Dec_25_1401,untitled,3.1.0,59.943664940406116,
396,_4,M,135,R,N,396_4M135RN,HRN,0,22,22,163,,,0.967,389.40207579999696,389.72750669997185,389.74385430000257,390.02693589997943,390.04341909999494,None,down,390.04341909999494,None,390.04341909999494,390.99322130001383,0.07974740001372993,None,2.4171076000202447,,,,,,,,,33,001,2019_Dec_25_1401,untitled,3.1.0,59.943664940406116,
167,F,N,270,L,N,167FN270LN,HLN,0,23,23,222,,,1.079,392.5282772000064,392.8749713000143,392.891358199995,393.1746755000204,393.19103149999864,None,up,393.19103149999864,None,393.19103149999864,394.2568886000081,0.06096219999017194,None,2.0164053000044078,,,,,,,,,33,001,2019_Dec_25_1401,untitled,3.1.0,59.943664940406116,
225,G,N,0,L,N,225GN000LN,HLN,0,24,24,232,,,0.883,395.277263499971,395.6219337999937,395.63962049997644,395.921662800014,395.938805999991,None,up,395.938805999991,None,395.938805999991,396.8054086000193,0.06141500000376254,None,1.550517099967692,,,,,,,,,33,001,2019_Dec_25_1401,untitled,3.1.0,59.943664940406116,
036,R,N,135,L,N,036RN135LN,HLN,0,25,25,203,,,1.051,397.5629183999845,397.903794199985,397.92009069997584,398.2066799000022,398.22450599999866,None,up,398.22450599999866,None,398.22450599999866,399.2522086999961,0.06591750000370666,None,1.9942794000380673,,,,,,,,,33,001,2019_Dec_25_1401,untitled,3.1.0,59.943664940406116,
_,_4,N,180,_,_,__4N180__,N,0,26,26,84,,,0.921,400.2861176999868,400.6349783000187,400.6514881000039,400.93441739998525,400.951048500021,None,up,400.951048500021,None,400.951048500021,401.85030499997083,0.06027209997409955,None,2.3316203000140376,,,,,,,,,33,001,2019_Dec_25_1401,untitled,3.1.0,59.943664940406116,
_,_4,M,135,_,_,__4M135__,N,0,27,27,35,,,0.8270000000000001,403.3526460999856,403.69869829999516,403.69869829999516,403.99835670000175,404.01622819999466,None,up,404.01622819999466,None,404.01622819999466,404.8307260000147,0.06261419999646023,None,1.8667411000351422,,,,,,,,,33,001,2019_Dec_25_1401,untitled,3.1.0,59.943664940406116,
_,_4,N,225,_,_,__4N225__,N,0,28,28,85,,,1.206,405.95069520000834,406.29627900000196,406.31289930001367,406.59614470001543,406.6128551000147,None,down,406.6128551000147,None,406.6128551000147,407.7952071999898,0.06130010000197217,None,3.316737800021656,,,,,,,,,33,001,2019_Dec_25_1401,untitled,3.1.0,59.943664940406116,
_,F,N,90,_,_,_FN090__,N,0,29,29,50,,,1.058,410.01285469997674,410.3439815000165,410.35933289997047,410.6424119999865,410.6591651000199,None,up,410.6591651000199,None,410.6591651000199,411.70838089997414,0.07345640001585707,None,2.3835534999961965,,,,,,,,,33,001,2019_Dec_25_1401,untitled,3.1.0,59.943664940406116,
008,R,N,315,R,N,008RN315RN,HRN,0,30,30,199,,,1.264,413.1253925000201,413.4571249000146,413.4737143999664,413.7561447999906,413.7729825999704,None,up,413.7729825999704,None,413.7729825999704,415.02183330000844,0.07539680000627413,None,2.2666762999724597,,,,,,,,,33,001,2019_Dec_25_1401,untitled,3.1.0,59.943664940406116,
043,R,M,90,L,N,043RM090LN,HLN,0,31,31,106,,,1.203,416.11213419999694,416.45436239999253,416.47104189998936,416.75344639999093,416.7700773999677,None,down,416.7700773999677,None,416.7700773999677,417.95285629999125,0.06525200000032783,None,2.398554300016258,,,,,,,,,33,001,2019_Dec_25_1401,untitled,3.1.0,59.943664940406116,
_,F,N,135,_,_,_FN135__,N,0,32,32,51,,,1.2,419.23639089998323,419.58470559999114,419.60138509998797,419.88485530001344,419.9015130000189,None,None,419.9015130000189,None,419.9015130000189,421.084085999988,0.06088489998364821,None,,,,,,,,,,33,001,2019_Dec_25_1401,untitled,3.1.0,59.943664940406116,
458,_5,M,45,R,N,458_5M045RN,HRN,0,33,33,177,,,0.785,423.4332965000067,423.78127879998647,423.7976695999969,424.08053639996797,424.0978078999906,423.4332965000067,up,424.0978078999906,None,424.0978078999906,424.8637408000068,0.06142399995587766,None,2.8156669000163674,,,,,,,,,33,001,2019_Dec_25_1401,untitled,3.1.0,59.943664940406116,
428,_4,M,135,L,N,428_4M135LN,HLN,0,34,34,171,,,0.848,426.98017389996676,427.3279215999646,427.34498059999896,427.62784279999323,427.6444677999825,None,up,427.6444677999825,None,427.6444677999825,428.47725190001074,0.05985730001702905,None,2.7161635999800637,,,,,,,,,33,001,2019_Dec_25_1401,untitled,3.1.0,59.943664940406116,
_,G,M,135,_,_,_GM135__,N,0,35,35,11,,,1.102,430.4647990000085,430.77482669998426,430.7923311999766,431.07458060001954,431.09135509998305,None,up,431.09135509998305,None,431.09135509998305,432.1738127999706,0.09251930000027642,None,2.4980765000218526,,,,,,,,,33,001,2019_Dec_25_1401,untitled,3.1.0,59.943664940406116,
262,_2,N,225,R,N,262_2N225RN,HRN,0,36,36,245,,,1.236,433.656398000021,434.0048705000081,434.0219558000099,434.30519270000514,434.32170919998316,None,up,434.32170919998316,None,434.32170919998316,435.53812579996884,0.06030680000549182,None,2.26542840001639,,,,,,,,,33,001,2019_Dec_25_1401,untitled,3.1.0,59.943664940406116,
496,_5,M,315,L,N,496_5M315LN,HLN,0,37,37,191,,,1.334,436.6556967999786,437.0027459000121,437.0198514999938,437.30253809998976,437.3191947999876,None,up,437.3191947999876,None,437.3191947999876,438.63480770000024,0.06186419998994097,None,2.6330908000236377,,,,,,,,,33,001,2019_Dec_25_1401,untitled,3.1.0,59.943664940406116,
164,F,N,135,L,N,164FN135LN,HLN,0,38,38,219,,,0.9560000000000001,440.0198686000076,440.36679900001036,440.3833959000185,440.6664073999855,440.6829251999734,None,up,440.6829251999734,None,440.6829251999734,441.61560580000514,0.06010010000318289,None,2.1162839999888092,,,,,,,,,33,001,2019_Dec_25_1401,untitled,3.1.0,59.943664940406116,
294,_2,N,225,L,N,294_2N225LN,HLN,0,39,39,253,,,0.894,442.87022789998446,443.2142640000093,443.2314730999642,443.5142995999777,443.5308512999909,None,up,443.5308512999909,None,443.5308512999909,444.4129662999767,0.0629600000102073,None,2.048723300045822,,,,,,,,,33,001,2019_Dec_25_1401,untitled,3.1.0,59.943664940406116,
_,G,N,0,_,_,_GN000__,N,0,40,40,56,,,1.288,445.65497119998327,445.9947069999762,446.0125767000136,446.29500839998946,446.3115528000053,None,up,446.3115528000053,None,446.3115528000053,447.5771569000208,0.06642640003701672,None,1.9335108999512158,,,,,,,,,33,001,2019_Dec_25_1401,untitled,3.1.0,59.943664940406116,
165,F,N,180,L,N,165FN180LN,HLN,0,41,41,220,,,1.157,448.3121323999949,448.65962649998255,448.6763506999705,448.96060019999277,448.9786665000138,None,down,448.9786665000138,None,448.9786665000138,450.1083750000107,0.0590004000114277,None,3.012514600006398,,,,,,,,,33,001,2019_Dec_25_1401,untitled,3.1.0,59.943664940406116,
386,_4,N,45,R,N,386_4N045RN,HRN,0,42,42,257,,,0.9,452.0773007000098,452.40629179996904,452.4229466000106,452.706239000021,452.7227992999833,None,up,452.7227992999833,None,452.7227992999833,453.6058672000072,0.07540799997514114,None,1.5846528999973089,,,,,,,,,33,001,2019_Dec_25_1401,untitled,3.1.0,59.943664940406116,
138,F,M,45,R,N,138FM045RN,HRN,0,43,43,113,,,1.224,454.3750862000161,454.72107379999943,454.7375865000067,455.0209205999854,455.03783699998166,None,down,455.03783699998166,None,455.03783699998166,456.25225700001465,0.06095820001792163,None,2.698091500031296,,,,,,,,,33,001,2019_Dec_25_1401,untitled,3.1.0,59.943664940406116,
395,_4,M,90,R,N,395_4M090RN,HRN,0,44,44,162,,,1.1300000000000001,457.81511089997366,458.15113740001107,458.16824729996733,458.450554799987,458.4670690000057,None,up,458.4670690000057,None,458.4670690000057,459.5831632000045,0.07075479999184608,None,2.7982031000428833,,,,,,,,,33,001,2019_Dec_25_1401,untitled,3.1.0,59.943664940406116,
393,_4,M,0,R,N,393_4M000RN,HRN,0,45,45,160,,,1.079,461.33348259999184,461.6814176000189,461.69796349998796,461.98145229998045,461.9981139000156,None,up,461.9981139000156,None,461.9981139000156,463.06350739998743,0.06121129996608943,None,2.083103899960406,,,,,,,,,33,001,2019_Dec_25_1401,untitled,3.1.0,59.943664940406116,
_,G,M,270,_,_,_GM270__,N,0,46,46,14,,,0.765,464.1789598999894,464.4953913000063,464.51273279997986,464.79554159997497,464.8123292999808,None,up,464.8123292999808,None,464.8123292999808,465.5611594999791,0.08899359998758882,None,2.616665399982594,,,,,,,,,33,001,2019_Dec_25_1401,untitled,3.1.0,59.943664940406116,
_,_2,N,180,_,_,__2N180__,N,0,47,47,76,,,1.3780000000000001,467.5023833999876,467.8429132999736,467.85924209997756,468.14283670001896,468.1591728000203,None,up,468.1591728000203,None,468.1591728000203,469.5250009999727,0.06702160002896562,None,2.6812401000061072,,,,,,,,,33,001,2019_Dec_25_1401,untitled,3.1.0,59.943664940406116,
494,_5,M,225,L,N,494_5M225LN,HLN,0,48,48,189,,,0.809,470.91446940001333,471.25666179996915,471.27383139997255,471.55623200000264,471.5725744999945,None,up,471.5725744999945,None,471.5725744999945,472.35544610000215,0.06587160000344738,None,2.848544500011485,,,,,,,,,33,001,2019_Dec_25_1401,untitled,3.1.0,59.943664940406116,
004,R,N,135,R,N,004RN135RN,HRN,0,49,49,195,,,1.0170000000000001,474.4971681999741,474.8368593999767,474.85319599998184,475.1366272000014,475.1531776000047,None,None,475.1531776000047,None,475.1531776000047,476.1517870000098,0.06791230000089854,None,,,,,,,,,,33,001,2019_Dec_25_1401,untitled,3.1.0,59.943664940406116,
426,_4,M,45,L,N,426_4M045LN,HLN,0,50,50,169,,,0.971,478.70915840001544,479.033078700013,479.0495971000055,479.33234630001243,479.34903749998193,478.70915840001544,up,479.34903749998193,None,479.34903749998193,480.2984632999869,0.08389700000407174,None,2.182024999987334,,,,,,,,,33,001,2019_Dec_25_1401,untitled,3.1.0,59.943664940406116,
295,_2,N,270,L,N,295_2N270LN,HLN,0,51,51,254,,,0.8250000000000001,481.6005384000018,481.9468687999761,481.9640317999874,482.2468623999739,482.2636135999928,None,down,482.2636135999928,None,482.2636135999928,483.0629900000058,0.062362900003790855,None,3.431967100012116,,,,,,,,,33,001,2019_Dec_25_1401,untitled,3.1.0,59.943664940406116,
425,_4,M,0,L,N,425_4M000LN,HLN,0,52,52,168,,,0.846,485.76487790001556,486.11010370001895,486.1268180999905,486.41016359999776,486.42674540000735,None,down,486.42674540000735,None,486.42674540000735,487.2598877999699,0.062145099975168705,None,2.81688249995932,,,,,,,,,33,001,2019_Dec_25_1401,untitled,3.1.0,59.943664940406116,
168,F,N,315,L,N,168FN315LN,HLN,0,53,53,223,,,1.302,489.320914299984,489.65752459998475,489.67402510001557,489.9568355999654,489.9733586999937,None,up,489.9733586999937,None,489.9733586999937,491.2566218000138,0.06989320000866428,None,2.284316700010095,,,,,,,,,33,001,2019_Dec_25_1401,untitled,3.1.0,59.943664940406116,
_,G,M,225,_,_,_GM225__,N,0,54,54,13,,,1.247,492.32689670001855,492.6712962000165,492.6875171000138,492.97120749996975,492.98783120000735,None,None,492.98783120000735,None,492.98783120000735,494.2200734000071,0.06098130001919344,None,,,,,,,,,,33,001,2019_Dec_25_1401,untitled,3.1.0,59.943664940406116,
137,F,M,0,R,N,137FM000RN,HRN,0,55,55,112,,,0.763,496.53260639996734,496.8678462000098,496.8838628999656,497.16700309998123,497.1839339999715,496.53260639996734,down,497.1839339999715,None,497.1839339999715,497.9331661000033,0.07429920003050938,None,1.9191677999915555,,,,,,,,,33,001,2019_Dec_25_1401,untitled,3.1.0,59.943664940406116,
304,_2,M,315,L,N,304_2M315LN,HLN,0,56,56,159,,,1.276,499.1968676999677,499.5150322999689,499.53207000001566,499.8148479000083,499.83155349997105,None,down,499.83155349997105,None,499.83155349997105,501.09771870000986,0.0836536000133492,None,2.8325997999636456,,,,,,,,,33,001,2019_Dec_25_1401,untitled,3.1.0,59.943664940406116,
_,F,N,225,_,_,_FN225__,N,0,57,57,53,,,1.149,502.7329251000192,503.0785856000148,503.0955072999932,503.3785678999848,503.39496110001346,None,up,503.39496110001346,None,503.39496110001346,504.5273190999869,0.06171039998298511,None,2.666542000020854,,,,,,,,,33,001,2019_Dec_25_1401,untitled,3.1.0,59.943664940406116,
201,G,M,0,R,N,201GM000RN,HRN,0,58,58,128,,,0.78,506.1343528999714,506.47602469997946,506.4926445999881,506.77593409997644,506.79302709997864,None,down,506.79302709997864,None,506.79302709997864,507.55769250000594,0.06617470004130155,None,2.648401600017678,,,,,,,,,33,001,2019_Dec_25_1401,untitled,3.1.0,59.943664940406116,
431,_4,M,270,L,N,431_4M270LN,HLN,0,59,59,174,,,0.72,509.54650070000207,509.8565565000172,509.87254269997356,510.1564184000017,510.1728382000001,None,up,510.1728382000001,None,510.1728382000001,510.8717658999958,0.09657679998781532,None,2.419594099977985,,,,,,,,,33,001,2019_Dec_25_1401,untitled,3.1.0,59.943664940406116,
391,_4,N,270,R,N,391_4N270RN,HRN,0,60,60,262,,,1.339,512.696950100013,513.0034080999903,513.0203787999926,513.302881599986,513.3196225999855,None,down,513.3196225999855,None,513.3196225999855,514.6517757999827,0.09420549997594208,None,2.7679936999920756,,,,,,,,,33,001,2019_Dec_25_1401,untitled,3.1.0,59.943664940406116,
_,_2,M,135,_,_,__2M135__,N,0,61,61,27,,,0.867,516.1751772999996,516.5003938999726,516.5174335999764,516.8004176999675,516.8172171000042,None,down,516.8172171000042,None,516.8172171000042,517.6656838000054,0.07802959997206926,None,3.2303850000025705,,,,,,,,,33,001,2019_Dec_25_1401,untitled,3.1.0,59.943664940406116,
422,_4,N,225,L,N,422_4N225LN,HLN,0,62,62,269,,,1.357,520.1180326999747,520.4636609000154,520.4802955000196,520.7634089000057,520.7797220000066,None,up,520.7797220000066,None,520.7797220000066,522.1123538999818,0.0628104000352323,None,2.516440599982161,,,,,,,,,33,001,2019_Dec_25_1401,untitled,3.1.0,59.943664940406116,
457,_5,M,0,R,N,457_5M000RN,HRN,0,63,63,176,,,0.9480000000000001,523.3984491999727,523.7109022999648,523.7281736999867,524.0106214999687,524.0272386000142,None,up,524.0272386000142,None,524.0272386000142,524.9587865999783,0.0911136000067927,None,2.7325089999940246,,,,,,,,,33,001,2019_Dec_25_1401,untitled,3.1.0,59.943664940406116,
_,F,M,135,_,_,_FM135__,N,0,64,64,3,,,1.2570000000000001,526.8317512999638,527.1744770999649,527.1910663999734,527.4744676999981,527.4925606999896,None,up,527.4925606999896,None,527.4925606999896,528.7234399999725,0.06502849998651072,None,3.1961523999925703,,,,,,,,,33,001,2019_Dec_25_1401,untitled,3.1.0,59.943664940406116,
_,_2,N,45,_,_,__2N045__,N,0,65,65,73,,,0.995,530.7692042000126,531.1040481000091,531.1206353000016,531.4040588000207,531.4206645999802,None,up,531.4206645999802,None,531.4206645999802,532.40326739999,0.07213729998329654,None,2.4985616999911144,,,,,,,,,33,001,2019_Dec_25_1401,untitled,3.1.0,59.943664940406116,
_,_4,N,135,_,_,__4N135__,N,0,66,66,83,,,0.892,534.0025233000051,534.3357531999936,534.3519283999922,534.6342112999992,534.651020499994,None,down,534.651020499994,None,534.651020499994,535.5338191000046,0.07382549997419119,None,2.7177135000238195,,,,,,,,,33,001,2019_Dec_25_1401,untitled,3.1.0,59.943664940406116,
163,F,N,90,L,N,163FN090LN,HLN,0,67,67,218,,,1.318,537.457074099977,537.7816343000159,537.7990147999953,538.0815023999894,538.0987990999711,None,up,538.0987990999711,None,538.0987990999711,539.3977020999882,0.07922519999556243,None,2.1310100999544375,,,,,,,,,33,001,2019_Dec_25_1401,untitled,3.1.0,59.943664940406116,
_,_4,M,45,_,_,__4M045__,N,0,68,68,33,,,1.281,540.310489800002,540.6461560999742,540.6636668000137,540.9459288999788,540.9622895999928,None,up,540.9622895999928,None,540.9622895999928,542.2285171999829,0.0717268000007607,None,2.498774499981664,,,,,,,,,33,001,2019_Dec_25_1401,untitled,3.1.0,59.943664940406116,
042,R,M,45,L,N,042RM045LN,HLN,0,69,69,105,,,1.026,543.5381460000062,543.876349499973,543.8931357999681,544.1762400000007,544.19367160002,None,down,544.19367160002,None,544.19367160002,545.2086733999895,0.06955730001209304,None,2.3482941999682225,,,,,,,,,33,001,2019_Dec_25_1401,untitled,3.1.0,59.943664940406116,
462,_5,M,225,R,N,462_5M225RN,HRN,0,70,70,181,,,0.892,546.6121737000067,546.9574755000067,546.9739150999812,547.2567110999953,547.2729592999676,None,down,547.2729592999676,None,547.2729592999676,548.1391824000166,0.06334170000627637,None,3.114892499987036,,,,,,,,,33,001,2019_Dec_25_1401,untitled,3.1.0,59.943664940406116,
_,_2,N,90,_,_,__2N090__,N,0,71,71,74,,,0.875,550.4572217999958,550.8041888999869,550.820830599987,551.1035530999652,551.1209016999928,None,up,551.1209016999928,None,551.1209016999928,551.9691990999854,0.06252720003249124,None,2.1509753999998793,,,,,,,,,33,001,2019_Dec_25_1401,untitled,3.1.0,59.943664940406116,
452,_5,N,135,R,N,452_5N135RN,HRN,0,72,72,275,,,0.872,553.34014450002,553.6843768999679,553.7009975999827,553.9847834999673,554.0010782000027,None,up,554.0010782000027,None,554.0010782000027,554.8511139000184,0.061248899961356074,None,2.466085900028702,,,,,,,,,33,001,2019_Dec_25_1401,untitled,3.1.0,59.943664940406116,
_,F,N,45,_,_,_FN045__,N,0,73,73,49,,,1.254,556.5463350000209,556.8817391999764,556.8987627999741,557.1819804999977,557.1992042000056,None,up,557.1992042000056,None,557.1992042000056,558.4307630999829,0.0694931999896653,None,2.1665732000255957,,,,,,,,,33,001,2019_Dec_25_1401,untitled,3.1.0,59.943664940406116,
_,_5,M,315,_,_,__5M315__,N,0,74,74,47,,,0.881,559.4315350999823,559.7790441999678,559.7957921000198,560.0790578000015,560.0958615000127,None,down,560.0958615000127,None,560.0958615000127,560.9617998999893,0.05835909995948896,None,3.082977399986703,,,,,,,,,33,001,2019_Dec_25_1401,untitled,3.1.0,59.943664940406116,
296,_2,N,315,L,N,296_2N315LN,HLN,0,75,75,255,,,0.7000000000000001,563.2476574999746,563.5929452999844,563.6098889000132,563.8925770000205,563.90918409999,None,up,563.90918409999,None,563.90918409999,564.5916798000108,0.06136379996314645,None,2.3666462000110187,,,,,,,,,33,001,2019_Dec_25_1401,untitled,3.1.0,59.943664940406116,
259,_2,N,90,R,N,259_2N090RN,HRN,0,76,76,242,,,1.223,566.3503866000101,566.6898231999949,566.7066397999879,566.9900659999694,567.00643150002,None,up,567.00643150002,None,567.00643150002,568.2051610000199,0.06803029996808618,None,2.2324621999869123,,,,,,,,,33,001,2019_Dec_25_1401,untitled,3.1.0,59.943664940406116,
033,R,N,0,L,N,033RN000LN,HLN,0,77,77,200,,,0.708,569.3170132999658,569.6551413999987,569.6706886999891,569.9546318000066,569.9721125999931,None,up,569.9721125999931,None,569.9721125999931,570.6694896999979,0.06968850002158433,None,1.564217000035569,,,,,,,,,33,001,2019_Dec_25_1401,untitled,3.1.0,59.943664940406116,
_,_5,M,135,_,_,__5M135__,N,0,78,78,43,,,0.855,571.6073732000077,571.9518814000185,571.9678680999787,572.2520245999913,572.2683962999727,None,down,572.2683962999727,None,572.2683962999727,573.1015161999967,0.06441709998762235,None,2.8157540999818593,,,,,,,,,33,001,2019_Dec_25_1401,untitled,3.1.0,59.943664940406116,
016,R,M,315,R,N,016RM315RN,HRN,0,79,79,103,,,0.842,575.155892300012,575.4988591999863,575.5158913999912,575.7982676000101,575.8152034999803,None,down,575.8152034999803,None,575.8152034999803,576.6478110000025,0.06423800002085045,None,2.049880500009749,,,,,,,,,33,001,2019_Dec_25_1401,untitled,3.1.0,59.943664940406116,
_,R,N,90,_,_,_RN090__,N,0,80,80,66,,,0.9510000000000001,577.9329100999748,578.2798139000079,578.2965036999667,578.5795668999781,578.5964193000109,None,up,578.5964193000109,None,578.5964193000109,579.5284639999736,0.06106119998730719,None,1.9491438000113703,,,,,,,,,33,001,2019_Dec_25_1401,untitled,3.1.0,59.943664940406116,
_,_2,M,225,_,_,__2M225__,N,0,81,81,29,,,1.3820000000000001,580.6221046000137,580.9609300000011,580.9777402000036,581.2612338999752,581.2782689000014,None,down,581.2782689000014,None,581.2782689000014,582.64273089997,0.06840019999071956,None,3.080225399986375,,,,,,,,,33,001,2019_Dec_25_1401,untitled,3.1.0,59.943664940406116,
002,R,N,45,R,N,002RN045RN,HRN,0,82,82,193,,,0.967,584.4265305000008,584.7745615000022,584.7924315999844,585.0739044999937,585.0911790999817,None,up,585.0911790999817,None,585.0911790999817,586.0396599000087,0.061293400009162724,None,1.783378999971319,,,,,,,,,33,001,2019_Dec_25_1401,untitled,3.1.0,59.943664940406116,
_,R,N,270,_,_,_RN270__,N,0,83,83,70,,,0.728,586.9403267999878,587.2889933999977,587.3052440999891,587.5893989999895,587.6055989000015,None,up,587.6055989000015,None,587.6055989000015,588.3213000000105,0.05942869995487854,None,1.5652289999998175,,,,,,,,,33,001,2019_Dec_25_1401,untitled,3.1.0,59.943664940406116,
_,_4,N,0,_,_,__4N000__,N,0,84,84,80,,,1.336,589.2392910000053,589.5867761999834,589.6034337999881,589.8865853999741,589.9030062999809,None,up,589.9030062999809,None,589.9030062999809,591.218583000009,0.06145049998303875,None,1.9172566999914125,,,,,,,,,33,001,2019_Dec_25_1401,untitled,3.1.0,59.943664940406116,
_,R,N,225,_,_,_RN225__,N,0,85,85,69,,,0.918,591.8884530999931,592.2346909000189,592.25129320001,592.5340301999822,592.5505551999668,None,up,592.5505551999668,None,592.5505551999668,593.4504119000048,0.06093839998356998,None,1.6994491999503225,,,,,,,,,33,001,2019_Dec_25_1401,untitled,3.1.0,59.943664940406116,
264,_2,N,315,R,N,264_2N315RN,HRN,0,86,86,247,,,1.1440000000000001,594.3185370999854,594.6661822000169,594.6825823999825,594.9650870999903,594.9817484999658,None,up,594.9817484999658,None,594.9817484999658,596.1144342999905,0.06118289998266846,None,3.4007530999951996,,,,,,,,,33,001,2019_Dec_25_1401,untitled,3.1.0,59.943664940406116,
007,R,N,270,R,N,007RN270RN,HRN,0,87,87,198,,,0.846,598.4695388000109,598.7953799999668,598.8118024999858,599.0951277000131,599.1116019000183,None,up,599.1116019000183,None,599.1116019000183,599.9449862000183,0.0772317000082694,None,1.5496458999696188,,,,,,,,,33,001,2019_Dec_25_1401,untitled,3.1.0,59.943664940406116,
035,R,N,90,L,N,035RN090LN,HLN,0,88,88,202,,,1.362,600.7396895000129,601.0768995999824,601.0933012000169,601.3766077000182,601.3934321000124,None,up,601.3934321000124,None,601.3934321000124,602.74229189998,0.07111680001253262,None,2.0503764000022784,,,,,,,,,33,001,2019_Dec_25_1401,untitled,3.1.0,59.943664940406116,
_,R,M,180,_,_,_RM180__,N,0,89,89,20,,,1.037,603.5111769000068,603.8577636000118,603.8741067000083,604.157175100001,604.1742043999839,None,up,604.1742043999839,None,604.1742043999839,605.189607999986,0.059513800020795316,None,2.2150799999944866,,,,,,,,,33,001,2019_Dec_25_1401,untitled,3.1.0,59.943664940406116,
166,F,N,225,L,N,166FN225LN,HLN,0,90,90,221,,,0.78,606.4692498999648,606.8061500000185,606.821630899969,607.1069424999878,607.122223399987,None,up,607.122223399987,None,607.122223399987,607.8871974999784,0.07166180002968758,None,1.7491987000103109,,,,,,,,,33,001,2019_Dec_25_1401,untitled,3.1.0,59.943664940406116,
226,G,N,45,L,N,226GN045LN,HLN,0,91,91,233,,,0.896,608.9421707000001,609.28612840001,609.3038738999749,609.5859988000011,609.6025659000152,None,up,609.6025659000152,None,609.6025659000152,610.485095800017,0.06391899997834116,None,1.8660725000081584,,,,,,,,,33,001,2019_Dec_25_1401,untitled,3.1.0,59.943664940406116,
_,_4,N,315,_,_,__4N315__,N,0,92,92,87,,,1.153,611.5503840000019,611.884026499989,611.9007183999638,612.1835645000101,612.2005981999682,None,up,612.2005981999682,None,612.2005981999682,613.3327431000071,0.07360989996232092,None,1.75073520001024,,,,,,,,,33,001,2019_Dec_25_1401,untitled,3.1.0,59.943664940406116,
289,_2,N,0,L,N,289_2N000LN,HLN,0,93,93,248,,,0.989,614.0207164000021,614.3650871000136,614.3818044000072,614.6652531999862,614.6825060999836,None,down,614.6825060999836,None,614.6825060999836,615.6500859999796,0.06243770004948601,None,2.715068199962843,,,,,,,,,33,001,2019_Dec_25_1401,untitled,3.1.0,59.943664940406116,
302,_2,M,225,L,N,302_2M225LN,HLN,0,94,94,157,,,0.745,617.4695211999933,617.812170499994,617.8289963999996,618.1119014999713,618.1286044999724,None,down,618.1286044999724,None,618.1286044999724,618.8612258000067,0.06491600000299513,None,1.9155861999606714,,,,,,,,,33,001,2019_Dec_25_1401,untitled,3.1.0,59.943664940406116,
133,F,N,180,R,N,133FN180RN,HRN,0,95,95,212,,,1.291,620.1163687999942,620.4613662000047,620.476564600016,620.7595156999887,620.7782942000194,None,up,620.7782942000194,None,620.7782942000194,622.0416259000194,0.06510910001816228,None,1.8151156999520026,,,,,,,,,33,001,2019_Dec_25_1401,untitled,3.1.0,59.943664940406116,
_,G,M,315,_,_,_GM315__,N,0,96,96,15,,,0.8250000000000001,622.6660998999723,623.0073524999898,623.0240628999891,623.3080655999947,623.3239116999903,None,down,623.3239116999903,None,623.3239116999903,624.1405281000189,0.065318200038746,None,2.3151828999980353,,,,,,,,,33,001,2019_Dec_25_1401,untitled,3.1.0,59.943664940406116,
_,R,M,0,_,_,_RM000__,N,0,97,97,16,,,1.105,625.7156611999962,626.0549434999702,626.0713609000086,626.3550421000109,626.371319799975,None,down,626.371319799975,None,626.371319799975,627.4537769000162,0.06931670004269108,None,2.000527399999555,,,,,,,,,33,001,2019_Dec_25_1401,untitled,3.1.0,59.943664940406116,
204,G,M,135,R,N,204GM135RN,HRN,0,98,98,131,,,1.121,628.4383928999887,628.7859868999803,628.8031240999699,629.0858423999744,629.1025130000198,None,up,629.1025130000198,None,629.1025130000198,630.2014232999645,0.05993930000113323,None,2.5980189999681897,,,,,,,,,33,001,2019_Dec_25_1401,untitled,3.1.0,59.943664940406116,
003,R,N,90,R,N,003RN090RN,HRN,0,99,99,194,,,1.188,631.7818918999983,632.1164802999701,632.133529099985,632.4162332999986,632.4326459000004,None,up,632.4326459000004,None,632.4326459000004,633.5983358999947,0.0730735000106506,None,1.916680800030008,,,,,,,,,33,001,2019_Dec_25_1401,untitled,3.1.0,59.943664940406116,
240,G,M,315,L,N,240GM315LN,HLN,0,100,100,143,,,1.235,634.4281707999762,634.7643472999916,634.7804509999696,635.0642894000048,635.0808442999842,None,up,635.0808442999842,None,635.0808442999842,636.2958216000115,0.07209500001044944,None,3.048926900024526,,,,,,,,,33,001,2019_Dec_25_1401,untitled,3.1.0,59.943664940406116,
_,_5,M,45,_,_,__5M045__,N,0,101,101,41,,,1.33,638.2014451000141,638.5447615999728,638.5607328999904,638.8436484999838,638.860149999964,None,up,638.860149999964,None,638.860149999964,640.1766622000141,0.06522389996098354,None,2.7156041999696754,,,,,,,,,33,001,2019_Dec_25_1401,untitled,3.1.0,59.943664940406116,
010,R,M,45,R,N,010RM045RN,HRN,0,102,102,97,,,1.377,641.6493157999939,641.9915052999859,642.0076451000059,642.2906677999999,642.3073914999841,None,down,642.3073914999841,None,642.3073914999841,643.6730311000138,0.06706809997558594,None,2.564396600006148,,,,,,,,,33,001,2019_Dec_25_1401,untitled,3.1.0,59.943664940406116,
_,F,M,225,_,_,_FM225__,N,0,103,103,5,,,1.344,644.9423807999701,645.2882038999815,645.3047265000059,645.588065799966,645.6046185999876,None,down,645.6046185999876,None,645.6046185999876,646.9372258000076,0.06324520002817735,None,2.7651866000378504,,,,,,,,,33,001,2019_Dec_25_1401,untitled,3.1.0,59.943664940406116,
006,R,N,225,R,N,006RN225RN,HRN,0,104,104,197,,,0.9520000000000001,648.4369372999645,648.7854025000124,648.802229599969,649.0852720999974,649.1018419999746,None,up,649.1018419999746,None,649.1018419999746,650.0341090000002,0.06054849998326972,None,2.1978057000087574,,,,,,,,,33,001,2019_Dec_25_1401,untitled,3.1.0,59.943664940406116,
455,_5,N,270,R,N,455_5N270RN,HRN,0,105,105,278,,,0.921,651.3741695000208,651.7163352000061,651.7325469999923,652.015791599988,652.0321678000037,None,up,652.0321678000037,None,652.0321678000037,652.9316866999725,0.06663840002147481,None,1.8833952999557368,,,,,,,,,33,001,2019_Dec_25_1401,untitled,3.1.0,59.943664940406116,
135,F,N,270,R,N,135FN270RN,HRN,0,106,106,214,,,1.2530000000000001,653.9851447999827,654.3304134999635,654.3470393000171,654.6301534000086,654.6465896000154,None,up,654.6465896000154,None,654.6465896000154,655.8786435999791,0.06284470000537112,None,1.948892500018701,,,,,,,,,33,001,2019_Dec_25_1401,untitled,3.1.0,59.943664940406116,
_,G,M,90,_,_,_GM090__,N,0,107,107,10,,,1.077,656.6628276999691,657.0123955999734,657.0276804000023,657.3112011000048,657.3282358999713,None,down,657.3282358999713,None,657.3282358999713,658.3932859000051,0.06059890001779422,None,3.115120999980718,,,,,,,,,33,001,2019_Dec_25_1401,untitled,3.1.0,59.943664940406116,
449,_5,N,0,R,N,449_5N000RN,HRN,0,108,108,272,,,1.329,660.5125291000004,660.8587754999753,660.8751650999766,661.1575967000099,661.174153800006,None,up,661.174153800006,None,661.174153800006,662.4902162000071,0.061663799977395684,None,2.067584900010843,,,,,,,,,33,001,2019_Dec_25_1401,untitled,3.1.0,59.943664940406116,
_,G,N,90,_,_,_GN090__,N,0,109,109,58,,,0.757,663.3141033999855,663.655604199972,663.6722232999746,663.9555300999782,663.971865199972,None,None,663.971865199972,None,663.971865199972,664.7210807999945,0.06565450003836304,None,,,,,,,,,,33,001,2019_Dec_25_1401,untitled,3.1.0,59.943664940406116,
390,_4,N,225,R,N,390_4N225RN,HRN,0,110,110,261,,,1.12,667.5028576999903,667.8520546999644,667.8690528000006,668.1513943999889,668.1679479000159,667.5028576999903,None,668.1679479000159,None,668.1679479000159,669.267307800008,0.060867900028824806,None,,,,,,,,,,33,001,2019_Dec_25_1401,untitled,3.1.0,59.943664940406116,
_,_4,M,0,_,_,__4M000__,N,0,111,111,32,,,1.022,671.7053946999949,672.0481216000044,672.0647904999787,672.348307600012,672.3642042999854,671.7053946999949,up,672.3642042999854,None,672.3642042999854,673.3636648000102,0.06652230001054704,None,2.232325499993749,,,,,,,,,33,001,2019_Dec_25_1401,untitled,3.1.0,59.943664940406116,
206,G,M,225,R,N,206GM225RN,HRN,0,112,112,133,,,0.89,674.667944899993,675.0125491999788,675.0287076999666,675.3117556999787,675.3282527999836,None,up,675.3282527999836,None,675.3282527999836,676.1977126999991,0.06391299999086186,None,3.1660916000255384,,,,,,,,,33,001,2019_Dec_25_1401,untitled,3.1.0,59.943664940406116,
299,_2,M,90,L,N,299_2M090LN,HLN,0,113,113,154,,,1.3,678.5620845999802,678.9091315999976,678.9252680999925,679.208662799967,679.2259492999874,None,up,679.2259492999874,None,679.2259492999874,680.5075930000166,0.0594406999880448,None,2.713775900017936,,,,,,,,,33,001,2019_Dec_25_1401,untitled,3.1.0,59.943664940406116,
417,_4,N,0,L,N,417_4N000LN,HLN,0,114,114,264,,,0.961,682.0068450999679,682.3560095999856,682.3727852000156,682.6553365999716,682.6718469000189,None,up,682.6718469000189,None,682.6718469000189,683.6222347000148,0.06022919999668375,None,2.2989212999818847,,,,,,,,,33,001,2019_Dec_25_1401,untitled,3.1.0,59.943664940406116,
005,R,N,180,R,N,005RN180RN,HRN,0,115,115,196,,,0.989,685.0383098999737,685.3866174999857,685.4034168999642,685.6865804999834,685.7032670999761,None,up,685.7032670999761,None,685.7032670999761,686.6688870000071,0.06035340001108125,None,2.63333469995996,,,,,,,,,33,001,2019_Dec_25_1401,untitled,3.1.0,59.943664940406116,
424,_4,N,315,L,N,424_4N315LN,HLN,0,116,116,271,,,1.2670000000000001,688.4048316999688,688.7504083999665,688.7671747999848,689.050333000021,689.0675163000124,None,up,689.0675163000124,None,689.0675163000124,690.3160024000099,0.0614759000018239,None,1.9483811000245623,,,,,,,,,33,001,2019_Dec_25_1401,untitled,3.1.0,59.943664940406116,
_,_2,M,0,_,_,__2M000__,N,0,117,117,24,,,1.108,691.0827397999819,691.4319587000064,691.4477757000132,691.7308986000135,691.7479176999768,None,None,691.7479176999768,None,691.7479176999768,692.8299452000065,0.06009280000580475,None,,,,,,,,,,33,001,2019_Dec_25_1401,untitled,3.1.0,59.943664940406116,
270,_2,M,225,R,N,270_2M225RN,HRN,0,118,118,149,,,1.165,695.2813795999973,695.6284994999878,695.6440427000052,695.927833899972,695.9439371000044,695.2813795999973,None,695.9439371000044,None,695.9439371000044,697.0927534999792,0.06130699999630451,None,,,,,,,,,,33,001,2019_Dec_25_1401,untitled,3.1.0,59.943664940406116,
482,_5,N,45,L,N,482_5N045LN,HLN,0,119,119,281,,,1.204,699.4759131000028,699.8249221000005,699.8410849000211,700.1236742999754,700.1401393999695,699.4759131000028,up,700.1401393999695,None,700.1401393999695,701.3226510999957,0.06137399998260662,None,1.8181422000052407,,,,,,,,,33,001,2019_Dec_25_1401,untitled,3.1.0,59.943664940406116,
229,G,N,180,L,N,229GN180LN,HLN,0,120,120,236,,,1.09,702.025209799991,702.3726678999956,702.3887500999845,702.671281500021,702.6877986000036,None,up,702.6877986000036,None,702.6877986000036,703.7703861999908,0.06048210000153631,None,2.915000599983614,,,,,,,,,33,001,2019_Dec_25_1401,untitled,3.1.0,59.943664940406116,
291,_2,N,90,L,N,291_2N090LN,HLN,0,121,121,250,,,0.771,705.6900110999704,706.0187685000128,706.0356926000095,706.320724899997,706.3397293000016,None,up,706.3397293000016,None,706.3397293000016,707.0835616000113,0.07751209998968989,None,1.5947559000342153,,,,,,,,,33,001,2019_Dec_25_1401,untitled,3.1.0,59.943664940406116,
_,_5,M,225,_,_,__5M225__,N,0,122,122,45,,,0.883,708.0126559999771,708.3497873999877,708.3664374999935,708.6494196999702,708.6658794999821,None,down,708.6658794999821,None,708.6658794999821,709.5319965999806,0.07147030002670363,None,1.9512753000017256,,,,,,,,,33,001,2019_Dec_25_1401,untitled,3.1.0,59.943664940406116,
015,R,M,270,R,N,015RM270RN,HRN,0,123,123,102,,,1.372,710.6858287999639,711.0312170999823,711.047668299987,711.3309566999669,711.3476150999777,None,down,711.3476150999777,None,711.3476150999777,712.6967626999831,0.06195750000188127,None,3.099367599992547,,,,,,,,,33,001,2019_Dec_25_1401,untitled,3.1.0,59.943664940406116,
483,_5,N,90,L,N,483_5N090LN,HLN,0,124,124,282,,,0.794,714.514473200019,714.8610383999767,714.8776784999645,715.1603458999889,715.1771227999707,None,up,715.1771227999707,None,715.1771227999707,715.959981699998,0.060763000044971704,None,1.9486603999976069,,,,,,,,,33,001,2019_Dec_25_1401,untitled,3.1.0,59.943664940406116,
130,F,N,45,R,N,130FN045RN,HRN,0,125,125,209,,,1.06,717.220788799983,717.5421651999932,717.5585199000197,717.8421869999729,717.8582001000177,None,up,717.8582001000177,None,717.8582001000177,718.9076768999803,0.08670240000355989,None,2.2495539999799803,,,,,,,,,33,001,2019_Dec_25_1401,untitled,3.1.0,59.943664940406116,
200,G,N,315,R,N,200GN315RN,HRN,0,126,126,231,,,1.158,720.1748926999862,720.5226215000148,720.5393603999983,720.8225744999945,720.8392983999802,None,up,720.8392983999802,None,720.8392983999802,721.9874126999639,0.05978690000483766,None,2.265185099968221,,,,,,,,,33,001,2019_Dec_25_1401,untitled,3.1.0,59.943664940406116,
132,F,N,135,R,N,132FN135RN,HRN,0,127,127,211,,,0.778,723.1712767999852,723.5202736000065,723.5376481999992,723.819458300015,723.8362668000045,None,up,723.8362668000045,None,723.8362668000045,724.602422499971,0.0606258999905549,None,2.0491844000061974,,,,,,,,,33,001,2019_Dec_25_1401,untitled,3.1.0,59.943664940406116,
_,_4,N,270,_,_,__4N270__,N,0,128,128,86,,,1.367,725.9520247000037,726.301315299992,726.3175860000192,726.601548000006,726.6178762000054,None,up,726.6178762000054,None,726.6178762000054,727.966482400021,0.058691699989140034,None,2.499778099998366,,,,,,,,,33,001,2019_Dec_25_1401,untitled,3.1.0,59.943664940406116,
_,_2,M,315,_,_,__2M315__,N,0,129,129,31,,,0.839,729.1823939000024,729.5321066000033,729.5481343999854,729.8311015999643,729.8476335000014,None,down,729.8476335000014,None,729.8476335000014,730.6635431000032,0.05773790000239387,None,2.8993754999828525,,,,,,,,,33,001,2019_Dec_25_1401,untitled,3.1.0,59.943664940406116,
169,F,M,0,L,N,169FM000LN,HLN,0,130,130,120,,,0.745,732.8369627000066,733.1619254999678,733.1785398999928,733.4611360999988,733.4776347000152,None,down,733.4776347000152,None,733.4776347000152,734.210474499967,0.08121189998928457,None,2.216855500009842,,,,,,,,,33,001,2019_Dec_25_1401,untitled,3.1.0,59.943664940406116,
202,G,M,45,R,N,202GM045RN,HRN,0,131,131,129,,,0.991,735.7659516999847,736.1088566000108,736.1259636000032,736.4088272000081,736.4252745999838,None,down,736.4252745999838,None,736.4252745999838,737.4076551999897,0.06476169999223202,None,2.4815509999752976,,,,,,,,,33,001,2019_Dec_25_1401,untitled,3.1.0,59.943664940406116,
140,F,M,135,R,N,140FM135RN,HRN,0,132,132,115,,,1.061,738.9729033000185,739.3232828999753,739.3396286999923,739.6224073999911,739.6390498999972,None,None,739.6390498999972,None,739.6390498999972,740.6883679999737,0.05907249997835606,None,,,,,,,,,,33,001,2019_Dec_25_1401,untitled,3.1.0,59.943664940406116,
_,_5,N,315,_,_,__5N315__,N,0,133,133,95,,,1.355,743.174305499997,743.5200081999646,743.5358494999819,743.8187686000019,743.8357760999934,743.174305499997,up,743.8357760999934,None,743.8357760999934,745.1678685999941,0.06408620002912357,None,2.0821014000102878,,,,,,,,,33,001,2019_Dec_25_1401,untitled,3.1.0,59.943664940406116,
_,_2,M,270,_,_,__2M270__,N,0,134,134,30,,,0.968,745.9889797000214,746.3335094999638,746.3510620999732,746.6336858000141,746.650138899975,None,up,746.650138899975,None,746.650138899975,747.5991358999745,0.06386390002444386,None,2.466781900031492,,,,,,,,,33,001,2019_Dec_25_1401,untitled,3.1.0,59.943664940406116,
_,_4,M,270,_,_,__4M270__,N,0,135,135,38,,,1.119,749.186343599984,749.5304068999831,749.5476753999828,749.8308257000172,749.8474896000116,None,down,749.8474896000116,None,749.8474896000116,750.9460468000034,0.06218330003321171,None,2.716829899989534,,,,,,,,,33,001,2019_Dec_25_1401,untitled,3.1.0,59.943664940406116,
174,F,M,225,L,N,174FM225LN,HLN,0,136,136,125,,,1.368,752.6683089999715,752.9777191000176,752.994497000007,753.2779984999797,753.294936100021,None,None,753.294936100021,None,753.294936100021,754.6431205999688,0.09291469998424873,None,,,,,,,,,,33,001,2019_Dec_25_1401,untitled,3.1.0,59.943664940406116,
_,_2,N,135,_,_,__2N135__,N,0,137,137,75,,,1.342,756.8280967000173,757.1741348999785,757.1911812999751,757.4736817000085,757.4909727000049,756.8280967000173,up,757.4909727000049,None,757.4909727000049,758.8221638000105,0.06329660001210868,None,2.3988251999835484,,,,,,,,,33,001,2019_Dec_25_1401,untitled,3.1.0,59.943664940406116,
292,_2,N,135,L,N,292_2N135LN,HLN,0,138,138,251,,,1.2530000000000001,759.9634036999778,760.3043925999664,760.3214297000086,760.6042459000018,760.620872200001,None,up,760.620872200001,None,760.620872200001,761.8536094999872,0.06650999997509643,None,2.134497199964244,,,,,,,,,33,001,2019_Dec_25_1401,untitled,3.1.0,59.943664940406116,
_,_2,M,45,_,_,__2M045__,N,0,139,139,25,,,1.363,762.8252756000147,763.1690292999847,763.1852408999694,763.4683904999983,763.4850963999634,None,up,763.4850963999634,None,763.4850963999634,764.8340243999846,0.0630405000410974,None,2.481885999965016,,,,,,,,,33,001,2019_Dec_25_1401,untitled,3.1.0,59.943664940406116,
198,G,N,225,R,N,198GN225RN,HRN,0,140,140,229,,,1.295,766.0415995999938,766.3825915000052,766.3993670999771,766.6836387999938,766.6992464999785,None,up,766.6992464999785,None,766.6992464999785,767.9816796999658,0.0668442000169307,None,3.1304488999885507,,,,,,,,,33,001,2019_Dec_25_1401,untitled,3.1.0,59.943664940406116,
045,R,M,180,L,N,045RM180LN,HLN,0,141,141,108,,,0.772,769.9090420000139,770.246338900004,770.2629402999883,770.5459478999837,770.5627052999916,None,down,770.5627052999916,None,770.5627052999916,771.3116028999793,0.07266129995696247,None,2.7645339999580756,,,,,,,,,33,001,2019_Dec_25_1401,untitled,3.1.0,59.943664940406116,
489,_5,M,0,L,N,489_5M000LN,HLN,0,142,142,184,,,0.897,773.4027796000009,773.7430353999953,773.7594756999752,774.0432571999845,774.0594518000144,None,down,774.0594518000144,None,774.0594518000144,774.9416393999709,0.06818880001083016,None,2.348242099978961,,,,,,,,,33,001,2019_Dec_25_1401,untitled,3.1.0,59.943664940406116,
_,_5,M,180,_,_,__5M180__,N,0,143,143,44,,,1.0190000000000001,776.4898225999787,776.8234578999691,776.8400839999667,777.123214399966,777.1401040999917,None,down,777.1401040999917,None,777.1401040999917,778.1393063999712,0.07334780000383034,None,2.1982725999550894,,,,,,,,,33,001,2019_Dec_25_1401,untitled,3.1.0,59.943664940406116,
_,G,N,180,_,_,_GN180__,N,0,144,144,60,,,1.35,779.4092013000045,779.7545204000198,779.7710985000012,780.0540906999959,780.0709032000159,None,up,780.0709032000159,None,780.0709032000159,781.4030611999915,0.0637159000034444,None,3.1313925000140443,,,,,,,,,33,001,2019_Dec_25_1401,untitled,3.1.0,59.943664940406116,
141,F,M,180,R,N,141FM180RN,HRN,0,145,145,116,,,1.311,783.2708764999988,783.617777300009,783.634667699982,783.9177379999892,783.9339172000182,None,up,783.9339172000182,None,783.9339172000182,785.2328009000048,0.06168489996343851,None,3.0321430999902077,,,,,,,,,33,001,2019_Dec_25_1401,untitled,3.1.0,59.943664940406116,
238,G,M,225,L,N,238GM225LN,HLN,0,146,146,141,,,0.837,787.0349867999903,787.3812055999879,787.3988109999918,787.6805940999766,787.6977652999922,None,down,787.6977652999922,None,787.6977652999922,788.5139963999973,0.06181829998968169,None,2.847574200015515,,,,,,,,,33,001,2019_Dec_25_1401,untitled,3.1.0,59.943664940406116,
_,G,N,135,_,_,_GN135__,N,0,147,147,59,,,0.8200000000000001,790.6241838000133,790.9615781999892,790.9782524000038,791.2610104000196,791.2774989000172,None,up,791.2774989000172,None,791.2774989000172,792.076573600003,0.07023460004711524,None,1.9696258999756537,,,,,,,,,33,001,2019_Dec_25_1401,untitled,3.1.0,59.943664940406116,
290,_2,N,45,L,N,290_2N045LN,HLN,0,148,148,249,,,1.049,793.3413044000044,793.6591865000082,793.6754733999842,793.958914799965,793.9763277000166,None,down,793.9763277000166,None,793.9763277000166,795.0075264999759,0.08409310004208237,None,2.2665239999769256,,,,,,,,,33,001,2019_Dec_25_1401,untitled,3.1.0,59.943664940406116,
420,_4,N,135,L,N,420_4N135LN,HLN,0,149,149,267,,,0.805,796.3090749999974,796.6565129999653,796.673003599979,796.9567993999808,796.9735126000014,None,up,796.9735126000014,None,796.9735126000014,797.7544037000043,0.05930159997660667,None,2.3159129000268877,,,,,,,,,33,001,2019_Dec_25_1401,untitled,3.1.0,59.943664940406116,
009,R,M,0,R,N,009RM000RN,HRN,0,150,150,96,,,1.083,799.3784831999801,799.703399799997,799.7200499000028,800.0029604000156,800.0201260999893,None,down,800.0201260999893,None,800.0201260999893,801.0852824000176,0.08144129998981953,None,2.1648027999908663,,,,,,,,,33,001,2019_Dec_25_1401,untitled,3.1.0,59.943664940406116,
399,_4,M,270,R,N,399_4M270RN,HRN,0,151,151,166,,,1.303,802.2533591999672,802.601612599974,802.6177699000109,802.9003379999776,802.9174921999802,None,down,802.9174921999802,None,802.9174921999802,804.2008427999681,0.05976009997539222,None,2.918747100047767,,,,,,,,,33,001,2019_Dec_25_1401,untitled,3.1.0,59.943664940406116,
392,_4,N,315,R,N,392_4N315RN,HRN,0,152,152,263,,,1.061,805.9387860000134,806.2478457000107,806.2645661999704,806.5476257000118,806.56449780002,None,up,806.56449780002,None,806.56449780002,807.613177799969,0.08967999997548759,None,1.7485771999927238,,,,,,,,,33,001,2019_Dec_25_1401,untitled,3.1.0,59.943664940406116,
_,G,N,45,_,_,_GN045__,N,0,153,153,57,,,1.095,808.3867382999742,808.7289870000095,808.746107599989,809.0285984000075,809.0452473000041,None,up,809.0452473000041,None,809.0452473000041,810.1277893999941,0.06674739997833967,None,1.7991492000292055,,,,,,,,,33,001,2019_Dec_25_1401,untitled,3.1.0,59.943664940406116,
_,R,N,180,_,_,_RN180__,N,0,154,154,68,,,1.2510000000000001,810.92044419999,811.2613567999797,811.277025599964,811.5595027999952,811.5771897999803,None,up,811.5771897999803,None,811.5771897999803,812.8082072999678,0.06857730000047013,None,2.3311519999988377,,,,,,,,,33,001,2019_Dec_25_1401,untitled,3.1.0,59.943664940406116,
_,_5,N,90,_,_,__5N090__,N,0,155,155,90,,,1.381,813.9769834000035,814.3241458999692,814.342029899999,814.6243660000036,814.6408937000087,None,up,814.6408937000087,None,814.6408937000087,816.0060912999907,0.061623399960808456,None,2.3149194000288844,,,,,,,,,33,001,2019_Dec_25_1401,untitled,3.1.0,59.943664940406116,
400,_4,M,315,R,N,400_4M315RN,HRN,0,156,156,167,,,0.726,817.0247440999956,817.3716893999954,817.3882753999787,817.6713744999724,817.6881203000084,None,down,817.6881203000084,None,817.6881203000084,818.404310700018,0.06141520000528544,None,2.6658801999874413,,,,,,,,,33,001,2019_Dec_25_1401,untitled,3.1.0,59.943664940406116,
_,F,N,0,_,_,_FN000__,N,0,157,157,48,,,1.341,820.4246566999936,820.768547500018,820.7853482000064,821.0684737999691,821.0863161999732,None,up,821.0863161999732,None,821.0863161999732,822.4174875000026,0.06373599998187274,None,2.6800700000021607,,,,,,,,,33,001,2019_Dec_25_1401,untitled,3.1.0,59.943664940406116,
_,_5,M,270,_,_,__5M270__,N,0,158,158,46,,,1.325,823.8355814999668,824.183232499985,824.1992674000212,824.4824430000153,824.4991576999892,None,down,824.4991576999892,None,824.4991576999892,825.7973936999915,0.061430900008417666,None,2.7650359999970533,,,,,,,,,33,001,2019_Dec_25_1401,untitled,3.1.0,59.943664940406116,
_,G,M,180,_,_,_GM180__,N,0,159,159,12,,,0.876,827.3555001000059,827.6787257000105,827.6952239999664,827.9790029000142,827.9955950999865,None,up,827.9955950999865,None,827.9955950999865,828.8613644000143,0.08183140004985034,None,1.9825037000118755,,,,,,,,,33,001,2019_Dec_25_1401,untitled,3.1.0,59.943664940406116,
_,_5,N,135,_,_,__5N135__,N,0,160,160,91,,,1.342,830.0494215000072,830.3936971999938,830.4104818999767,830.694084000017,830.7108323000139,None,up,830.7108323000139,None,830.7108323000139,832.0260464000166,0.06458219996420667,None,2.6312886999803595,,,,,,,,,33,001,2019_Dec_25_1401,untitled,3.1.0,59.943664940406116,
398,_4,M,225,R,N,398_4M225RN,HRN,0,161,161,165,,,0.9440000000000001,833.4371606999775,833.7573543000035,833.7740114000044,834.0571735000121,834.0736284999875,None,down,834.0736284999875,None,834.0736284999875,835.0061251000152,0.0832759000477381,None,2.332486399973277,,,,,,,,,33,001,2019_Dec_25_1401,untitled,3.1.0,59.943664940406116,
131,F,N,90,R,N,131FN090RN,HRN,0,162,162,210,,,0.739,836.4952432999853,836.8219685999793,836.837913699972,837.1210476999986,837.1376501999912,None,up,837.1376501999912,None,837.1376501999912,837.8535870999913,0.08127229998353869,None,1.599523400014732,,,,,,,,,33,001,2019_Dec_25_1401,untitled,3.1.0,59.943664940406116,
_,_5,N,45,_,_,__5N045__,N,0,163,163,89,,,1.331,838.8090819999925,839.1531505999737,839.1695707999752,839.4523600999964,839.4689010999864,None,up,839.4689010999864,None,839.4689010999864,840.784419499978,0.06375569995725527,None,2.4166202999767847,,,,,,,,,33,001,2019_Dec_25_1401,untitled,3.1.0,59.943664940406116,
197,G,N,180,R,N,197GN180RN,HRN,0,164,164,228,,,1.229,841.9598091999651,842.2997364000184,842.3164097999688,842.6004736999748,842.6193628999754,None,up,842.6193628999754,None,842.6193628999754,843.8317205000203,0.06740150001132861,None,2.0954676000401378,,,,,,,,,33,001,2019_Dec_25_1401,untitled,3.1.0,59.943664940406116,
037,R,N,180,L,N,037RN180LN,HLN,0,165,165,204,,,0.886,844.7810962999938,845.1308354000212,845.1477334999945,845.4305970999994,845.4471822999767,None,up,845.4471822999767,None,845.4471822999767,846.313606199983,0.059375799959525466,None,1.6322827999829315,,,,,,,,,33,001,2019_Dec_25_1401,untitled,3.1.0,59.943664940406116,
_,_2,M,180,_,_,__2M180__,N,0,166,166,28,,,0.9480000000000001,847.1457526999875,847.4956650999957,847.5123953999719,847.7953121999744,847.8115766000119,None,None,847.8115766000119,None,847.8115766000119,848.7439092000131,0.059250299993436784,None,,,,,,,,,,33,001,2019_Dec_25_1401,untitled,3.1.0,59.943664940406116,
196,G,N,135,R,N,196GN135RN,HRN,0,167,167,227,,,0.86,851.3709701999906,851.6916785999783,851.708011700015,851.9912429999677,852.0085285999812,851.3709701999906,up,852.0085285999812,None,852.0085285999812,852.8578351999749,0.08445449999999255,None,1.78188639995642,,,,,,,,,33,001,2019_Dec_25_1401,untitled,3.1.0,59.943664940406116,
_,F,M,45,_,_,_FM045__,N,0,168,168,1,,,0.996,853.8574439999647,854.2060333999689,854.2231721999706,854.505973399966,854.5228155999794,None,down,854.5228155999794,None,854.5228155999794,855.5045607999782,0.05983469996135682,None,2.181333599961363,,,,,,,,,33,001,2019_Dec_25_1401,untitled,3.1.0,59.943664940406116,
394,_4,M,45,R,N,394_4M045RN,HRN,0,169,169,161,,,0.833,856.7710577999824,857.1203427999862,857.1377020999789,857.4202179000131,857.4367743000039,None,down,857.4367743000039,None,857.4367743000039,858.2521372999763,0.05988189997151494,None,2.382818399986718,,,,,,,,,33,001,2019_Dec_25_1401,untitled,3.1.0,59.943664940406116,
172,F,M,135,L,N,172FM135LN,HLN,0,170,170,123,,,1.341,859.8978675999679,860.2339793000137,860.2507825999637,860.5338688999764,860.5506363000022,None,down,860.5506363000022,None,860.5506363000022,861.8825780000188,0.06994930002838373,None,2.8490388999925926,,,,,,,,,33,001,2019_Dec_25_1401,untitled,3.1.0,59.943664940406116,
459,_5,M,90,R,N,459_5M090RN,HRN,0,171,171,178,,,0.707,863.4662869999884,863.8142095999792,863.8311260999762,864.1139562000171,864.131429400004,None,down,864.131429400004,None,864.131429400004,864.813341400004,0.058914000052027404,None,2.2494671000167727,,,,,,,,,33,001,2019_Dec_25_1401,untitled,3.1.0,59.943664940406116,
_,G,N,225,_,_,_GN225__,N,0,172,172,61,,,1.399,866.4505860999925,866.7958328999812,866.8118606999633,867.0952885000152,867.1119735999964,None,up,867.1119735999964,None,867.1119735999964,868.4935266000102,0.06273850001161918,None,2.48110929998802,,,,,,,,,33,001,2019_Dec_25_1401,untitled,3.1.0,59.943664940406116,
_,R,M,315,_,_,_RM315__,N,0,173,173,23,,,1.18,869.6732155999634,870.0089465000201,870.0256663999753,870.3093601000146,870.3253955999971,None,down,870.3253955999971,None,870.3253955999971,871.4902692000032,0.07141189998947084,None,2.248198500019498,,,,,,,,,33,001,2019_Dec_25_1401,untitled,3.1.0,59.943664940406116,
461,_5,M,180,R,N,461_5M180RN,HRN,0,174,174,180,,,0.886,872.6428698999807,872.9930265999865,873.0075403999654,873.2892495999695,873.3059703999897,None,None,873.3059703999897,None,873.3059703999897,874.1718964999891,0.06203879998065531,None,,,,,,,,,,33,001,2019_Dec_25_1401,untitled,3.1.0,59.943664940406116,
261,_2,N,180,R,N,261_2N180RN,HRN,0,175,175,244,,,0.885,876.8391164999921,877.1859708999982,877.2026262999862,877.4857296000118,877.5023584999726,876.8391164999921,up,877.5023584999726,None,877.5023584999726,878.3685272000148,0.062237100035417825,None,2.567010600003414,,,,,,,,,33,001,2019_Dec_25_1401,untitled,3.1.0,59.943664940406116,
293,_2,N,180,L,N,293_2N180LN,HLN,0,176,176,252,,,1.387,880.1378444000147,880.4831337999785,880.5008751999703,880.7823576999945,880.7994859999744,None,up,880.7994859999744,None,880.7994859999744,882.1651626999956,0.06167049997020513,None,2.4650770999724045,,,,,,,,,33,001,2019_Dec_25_1401,untitled,3.1.0,59.943664940406116,
_,R,M,225,_,_,_RM225__,N,0,177,177,21,,,0.728,883.3343717000098,883.6811248000013,883.6973015000112,883.9815135999816,883.9815135999816,None,down,883.9815135999816,None,883.9815135999816,884.7136378000141,0.06289270002162084,None,2.216190100007225,,,,,,,,,33,001,2019_Dec_25_1401,untitled,3.1.0,59.943664940406116,
450,_5,N,45,R,N,450_5N045RN,HRN,0,178,178,273,,,1.305,886.26648749999,886.6111504000146,886.6279744000058,886.911444599973,886.9275972999749,None,up,886.9275972999749,None,886.9275972999749,888.2118497000192,0.06209829996805638,None,2.250440899981186,,,,,,,,,33,001,2019_Dec_25_1401,untitled,3.1.0,59.943664940406116,
_,F,N,315,_,_,_FN315__,N,0,179,179,55,,,0.931,889.2691913999734,889.5917625000002,889.6087431000196,889.8917755999719,889.9084270999883,None,up,889.9084270999883,None,889.9084270999883,890.8241183999926,0.08286470000166446,None,1.61963009997271,,,,,,,,,33,001,2019_Dec_25_1401,untitled,3.1.0,59.943664940406116,
237,G,M,180,L,N,237GM180LN,HLN,0,180,180,140,,,1.225,891.6232629999868,891.9397128999699,891.9565073999693,892.2424464999931,892.2575173999649,None,up,892.2575173999649,None,892.2575173999649,893.4719011000125,0.08336750004673377,None,3.146737899980508,,,,,,,,,33,001,2019_Dec_25_1401,untitled,3.1.0,59.943664940406116,
_,R,M,45,_,_,_RM045__,N,0,181,181,17,,,0.8260000000000001,895.473854699987,895.8199573999736,895.8364529999672,896.1206614999683,896.1366356000071,None,down,896.1366356000071,None,896.1366356000071,896.9352178999688,0.06253739999374375,None,1.7500565000227652,,,,,,,,,33,001,2019_Dec_25_1401,untitled,3.1.0,59.943664940406116,
266,_2,M,45,R,N,266_2M045RN,HRN,0,182,182,145,,,1.033,897.9654398999992,898.3009942999925,898.3198522999883,898.6011874999967,898.617255899997,None,down,898.617255899997,None,898.617255899997,899.6343026999966,0.07049319997895509,None,3.3318844999885187,,,,,,,,,33,001,2019_Dec_25_1401,untitled,3.1.0,59.943664940406116,
_,_4,N,90,_,_,__4N090__,N,0,183,183,82,,,1.3900000000000001,902.0159916999983,902.3640261999681,902.3810614999966,902.6637591000181,902.6805450000102,None,up,902.6805450000102,None,902.6805450000102,904.0456805999856,0.0599499000236392,None,2.831162799964659,,,,,,,,,33,001,2019_Dec_25_1401,untitled,3.1.0,59.943664940406116,
_,_4,M,315,_,_,__4M315__,N,0,184,184,39,,,1.048,905.5804881000076,905.9280726999859,905.9446586999693,906.2272714999854,906.2440519999946,None,down,906.2440519999946,None,906.2440519999946,907.2764443000196,0.06195639999350533,None,2.8314466000301763,,,,,,,,,33,001,2019_Dec_25_1401,untitled,3.1.0,59.943664940406116,
_,_2,N,225,_,_,__2N225__,N,0,185,185,77,,,1.18,909.1482214999851,909.4912069999846,909.5078007999691,909.7910497999983,909.8078284999938,None,up,909.8078284999938,None,909.8078284999938,910.9736682999646,0.06591980002122,None,1.9354910000110976,,,,,,,,,33,001,2019_Dec_25_1401,untitled,3.1.0,59.943664940406116,
485,_5,N,180,L,N,485_5N180LN,HLN,0,186,186,284,,,0.8230000000000001,911.8143884000019,912.1557279999834,912.1724400999956,912.4553918999736,912.4723270999966,None,up,912.4723270999966,None,912.4723270999966,913.2878735999693,0.06432250002399087,None,1.815682900021784,,,,,,,,,33,001,2019_Dec_25_1401,untitled,3.1.0,59.943664940406116,
464,_5,M,315,R,N,464_5M315RN,HRN,0,187,187,183,,,0.802,914.3720061000204,914.7035559000215,914.7202467999887,915.003426100011,915.0199767000158,None,down,915.0199767000158,None,915.0199767000158,915.8028625000152,0.07666590000735596,None,3.297696800029371,,,,,,,,,33,001,2019_Dec_25_1401,untitled,3.1.0,59.943664940406116,
044,R,M,135,L,N,044RM135LN,HLN,0,188,188,107,,,1.041,918.3990177999949,918.7335697999806,918.7497127999668,919.0323315999703,919.0489012000035,None,down,919.0489012000035,None,919.0489012000035,920.0652904000017,0.07340450002811849,None,3.116990700014867,,,,,,,,,33,001,2019_Dec_25_1401,untitled,3.1.0,59.943664940406116,
272,_2,M,315,R,N,272_2M315RN,HRN,0,189,189,151,,,1.283,922.2322669000132,922.5799089000211,922.5967309999978,922.879737899988,922.8964280000073,None,up,922.8964280000073,None,922.8964280000073,924.161523399991,0.059492899978067726,None,3.065120699990075,,,,,,,,,33,001,2019_Dec_25_1401,untitled,3.1.0,59.943664940406116,
491,_5,M,90,L,N,491_5M090LN,HLN,0,190,190,186,,,0.733,926.0354669999797,926.3767783999792,926.3934163000085,926.677084099967,926.693567099981,None,down,926.693567099981,None,926.693567099981,927.4089086999884,0.06695180002134293,None,2.1987860000226647,,,,,,,,,33,001,2019_Dec_25_1401,untitled,3.1.0,59.943664940406116,
_,F,M,180,_,_,_FM180__,N,0,191,191,4,,,1.042,928.9661376000149,929.3077241000137,929.3239138000063,929.6068853000179,929.6236962999683,None,up,929.6236962999683,None,929.6236962999683,930.6563843999757,0.06519529997603968,None,2.3321024000179023,,,,,,,,,33,001,2019_Dec_25_1401,untitled,3.1.0,59.943664940406116,
481,_5,N,0,L,N,481_5N000LN,HLN,0,192,192,280,,,0.8250000000000001,932.0533862999873,932.3717660999973,932.3884546000045,932.6714175000088,932.6873847999959,None,up,932.6873847999959,None,932.6873847999959,933.5048927000025,0.08816829998977482,None,1.6015250000054948,,,,,,,,,33,001,2019_Dec_25_1401,untitled,3.1.0,59.943664940406116,
205,G,M,180,R,N,205GM180RN,HRN,0,193,193,132,,,1.315,934.3563451999798,934.705786400009,934.7196338999784,935.0022152999882,935.0189681000193,None,up,935.0189681000193,None,935.0189681000193,936.3175118999789,0.06039259996032342,None,2.5184840000001714,,,,,,,,,33,001,2019_Dec_25_1401,untitled,3.1.0,59.943664940406116,
_,_2,N,270,_,_,__2N270__,N,0,194,194,78,,,1.2590000000000001,937.6236239999998,937.9499971999903,937.9666037000134,938.2493890000042,938.2667015999905,None,up,938.2667015999905,None,938.2667015999905,939.5150639999774,0.07625829998869449,None,1.8662303000455722,,,,,,,,,33,001,2019_Dec_25_1401,untitled,3.1.0,59.943664940406116,
269,_2,M,180,R,N,269_2M180RN,HRN,0,195,195,148,,,1.216,940.2091273000115,940.5476777000003,940.5644837999716,940.8474366000155,940.8642683000071,None,down,940.8642683000071,None,940.8642683000071,942.0628869999782,0.06933430000208318,None,3.2995801999932155,,,,,,,,,33,001,2019_Dec_25_1401,untitled,3.1.0,59.943664940406116,
047,R,M,270,L,N,047RM270LN,HLN,0,196,196,110,,,0.899,944.2503673000028,944.5771972999792,944.5941018000012,944.8780981000164,944.8947215999942,None,down,944.8947215999942,None,944.8947215999942,945.7767690999899,0.07957379997242242,None,2.466164799989201,,,,,,,,,33,001,2019_Dec_25_1401,untitled,3.1.0,59.943664940406116,
_,_4,M,225,_,_,__4M225__,N,0,197,197,37,,,0.781,947.4586978000007,947.7742694999906,947.791305599967,948.0743126000161,948.0910316999652,None,up,948.0910316999652,None,948.0910316999652,948.8572705999832,0.08641519997036085,None,1.9822228000266477,,,,,,,,,33,001,2019_Dec_25_1401,untitled,3.1.0,59.943664940406116,
300,_2,M,135,L,N,300_2M135LN,HLN,0,198,198,155,,,1.167,950.1454730000114,950.4888464999967,950.5060397000052,950.7892654999741,950.8063205999788,None,down,950.8063205999788,None,950.8063205999788,951.9541380999726,0.06362950004404411,None,2.7808641000301577,,,,,,,,,33,001,2019_Dec_25_1401,untitled,3.1.0,59.943664940406116,
_,_5,M,0,_,_,__5M000__,N,0,199,199,40,,,0.97,953.6594992000028,954.0025210999884,954.0195111999637,954.302727799979,954.3193469999824,None,None,954.3193469999824,None,954.3193469999824,955.2681466999929,0.06571019999682903,None,,,,,,,,,,33,001,2019_Dec_25_1401,untitled,3.1.0,59.943664940406116,
171,F,M,90,L,N,171FM090LN,HLN,0,200,200,122,,,1.0110000000000001,957.8511184999952,958.1998283999856,958.2158302000025,958.4984241999919,958.5150821999996,957.8511184999952,down,958.5150821999996,None,958.5150821999996,959.5158856000053,0.061555599968414754,None,2.633936400001403,,,,,,,,,33,001,2019_Dec_25_1401,untitled,3.1.0,59.943664940406116,
203,G,M,90,R,N,203GM090RN,HRN,0,201,201,130,,,0.981,961.2169363999856,961.5628645999823,961.5792772999848,961.8626908999868,961.8796742999693,None,down,961.8796742999693,None,961.8796742999693,962.8449552999809,0.060954099986702204,None,2.514922500005923,,,,,,,,,33,001,2019_Dec_25_1401,untitled,3.1.0,59.943664940406116,
_,R,M,135,_,_,_RM135__,N,0,202,202,19,,,1.006,964.4680697000003,964.8101994000026,964.8265658000018,965.1097406999907,965.1263514999882,None,down,965.1263514999882,None,965.1263514999882,966.1086113000056,0.06605029996717349,None,3.280634499969892,,,,,,,,,33,001,2019_Dec_25_1401,untitled,3.1.0,59.943664940406116,
258,_2,N,45,R,N,258_2N045RN,HRN,0,203,203,241,,,1.054,968.4784077999648,968.822476500005,968.8389136000187,969.1224537999951,969.1388141000061,None,up,969.1388141000061,None,969.1388141000061,970.1713070999831,0.06411769997794181,None,2.582213399989996,,,,,,,,,33,001,2019_Dec_25_1401,untitled,3.1.0,59.943664940406116,
387,_4,N,90,R,N,387_4N090RN,HRN,0,204,204,258,,,1.114,971.7918123999843,972.1366524000186,972.1535225000116,972.4359493000084,972.452527299989,None,up,972.452527299989,None,972.452527299989,973.5521328999894,0.0639575999812223,None,2.815581700007897,,,,,,,,,33,001,2019_Dec_25_1401,untitled,3.1.0,59.943664940406116,
_,F,N,270,_,_,_FN270__,N,0,205,205,54,,,1.175,975.358933600015,975.6839431999833,975.7004412999959,975.983479699993,976.0002866999712,None,up,976.0002866999712,None,976.0002866999712,977.1656062999973,0.0818421000149101,None,2.4314747000462376,,,,,,,,,33,001,2019_Dec_25_1401,untitled,3.1.0,59.943664940406116,
234,G,M,45,L,N,234GM045LN,HLN,0,206,206,137,,,0.969,978.4973352999659,978.8473523000139,978.8641962999827,979.1483678999939,979.1664041000186,None,down,979.1664041000186,None,979.1664041000186,980.1132193999947,0.058511000010184944,None,2.429624199983664,,,,,,,,,33,001,2019_Dec_25_1401,untitled,3.1.0,59.943664940406116,
389,_4,N,180,R,N,389_4N180RN,HRN,0,207,207,260,,,0.7010000000000001,981.6826091000112,982.0122660999768,982.0283877999755,982.3108413000009,982.3274474000209,None,up,982.3274474000209,None,982.3274474000209,983.0103389999713,0.07783159997779876,None,1.6016211000387557,,,,,,,,,33,001,2019_Dec_25_1401,untitled,3.1.0,59.943664940406116,
001,R,N,0,R,N,001RN000RN,HRN,0,208,208,192,,,0.838,983.9990412999759,984.3432712999638,984.359435099992,984.643380799971,984.6597943999805,None,up,984.6597943999805,None,984.6597943999805,985.4750092999893,0.06308669998543337,None,1.5495429000002332,,,,,,,,,33,001,2019_Dec_25_1401,untitled,3.1.0,59.943664940406116,
_,G,N,270,_,_,_GN270__,N,0,209,209,62,,,1.193,986.2880980999907,986.6244139000191,986.6412550999667,986.9243557999725,986.9405960000004,None,up,986.9405960000004,None,986.9405960000004,988.1226965999813,0.07030179997673258,None,2.8817456999677233,,,,,,,,,33,001,2019_Dec_25_1401,untitled,3.1.0,59.943664940406116,
012,R,M,135,R,N,012RM135RN,HRN,0,210,210,99,,,0.9530000000000001,989.9103364999755,990.2375381999882,990.2541184999864,990.537702200003,990.5547109000036,None,up,990.5547109000036,None,990.5547109000036,991.4862825999735,0.08017140004085377,None,2.216933000017889,,,,,,,,,33,001,2019_Dec_25_1401,untitled,3.1.0,59.943664940406116,
271,_2,M,270,R,N,271_2M270RN,HRN,0,211,211,150,,,0.9,992.8388196000014,993.1851725999732,993.2024873999762,993.4845827000099,993.5020266000065,None,up,993.5020266000065,None,993.5020266000065,994.384959499992,0.06040469999425113,None,2.8827933000284247,,,,,,,,,33,001,2019_Dec_25_1401,untitled,3.1.0,59.943664940406116,
161,F,N,0,L,N,161FN000LN,HLN,0,212,212,216,,,0.811,996.4566673999652,996.79858100001,996.815103699977,997.0982158000115,997.1149182000081,None,up,997.1149182000081,None,997.1149182000081,997.9142960999743,0.06475620000855997,None,1.4656138000427745,,,,,,,,,33,001,2019_Dec_25_1401,untitled,3.1.0,59.943664940406116,
_,_2,N,0,_,_,__2N000__,N,0,213,213,72,,,0.74,998.6475456000189,998.9969537999714,999.0137811999884,999.297021300008,999.3129748000065,None,up,999.3129748000065,None,999.3129748000065,1000.0297236000188,0.060031000000890344,None,1.448934099986218,,,,,,,,,33,001,2019_Dec_25_1401,untitled,3.1.0,59.943664940406116,
267,_2,M,90,R,N,267_2M090RN,HRN,0,214,214,146,,,0.837,1000.8345109999646,1001.1783366000163,1001.1946918999893,1001.4779375999933,1001.4946712999954,None,up,1001.4946712999954,None,1001.4946712999954,1002.310425499978,0.06469109997851774,None,2.1315926000243053,,,,,,,,,33,001,2019_Dec_25_1401,untitled,3.1.0,59.943664940406116,
136,F,N,315,R,N,136FN315RN,HRN,0,215,215,215,,,0.974,1003.6951560999732,1004.0423737000092,1004.0590395000181,1004.3416461999877,1004.359578899981,None,up,1004.359578899981,None,1004.359578899981,1005.3079330999753,0.06171479995828122,None,1.5984294000081718,,,,,,,,,33,001,2019_Dec_25_1401,untitled,3.1.0,59.943664940406116,
263,_2,N,270,R,N,263_2N270RN,HRN,0,216,216,246,,,0.758,1006.0374750000192,1006.3740878999815,1006.390577299986,1006.6735653000069,1006.6897897999734,None,up,1006.6897897999734,None,1006.6897897999734,1007.4228138999897,0.07188000000314787,None,1.6340671999496408,,,,,,,,,33,001,2019_Dec_25_1401,untitled,3.1.0,59.943664940406116,
193,G,N,0,R,N,193GN000RN,HRN,0,217,217,224,,,1.166,1008.3892889000126,1008.7382404999807,1008.755223300017,1009.0380260999664,1009.0551863000146,None,up,1009.0551863000146,None,1009.0551863000146,1010.2036253999686,0.058367300021927804,None,1.7999464999884367,,,,,,,,,33,001,2019_Dec_25_1401,untitled,3.1.0,59.943664940406116,
236,G,M,135,L,N,236GM135LN,HLN,0,218,218,139,,,0.716,1010.9254286999931,1011.2690672000172,1011.2857578999829,1011.5688628999633,1011.5860176999704,None,down,1011.5860176999704,None,1011.5860176999704,1012.2847303000162,0.06401530001312494,None,2.5001247000182047,,,,,,,,,33,001,2019_Dec_25_1401,untitled,3.1.0,59.943664940406116,
493,_5,M,180,L,N,493_5M180LN,HLN,0,219,219,188,,,0.961,1014.1546780000208,1014.5003189999843,1014.5168982999749,1014.7996549999807,1014.81617429998,None,up,1014.81617429998,None,1014.81617429998,1015.7653478999855,0.06184109998866916,None,2.066814399964642,,,,,,,,,33,001,2019_Dec_25_1401,untitled,3.1.0,59.943664940406116,
_,_2,M,90,_,_,__2M090__,N,0,220,220,26,,,0.999,1016.9567900999682,1017.2972390999785,1017.314010299975,1017.5974863999872,1017.6137326000025,None,up,1017.6137326000025,None,1017.6137326000025,1018.5963463999797,0.06648740003583953,None,2.1322384999948554,,,,,,,,,33,001,2019_Dec_25_1401,untitled,3.1.0,59.943664940406116,
_,R,M,90,_,_,_RM090__,N,0,221,221,18,,,0.779,1019.8411615999648,1020.1616139999824,1020.1780420999858,1020.4610565999756,1020.4776878000121,None,down,1020.4776878000121,None,1020.4776878000121,1021.2445483999909,0.08764560002600774,None,2.1173360999673605,,,,,,,,,33,001,2019_Dec_25_1401,untitled,3.1.0,59.943664940406116,
268,_2,M,135,R,N,268_2M135RN,HRN,0,222,222,147,,,1.241,1022.6623204000061,1023.0094298999757,1023.0277279000147,1023.3096079999814,1023.3260448999936,None,up,1023.3260448999936,None,1023.3260448999936,1024.5415721000172,0.060155500017572194,None,2.4649990999605507,,,,,,,,,33,001,2019_Dec_25_1401,untitled,3.1.0,59.943664940406116,
397,_4,M,180,R,N,397_4M180RN,HRN,0,223,223,164,,,1.208,1025.8960542000132,1026.2062038999866,1026.2232462000102,1026.5063867999706,1026.5228514000191,None,up,1026.5228514000191,None,1026.5228514000191,1027.721430399979,0.09488040005089715,None,2.4820010000257753,,,,,,,,,33,001,2019_Dec_25_1401,untitled,3.1.0,59.943664940406116,
014,R,M,225,R,N,014RM225RN,HRN,0,224,224,101,,,0.846,1029.0759015000076,1029.4201848999946,1029.4366662999964,1029.720410800015,1029.7366211999906,None,down,1029.7366211999906,None,1029.7366211999906,1030.569053300016,0.06386080000083894,None,2.567093299992848,,,,,,,,,33,001,2019_Dec_25_1401,untitled,3.1.0,59.943664940406116,
463,_5,M,270,R,N,463_5M270RN,HRN,0,225,225,182,,,1.162,1032.3699980999809,1032.717509399983,1032.734421800007,1033.0169165999978,1033.0331698000082,None,down,1033.0331698000082,None,1033.0331698000082,1034.182629499992,0.05932990001747385,None,2.7996396999806166,,,,,,,,,33,001,2019_Dec_25_1401,untitled,3.1.0,59.943664940406116,
194,G,N,45,R,N,194GN045RN,HRN,0,226,226,225,,,0.783,1035.9159722999902,1036.2474064999842,1036.2634991999948,1036.5473137999652,1036.5640690000146,None,up,1036.5640690000146,None,1036.5640690000146,1037.3302266999963,0.07507199997780845,None,1.8160062999813817,,,,,,,,,33,001,2019_Dec_25_1401,untitled,3.1.0,59.943664940406116,
_,R,M,270,_,_,_RM270__,N,0,227,227,22,,,1.178,1038.4466469999752,1038.7955205999897,1038.8122451999807,1039.0950933999848,1039.1115682999953,None,down,1039.1115682999953,None,1039.1115682999953,1040.2782054999843,0.05937210004776716,None,2.8668218000093475,,,,,,,,,33,001,2019_Dec_25_1401,untitled,3.1.0,59.943664940406116,
388,_4,N,135,R,N,388_4N135RN,HRN,0,228,228,259,,,0.9550000000000001,1042.0590551000205,1042.3924542000168,1042.408949900011,1042.6917757000192,1042.7087563999812,None,up,1042.7087563999812,None,1042.7087563999812,1043.6414836000185,0.07216419995529577,None,2.549605199950747,,,,,,,,,33,001,2019_Dec_25_1401,untitled,3.1.0,59.943664940406116,
142,F,M,225,R,N,142FM225RN,HRN,0,229,229,117,,,1.118,1045.3278767999727,1045.6726762999897,1045.689224599977,1045.972755900002,1045.98920359998,None,down,1045.98920359998,None,1045.98920359998,1047.0880705000018,0.06136260001221672,None,2.4325839999946766,,,,,,,,,33,001,2019_Dec_25_1401,untitled,3.1.0,59.943664940406116,
_,G,M,45,_,_,_GM045__,N,0,230,230,9,,,1.031,1048.4925993999932,1048.8367934999987,1048.8531286999932,1049.1361210999894,1049.153582400002,None,None,1049.153582400002,None,1049.153582400002,1050.1685691999737,0.06397580000339076,None,,,,,,,,,,33,001,2019_Dec_25_1401,untitled,3.1.0,59.943664940406116,
_,_4,M,90,_,_,__4M090__,N,0,231,231,34,,,1.1460000000000001,1052.6840020999662,1053.032859799976,1053.049806099967,1053.3329051000183,1053.3559648999944,1052.6840020999662,down,1053.3559648999944,None,1053.3559648999944,None,0.05910539999604225,None,1.0929299999843352,,,,,,,,,33,001,2019_Dec_25_1401,untitled,3.1.0,59.943664940406116,
298,_2,M,45,L,N,298_2M045LN,HLN,0,232,232,153,,,0.788,1054.5318923000013,1054.8647481999942,1054.8815091999713,1055.1650591999642,1055.1807437000098,None,up,1055.1807437000098,None,1055.1807437000098,1055.9478425999987,0.07312840002123266,None,3.0337653000024147,,,,,,,,,33,001,2019_Dec_25_1401,untitled,3.1.0,59.943664940406116,
_,F,M,0,_,_,_FM000__,N,0,233,233,0,,,1.372,1058.2954395000124,1058.628355599998,1058.6450257999822,1058.9280433999957,1058.9443826000206,None,down,1058.9443826000206,None,1058.9443826000206,1060.2938415000099,0.07163229997968301,None,2.433101699978579,,,,,,,,,33,001,2019_Dec_25_1401,untitled,3.1.0,59.943664940406116,
235,G,M,90,L,N,235GM090LN,HLN,0,234,234,138,,,1.229,1061.475739000016,1061.7927795000141,1061.8090711999685,1062.0917847999954,1062.1086394999875,None,down,1062.1086394999875,None,1062.1086394999875,1063.3245742999716,0.0874349000514485,None,2.6329219000181183,,,,,,,,,33,001,2019_Dec_25_1401,untitled,3.1.0,59.943664940406116,
_,_5,M,90,_,_,__5M090__,N,0,235,235,42,,,0.7030000000000001,1064.8114096999634,1065.1583603000036,1065.1725284999702,1065.4553451999673,1065.4721274999902,None,down,1065.4721274999902,None,1065.4721274999902,1066.1554455999867,0.06345500005409122,None,2.067226400016807,,,,,,,,,33,001,2019_Dec_25_1401,untitled,3.1.0,59.943664940406116,
232,G,N,315,L,N,232GN315LN,HLN,0,236,236,239,,,1.0030000000000001,1067.6194928999757,1067.9533800999634,1067.970352799981,1068.252818799985,1068.269497899979,None,up,1068.269497899979,None,1068.269497899979,1069.2523173000081,0.07150229997932911,None,1.7676816000021063,,,,,,,,,33,001,2019_Dec_25_1401,untitled,3.1.0,59.943664940406116,
260,_2,N,135,R,N,260_2N135RN,HRN,0,237,237,243,,,1.329,1070.1032805999857,1070.450928699982,1070.4678420000128,1070.7509209999698,1070.7878951000166,None,up,1070.7878951000166,None,1070.7878951000166,1072.0829051000183,0.059044199995696545,None,2.211268899962306,,,,,,,,,33,001,2019_Dec_25_1401,untitled,3.1.0,59.943664940406116,
_,G,M,0,_,_,_GM000__,N,0,238,238,8,,,0.844,1073.0717006999766,1073.4155927000102,1073.4320622999803,1073.7154568000115,1073.7317287999904,None,down,1073.7317287999904,None,1073.7317287999904,1074.5648042999674,0.06597749999491498,None,1.9341887999908067,,,,,,,,,33,001,2019_Dec_25_1401,untitled,3.1.0,59.943664940406116,
265,_2,M,0,R,N,265_2M000RN,HRN,0,239,239,144,,,1.358,1075.7341917000012,1076.0795297999866,1076.09604460001,1076.3798657999723,1076.3964976000134,None,down,1076.3964976000134,None,1076.3964976000134,1077.7450234999997,0.06137539999326691,None,3.031945099995937,,,,,,,,,33,001,2019_Dec_25_1401,untitled,3.1.0,59.943664940406116,
427,_4,M,90,L,N,427_4M090LN,HLN,0,240,240,170,,,1.197,1079.4981442000135,1079.8430779000046,1079.8595381000196,1080.143338599999,1080.159157200018,None,down,1080.159157200018,None,1080.159157200018,1081.342418299988,0.0615389000158757,None,3.1164135000435635,,,,,,,,,33,001,2019_Dec_25_1401,untitled,3.1.0,59.943664940406116,
230,G,N,225,L,N,230GN225LN,HLN,0,241,241,237,,,0.837,1083.3483548999648,1083.6894820000161,1083.7062749000033,1083.9891914000036,1084.0068495000014,None,up,1084.0068495000014,None,1084.0068495000014,1084.8218525999691,0.06586580001749098,None,1.8982027000165544,,,,,,,,,33,001,2019_Dec_25_1401,untitled,3.1.0,59.943664940406116,
297,_2,M,0,L,N,297_2M000LN,HLN,0,242,242,152,,,1.004,1085.9959907999728,1086.320905999979,1086.337243899994,1086.6201278999797,1086.6372082000016,None,down,1086.6372082000016,None,1086.6372082000016,1087.619867899979,0.08286480000242591,None,2.3142042999970727,,,,,,,,,33,001,2019_Dec_25_1401,untitled,3.1.0,59.943664940406116,
040,R,N,315,L,N,040RN315LN,HLN,0,243,243,207,,,1.057,1089.026658799965,1089.3680005000206,1089.3844557999982,1089.6678120999713,1089.685246900015,None,up,1089.685246900015,None,1089.685246900015,1090.717222700012,0.06777909997617826,None,2.3995201000361703,,,,,,,,,33,001,2019_Dec_25_1401,untitled,3.1.0,59.943664940406116,
419,_4,N,90,L,N,419_4N090LN,HLN,0,244,244,266,,,1.079,1092.1594238000107,1092.4990009000176,1092.515790799982,1092.7983587000053,1092.8149423999712,None,up,1092.8149423999712,None,1092.8149423999712,1093.8809358999715,0.06776810000883415,None,2.683181800006423,,,,,,,,,33,001,2019_Dec_25_1401,untitled,3.1.0,59.943664940406116,
257,_2,N,0,R,N,257_2N000RN,HRN,0,245,245,240,,,1.385,1095.5961616999703,1095.912629199971,1095.929145800008,1096.2121213999926,1096.2286334999953,None,up,1096.2286334999953,None,1096.2286334999953,1097.593637300015,0.08644949999870732,None,2.29861970001366,,,,,,,,,33,001,2019_Dec_25_1401,untitled,3.1.0,59.943664940406116,
_,_4,M,180,_,_,__4M180__,N,0,246,246,36,,,1.031,1098.5931327000144,1098.9434064999805,1098.960018199985,1099.243115899968,1099.259888599976,None,up,1099.259888599976,None,1099.259888599976,1100.275514399982,0.058928399987053126,None,1.8156727000023238,,,,,,,,,33,001,2019_Dec_25_1401,untitled,3.1.0,59.943664940406116,
041,R,M,0,L,N,041RM000LN,HLN,0,247,247,104,,,1.0030000000000001,1101.190246800019,1101.4907393999747,1101.5072460999945,1101.790659499995,1101.8075756999897,None,down,1101.8075756999897,None,1101.8075756999897,1102.789881900011,0.10617719998117536,None,1.781624199997168,,,,,,,,,33,001,2019_Dec_25_1401,untitled,3.1.0,59.943664940406116,
_,R,N,135,_,_,_RN135__,N,0,248,248,67,,,1.228,1103.6633044999908,1104.0052058,1104.0219045999693,1104.3058408999932,1104.3213580999873,None,up,1104.3213580999873,None,1104.3213580999873,1105.537147599971,0.06660550000378862,None,2.04916349996347,,,,,,,,,33,001,2019_Dec_25_1401,untitled,3.1.0,59.943664940406116,
_,_5,N,270,_,_,__5N270__,N,0,249,249,94,,,0.855,1106.4376151000033,1106.7861719999928,1106.803332999989,1107.0859665999888,1107.1026294999756,None,up,1107.1026294999756,None,1107.1026294999756,1107.9346953000058,0.05956379999406636,None,1.7186793999862857,,,,,,,,,33,001,2019_Dec_25_1401,untitled,3.1.0,59.943664940406116,
_,_2,N,315,_,_,__2N315__,N,0,250,250,79,,,1.179,1108.9035820999998,1109.233744499972,1109.2512487000204,1109.5335899000056,1109.5501365999808,None,down,1109.5501365999808,None,1109.5501365999808,1110.7161581999972,0.07221279997611418,None,1.9820592000032775,,,,,,,,,33,001,2019_Dec_25_1401,untitled,3.1.0,59.943664940406116,
_,R,N,0,_,_,_RN000__,N,0,251,251,64,,,1.344,1111.601005000004,1111.9482717000064,1111.96447050001,1112.247780399979,1112.2639586000005,None,up,1112.2639586000005,None,1112.2639586000005,1113.5965934999986,0.06134899996686727,None,1.934148800035473,,,,,,,,,33,001,2019_Dec_25_1401,untitled,3.1.0,59.943664940406116,
011,R,M,90,R,N,011RM090RN,HRN,0,252,252,98,,,0.885,1114.275185299979,1114.612954000011,1114.6296370999771,1114.9124277000083,1114.9289875999675,None,down,1114.9289875999675,None,1114.9289875999675,1115.7951750999782,0.06938860000809655,None,1.7008959999657236,,,,,,,,,33,001,2019_Dec_25_1401,untitled,3.1.0,59.943664940406116,
_,F,M,270,_,_,_FM270__,N,0,253,253,6,,,1.383,1116.7091561999987,1117.0443996000104,1117.0610496000154,1117.3439062999678,1117.36082110001,None,down,1117.36082110001,None,1117.36082110001,1118.7258804999874,0.07172279997030273,None,2.566170100006275,,,,,,,,,33,001,2019_Dec_25_1401,untitled,3.1.0,59.943664940406116,
_,_5,N,225,_,_,__5N225__,N,0,254,254,93,,,1.129,1119.999693299993,1120.341083300009,1120.3577563000144,1120.6411433999892,1120.657343400002,None,up,1120.657343400002,None,1120.657343400002,1121.773160599987,0.06582409999100491,None,2.6661575000034645,,,,,,,,,33,001,2019_Dec_25_1401,untitled,3.1.0,59.943664940406116,
_,G,N,315,_,_,_GN315__,N,0,255,255,63,,,1.24,1123.3917770999833,1123.7382078999653,1123.7549288999871,1124.037962500006,1124.054626600002,None,up,1124.054626600002,None,1124.054626600002,1125.270423799986,0.06108260003384203,None,2.0815169000416063,,,,,,,,,33,001,2019_Dec_25_1401,untitled,3.1.0,59.943664940406116,
418,_4,N,45,L,N,418_4N045LN,HLN,0,256,256,265,,,1.219,1126.2127232999774,1126.5518142000074,1126.5687669999897,1126.8522176999832,1126.86839399999,None,up,1126.86839399999,None,1126.86839399999,1128.0677181999781,0.06966370000736788,None,2.233673899958376,,,,,,,,,33,001,2019_Dec_25_1401,untitled,3.1.0,59.943664940406116,
048,R,M,315,L,N,048RM315LN,HLN,0,257,257,111,,,0.809,1129.182038399973,1129.5164071000181,1129.5327280000201,1129.8158859999967,1129.8328231999767,None,up,1129.8328231999767,None,1129.8328231999767,1130.6320855999948,0.06916289997752756,None,1.816086400009226,,,,,,,,,33,001,2019_Dec_25_1401,untitled,3.1.0,59.943664940406116,
170,F,M,45,L,N,170FM045LN,HLN,0,258,258,121,,,0.921,1131.745884599979,1132.0643737000064,1132.0806148999836,1132.3638771999977,1132.3805305999704,None,down,1132.3805305999704,None,1132.3805305999704,1133.2806888999767,0.08928469999227673,None,1.9318709999788553,,,,,,,,,33,001,2019_Dec_25_1401,untitled,3.1.0,59.943664940406116,
208,G,M,315,R,N,208GM315RN,HRN,0,259,259,135,,,0.861,1134.3848373999936,1134.7282349999878,1134.7453540000133,1135.0288408999913,1135.0453923000023,None,down,1135.0453923000023,None,1135.0453923000023,1135.894373899966,0.06551649997709319,None,1.9312684999895282,,,,,,,,,33,001,2019_Dec_25_1401,untitled,3.1.0,59.943664940406116,
486,_5,N,225,L,N,486_5N225LN,HLN,0,260,260,285,,,1.387,1137.0436304999748,1137.3929367999663,1137.4095577999833,1137.6926911000046,1137.7096473000129,None,up,1137.7096473000129,None,1137.7096473000129,1139.0746866000118,0.059910800016950816,None,2.181864999991376,,,,,,,,,33,001,2019_Dec_25_1401,untitled,3.1.0,59.943664940406116,
_,R,N,315,_,_,_RN315__,N,0,261,261,71,,,1.1320000000000001,1139.9564304999658,1140.3074840999907,1140.3232844999875,1140.6074119000114,1140.6236086999997,None,up,1140.6236086999997,None,1140.6236086999997,1141.738964100019,0.05766390002099797,None,1.799335100047756,,,,,,,,,33,001,2019_Dec_25_1401,untitled,3.1.0,59.943664940406116,
488,_5,N,315,L,N,488_5N315LN,HLN,0,262,262,287,,,0.989,1142.5024832999916,1142.8381254000124,1142.8548250999884,1143.138206499978,1143.1546051999903,None,up,1143.1546051999903,None,1143.1546051999903,1144.1208848999813,0.0723862000158988,None,1.6986998000065796,,,,,,,,,33,001,2019_Dec_25_1401,untitled,3.1.0,59.943664940406116,
_,_4,N,45,_,_,__4N045__,N,0,263,263,81,,,1.353,1144.9185556999873,1145.2696413999656,1145.2857672999962,1145.568767699995,1145.5851813000045,None,up,1145.5851813000045,None,1145.5851813000045,1146.9179271999747,0.0580249999766238,None,2.001665999996476,,,,,,,,,33,001,2019_Dec_25_1401,untitled,3.1.0,59.943664940406116,
423,_4,N,270,L,N,423_4N270LN,HLN,0,264,264,270,,,0.854,1147.6683222000138,1148.0000655999756,1148.0169575000182,1148.300405099988,1148.317320799979,None,up,1148.317320799979,None,1148.317320799979,1149.1492906999774,0.07419449998997152,None,1.833277800003998,,,,,,,,,33,001,2019_Dec_25_1401,untitled,3.1.0,59.943664940406116,
228,G,N,135,L,N,228GN135LN,HLN,0,265,265,235,,,1.208,1150.2186743000057,1150.5650647999719,1150.5819637000095,1150.865112999978,1150.881847199984,None,up,1150.881847199984,None,1150.881847199984,1152.0805397999939,0.06115119997411966,None,2.299524800037034,,,,,,,,,33,001,2019_Dec_25_1401,untitled,3.1.0,59.943664940406116,
301,_2,M,180,L,N,301_2M180LN,HLN,0,266,266,156,,,0.9440000000000001,1153.2514436999918,1153.5957386000082,1153.612803499971,1153.8948845000123,1153.9112443000195,None,up,1153.9112443000195,None,1153.9112443000195,1154.8442479000078,0.06316760001936927,None,2.6181390000274405,,,,,,,,,33,001,2019_Dec_25_1401,untitled,3.1.0,59.943664940406116,
144,F,M,315,R,N,144FM315RN,HRN,0,267,267,119,,,1.363,1156.6059113999945,1156.9420128000202,1156.9588926999713,1157.2422967000166,1157.259360099968,None,down,1157.259360099968,None,1157.259360099968,1158.6079253000207,0.06895569997141138,None,2.864330100012012,,,,,,,,,33,001,2019_Dec_25_1401,untitled,3.1.0,59.943664940406116,
173,F,M,180,L,N,173FM180LN,HLN,0,268,268,124,,,1.057,1160.1951993000112,1160.5404278999777,1160.5562707000063,1160.8390320999897,1160.855959700013,None,up,1160.855959700013,None,1160.855959700013,1161.8880351000116,0.06486459996085614,None,2.9481737000169232,,,,,,,,,33,001,2019_Dec_25_1401,untitled,3.1.0,59.943664940406116,
_,_5,N,0,_,_,__5N000__,N,0,269,269,88,,,1.332,1163.8740394000197,1164.2200062000193,1164.2370123,1164.5190599000198,1164.535659199988,None,up,1164.535659199988,None,1164.535659199988,1165.8509427999961,0.0625374999945052,None,2.237578100000974,,,,,,,,,33,001,2019_Dec_25_1401,untitled,3.1.0,59.943664940406116,
039,R,N,270,L,N,039RN270LN,HLN,0,270,270,206,,,1.081,1166.8841979000135,1167.1836717000115,1167.2004831999657,1167.5000493999687,1167.5000493999687,None,up,1167.5000493999687,None,1167.5000493999687,1168.5656445000204,0.0985536000225693,None,1.8501155999838375,,,,,,,,,33,001,2019_Dec_25_1401,untitled,3.1.0,59.943664940406116,
175,F,M,270,L,N,175FM270LN,HLN,0,271,271,126,,,1.058,1169.4237886000192,1169.7647628000122,1169.7814454999752,1170.0646050000214,1170.0813330999808,None,down,1170.0813330999808,None,1170.0813330999808,1171.1132106999867,0.06695950002176687,None,2.214346199994907,,,,,,,,,33,001,2019_Dec_25_1401,untitled,3.1.0,59.943664940406116,
454,_5,N,225,R,N,454_5N225RN,HRN,0,272,272,277,,,1.078,1172.371232000005,1172.7119089000043,1172.7285689999699,1173.0117735000094,1173.0287750000134,None,up,1173.0287750000134,None,1173.0287750000134,1174.0938682999695,0.06776439998066053,None,2.282017800025642,,,,,,,,,33,001,2019_Dec_25_1401,untitled,3.1.0,59.943664940406116,
231,G,N,270,L,N,231GN270LN,HLN,0,273,273,238,,,1.039,1175.3834130999749,1175.7257107999758,1175.7423148999806,1176.02607979998,1176.0417876999709,None,up,1176.0417876999709,None,1176.0417876999709,1177.0580113999895,0.06586809997679666,None,2.26629800000228,,,,,,,,,33,001,2019_Dec_25_1401,untitled,3.1.0,59.943664940406116,
385,_4,N,0,R,N,385_4N000RN,HRN,0,274,274,256,,,1.086,1178.3759105000063,1178.723568300018,1178.7408322999836,1179.0232446999871,1179.0402149999863,None,up,1179.0402149999863,None,1179.0402149999863,1180.105430399999,0.05941360001452267,None,1.9509135999833234,,,,,,,,,33,001,2019_Dec_25_1401,untitled,3.1.0,59.943664940406116,
139,F,M,90,R,N,139FM090RN,HRN,0,275,275,114,,,1.355,1181.0595899000182,1181.4047383000143,1181.421261999989,1181.7041377999703,1181.7209169999696,None,None,1181.7209169999696,None,1181.7209169999696,1183.052906099998,0.060742000001482666,None,,,,,,,,,,33,001,2019_Dec_25_1401,untitled,3.1.0,59.943664940406116,
129,F,N,0,R,N,129FN000RN,HRN,0,276,276,208,,,0.835,1185.2553248999757,1185.6012283000164,1185.6178753999993,1185.9008508999832,1185.9179296999937,1185.2553248999757,up,1185.9179296999937,None,1185.9179296999937,1186.7332922000205,0.06342989997938275,None,1.4672988999518566,,,,,,,,,33,001,2019_Dec_25_1401,untitled,3.1.0,59.943664940406116,
013,R,M,180,R,N,013RM180RN,HRN,0,277,277,100,,,1.305,1187.460603500018,1187.7987946000067,1187.815490100009,1188.098225499969,1188.1148913999787,None,down,1188.1148913999787,None,1188.1148913999787,1189.3974986000103,0.06701350002549589,None,3.283335399988573,,,,,,,,,33,001,2019_Dec_25_1401,untitled,3.1.0,59.943664940406116,
_,F,N,180,_,_,_FN180__,N,0,278,278,52,,,1.381,1191.471010499983,1191.8119360000128,1191.8291428000084,1192.1117685000063,1192.128686800017,None,up,1192.128686800017,None,1192.128686800017,1193.493617500004,0.06576299999142066,None,2.980885299970396,,,,,,,,,33,001,2019_Dec_25_1401,untitled,3.1.0,59.943664940406116,
176,F,M,315,L,N,176FM315LN,HLN,0,279,279,127,,,0.838,1195.185363699973,1195.5255973999738,1195.5426186000113,1195.8250579999876,1195.842058499984,None,down,1195.842058499984,None,1195.842058499984,1196.6574835999636,0.06895139999687672,None,2.6980494000017643,,,,,,,,,33,001,2019_Dec_25_1401,untitled,3.1.0,59.943664940406116,
199,G,N,270,R,N,199GN270RN,HRN,0,280,280,230,,,1.292,1198.6149628999992,1198.95638779999,1198.972863700008,1199.2562152000028,1199.2745491999667,None,up,1199.2745491999667,None,1199.2745491999667,1200.5543921000208,0.0666324999765493,None,2.629546999989543,,,,,,,,,33,001,2019_Dec_25_1401,untitled,3.1.0,59.943664940406116,
451,_5,N,90,R,N,451_5N090RN,HRN,0,281,281,274,,,0.802,1201.9765751999803,1202.3198306999984,1202.3366501000128,1202.62013320002,1202.6357330000028,None,up,1202.6357330000028,None,1202.6357330000028,1203.4184398999787,0.0659146000398323,None,2.5165959000005387,,,,,,,,,33,001,2019_Dec_25_1401,untitled,3.1.0,59.943664940406116,
233,G,M,0,L,N,233GM000LN,HLN,0,282,282,136,,,0.809,1205.2777666000184,1205.5668546999805,1205.58338929998,1205.8661881000153,1205.883245999983,None,down,1205.883245999983,None,1205.883245999983,1206.6822800000082,0.11223669996252283,None,3.033494899980724,,,,,,,,,33,001,2019_Dec_25_1401,untitled,3.1.0,59.943664940406116,
046,R,M,225,L,N,046RM225LN,HLN,0,283,283,109,,,1.219,1209.0164855999756,1209.3300313999644,1209.346709400008,1209.63024269999,1209.6466080999817,None,None,1209.6466080999817,None,1209.6466080999817,1210.862057099992,0.08849009999539703,None,,,,,,,,,,33,001,2019_Dec_25_1401,untitled,3.1.0,59.943664940406116,
_,_5,N,180,_,_,__5N180__,N,0,284,284,92,,,0.782,1213.2007515999721,1213.5266868000035,1213.543194799975,1213.8263478999725,1213.8429506999673,1213.2007515999721,up,1213.8429506999673,None,1213.8429506999673,1214.6106550999684,0.08208729996113107,None,1.9989281999878585,,,,,,,,,33,001,2019_Dec_25_1401,untitled,3.1.0,59.943664940406116,
143,F,M,270,R,N,143FM270RN,HRN,0,285,285,118,,,1.289,1215.9090528999805,1216.2578329999815,1216.2743665999733,1216.5566236000159,1216.5733533999883,None,None,1216.5733533999883,None,1216.5733533999883,1217.8396408999688,0.06003709998913109,None,,,,,,,,,,33,001,2019_Dec_25_1401,untitled,3.1.0,59.943664940406116,
_,F,M,315,_,_,_FM315__,N,0,286,286,7,,,1.335,1220.1384146999917,1220.4539479999803,1220.4706477000145,1220.7538474000175,1220.7701361000072,1220.1384146999917,None,1220.7701361000072,None,1220.7701361000072,1222.0856519999797,0.09002490004058927,None,,,,,,,,,,33,001,2019_Dec_25_1401,untitled,3.1.0,59.943664940406116,
_,F,M,90,_,_,_FM090__,N,0,287,287,2,,,1.356,1224.3033298999653,1224.6505453999853,1224.6675648000091,1224.9499926000135,1224.9663566999952,1224.3033298999653,down,1224.9663566999952,None,1224.9663566999952,1226.2985034000012,0.06265279999934137,None,2.3158784999977797,,,,,,,,,33,001,2019_Dec_25_1401,untitled,3.1.0,59.943664940406116,
,,,,,,,,,,,,,,,,,,,,,,,,,,,,,1227.2977154999971,None,1233.3254698999808,None,1235.7901167999953,None,1239.8701761999982,None,,,,,,,
