Number,Letter,type,Orientation,human,face_type,image,picture,trials.thisRepN,trials.thisTrialN,trials.thisN,trials.thisIndex,text.started,text.stopped,stimulus_duration,CROSS.started,CROSS.stopped,BLANK.started,BLANK.stopped,TEST.started,TEST.stopped,key_JUDGE.keys,key_JUDGE.rt,key_JUDGE.started,key_JUDGE.stopped,image_2.started,image_2.stopped,ISI.started,ISI.stopped,q1.started,q1.stopped,q2.started,q2.stopped,q3.started,q3.stopped,text_2.started,text_2.stopped,participant,session,date,expName,psychopyVersion,frameRate,
230,G,N,225,L,N,230GN225LN,HLN,0,0,0,237,11.409373500035144,None,0.734,56.71053530002246,57.05330860003596,57.05330860003596,57.35302620002767,57.35302620002767,None,down,2.316685600031633,57.35302620002767,None,57.35302620002767,58.084997300000396,0.07032020000042394,None,,,,,,,,,34,001,2019_Dec_25_1420,untitled,3.1.0,60.17064392864929,
_,R,N,270,_,_,_RN270__,N,0,1,1,70,,,1.3760000000000001,59.77839460002724,60.1332909000339,60.1332909000339,60.43314979999559,60.43314979999559,None,up,3.1976021000300534,60.43314979999559,None,60.43314979999559,61.798950600030366,0.05710750003345311,None,,,,,,,,,34,001,2019_Dec_25_1420,untitled,3.1.0,60.17064392864929,
225,G,N,0,L,N,225GN000LN,HLN,0,2,2,232,,,0.724,63.70096530002775,64.04695830005221,64.06288570002653,64.3464444000274,64.36307850002777,None,down,2.483888099959586,64.36307850002777,None,64.36307850002777,65.0625696000061,0.06319710001116619,None,,,,,,,,,34,001,2019_Dec_25_1420,untitled,3.1.0,60.17064392864929,
_,G,N,135,_,_,_GN135__,N,0,3,3,59,,,1.391,66.93078690004768,67.26080250000814,67.27778120001312,67.56083370000124,67.57683510001516,None,None,,67.57683510001516,None,67.57683510001516,68.95906810002634,0.07501470000715926,None,,,,,,,,,34,001,2019_Dec_25_1420,untitled,3.1.0,60.17064392864929,
_,_5,M,225,_,_,__5M225__,N,0,4,4,45,,,1.071,71.11057640000945,71.45705900003668,71.47356100002071,71.75729190005222,71.77357700001448,71.11057640000945,None,,71.77357700001448,None,71.77357700001448,72.82261329999892,0.061410200025420636,None,,,,,,,,,34,001,2019_Dec_25_1420,untitled,3.1.0,60.17064392864929,
494,_5,M,225,L,N,494_5M225LN,HLN,0,5,5,189,,,0.713,75.33390980004333,75.65394950000336,75.67008390004048,75.9532968000276,75.96980240003904,75.33390980004333,up,1.768117900006473,75.96980240003904,None,75.96980240003904,76.66991830000188,0.08851750002941117,None,,,,,,,,,34,001,2019_Dec_25_1420,untitled,3.1.0,60.17064392864929,
462,_5,M,225,R,N,462_5M225RN,HRN,0,6,6,181,,,1.242,77.82270070002414,78.15129770000931,78.16820960002951,78.45126340002753,78.46789670002181,None,up,2.1486380000133067,78.46789670002181,None,78.46789670002181,79.69985070003895,0.07544839999172837,None,,,,,,,,,34,001,2019_Dec_25_1420,untitled,3.1.0,60.17064392864929,
464,_5,M,315,R,N,464_5M315RN,HRN,0,7,7,183,,,1.109,80.701962799998,81.03216270002304,81.04891210002825,81.33183640002972,81.34856920002494,None,down,3.0809279000386596,81.34856920002494,None,81.34856920002494,82.44719460001215,0.0761342000332661,None,,,,,,,,,34,001,2019_Dec_25_1420,untitled,3.1.0,60.17064392864929,
039,R,N,270,L,N,039RN270LN,HLN,0,8,8,206,,,0.837,84.49796030001016,84.84586240001954,84.8624647000106,85.14488900004653,85.1614372000331,None,up,3.0152159000281245,85.1614372000331,None,85.1614372000331,85.97818130004453,0.06130719999782741,None,,,,,,,,,34,001,2019_Dec_25_1420,untitled,3.1.0,60.17064392864929,
_,G,M,0,_,_,_GM000__,N,0,9,9,8,,,0.807,88.26235279999673,88.592240100028,88.60848160000751,88.89131640002597,88.90856790001271,None,down,1.898992799979169,88.90856790001271,None,88.90856790001271,89.69109880004544,0.0770438999752514,None,,,,,,,,,34,001,2019_Dec_25_1420,untitled,3.1.0,60.17064392864929,
491,_5,M,90,L,N,491_5M090LN,HLN,0,10,10,186,,,0.9470000000000001,90.88161370001035,91.22359250002773,91.24023900000611,91.5228678000276,91.53956450003898,None,down,2.814460000023246,91.53956450003898,None,91.53956450003898,92.47195220005233,0.06624199997168034,None,,,,,,,,,34,001,2019_Dec_25_1420,untitled,3.1.0,60.17064392864929,
390,_4,N,225,R,N,390_4N225RN,HRN,0,11,11,261,,,1.008,94.4240509000374,94.7701028000447,94.78738480003085,95.07036750001134,95.0870940000168,None,down,2.4984064000309445,95.0870940000168,None,95.0870940000168,96.06905590003589,0.0633071000338532,None,,,,,,,,,34,001,2019_Dec_25_1420,untitled,3.1.0,60.17064392864929,
391,_4,N,270,R,N,391_4N270RN,HRN,0,12,12,262,,,0.771,97.67921980004758,98.00153320003301,98.01761040004203,98.30041200004052,98.31688630004646,None,down,2.13447669998277,98.31688630004646,None,98.31688630004646,99.06643700000132,0.08465470001101494,None,,,,,,,,,34,001,2019_Dec_25_1420,untitled,3.1.0,60.17064392864929,
257,_2,N,0,R,N,257_2N000RN,HRN,0,13,13,240,,,0.991,100.53560380003182,100.86481360002654,100.88158060004935,101.16464630002156,101.18106100003934,None,up,2.5664586999919266,101.18106100003934,None,101.18106100003934,102.16384500003187,0.07584890001453459,None,,,,,,,,,34,001,2019_Dec_25_1420,untitled,3.1.0,60.17064392864929,
486,_5,N,225,L,N,486_5N225LN,HLN,0,14,14,285,,,1.173,103.84494680003263,104.16166260000318,104.17908190004528,104.46117620001314,104.47817810002016,None,up,2.9318390999687836,104.47817810002016,None,104.47817810002016,105.62759520002874,0.08901360002346337,None,,,,,,,,,34,001,2019_Dec_25_1420,untitled,3.1.0,60.17064392864929,
238,G,M,225,L,N,238GM225LN,HLN,0,15,15,141,,,0.809,107.47776970005361,107.82576030003838,107.84230380004738,108.12484620005125,108.14132370002335,None,down,2.8327090999810025,108.14132370002335,None,108.14132370002335,108.92543520004256,0.06111049995524809,None,,,,,,,,,34,001,2019_Dec_25_1420,untitled,3.1.0,60.17064392864929,
_,_5,N,315,_,_,__5N315__,N,0,16,16,95,,,0.904,111.05193460005103,111.39025940001011,111.40580520004733,111.68895170005271,111.70534840004984,None,up,1.8995398000115529,111.70534840004984,None,111.70534840004984,112.58789330004947,0.06846199999563396,None,,,,,,,,,34,001,2019_Dec_25_1420,untitled,3.1.0,60.17064392864929,
036,R,N,135,L,N,036RN135LN,HLN,0,17,17,203,,,0.711,113.69810000003781,114.01982340001268,114.03630840004189,114.31972300005145,114.33622620004462,None,None,,114.33622620004462,None,114.33622620004462,115.03595150000183,0.08207420003600419,None,,,,,,,,,34,001,2019_Dec_25_1420,untitled,3.1.0,60.17064392864929,
136,F,N,315,R,N,136FN315RN,HRN,0,18,18,215,,,1.393,117.86720580002293,118.21627460001037,118.2327955000219,118.51602860004641,118.53271600004518,117.86720580002293,up,2.6484203999862075,118.53271600004518,None,118.53271600004518,119.91441780002788,0.059608699986711144,None,,,,,,,,,34,001,2019_Dec_25_1420,untitled,3.1.0,60.17064392864929,
_,_2,M,180,_,_,__2M180__,N,0,19,19,28,,,0.989,121.26065400004154,121.59802610002225,121.61354150000261,121.89656120003201,121.91300410003169,None,up,2.9479056000127457,121.91300410003169,None,121.91300410003169,122.87926790001802,0.07145330001367256,None,,,,,,,,,34,001,2019_Dec_25_1420,untitled,3.1.0,60.17064392864929,
142,F,M,225,R,N,142FM225RN,HRN,0,20,20,117,,,0.929,124.94077149999794,125.27700210001785,125.29374730004929,125.57683100004215,125.59328150004148,None,down,2.567613099992741,125.59328150004148,None,125.59328150004148,126.50897439999972,0.0709906000411138,None,,,,,,,,,34,001,2019_Dec_25_1420,untitled,3.1.0,60.17064392864929,
_,_5,M,45,_,_,__5M045__,N,0,21,21,41,,,0.748,128.24696630000835,128.57430020003812,128.5901814000099,128.87384030001704,128.8902946000453,None,up,2.2492094000335783,128.8902946000453,None,128.8902946000453,129.62301959999604,0.07749659998808056,None,,,,,,,,,34,001,2019_Dec_25_1420,untitled,3.1.0,60.17064392864929,
451,_5,N,90,R,N,451_5N090RN,HRN,0,22,22,274,,,0.794,131.2090240000398,131.55481540004257,131.57149260002188,131.8548791000503,131.87146980001125,None,up,2.464684100006707,131.87146980001125,None,131.87146980001125,132.65371650003362,0.06084849999751896,None,,,,,,,,,34,001,2019_Dec_25_1420,untitled,3.1.0,60.17064392864929,
232,G,N,315,L,N,232GN315LN,HLN,0,23,23,239,,,0.887,134.40927730000112,134.7520509000169,134.76896890002536,135.0516578000388,135.06820300000254,None,up,2.69837939995341,135.06820300000254,None,135.06820300000254,135.93405150005128,0.06647430005250499,None,,,,,,,,,34,001,2019_Dec_25_1420,untitled,3.1.0,60.17064392864929,
236,G,M,135,L,N,236GM135LN,HLN,0,24,24,139,,,1.282,137.83392160001677,138.18237450002925,138.1992123000091,138.48227420001058,138.49856550002005,None,down,2.5018211000133306,138.49856550002005,None,138.49856550002005,139.7643332000007,0.06026080000447109,None,,,,,,,,,34,001,2019_Dec_25_1420,untitled,3.1.0,60.17064392864929,
007,R,N,270,R,N,007RN270RN,HRN,0,25,25,198,,,0.7020000000000001,141.08252580004046,141.4134685000172,141.42966740002157,141.7127659000107,141.7294067000039,None,up,2.3658010000362992,141.7294067000039,None,141.7294067000039,142.41199910000432,0.07549050002126023,None,,,,,,,,,34,001,2019_Dec_25_1420,untitled,3.1.0,60.17064392864929,
_,G,N,225,_,_,_GN225__,N,0,26,26,61,,,1.17,144.16707880003378,144.511642700003,144.5279109000112,144.80998550000368,144.82712110003922,None,up,2.381362700019963,144.82712110003922,None,144.82712110003922,145.9752378000412,0.06459929997799918,None,,,,,,,,,34,001,2019_Dec_25_1420,untitled,3.1.0,60.17064392864929,
271,_2,M,270,R,N,271_2M270RN,HRN,0,27,27,150,,,1.34,147.29637370002456,147.62459860002855,147.64098530000774,147.92402000003494,147.94090040004812,None,down,3.1829901000019163,147.94090040004812,None,147.94090040004812,149.2580125000095,0.07858879998093471,None,,,,,,,,,34,001,2019_Dec_25_1420,untitled,3.1.0,60.17064392864929,
385,_4,N,0,R,N,385_4N000RN,HRN,0,28,28,256,,,0.9590000000000001,151.20437760005007,151.53696520003723,151.55370820005191,151.83745480002835,151.8538344000117,None,up,2.43153360002907,151.8538344000117,None,151.8538344000117,152.80290380003862,0.07091519999084994,None,,,,,,,,,34,001,2019_Dec_25_1420,untitled,3.1.0,60.17064392864929,
389,_4,N,180,R,N,389_4N180RN,HRN,0,29,29,260,,,0.898,154.3604552000179,154.70078010001453,154.71765850001248,155.00100530002965,155.0171114000259,None,down,2.115764400048647,155.0171114000259,None,155.0171114000259,155.89980810001725,0.06793229997856542,None,,,,,,,,,34,001,2019_Dec_25_1420,untitled,3.1.0,60.17064392864929,
429,_4,M,180,L,N,429_4M180LN,HLN,0,30,30,172,,,0.729,157.2031951000099,157.54996230005054,157.56594430003315,157.8486195000005,157.8654626000207,None,down,2.1996460999944247,157.8654626000207,None,157.8654626000207,158.58193070004927,0.06289579998701811,None,,,,,,,,,34,001,2019_Dec_25_1420,untitled,3.1.0,60.17064392864929,
_,_4,N,90,_,_,__4N090__,N,0,31,31,82,,,0.857,160.1326345000416,160.47954000002937,160.49580309999874,160.779669200012,160.7969834000105,None,up,2.333356500021182,160.7969834000105,None,160.7969834000105,161.62858290004078,0.0603590999962762,None,,,,,,,,,34,001,2019_Dec_25_1420,untitled,3.1.0,60.17064392864929,
239,G,M,270,L,N,239GM270LN,HLN,0,32,32,142,,,1.1280000000000001,163.20850619999692,163.54385160002857,163.56048550002743,163.84360940003535,163.86044700001366,None,up,2.5675439999904484,163.86044700001366,None,163.86044700001366,164.97499260003679,0.06924739998066798,None,,,,,,,,,34,001,2019_Dec_25_1420,untitled,3.1.0,60.17064392864929,
016,R,M,315,R,N,016RM315RN,HRN,0,33,33,103,,,0.836,166.52264030004153,166.84067860001232,166.8570738999988,167.14087140001357,167.15783999999985,None,down,3.001978699991014,167.15783999999985,None,167.15783999999985,167.99016630003462,0.08376020001014695,None,,,,,,,,,34,001,2019_Dec_25_1420,untitled,3.1.0,60.17064392864929,
456,_5,N,315,R,N,456_5N315RN,HRN,0,34,34,279,,,1.331,170.25489620002918,170.57058820000384,170.5877173000481,170.87060429999838,170.88742130005267,None,up,2.4154871000209823,170.88742130005267,None,170.88742130005267,172.20314100000542,0.08389519999036565,None,,,,,,,,,34,001,2019_Dec_25_1420,untitled,3.1.0,60.17064392864929,
_,_2,M,270,_,_,__2M270__,N,0,35,35,30,,,1.288,173.3919885000214,173.71834469999885,173.7348725000047,174.01786340004764,174.03420320001896,None,up,2.2505787999834865,174.03420320001896,None,174.03420320001896,175.2997407000512,0.07921459997305647,None,,,,,,,,,34,001,2019_Dec_25_1420,untitled,3.1.0,60.17064392864929,
_,R,N,315,_,_,_RN315__,N,0,36,36,71,,,1.053,176.37356580002233,176.69922970002517,176.71540970000206,176.99881160003133,177.0152245000354,None,up,2.2477550000185147,177.0152245000354,None,177.0152245000354,178.04754110000795,0.0800429999944754,None,,,,,,,,,34,001,2019_Dec_25_1420,untitled,3.1.0,60.17064392864929,
141,F,M,180,R,N,141FM180RN,HRN,0,37,37,116,,,1.349,179.3377134000184,179.67940000002272,179.69599980005296,179.97920220001834,179.99594950000755,None,down,2.7645360000315122,179.99594950000755,None,179.99594950000755,181.32858730002772,0.06621980003546923,None,,,,,,,,,34,001,2019_Dec_25_1420,untitled,3.1.0,60.17064392864929,
_,R,N,45,_,_,_RN045__,N,0,38,38,65,,,1.3920000000000001,182.84752760000993,183.17720690002898,183.19314010004746,183.47681770002237,183.4928848000127,None,up,2.1674571000039577,183.4928848000127,None,183.4928848000127,184.85807900002692,0.07988189999014139,None,,,,,,,,,34,001,2019_Dec_25_1420,untitled,3.1.0,60.17064392864929,
_,F,N,90,_,_,_FN090__,N,0,39,39,50,,,1.189,185.72847870003898,186.0738281000522,186.09066820004955,186.37419030000456,186.39091860002372,None,up,2.3819148000329733,186.39091860002372,None,186.39091860002372,187.5557734000031,0.061662100022658706,None,,,,,,,,,34,001,2019_Dec_25_1420,untitled,3.1.0,60.17064392864929,
_,G,M,90,_,_,_GM090__,N,0,40,40,10,,,1.349,188.83927580004092,189.18844739999622,189.20472000003792,189.48741180001525,189.5044972000178,None,down,2.38156579999486,189.5044972000178,None,189.5044972000178,190.83627450000495,0.05980829999316484,None,,,,,,,,,34,001,2019_Dec_25_1420,untitled,3.1.0,60.17064392864929,
_,_2,N,45,_,_,__2N045__,N,0,41,41,73,,,1.3780000000000001,191.95399260002887,192.303140300035,192.31906380003784,192.60216599999694,192.6186462000478,None,up,2.464411100023426,192.6186462000478,None,192.6186462000478,193.98406060005073,0.05914109997684136,None,,,,,,,,,34,001,2019_Dec_25_1420,untitled,3.1.0,60.17064392864929,
133,F,N,180,R,N,133FN180RN,HRN,0,42,42,212,,,1.299,195.15156650001882,195.49924130004365,195.51581400004216,195.7989715000149,195.81607570004417,None,down,2.2652563000447117,195.81607570004417,None,195.81607570004417,197.09765900002094,0.06024399999296293,None,,,,,,,,,34,001,2019_Dec_25_1420,untitled,3.1.0,60.17064392864929,
489,_5,M,0,L,N,489_5M000LN,HLN,0,43,43,184,,,0.7020000000000001,198.1693809000426,198.4970161000383,198.5158069000463,198.7969671000028,198.81418909999775,None,down,1.8810261000180617,198.81418909999775,None,198.81418909999775,199.4952247000183,0.07874640001682565,None,,,,,,,,,34,001,2019_Dec_25_1420,untitled,3.1.0,60.17064392864929,
140,F,M,135,R,N,140FM135RN,HRN,0,44,44,115,,,1.153,200.76938080001855,201.11098050000146,201.12742390000494,201.41074780002236,201.428023400018,None,down,3.263252199976705,201.428023400018,None,201.428023400018,202.56083550001495,0.06661779998103157,None,,,,,,,,,34,001,2019_Dec_25_1420,untitled,3.1.0,60.17064392864929,
_,_2,M,90,_,_,__2M090__,N,0,45,45,26,,,0.783,204.7643909000326,205.10703940002713,205.12393960001646,205.40677980001783,205.42351849999977,None,down,1.983856900013052,205.42351849999977,None,205.42351849999977,206.18998980004108,0.06622550002066419,None,,,,,,,,,34,001,2019_Dec_25_1420,untitled,3.1.0,60.17064392864929,
206,G,M,225,R,N,206GM225RN,HRN,0,46,46,133,,,1.348,207.48439670004882,207.82174670003587,207.8387835000176,208.1212128000334,208.1374520000536,None,down,3.267865100002382,208.1374520000536,None,208.1374520000536,209.47014260001015,0.06889029999729246,None,,,,,,,,,34,001,2019_Dec_25_1420,untitled,3.1.0,60.17064392864929,
048,R,M,315,L,N,048RM315LN,HLN,0,47,47,111,,,0.804,211.49779210000997,211.81796450004913,211.83477950002998,212.11814910004614,212.13508020003792,None,down,2.747897799999919,212.13508020003792,None,212.13508020003792,212.93456850002985,0.08058300003176555,None,,,,,,,,,34,001,2019_Dec_25_1420,untitled,3.1.0,60.17064392864929,
392,_4,N,315,R,N,392_4N315RN,HRN,0,48,48,263,,,0.8260000000000001,214.9509098000126,215.29798540001502,215.31524790002732,215.5987980000209,215.61649300000863,None,up,2.264226500003133,215.61649300000863,None,215.61649300000863,216.4303713000263,0.06079760001739487,None,,,,,,,,,34,001,2019_Dec_25_1420,untitled,3.1.0,60.17064392864929,
460,_5,M,135,R,N,460_5M135RN,HRN,0,49,49,179,,,1.377,217.96100290003233,218.29637840000214,218.31284830003278,218.59596950002015,218.6127563000191,None,down,2.5148120000376366,218.6127563000191,None,218.6127563000191,219.97798610001337,0.07191580004291609,None,,,,,,,,,34,001,2019_Dec_25_1420,untitled,3.1.0,60.17064392864929,
430,_4,M,225,L,N,430_4M225LN,HLN,0,50,50,173,,,0.7020000000000001,221.1973259000224,221.54328220000025,221.55992420000257,221.84322500001872,221.85969880002085,None,up,2.7502699999604374,221.85969880002085,None,221.85969880002085,222.54211890004808,0.06309359997976571,None,,,,,,,,,34,001,2019_Dec_25_1420,untitled,3.1.0,60.17064392864929,
481,_5,N,0,L,N,481_5N000LN,HLN,0,51,51,280,,,0.759,224.6978289000108,225.02302730001975,225.03984870004933,225.3232638000045,225.33952979999594,None,up,1.7158396000158973,225.33952979999594,None,225.33952979999594,226.08949400001438,0.0791674999636598,None,,,,,,,,,34,001,2019_Dec_25_1420,untitled,3.1.0,60.17064392864929,
199,G,N,270,R,N,199GN270RN,HRN,0,52,52,230,,,0.9460000000000001,227.13529380003456,227.47143780003535,227.4875905000372,227.7709687000024,227.7876522000297,None,up,2.5983064000029117,227.7876522000297,None,227.7876522000297,228.72008290002123,0.07125079998513684,None,,,,,,,,,34,001,2019_Dec_25_1420,untitled,3.1.0,60.17064392864929,
_,F,N,315,_,_,_FN315__,N,0,53,53,55,,,1.2530000000000001,230.46451350004645,230.8025414000149,230.81890380004188,231.10174549999647,231.11823419999564,None,up,2.332815399975516,231.11823419999564,None,231.11823419999564,232.34998769999947,0.06803899997612461,None,,,,,,,,,34,001,2019_Dec_25_1420,untitled,3.1.0,60.17064392864929,
_,_5,M,0,_,_,__5M000__,N,0,54,54,40,,,1.297,233.51748570002383,233.86731240001973,233.88224060001085,234.16560590005247,234.1823211000301,None,down,2.8167646000511013,234.1823211000301,None,234.1823211000301,235.4642303000437,0.06002150004496798,None,,,,,,,,,34,001,2019_Dec_25_1420,untitled,3.1.0,60.17064392864929,
_,_5,N,90,_,_,__5N090__,N,0,55,55,90,,,1.073,237.06967749999603,237.41239070001757,237.42938440002035,237.71232520003105,237.72901640000055,None,up,3.1478711999952793,237.72901640000055,None,237.72901640000055,238.77778950001812,0.06368849996943027,None,,,,,,,,,34,001,2019_Dec_25_1420,untitled,3.1.0,60.17064392864929,
003,R,N,90,R,N,003RN090RN,HRN,0,56,56,194,,,1.203,240.9625667000073,241.2925794000039,241.3091368000023,241.59251500002574,241.60935390001396,None,up,2.36599419999402,241.60935390001396,None,241.60935390001396,242.7909895000048,0.07668040000135079,None,,,,,,,,,34,001,2019_Dec_25_1420,untitled,3.1.0,60.17064392864929,
417,_4,N,0,L,N,417_4N000LN,HLN,0,57,57,264,,,0.8280000000000001,244.0617506999988,244.39062510000076,244.4071413000347,244.69014040002367,244.70689280005172,None,down,1.9660649999859743,244.70689280005172,None,244.70689280005172,245.52169850002974,0.07878569996682927,None,,,,,,,,,34,001,2019_Dec_25_1420,untitled,3.1.0,60.17064392864929,
424,_4,N,315,L,N,424_4N315LN,HLN,0,58,58,271,,,1.189,246.74801310000475,247.08763750002254,247.10445320000872,247.38808030000655,247.4047176000313,None,down,2.6330586999538355,247.4047176000313,None,247.4047176000313,248.56949250004254,0.0677754000062123,None,,,,,,,,,34,001,2019_Dec_25_1420,untitled,3.1.0,60.17064392864929,
135,F,N,270,R,N,135FN270RN,HRN,0,59,59,214,,,1.12,250.11313000001246,250.45143210003152,250.46784100000514,250.7516380000161,250.76783210004214,None,up,2.0333881999831647,250.76783210004214,None,250.76783210004214,251.86666940001305,0.06810560001758859,None,,,,,,,,,34,001,2019_Dec_25_1420,untitled,3.1.0,60.17064392864929,
270,_2,M,225,R,N,270_2M225RN,HRN,0,60,60,149,,,1.254,252.86914240004262,253.21573940000962,253.23228420002852,253.51532780000707,253.5320037000347,None,up,2.4318903000093997,253.5320037000347,None,253.5320037000347,254.76432760001626,0.061241499963216484,None,,,,,,,,,34,001,2019_Dec_25_1420,untitled,3.1.0,60.17064392864929,
175,F,M,270,L,N,175FM270LN,HLN,0,61,61,126,,,1.235,256.033014500048,256.3792693000287,256.3956259000115,256.6793033000431,256.6959190000198,None,down,2.6809593999641947,256.6959190000198,None,256.6959190000198,257.9109544000239,0.061927500006277114,None,,,,,,,,,34,001,2019_Dec_25_1420,untitled,3.1.0,60.17064392864929,
449,_5,N,0,R,N,449_5N000RN,HRN,0,62,62,272,,,0.796,259.4470861000009,259.79305989999557,259.80967020004755,260.09302800003206,260.1095727000502,None,down,1.932105700019747,260.1095727000502,None,260.1095727000502,260.8920187000185,0.06366459996206686,None,,,,,,,,,34,001,2019_Dec_25_1420,untitled,3.1.0,60.17064392864929,
131,F,N,90,R,N,131FN090RN,HRN,0,63,63,210,,,1.07,262.12309070001356,262.457169900008,262.4744083000114,262.7571370000369,262.7735568000353,None,up,2.5321232000133023,262.7735568000353,None,262.7735568000353,263.82254700001795,0.0732988000381738,None,,,,,,,,,34,001,2019_Dec_25_1420,untitled,3.1.0,60.17064392864929,
_,_5,N,180,_,_,__5N180__,N,0,64,64,92,,,0.962,265.37841689999914,265.7217189000221,265.73788740002783,266.0210903999978,266.0377992000431,None,up,2.516828300023917,266.0377992000431,None,266.0377992000431,266.986859800003,0.06569809996290132,None,,,,,,,,,34,001,2019_Dec_25_1420,untitled,3.1.0,60.17064392864929,
_,_5,N,0,_,_,__5N000__,N,0,65,65,88,,,1.345,268.62915580003755,268.96867120004026,268.9851804000209,269.26912620000076,269.285136600025,None,up,2.1315325999748893,269.285136600025,None,269.285136600025,270.61653560004197,0.0675145999994129,None,,,,,,,,,34,001,2019_Dec_25_1420,untitled,3.1.0,60.17064392864929,
204,G,M,135,R,N,204GM135RN,HRN,0,66,66,131,,,0.921,271.4853465000051,271.83262210001703,271.8503330000094,272.1321771000512,272.1487844000221,None,down,2.333801500033587,272.1487844000221,None,272.1487844000221,273.0479700000142,0.061482899996917695,None,,,,,,,,,34,001,2019_Dec_25_1420,untitled,3.1.0,60.17064392864929,
461,_5,M,180,R,N,461_5M180RN,HRN,0,67,67,180,,,1.347,274.55509300000267,274.8962000000174,274.913338000013,275.19671879999805,275.2127145000268,None,None,,275.2127145000268,None,275.2127145000268,276.54501210001763,0.06544640002539381,None,,,,,,,,,34,001,2019_Dec_25_1420,untitled,3.1.0,60.17064392864929,
041,R,M,0,L,N,041RM000LN,HLN,0,68,68,104,,,1.164,278.74640150001505,279.0929052000283,279.1106687000138,279.3940976000158,279.410672100028,278.74640150001505,down,2.613663900003303,279.410672100028,None,279.410672100028,280.5581664000056,0.06267499999376014,None,,,,,,,,,34,001,2019_Dec_25_1420,untitled,3.1.0,60.17064392864929,
_,_4,N,45,_,_,__4N045__,N,0,69,69,81,,,0.805,282.10513560002437,282.43985790002625,282.4581474000006,282.7396773000364,282.7566208000062,None,up,2.0488320000004023,282.7566208000062,None,282.7566208000062,283.53962250001496,0.07235480000963435,None,,,,,,,,,34,001,2019_Dec_25_1420,untitled,3.1.0,60.17064392864929,
237,G,M,180,L,N,237GM180LN,HLN,0,70,70,140,,,0.789,284.8874543000129,285.22151570004644,285.23787340003764,285.5206443000352,285.5373016000376,None,down,2.0988521999679506,285.5373016000376,None,285.5373016000376,286.3039392000064,0.07307099999161437,None,,,,,,,,,34,001,2019_Dec_25_1420,untitled,3.1.0,60.17064392864929,
295,_2,N,270,L,N,295_2N270LN,HLN,0,71,71,254,,,1.361,287.726890000049,288.05131820001407,288.06825370003935,288.3520978000015,288.368123000022,None,up,2.298618400003761,288.368123000022,None,288.368123000022,289.71763060003286,0.08208429999649525,None,,,,,,,,,34,001,2019_Dec_25_1420,untitled,3.1.0,60.17064392864929,
_,R,M,45,_,_,_RM045__,N,0,72,72,17,,,1.352,290.74665870005265,291.083352900052,291.09936220000964,291.38223800004926,291.3993676000391,None,down,2.4650694000301883,291.3993676000391,None,291.3993676000391,292.7308170000324,0.07079949998296797,None,,,,,,,,,34,001,2019_Dec_25_1420,untitled,3.1.0,60.17064392864929,
300,_2,M,135,L,N,300_2M135LN,HLN,0,73,73,155,,,0.8300000000000001,293.93214580003405,294.2799592000083,294.2967903999961,294.57988090004073,294.5961310000275,None,up,1.6842754000099376,294.5961310000275,None,294.5961310000275,295.4118289000471,0.0607624999829568,None,,,,,,,,,34,001,2019_Dec_25_1420,untitled,3.1.0,60.17064392864929,
_,G,M,225,_,_,_GM225__,N,0,74,74,13,,,1.043,296.34830110002076,296.69434889999684,296.71112780005205,296.9941142000025,297.0106047000154,None,down,2.3490797000122257,297.0106047000154,None,297.0106047000154,298.04296839999733,0.06106410000938922,None,,,,,,,,,34,001,2019_Dec_25_1420,untitled,3.1.0,60.17064392864929,
234,G,M,45,L,N,234GM045LN,HLN,0,75,75,137,,,0.962,299.43100330000743,299.77492140000686,299.7917615000042,300.07486750005046,300.09146840003086,None,down,2.083417199959513,300.09146840003086,None,300.09146840003086,301.04006730002584,0.06297920003999025,None,,,,,,,,,34,001,2019_Dec_25_1420,untitled,3.1.0,60.17064392864929,
193,G,N,0,R,N,193GN000RN,HRN,0,76,76,224,,,1.353,302.24177270004293,302.58934350003256,302.60609549999936,302.8889201999991,302.90572850004537,None,down,2.4995504000107758,302.90572850004537,None,302.90572850004537,304.23758640000597,0.059796599962282926,None,,,,,,,,,34,001,2019_Dec_25_1420,untitled,3.1.0,60.17064392864929,
035,R,N,90,L,N,035RN090LN,HLN,0,77,77,202,,,0.718,305.4913891000324,305.82034550001845,305.8363051000051,306.11964530003024,306.13654239999596,None,up,1.7327306999941356,306.13654239999596,None,306.13654239999596,306.83540340000764,0.07703109999420121,None,,,,,,,,,34,001,2019_Dec_25_1420,untitled,3.1.0,60.17064392864929,
170,F,M,45,L,N,170FM045LN,HLN,0,78,78,121,,,1.157,307.9647703000228,308.28431010001805,308.3010294000269,308.5845572000253,308.60091380000813,None,down,2.400043600006029,308.60091380000813,None,308.60091380000813,309.7497462000465,0.0854850999894552,None,,,,,,,,,34,001,2019_Dec_25_1420,untitled,3.1.0,60.17064392864929,
_,_5,N,270,_,_,__5N270__,N,0,79,79,94,,,1.387,311.06508090003626,311.41454340005293,311.4317071000114,311.7147711000289,311.73157160001574,None,up,2.7145046000368893,311.73157160001574,None,311.73157160001574,313.09676070004934,0.0569468000321649,None,,,,,,,,,34,001,2019_Dec_25_1420,untitled,3.1.0,60.17064392864929,
482,_5,N,45,L,N,482_5N045LN,HLN,0,80,80,281,,,1.041,314.5241741000209,314.8619783000322,314.87834340002155,315.161554899998,315.1782974000089,None,up,2.117113300017081,315.1782974000089,None,315.1782974000089,316.21013530000346,0.0695057999691926,None,,,,,,,,,34,001,2019_Dec_25_1420,untitled,3.1.0,60.17064392864929,
_,_5,N,135,_,_,__5N135__,N,0,81,81,91,,,1.197,317.3667428000481,317.7092263000086,317.7268222999992,318.0091137000127,318.02627299999585,None,down,2.2491861000307836,318.02627299999585,None,318.02627299999585,319.2086643000366,0.06431009998777881,None,,,,,,,,,34,001,2019_Dec_25_1420,untitled,3.1.0,60.17064392864929,
_,G,M,45,_,_,_GM045__,N,0,82,82,9,,,1.314,320.3791251000366,320.69009440002264,320.70654830004787,320.98949460004224,321.00626440002816,None,down,2.4649791000410914,321.00626440002816,None,321.00626440002816,322.3051742000389,0.09305440000025555,None,,,,,,,,,34,001,2019_Dec_25_1420,untitled,3.1.0,60.17064392864929,
_,_5,M,90,_,_,__5M090__,N,0,83,83,42,,,1.127,323.5520019000396,323.88757449999684,323.9039166000439,324.1869072000263,324.2043891000212,None,down,2.165036400023382,324.2043891000212,None,324.2043891000212,325.31996330001857,0.07149460003711283,None,,,,,,,,,34,001,2019_Dec_25_1420,untitled,3.1.0,60.17064392864929,
130,F,N,45,R,N,130FN045RN,HRN,0,84,84,209,,,1.073,326.4423384999973,326.7852711000014,326.80127560003893,327.08431460004067,327.1010621000314,None,up,2.565241399977822,327.1010621000314,None,327.1010621000314,328.15022880001925,0.06456969998544082,None,,,,,,,,,34,001,2019_Dec_25_1420,untitled,3.1.0,60.17064392864929,
009,R,M,0,R,N,009RM000RN,HRN,0,85,85,96,,,1.293,329.7567760000238,330.0820173000102,330.0982563000289,330.3817300000228,330.3984598000534,None,down,2.1977671000058763,330.3984598000534,None,330.3984598000534,331.67992640001466,0.0815574000007473,None,,,,,,,,,34,001,2019_Dec_25_1420,untitled,3.1.0,60.17064392864929,
485,_5,N,180,L,N,485_5N180LN,HLN,0,86,86,284,,,1.01,332.6661792000523,333.01202190003823,333.02900390001014,333.31191930000205,333.32888010004535,None,down,2.0028860000311397,333.32888010004535,None,333.32888010004535,334.3279728000052,0.06386220001149923,None,,,,,,,,,34,001,2019_Dec_25_1420,untitled,3.1.0,60.17064392864929,
302,_2,M,225,L,N,302_2M225LN,HLN,0,87,87,157,,,0.726,335.43190620001405,335.74391770001967,335.76015879999613,336.0434621000313,336.06025490001775,None,up,1.8158472999930382,336.06025490001775,None,336.06025490001775,336.7757746000425,0.08967600000323728,None,,,,,,,,,34,001,2019_Dec_25_1420,untitled,3.1.0,60.17064392864929,
_,R,N,135,_,_,_RN135__,N,0,88,88,67,,,0.979,337.9491492000525,338.29094880004413,338.30743370001437,338.59082730003865,338.607679800014,None,down,1.8990017999894917,338.607679800014,None,338.607679800014,339.5731355000171,0.06575479998718947,None,,,,,,,,,34,001,2019_Dec_25_1420,untitled,3.1.0,60.17064392864929,
233,G,M,0,L,N,233GM000LN,HLN,0,89,89,136,,,1.104,340.5786246000207,340.92230130004464,340.9394635000499,341.22227550001116,341.23863530001836,None,down,1.7678397999843583,341.23863530001836,None,341.23863530001836,342.3209055000334,0.0651852999581024,None,,,,,,,,,34,001,2019_Dec_25_1420,untitled,3.1.0,60.17064392864929,
_,G,M,270,_,_,_GM270__,N,0,90,90,14,,,1.12,343.0727340000449,343.42039310000837,343.437635600043,343.7199193999986,343.73675280000316,None,down,2.0493903000024147,343.73675280000316,None,343.73675280000316,344.83530430000974,0.059459000010974705,None,,,,,,,,,34,001,2019_Dec_25_1420,untitled,3.1.0,60.17064392864929,
231,G,N,270,L,N,231GN270LN,HLN,0,91,91,238,,,0.875,345.8907226000447,346.2010169000132,346.21776700002374,346.5007560000522,346.51733090000926,None,up,3.382021999976132,346.51733090000926,None,346.51733090000926,347.3836244000122,0.093322700005956,None,,,,,,,,,34,001,2019_Dec_25_1420,untitled,3.1.0,60.17064392864929,
_,R,N,0,_,_,_RN000__,N,0,92,92,64,,,1.045,349.964528600045,350.31380410003476,350.3307801000192,350.6138417000184,350.63067610003054,None,up,2.200479199993424,350.63067610003054,None,350.63067610003054,351.6628036000184,0.05830020003486425,None,,,,,,,,,34,001,2019_Dec_25_1420,untitled,3.1.0,60.17064392864929,
034,R,N,45,L,N,034RN045LN,HLN,0,93,93,201,,,0.865,352.90049369999906,353.24523360002786,353.26156990003074,353.54512070002966,353.5614866000251,None,up,1.9833958999952301,353.5614866000251,None,353.5614866000251,354.4102768000448,0.06265109998639673,None,,,,,,,,,34,001,2019_Dec_25_1420,untitled,3.1.0,60.17064392864929,
_,R,N,225,_,_,_RN225__,N,0,94,94,69,,,0.847,355.62485320004635,355.9602679000236,355.9756965000415,356.2599863000214,356.2762651000521,None,down,1.8844133000238799,356.2762651000521,None,356.2762651000521,357.10829520004336,0.07096070004627109,None,,,,,,,,,34,001,2019_Dec_25_1420,untitled,3.1.0,60.17064392864929,
455,_5,N,270,R,N,455_5N270RN,HRN,0,95,95,278,,,0.729,358.2422862999956,358.5737148000044,358.59038670000155,358.87341310002375,358.88997810002184,None,up,1.5180610999814235,358.88997810002184,None,358.88997810002184,359.60619020002196,0.07307420001598075,None,,,,,,,,,34,001,2019_Dec_25_1420,untitled,3.1.0,60.17064392864929,
_,_5,M,270,_,_,__5M270__,N,0,96,96,46,,,1.368,360.4941425000434,360.822012300021,360.838210100017,361.1230908000143,361.14102050004294,None,down,2.6789761999971233,361.14102050004294,None,361.14102050004294,362.48647130001336,0.07723779999651015,None,,,,,,,,,34,001,2019_Dec_25_1420,untitled,3.1.0,60.17064392864929,
_,R,M,225,_,_,_RM225__,N,0,97,97,21,,,1.11,363.9033440000494,364.23543120000977,364.25201200001175,364.53479630005313,364.55286670004716,None,down,2.1144941999809816,364.55286670004716,None,364.55286670004716,365.65078010002617,0.07430789998034015,None,,,,,,,,,34,001,2019_Dec_25_1420,untitled,3.1.0,60.17064392864929,
002,R,N,45,R,N,002RN045RN,HRN,0,98,98,193,,,1.204,366.7515902000014,367.0829370000283,367.1000883000088,367.38247660000343,367.3992556000012,None,up,2.0166250999900512,367.3992556000012,None,367.3992556000012,368.5811907000025,0.07488450000528246,None,,,,,,,,,34,001,2019_Dec_25_1420,untitled,3.1.0,60.17064392864929,
290,_2,N,45,L,N,290_2N045LN,HLN,0,99,99,249,,,1.049,369.51876629999606,369.8303894000128,369.8479551000055,370.13041730003897,370.14701230003266,None,up,2.464866800000891,370.14701230003266,None,370.14701230003266,371.17902090004645,0.09193880000384524,None,,,,,,,,,34,001,2019_Dec_25_1420,untitled,3.1.0,60.17064392864929,
_,_4,N,225,_,_,__4N225__,N,0,100,100,85,,,0.7020000000000001,372.68518430000404,373.0281229999964,373.04513860004954,373.32825300004333,373.34435349999694,None,down,2.414868700027,373.34435349999694,None,373.34435349999694,374.0266840000404,0.06668360001640394,None,,,,,,,,,34,001,2019_Dec_25_1420,untitled,3.1.0,60.17064392864929,
143,F,M,270,R,N,143FM270RN,HRN,0,101,101,118,,,0.879,375.83221510000294,376.1756873000413,376.19343400001526,376.4746026000357,376.491352800047,None,up,2.048856400011573,376.491352800047,None,376.491352800047,377.3570581000531,0.0659072000416927,None,,,,,,,,,34,001,2019_Dec_25_1420,untitled,3.1.0,60.17064392864929,
037,R,N,180,L,N,037RN180LN,HLN,0,102,102,204,,,1.248,378.6286767999991,378.9574196000467,378.9726519000251,379.25600049999775,379.27247910003643,None,down,2.134551700029988,379.27247910003643,None,379.27247910003643,380.5046568000107,0.0796820999821648,None,,,,,,,,,34,001,2019_Dec_25_1420,untitled,3.1.0,60.17064392864929,
_,_4,M,225,_,_,__4M225__,N,0,103,103,37,,,0.8270000000000001,381.49313790001906,381.8203986000153,381.8363098000409,382.1198263000115,382.13697450002655,None,down,2.2642659000121057,382.13697450002655,None,382.13697450002655,382.952527400048,0.07641160005005077,None,,,,,,,,,34,001,2019_Dec_25_1420,untitled,3.1.0,60.17064392864929,
235,G,M,90,L,N,235GM090LN,HLN,0,104,104,138,,,0.725,384.47229649999645,384.8176582000451,384.83440680004423,385.1173011000501,385.1337545000133,None,down,2.048559699964244,385.1337545000133,None,385.1337545000133,385.8333730000304,0.06334829999832436,None,,,,,,,,,34,001,2019_Dec_25_1420,untitled,3.1.0,60.17064392864929,
010,R,M,45,R,N,010RM045RN,HRN,0,105,105,97,,,0.774,387.25011419999646,387.5995765000116,387.6149712000042,387.89847230003215,387.91476070001954,None,down,1.9488559999736026,387.91476070001954,None,387.91476070001954,388.66404120001243,0.06057679996592924,None,,,,,,,,,34,001,2019_Dec_25_1420,untitled,3.1.0,60.17064392864929,
459,_5,M,90,R,N,459_5M090RN,HRN,0,106,106,178,,,0.9480000000000001,389.9441499999957,390.27926229999866,390.2961071000318,390.5793558000005,390.59561870002653,None,down,2.2494823000160977,390.59561870002653,None,390.59561870002653,391.5282914999989,0.07190929999342188,None,,,,,,,,,34,001,2019_Dec_25_1420,untitled,3.1.0,60.17064392864929,
452,_5,N,135,R,N,452_5N135RN,HRN,0,107,107,275,,,0.797,392.9178690999979,393.26050680002663,393.27734490000876,393.55978579999646,393.5763615000178,None,down,1.6327548999688588,393.5763615000178,None,393.5763615000178,394.35957380000036,0.06578090001130477,None,,,,,,,,,34,001,2019_Dec_25_1420,untitled,3.1.0,60.17064392864929,
258,_2,N,45,R,N,258_2N045RN,HRN,0,108,108,241,,,1.306,395.2807268000324,395.62532300001476,395.6413549000281,395.9247151000309,395.9407858000486,None,up,2.2185489000403322,395.9407858000486,None,395.9407858000486,397.223449000041,0.06493160000536591,None,,,,,,,,,34,001,2019_Dec_25_1420,untitled,3.1.0,60.17064392864929,
144,F,M,315,R,N,144FM315RN,HRN,0,109,109,119,,,1.047,398.2505599000142,398.5718928000424,398.5890378000331,398.8723794000107,398.88927350001177,None,down,2.083734199986793,398.88927350001177,None,398.88927350001177,399.92111110000405,0.08079859998542815,None,,,,,,,,,34,001,2019_Dec_25_1420,untitled,3.1.0,60.17064392864929,
_,R,M,90,_,_,_RM090__,N,0,110,110,18,,,1.166,401.0557610000251,401.3864290000056,401.40290919999825,401.68597260001116,401.70308629999636,None,down,2.0486106000025757,401.70308629999636,None,401.70308629999636,402.8516799000208,0.07442580000497401,None,,,,,,,,,34,001,2019_Dec_25_1420,untitled,3.1.0,60.17064392864929,
195,G,N,90,R,N,195GN090RN,HRN,0,111,111,226,,,0.774,403.8186980000464,404.16795230004936,404.1838158000028,404.4674898000085,404.4837719000061,None,up,2.2331021999707446,404.4837719000061,None,404.4837719000061,405.2332204999984,0.059770400053821504,None,,,,,,,,,34,001,2019_Dec_25_1420,untitled,3.1.0,60.17064392864929,
203,G,M,90,R,N,203GM090RN,HRN,0,112,112,130,,,1.29,406.7881577000371,407.1318074000301,407.14853390003555,407.431008100044,407.4479156000307,None,down,2.165146499988623,407.4479156000307,None,407.4479156000307,408.7128883000114,0.06407810002565384,None,,,,,,,,,34,001,2019_Dec_25_1420,untitled,3.1.0,60.17064392864929,
463,_5,M,270,R,N,463_5M270RN,HRN,0,113,113,182,,,1.12,409.6897489000112,410.0290068000322,410.04646640003193,410.32896420004545,410.3451650000061,None,down,2.898369200003799,410.3451650000061,None,410.3451650000061,411.44420710002305,0.06799160002265126,None,,,,,,,,,34,001,2019_Dec_25_1420,untitled,3.1.0,60.17064392864929,
_,R,M,180,_,_,_RM180__,N,0,114,114,20,,,1.1300000000000001,413.33334160002414,413.65967210003873,413.6755649000406,413.9590147000272,413.97634400002426,None,down,1.9821792999864556,413.97634400002426,None,413.97634400002426,415.09123090002686,0.08119019999867305,None,,,,,,,,,34,001,2019_Dec_25_1420,untitled,3.1.0,60.17064392864929,
_,G,M,315,_,_,_GM315__,N,0,115,115,15,,,0.782,416.0422273000004,416.37355950003257,416.390320800012,416.6730465000146,416.68968460004544,None,down,1.7181743999826722,416.68968460004544,None,416.68968460004544,417.45593750005355,0.07523330004187301,None,,,,,,,,,34,001,2019_Dec_25_1420,untitled,3.1.0,60.17064392864929,
492,_5,M,135,L,N,492_5M135LN,HLN,0,116,116,187,,,0.895,418.4913777000038,418.82128700002795,418.8377618000377,419.1209435000201,419.1378657000023,None,None,,419.1378657000023,None,419.1378657000023,420.02009000000544,0.07591169996885583,None,,,,,,,,,34,001,2019_Dec_25_1420,untitled,3.1.0,60.17064392864929,
_,_2,M,135,_,_,__2M135__,N,0,117,117,27,,,1.154,422.67050619999645,423.0176812999998,423.03391580004245,423.3172081000521,423.33452780003427,422.67050619999645,down,1.9330748000065796,423.33452780003427,None,423.33452780003427,424.4661576000508,0.06200850004097447,None,,,,,,,,,34,001,2019_Dec_25_1420,untitled,3.1.0,60.17064392864929,
196,G,N,135,R,N,196GN135RN,HRN,0,118,118,227,,,1.083,425.33484399999725,425.6824373000418,425.6985976000433,425.9817888000398,425.9987304999959,None,up,2.9310137000284158,425.9987304999959,None,425.9987304999959,427.0638166000135,0.05983579996973276,None,,,,,,,,,34,001,2019_Dec_25_1420,untitled,3.1.0,60.17064392864929,
493,_5,M,180,L,N,493_5M180LN,HLN,0,119,119,188,,,1.339,429.01379670004826,429.3455068000476,429.36260790005326,429.6447264000308,429.6618990999996,None,down,2.29801889997907,429.6618990999996,None,429.6618990999996,430.97696570004337,0.07495259999996051,None,,,,,,,,,34,001,2019_Dec_25_1420,untitled,3.1.0,60.17064392864929,
495,_5,M,270,L,N,495_5M270LN,HLN,0,120,120,190,,,1.276,432.0343663000385,432.3766499000485,432.3936966000474,432.67663910001284,432.6923773000017,None,down,2.5982486000284553,432.6923773000017,None,432.6923773000017,433.9584812000394,0.06724359997315332,None,,,,,,,,,34,001,2019_Dec_25_1420,untitled,3.1.0,60.17064392864929,
399,_4,M,270,R,N,399_4M270RN,HRN,0,121,121,166,,,0.879,435.3629051000462,435.7084124000394,435.7234392000246,436.0060932000051,436.02255200000945,None,up,2.08473070000764,436.02255200000945,None,436.02255200000945,436.87543070001993,0.06530780001776293,None,,,,,,,,,34,001,2019_Dec_25_1420,untitled,3.1.0,60.17064392864929,
044,R,M,135,L,N,044RM135LN,HLN,0,122,122,107,,,0.922,438.18897180003114,438.5206037000171,438.53733429999556,438.82054730004165,438.8371659000404,None,up,2.9148226999677718,438.8371659000404,None,438.8371659000404,439.7530230000266,0.07302399998297915,None,,,,,,,,,34,001,2019_Dec_25_1420,untitled,3.1.0,60.17064392864929,
419,_4,N,90,L,N,419_4N090LN,HLN,0,123,123,266,,,1.094,441.8190217000083,442.16758340003435,442.18376440001884,442.46785420004744,442.48389700002735,None,up,2.348619399999734,442.48389700002735,None,442.48389700002735,443.5661587000359,0.059888600022532046,None,,,,,,,,,34,001,2019_Dec_25_1420,untitled,3.1.0,60.17064392864929,
207,G,M,270,R,N,207GM270RN,HRN,0,124,124,134,,,1.349,444.9011528000119,445.24827310000546,445.26495320000686,445.548039300018,445.5644906000234,None,None,,445.5644906000234,None,445.5644906000234,446.8964984000195,0.06187640002463013,None,,,,,,,,,34,001,2019_Dec_25_1420,untitled,3.1.0,60.17064392864929,
423,_4,N,270,L,N,423_4N270LN,HLN,0,125,125,270,,,0.972,449.11195770004997,449.44455770001514,449.4611896999995,449.7445236000349,449.7614034000435,449.11195770004997,down,2.398168599989731,449.7614034000435,None,449.7614034000435,450.7098894000519,0.07490240002516657,None,,,,,,,,,34,001,2019_Dec_25_1420,untitled,3.1.0,60.17064392864929,
173,F,M,180,L,N,173FM180LN,HLN,0,126,126,124,,,1.283,452.22973510000156,452.57527190004475,452.5919358000392,452.8750163000077,452.89162690000376,None,None,,452.89162690000376,None,452.89162690000376,454.156966700044,0.06331800000043586,None,,,,,,,,,34,001,2019_Dec_25_1420,untitled,3.1.0,60.17064392864929,
_,_4,M,45,_,_,__4M045__,N,0,127,127,33,,,0.729,456.4252839999972,456.7723123000469,456.788375300006,457.0712373999995,457.0877326000482,456.4252839999972,up,2.9483528999844566,457.0877326000482,None,457.0877326000482,457.8039705000119,0.060718499997165054,None,,,,,,,,,34,001,2019_Dec_25_1420,untitled,3.1.0,60.17064392864929,
387,_4,N,90,R,N,387_4N090RN,HRN,0,128,128,258,,,0.928,460.11628810002003,460.45252670004265,460.4688046000083,460.7511143000447,460.7683760000509,None,down,1.9664975999621674,460.7683760000509,None,460.7683760000509,461.6838605000521,0.07143139996333048,None,,,,,,,,,34,001,2019_Dec_25_1420,untitled,3.1.0,60.17064392864929,
422,_4,N,225,L,N,422_4N225LN,HLN,0,129,129,269,,,0.728,462.8032839000225,463.1487902000081,463.16563750000205,463.44873380003264,463.46571300004143,None,up,2.7849325999850407,463.46571300004143,None,463.46571300004143,464.18138070002897,0.06118740001693368,None,,,,,,,,,34,001,2019_Dec_25_1420,untitled,3.1.0,60.17064392864929,
_,F,N,45,_,_,_FN045__,N,0,130,130,49,,,0.97,466.3439766000374,466.6628749000374,466.67916790000163,466.9633312000078,466.9810227000271,None,up,2.148016799998004,466.9810227000271,None,466.9810227000271,467.94454580004094,0.08242970000719652,None,,,,,,,,,34,001,2019_Dec_25_1420,untitled,3.1.0,60.17064392864929,
268,_2,M,135,R,N,268_2M135RN,HRN,0,131,131,147,,,1.175,469.19836660003057,469.5440194000257,469.5603071000078,469.8438820000156,469.8597212000168,None,up,3.3144917999743484,469.8597212000168,None,469.8597212000168,471.0256431000307,0.061934800003655255,None,,,,,,,,,34,001,2019_Dec_25_1420,untitled,3.1.0,60.17064392864929,
_,_5,M,135,_,_,__5M135__,N,0,132,132,43,,,1.143,473.23963710002135,473.58988430001773,473.60727200005203,473.8897634000168,473.90641029999824,None,down,2.5998312999727204,473.90641029999824,None,473.90641029999824,475.0392138000461,0.0582865999895148,None,,,,,,,,,34,001,2019_Dec_25_1420,untitled,3.1.0,60.17064392864929,
483,_5,N,90,L,N,483_5N090LN,HLN,0,133,133,282,,,1.145,476.5748006000067,476.92057529999875,476.9374685000512,477.2208056000527,477.2367736000451,None,up,2.3315890000085346,477.2367736000451,None,477.2367736000451,478.368884800002,0.06122119998326525,None,,,,,,,,,34,001,2019_Dec_25_1420,untitled,3.1.0,60.17064392864929,
395,_4,M,90,R,N,395_4M090RN,HRN,0,134,134,162,,,0.711,479.64608580002096,479.984337300004,480.0019128000131,480.2841438000323,480.30195390002336,None,down,2.7472347000148147,480.30195390002336,None,480.30195390002336,480.9999496000237,0.0689960999879986,None,,,,,,,,,34,001,2019_Dec_25_1420,untitled,3.1.0,60.17064392864929,
454,_5,N,225,R,N,454_5N225RN,HRN,0,135,135,277,,,1.028,483.1296943000052,483.46467620000476,483.4814693000517,483.7647027000203,483.7812508000061,None,up,2.1174408000078984,483.7812508000061,None,483.7812508000061,484.79707490000874,0.07309369998984039,None,,,,,,,,,34,001,2019_Dec_25_1420,untitled,3.1.0,60.17064392864929,
267,_2,M,90,R,N,267_2M090RN,HRN,0,136,136,146,,,0.766,485.96755560004385,486.31265050004004,486.32891790004214,486.6125304000452,486.62950330000604,None,down,1.9495564000098966,486.62950330000604,None,486.62950330000604,487.37790310004493,0.062280100013595074,None,,,,,,,,,34,001,2019_Dec_25_1420,untitled,3.1.0,60.17064392864929,
_,_2,N,135,_,_,__2N135__,N,0,137,137,75,,,1.3940000000000001,488.6663166000508,488.9935041000135,489.0104419999989,489.29372050001984,489.3099803000223,None,down,2.2994875000440516,489.3099803000223,None,489.3099803000223,490.69166430004407,0.07877520000329241,None,,,,,,,,,34,001,2019_Dec_25_1420,untitled,3.1.0,60.17064392864929,
_,F,N,270,_,_,_FN270__,N,0,138,138,54,,,1.016,491.6980744000175,492.02508000005037,492.0411595000187,492.3237681000028,492.34036339999875,None,down,1.7845722999772988,492.34036339999875,None,492.34036339999875,493.33932820003247,0.08003200002713129,None,,,,,,,,,34,001,2019_Dec_25_1420,untitled,3.1.0,60.17064392864929,
400,_4,M,315,R,N,400_4M315RN,HRN,0,139,139,167,,,0.861,494.1908520000288,494.53859440004453,494.55541470000753,494.8382112000254,494.85480530001223,None,up,1.9653510999633,494.85480530001223,None,494.85480530001223,495.7040429000044,0.059168500010855496,None,,,,,,,,,34,001,2019_Dec_25_1420,untitled,3.1.0,60.17064392864929,
_,R,M,270,_,_,_RM270__,N,0,140,140,22,,,0.707,496.88947410002584,497.2361004000413,497.25281299999915,497.5360075000208,497.55210120003903,None,down,2.0662259999662638,497.55210120003903,None,497.55210120003903,498.23512470000423,0.062451999983750284,None,,,,,,,,,34,001,2019_Dec_25_1420,untitled,3.1.0,60.17064392864929,
_,_2,N,180,_,_,__2N180__,N,0,141,141,76,,,0.8130000000000001,499.72263360000215,500.03351480001584,500.0507680000155,500.33360500005074,500.3504935000092,None,down,1.7319945999770425,500.3504935000092,None,500.3504935000092,501.1496548000141,0.09416089998558164,None,,,,,,,,,34,001,2019_Dec_25_1420,untitled,3.1.0,60.17064392864929,
_,G,N,270,_,_,_GN270__,N,0,142,142,62,,,0.717,502.15229840000393,502.49852130003273,502.51643390004756,502.7979217999964,502.8143087000353,None,up,2.233833600010257,502.8143087000353,None,502.8143087000353,503.514027600002,0.06314699997892603,None,,,,,,,,,34,001,2019_Dec_25_1420,untitled,3.1.0,60.17064392864929,
162,F,N,45,L,N,162FN045LN,HLN,0,143,143,217,,,1.032,505.1160473000491,505.46217620000243,505.47884180000983,505.7620598000358,505.7790306000388,None,up,2.332484500017017,505.7790306000388,None,505.7790306000388,506.7944546000217,0.061124400002881885,None,,,,,,,,,34,001,2019_Dec_25_1420,untitled,3.1.0,60.17064392864929,
_,F,N,135,_,_,_FN135__,N,0,144,144,51,,,0.741,508.1926714000292,508.52596440003254,508.5425996000413,508.8273778000148,508.84334810002474,None,up,1.7502211999963038,508.84334810002474,None,508.84334810002474,509.5586603000411,0.07384680001996458,None,,,,,,,,,34,001,2019_Dec_25_1420,untitled,3.1.0,60.17064392864929,
398,_4,M,225,R,N,398_4M225RN,HRN,0,145,145,165,,,1.2,510.6874291000422,511.007641800039,511.0242657000199,511.30738330003805,511.32410430000164,None,up,1.8990655000088736,511.32410430000164,None,511.32410430000164,512.506517700036,0.08460729999933392,None,,,,,,,,,34,001,2019_Dec_25_1420,untitled,3.1.0,60.17064392864929,
008,R,N,315,R,N,008RN315RN,HRN,0,146,146,199,,,1.147,513.2885192999966,513.6390543000307,513.6571964000468,513.9389173000236,513.9557033000165,None,up,1.8811323999543674,513.9557033000165,None,513.9557033000165,515.0872750999988,0.05840909999096766,None,,,,,,,,,34,001,2019_Dec_25_1420,untitled,3.1.0,60.17064392864929,
171,F,M,90,L,N,171FM090LN,HLN,0,147,147,122,,,1.102,515.9067313999985,516.2538577000378,516.2697932000156,516.552056900051,516.56903350004,None,down,2.499641000002157,516.56903350004,None,516.56903350004,517.6517396999989,0.06256039999425411,None,,,,,,,,,34,001,2019_Dec_25_1420,untitled,3.1.0,60.17064392864929,
394,_4,M,45,R,N,394_4M045RN,HRN,0,148,148,161,,,1.249,519.1477050000103,519.483483900025,519.4999708000105,519.7834894999978,519.8001217000419,None,down,2.9658060999936424,519.8001217000419,None,519.8001217000419,521.0320662000449,0.07097920001251623,None,,,,,,,,,34,001,2019_Dec_25_1420,untitled,3.1.0,60.17064392864929,
301,_2,M,180,L,N,301_2M180LN,HLN,0,149,149,156,,,0.911,522.8365049000131,523.1801247000112,523.1969239000464,523.4798188999994,523.4962995999958,None,down,1.999006099998951,523.4962995999958,None,523.4962995999958,524.3954601000296,0.06384830002207309,None,,,,,,,,,34,001,2019_Dec_25_1420,untitled,3.1.0,60.17064392864929,
168,F,N,315,L,N,168FN315LN,HLN,0,150,150,223,,,1.325,525.5749828999978,525.9118756000535,525.9279934000224,526.2113634000416,526.2277735000243,None,up,2.34983869997086,526.2277735000243,None,526.2277735000243,527.5429872000241,0.07088710000971332,None,,,,,,,,,34,001,2019_Dec_25_1420,untitled,3.1.0,60.17064392864929,
_,_4,M,270,_,_,__4M270__,N,0,151,151,38,,,0.849,528.6447514000465,528.9918748000055,529.0086600000504,529.2915550000034,529.3082547000377,None,up,2.384679100010544,529.3082547000377,None,529.3082547000377,530.1406858999981,0.06064789998345077,None,,,,,,,,,34,001,2019_Dec_25_1420,untitled,3.1.0,60.17064392864929,
163,F,N,90,L,N,163FN090LN,HLN,0,152,152,218,,,1.002,531.7800333000487,532.105855300033,532.1226152000017,532.4056136000436,532.4229673000518,None,up,2.0976510999607854,532.4229673000518,None,532.4229673000518,533.4046388000133,0.07806999998865649,None,,,,,,,,,34,001,2019_Dec_25_1420,untitled,3.1.0,60.17064392864929,
138,F,M,45,R,N,138FM045RN,HRN,0,153,153,113,,,0.801,534.5881671000388,534.9369574000011,534.9535091000143,535.2366361000459,535.2536651000264,None,down,1.548324000032153,535.2536651000264,None,535.2536651000264,536.0352243000525,0.060164300026372075,None,,,,,,,,,34,001,2019_Dec_25_1420,untitled,3.1.0,60.17064392864929,
_,G,N,0,_,_,_GN000__,N,0,154,154,56,,,1.1420000000000001,536.8857549000531,537.2175838000257,537.2343363999971,537.5183965000324,537.5352038000128,None,up,2.4972590999677777,537.5352038000128,None,537.5352038000128,538.6666894000373,0.0744070999789983,None,,,,,,,,,34,001,2019_Dec_25_1420,untitled,3.1.0,60.17064392864929,
167,F,N,270,L,N,167FN270LN,HLN,0,155,155,222,,,1.098,540.1189150999999,540.4487095000222,540.465571400011,540.7485348000191,540.7655631000525,None,down,2.4817750999936834,540.7655631000525,None,540.7655631000525,541.8472095000325,0.07841410004766658,None,,,,,,,,,34,001,2019_Dec_25_1420,untitled,3.1.0,60.17064392864929,
_,R,N,180,_,_,_RN180__,N,0,156,156,68,,,1.187,543.3200761000044,543.663254300016,543.679294200032,543.9622330000275,543.9787449000287,None,down,2.050369300006423,543.9787449000287,None,543.9787449000287,545.1442086000461,0.06550120003521442,None,,,,,,,,,34,001,2019_Dec_25_1420,untitled,3.1.0,60.17064392864929,
289,_2,N,0,L,N,289_2N000LN,HLN,0,157,157,248,,,0.992,546.1191408000304,546.4432492000051,546.4599028000375,546.7429351000465,546.7593977000215,None,up,2.834814700006973,546.7593977000215,None,546.7593977000215,547.742089700012,0.08168360003037378,None,,,,,,,,,34,001,2019_Dec_25_1420,untitled,3.1.0,60.17064392864929,
161,F,N,0,L,N,161FN000LN,HLN,0,158,158,216,,,1.37,549.6970145000378,550.0069498000084,550.0240216000238,550.3070771000348,550.3231982000289,None,down,2.7816486000083387,550.3231982000289,None,550.3231982000289,551.6889450000017,0.09333980001974851,None,,,,,,,,,34,001,2019_Dec_25_1420,untitled,3.1.0,60.17064392864929,
046,R,M,225,L,N,046RM225LN,HLN,0,159,159,109,,,1.027,553.1782652999973,553.5206707000034,553.5372075000196,553.8200412000297,553.8371050000424,None,down,2.6824264000169933,553.8371050000424,None,553.8371050000424,554.8529946000199,0.0667187999933958,None,,,,,,,,,34,001,2019_Dec_25_1420,untitled,3.1.0,60.17064392864929,
266,_2,M,45,R,N,266_2M045RN,HRN,0,160,160,145,,,1.106,556.6022386000259,556.9344551000395,556.9514082000242,557.2342318000156,557.250537600019,None,down,1.8665089000132866,557.250537600019,None,557.250537600019,558.3345966000343,0.07401190005475655,None,,,,,,,,,34,001,2019_Dec_25_1420,untitled,3.1.0,60.17064392864929,
011,R,M,90,R,N,011RM090RN,HRN,0,161,161,98,,,0.763,559.189282700012,559.5319665000425,559.5488405000069,559.8319715000107,559.8491307000513,None,down,1.4167376999976113,559.8491307000513,None,559.8491307000513,560.5977575000143,0.06539159995736554,None,,,,,,,,,34,001,2019_Dec_25_1420,untitled,3.1.0,60.17064392864929,
393,_4,M,0,R,N,393_4M000RN,HRN,0,162,162,160,,,1.115,561.3480665000388,561.6800642000162,561.6964634000324,561.9801928000525,561.9964848000091,None,down,2.36534209997626,561.9964848000091,None,561.9964848000091,563.095730400004,0.07375799998408183,None,,,,,,,,,34,001,2019_Dec_25_1420,untitled,3.1.0,60.17064392864929,
293,_2,N,180,L,N,293_2N180LN,HLN,0,163,163,252,,,1.002,564.4326132000424,564.7776658000075,564.7941115000285,565.0773373999982,565.0937462000293,None,down,2.066734299995005,565.0937462000293,None,565.0937462000293,566.0761345000356,0.06423269998049363,None,,,,,,,,,34,001,2019_Dec_25_1420,untitled,3.1.0,60.17064392864929,
388,_4,N,135,R,N,388_4N135RN,HRN,0,164,164,259,,,1.129,567.2414616000024,567.5750161000178,567.5916241000523,567.874561100034,567.8912137000007,None,up,2.4510958999744616,567.8912137000007,None,567.8912137000007,569.0067164000357,0.07292850001249462,None,,,,,,,,,34,001,2019_Dec_25_1420,untitled,3.1.0,60.17064392864929,
012,R,M,135,R,N,012RM135RN,HRN,0,165,165,99,,,1.32,570.4246535000275,570.7559697999968,570.7722768000094,571.055708000029,571.0720302000409,None,down,2.3823004000005312,571.0720302000409,None,571.0720302000409,572.3706712000421,0.0728817000053823,None,,,,,,,,,34,001,2019_Dec_25_1420,untitled,3.1.0,60.17064392864929,
129,F,N,0,R,N,129FN000RN,HRN,0,166,166,208,,,0.853,573.5479068999994,573.8693670000066,573.8859594000387,574.1692177000223,574.1856700000353,None,up,2.250743100012187,574.1856700000353,None,574.1856700000353,575.0182115000207,0.08514500001911074,None,,,,,,,,,34,001,2019_Dec_25_1420,untitled,3.1.0,60.17064392864929,
265,_2,M,0,R,N,265_2M000RN,HRN,0,167,167,144,,,1.342,576.5038998000091,576.8505426000338,576.8672969000181,577.1505620000535,577.1670013000257,None,down,2.3335744999931194,577.1670013000257,None,577.1670013000257,578.4985922000487,0.0607929999823682,None,,,,,,,,,34,001,2019_Dec_25_1420,untitled,3.1.0,60.17064392864929,
198,G,N,225,R,N,198GN225RN,HRN,0,168,168,229,,,0.796,579.5851353000035,579.914006200037,579.9308464000351,580.2139872999978,580.2305281000445,None,up,2.0341239999979734,580.2305281000445,None,580.2305281000445,581.0133825000376,0.0760887999786064,None,,,,,,,,,34,001,2019_Dec_25_1420,untitled,3.1.0,60.17064392864929,
_,G,M,135,_,_,_GM135__,N,0,169,169,11,,,1.0210000000000001,582.343056200014,582.6788048000308,582.6952783000306,582.9785607000231,582.9947102000006,None,down,2.031917300017085,582.9947102000006,None,582.9947102000006,583.9935042000143,0.06905120000010356,None,,,,,,,,,34,001,2019_Dec_25_1420,untitled,3.1.0,60.17064392864929,
_,_2,N,315,_,_,__2N315__,N,0,170,170,79,,,0.721,585.1044285000535,585.4427703000256,585.4592901000287,585.7424896000302,585.7591735000024,None,up,1.635718800011091,585.7591735000024,None,585.7591735000024,586.4580566000077,0.07049720000941306,None,,,,,,,,,34,001,2019_Dec_25_1420,untitled,3.1.0,60.17064392864929,
297,_2,M,0,L,N,297_2M000LN,HLN,0,171,171,152,,,0.7000000000000001,587.4684277000488,587.8070831000223,587.8241604000214,588.10716340004,588.1239163000137,None,down,1.5175609999569133,588.1239163000137,None,588.1239163000137,588.8074429000262,0.06531890004407614,None,,,,,,,,,34,001,2019_Dec_25_1420,untitled,3.1.0,60.17064392864929,
_,_2,N,270,_,_,__2N270__,N,0,172,172,78,,,1.052,589.7262769000372,590.0551648000255,590.0719127000193,590.3549232000369,590.3714877000311,None,up,1.8179473000345752,590.3714877000311,None,590.3714877000311,591.4039989000303,0.07627289998345077,None,,,,,,,,,34,001,2019_Dec_25_1420,untitled,3.1.0,60.17064392864929,
194,G,N,45,R,N,194GN045RN,HRN,0,173,173,225,,,1.01,592.261924200051,592.6034278000006,592.6199606000446,592.9032701000106,592.9195989000145,None,up,2.236136899970006,592.9195989000145,None,592.9195989000145,593.9187863999978,0.06582709995564073,None,,,,,,,,,34,001,2019_Dec_25_1420,untitled,3.1.0,60.17064392864929,
453,_5,N,180,R,N,453_5N180RN,HRN,0,174,174,276,,,0.786,595.2504431999987,595.5674556000158,595.5842714000028,595.8665652000345,595.8839413000387,None,down,1.699181999952998,595.8839413000387,None,595.8839413000387,596.6663255000021,0.08417360001476482,None,,,,,,,,,34,001,2019_Dec_25_1420,untitled,3.1.0,60.17064392864929,
013,R,M,180,R,N,013RM180RN,HRN,0,175,175,100,,,1.225,597.6656693000114,598.0000430000364,598.0156723000109,598.297920400044,598.3144309000345,None,down,2.048990200040862,598.3144309000345,None,598.3144309000345,599.530502700014,0.07222780003212392,None,,,,,,,,,34,001,2019_Dec_25_1420,untitled,3.1.0,60.17064392864929,
_,R,N,90,_,_,_RN090__,N,0,176,176,66,,,1.101,600.4333104999969,600.7793304000515,600.7955882000388,601.079693000007,601.0982614000095,None,up,2.3459991999552585,601.0982614000095,None,601.0982614000095,602.1783883000026,0.06292420002864674,None,,,,,,,,,34,001,2019_Dec_25_1420,untitled,3.1.0,60.17064392864929,
_,G,N,315,_,_,_GN315__,N,0,177,177,63,,,1.17,603.5150370000047,603.860846000025,603.8773279000307,604.1608237000182,604.1761617000448,None,up,2.2324551999918185,604.1761617000448,None,604.1761617000448,605.3252545000287,0.06386400002520531,None,,,,,,,,,34,001,2019_Dec_25_1420,untitled,3.1.0,60.17064392864929,
_,_2,N,0,_,_,__2N000__,N,0,178,178,72,,,1.0210000000000001,606.4832593000028,606.8240552000352,606.8408455000026,607.1238147999975,607.1416205000132,None,up,2.049580999999307,607.1416205000132,None,607.1416205000132,608.1408753000433,0.06579919997602701,None,,,,,,,,,34,001,2019_Dec_25_1420,untitled,3.1.0,60.17064392864929,
432,_4,M,315,L,N,432_4M315LN,HLN,0,179,179,175,,,0.993,609.2756490000174,609.6054428000352,609.6217217000085,609.904963500041,609.9223428000114,None,up,2.233241999987513,609.9223428000114,None,609.9223428000114,610.9039948999998,0.07469889998901635,None,,,,,,,,,34,001,2019_Dec_25_1420,untitled,3.1.0,60.17064392864929,
304,_2,M,315,L,N,304_2M315LN,HLN,0,180,180,159,,,0.893,612.2368315000203,612.5693208000157,612.585844300047,612.8686829000362,612.8857076000422,None,down,2.565325199975632,612.8857076000422,None,612.8857076000422,613.7708334000199,0.0730380000313744,None,,,,,,,,,34,001,2019_Dec_25_1420,untitled,3.1.0,60.17064392864929,
165,F,N,180,L,N,165FN180LN,HLN,0,181,181,220,,,1.349,615.5255444000359,615.866075500031,615.8829498999985,616.1662234000396,616.1832606000244,None,down,2.1816272000432946,616.1832606000244,None,616.1832606000244,617.5150735000498,0.06723470002179965,None,,,,,,,,,34,001,2019_Dec_25_1420,untitled,3.1.0,60.17064392864929,
_,R,M,0,_,_,_RM000__,N,0,182,182,16,,,1.264,618.4542775000446,618.7800738000078,618.797510000004,619.0809900000459,619.098478400032,None,up,2.829840799968224,619.098478400032,None,619.098478400032,620.3456691000029,0.07982709998032078,None,,,,,,,,,34,001,2019_Dec_25_1420,untitled,3.1.0,60.17064392864929,
_,_4,N,180,_,_,__4N180__,N,0,183,183,84,,,0.768,621.9930263000424,622.3444473000127,622.3606981000048,622.6435376000009,622.6611518000136,None,down,2.4350973999826238,622.6611518000136,None,622.6611518000136,623.4090603000368,0.05801169999176636,None,,,,,,,,,34,001,2019_Dec_25_1420,untitled,3.1.0,60.17064392864929,
_,G,N,180,_,_,_GN180__,N,0,184,184,60,,,1.191,625.1919943999965,625.5076361999963,625.5248478000285,625.8076579000335,625.8244713000022,None,down,1.9820520000066608,625.8244713000022,None,625.8244713000022,627.006351100048,0.08298080001259223,None,,,,,,,,,34,001,2019_Dec_25_1420,untitled,3.1.0,60.17064392864929,
174,F,M,225,L,N,174FM225LN,HLN,0,185,185,125,,,1.243,627.8813213999965,628.2217438000371,628.2390128000407,628.5217970000231,628.5389013999957,None,down,2.6811439999728464,628.5389013999957,None,628.5389013999957,629.7708901000442,0.06749849999323487,None,,,,,,,,,34,001,2019_Dec_25_1420,untitled,3.1.0,60.17064392864929,
240,G,M,315,L,N,240GM315LN,HLN,0,186,186,143,,,0.705,631.2859836000134,631.6363513999968,631.6525433000061,631.9358571000048,631.9524393000174,None,down,1.8649433000246063,631.9524393000174,None,631.9524393000174,632.6348629000131,0.05864310002652928,None,,,,,,,,,34,001,2019_Dec_25_1420,untitled,3.1.0,60.17064392864929,
_,_4,M,135,_,_,__4M135__,N,0,187,187,35,,,0.776,633.897529800015,634.2333540000254,634.2500314000063,634.5327073000371,634.5497068000259,None,down,1.599432999966666,634.5497068000259,None,634.5497068000259,635.3156581000076,0.0718382999766618,None,,,,,,,,,34,001,2019_Dec_25_1420,untitled,3.1.0,60.17064392864929,
132,F,N,135,R,N,132FN135RN,HRN,0,188,188,211,,,1.35,636.2392703000223,636.5654392000288,636.5815690000309,636.864686600049,636.8812870000256,None,down,2.214752400002908,636.8812870000256,None,636.8812870000256,638.2129967000219,0.08076230000006035,None,,,,,,,,,34,001,2019_Dec_25_1420,untitled,3.1.0,60.17064392864929,
264,_2,N,315,R,N,264_2N315RN,HRN,0,189,189,247,,,0.745,639.1642628000118,639.5120223000413,639.5285201000515,639.8120072000311,639.8282383000478,None,up,1.9501894999993965,639.8282383000478,None,639.8282383000478,640.561098300037,0.061647099966648966,None,,,,,,,,,34,001,2019_Dec_25_1420,untitled,3.1.0,60.17064392864929,
_,F,M,315,_,_,_FM315__,N,0,190,190,7,,,1.305,641.8461615000269,642.1930032000528,642.2096618000069,642.4924103000085,642.5094261000049,None,up,2.3986212000017986,642.5094261000049,None,642.5094261000049,643.791857800039,0.06097809999482706,None,,,,,,,,,34,001,2019_Dec_25_1420,untitled,3.1.0,60.17064392864929,
458,_5,M,45,R,N,458_5M045RN,HRN,0,191,191,177,,,1.2530000000000001,644.9861201000167,645.3236867000232,645.3402953000041,645.6233478000504,645.6398550000158,None,down,2.5014483999693766,645.6398550000158,None,645.6398550000158,646.8721796000027,0.07040160003816709,None,,,,,,,,,34,001,2019_Dec_25_1420,untitled,3.1.0,60.17064392864929,
004,R,N,135,R,N,004RN135RN,HRN,0,192,192,195,,,1.258,648.2082391000004,648.5539681000519,648.571091699996,648.8542648000293,648.8707916000276,None,up,3.0321335999760777,648.8707916000276,None,648.8707916000276,650.1032028000336,0.05998429999453947,None,,,,,,,,,34,001,2019_Dec_25_1420,untitled,3.1.0,60.17064392864929,
_,_4,M,180,_,_,__4M180__,N,0,193,193,36,,,0.722,651.9728248000029,652.3171894000261,652.3348731000442,652.6176266000257,652.6343046000111,None,down,1.998783499991987,652.6343046000111,None,652.6343046000111,653.3337581000524,0.05957939999643713,None,,,,,,,,,34,001,2019_Dec_25_1420,untitled,3.1.0,60.17064392864929,
_,_4,N,315,_,_,__4N315__,N,0,194,194,87,,,0.754,654.7053762000287,655.0486716000014,655.0651278000441,655.3485193000524,655.3658991000266,None,up,1.7313264000113122,655.3658991000266,None,655.3658991000266,656.0978585000266,0.06514289998449385,None,,,,,,,,,34,001,2019_Dec_25_1420,untitled,3.1.0,60.17064392864929,
201,G,M,0,R,N,201GM000RN,HRN,0,195,195,128,,,0.921,657.1692727000336,657.5139937000349,657.5301811000099,657.8148579000263,657.8302212000126,None,down,1.9821368000120856,657.8302212000126,None,657.8302212000126,658.7293595000519,0.06415900000138208,None,,,,,,,,,34,001,2019_Dec_25_1420,untitled,3.1.0,60.17064392864929,
_,_5,N,225,_,_,__5N225__,N,0,196,196,93,,,1.337,659.8834737000288,660.2272245000349,660.2438240000047,660.5271751999971,660.5436963000102,None,down,2.4485896000405774,660.5436963000102,None,660.5436963000102,661.8594510999974,0.06464380002580583,None,,,,,,,,,34,001,2019_Dec_25_1420,untitled,3.1.0,60.17064392864929,
426,_4,M,45,L,N,426_4M045LN,HLN,0,197,197,169,,,1.346,663.0617489000433,663.4079891000292,663.4247621000395,663.707922200032,663.7244213000522,None,up,2.582774700014852,663.7244213000522,None,663.7244213000522,665.057420200028,0.06164520001038909,None,,,,,,,,,34,001,2019_Dec_25_1420,untitled,3.1.0,60.17064392864929,
015,R,M,270,R,N,015RM270RN,HRN,0,198,198,102,,,0.91,666.4017185000121,666.7221437999979,666.7386592000257,667.0220355000347,667.0385722000501,None,down,2.466287099989131,667.0385722000501,None,667.0385722000501,667.9374034000211,0.08401640004012734,None,,,,,,,,,34,001,2019_Dec_25_1420,untitled,3.1.0,60.17064392864929,
_,_2,M,225,_,_,__2M225__,N,0,199,199,29,,,1.203,669.6054797000252,669.9190101000131,669.9363368000486,670.2198926000274,670.2358468000311,None,up,2.415148700005375,670.2358468000311,None,670.2358468000311,671.4177575000213,0.0917516999761574,None,,,,,,,,,34,001,2019_Dec_25_1420,untitled,3.1.0,60.17064392864929,
_,_4,N,0,_,_,__4N000__,N,0,200,200,80,,,1.07,672.7429071000079,673.0667577999993,673.0833094000118,673.3658901000163,673.3824124000384,None,up,2.399087600002531,673.3824124000384,None,673.3824124000384,674.4316922000144,0.0819467999972403,None,,,,,,,,,34,001,2019_Dec_25_1420,untitled,3.1.0,60.17064392864929,
169,F,M,0,L,N,169FM000LN,HLN,0,201,201,120,,,1.205,675.8606218000059,676.1966022000415,676.2133815000416,676.4964719000272,676.5133133000345,None,down,2.5815829999628477,676.5133133000345,None,676.5133133000345,677.6955937000457,0.0719439999666065,None,,,,,,,,,34,001,2019_Dec_25_1420,untitled,3.1.0,60.17064392864929,
226,G,N,45,L,N,226GN045LN,HLN,0,202,202,233,,,1.0050000000000001,679.1625792999985,679.5105901000206,679.5272101000301,679.8109853000497,679.8274000000092,None,up,2.317011399951298,679.8274000000092,None,679.8274000000092,680.8122907000361,0.060355099965818226,None,,,,,,,,,34,001,2019_Dec_25_1420,untitled,3.1.0,60.17064392864929,
396,_4,M,135,R,N,396_4M135RN,HRN,0,203,203,163,,,1.3880000000000001,682.230332200008,682.5582308000303,682.5746116000228,682.8581298000063,682.8753024000325,None,up,2.6808618000359274,682.8753024000325,None,682.8753024000325,684.2402139000478,0.07778320001671091,None,,,,,,,,,34,001,2019_Dec_25_1420,untitled,3.1.0,60.17064392864929,
488,_5,N,315,L,N,488_5N315LN,HLN,0,204,204,287,,,0.841,685.6367308000335,685.972139200021,685.9885138000245,686.2719194000238,686.288923700049,None,up,1.98218650004128,686.288923700049,None,686.288923700049,687.1204610000132,0.07226510002510622,None,,,,,,,,,34,001,2019_Dec_25_1420,untitled,3.1.0,60.17064392864929,
_,_4,M,315,_,_,__4M315__,N,0,205,205,39,,,1.358,688.3529149999958,688.6862094000098,688.7027149000205,688.9856455000117,689.0027711000293,None,up,2.2650605000089854,689.0027711000293,None,689.0027711000293,690.351369400043,0.07278940000105649,None,,,,,,,,,34,001,2019_Dec_25_1420,untitled,3.1.0,60.17064392864929,
_,F,N,0,_,_,_FN000__,N,0,206,206,48,,,0.875,691.3480595000437,691.6835360000259,691.6999460000079,691.9834872000501,691.9997839000425,None,up,1.8492090000072494,691.9997839000425,None,691.9997839000425,692.8498941000435,0.07312199997249991,None,,,,,,,,,34,001,2019_Dec_25_1420,untitled,3.1.0,60.17064392864929,
427,_4,M,90,L,N,427_4M090LN,HLN,0,207,207,170,,,1.247,693.9319297000184,694.2648471000139,694.281412500015,694.5643675000174,694.581105600053,None,up,2.081895600014832,694.581105600053,None,694.581105600053,695.8326569000492,0.07352669996907935,None,,,,,,,,,34,001,2019_Dec_25_1420,untitled,3.1.0,60.17064392864929,
484,_5,N,135,L,N,484_5N135LN,HLN,0,208,208,283,,,0.928,696.7300499000121,697.0790213000146,697.0955737000331,697.3789634000277,697.3959067999967,None,up,2.483114900009241,697.3959067999967,None,697.3959067999967,698.3111176000093,0.0600183000206016,None,,,,,,,,,34,001,2019_Dec_25_1420,untitled,3.1.0,60.17064392864929,
_,_4,M,0,_,_,__4M000__,N,0,209,209,32,,,1.278,699.9613390000304,700.2928013000055,700.3097323999973,700.5927760000341,700.6091637000209,None,up,2.6149166999966837,700.6091637000209,None,700.6091637000209,701.8742571000475,0.07332649995805696,None,,,,,,,,,34,001,2019_Dec_25_1420,untitled,3.1.0,60.17064392864929,
197,G,N,180,R,N,197GN180RN,HRN,0,210,210,228,,,1.4000000000000001,703.2905980000505,703.6395620999974,703.6575174000463,703.9394988000276,703.9571729000309,None,down,2.8471087000216357,703.9571729000309,None,703.9571729000309,705.3383990000002,0.05958280002232641,None,,,,,,,,,34,001,2019_Dec_25_1420,untitled,3.1.0,60.17064392864929,
457,_5,M,0,R,N,457_5M000RN,HRN,0,211,211,176,,,1.172,706.8859596000402,707.2203841000446,707.2367203000467,707.5198256000294,707.5366231000517,None,down,2.3320410000160336,707.5366231000517,None,707.5366231000517,708.6848850000533,0.07367170002544299,None,,,,,,,,,34,001,2019_Dec_25_1420,untitled,3.1.0,60.17064392864929,
_,F,M,180,_,_,_FM180__,N,0,212,212,4,,,1.107,709.9377749999985,710.2836933000362,710.300526200037,710.583621400001,710.6003885000246,None,down,1.9653566000051796,710.6003885000246,None,710.6003885000246,711.6825417000218,0.06170739996014163,None,,,,,,,,,34,001,2019_Dec_25_1420,untitled,3.1.0,60.17064392864929,
386,_4,N,45,R,N,386_4N045RN,HRN,0,213,213,257,,,0.749,712.6356273000129,712.9818954000366,712.9983659000136,713.2814379000338,713.2984021000448,None,up,2.647677399974782,713.2984021000448,None,713.2984021000448,714.0306997000007,0.063003099989146,None,,,,,,,,,34,001,2019_Dec_25_1420,untitled,3.1.0,60.17064392864929,
229,G,N,180,L,N,229GN180LN,HLN,0,214,214,236,,,1.074,716.0195366000407,716.3628124000388,716.379129900015,716.6619806000381,716.6785661000176,None,down,1.8998413999797776,716.6785661000176,None,716.6785661000176,717.7273523000185,0.06626729998970404,None,,,,,,,,,34,001,2019_Dec_25_1420,untitled,3.1.0,60.17064392864929,
006,R,N,225,R,N,006RN225RN,HRN,0,215,215,197,,,0.81,718.6467766000424,718.9931916000205,719.0099304000032,719.2931499000406,719.3096101999981,None,up,1.8487021999899298,719.3096101999981,None,719.3096101999981,720.108665000007,0.06196840002667159,None,,,,,,,,,34,001,2019_Dec_25_1420,untitled,3.1.0,60.17064392864929,
172,F,M,135,L,N,172FM135LN,HLN,0,216,216,123,,,0.85,721.2302292000386,721.5738404000294,721.5903857000521,721.8737408000161,721.8902660000022,None,down,2.2341645999695174,721.8902660000022,None,721.8902660000022,722.723105800047,0.0651936000213027,None,,,,,,,,,34,001,2019_Dec_25_1420,untitled,3.1.0,60.17064392864929,
_,G,N,45,_,_,_GN045__,N,0,217,217,57,,,0.845,724.1894753000233,724.5384150000173,724.5548248999985,724.8380418000161,724.8546341000474,None,up,1.9325697000022046,724.8546341000474,None,724.8546341000474,725.6874391000019,0.05792789999395609,None,,,,,,,,,34,001,2019_Dec_25_1420,untitled,3.1.0,60.17064392864929,
_,F,M,270,_,_,_FM270__,N,0,218,218,6,,,1.22,726.8557800000417,727.2030346000101,727.2196162000182,727.5031412000535,727.5195020000101,None,down,2.2985132000176236,727.5195020000101,None,727.5195020000101,728.7177011000458,0.06121429998893291,None,,,,,,,,,34,001,2019_Dec_25_1420,untitled,3.1.0,60.17064392864929,
_,R,M,135,_,_,_RM135__,N,0,219,219,19,,,0.803,729.8870728000184,730.2335492999991,730.250385100022,730.5328019000008,730.549364400038,None,up,2.015853299992159,730.549364400038,None,730.549364400038,731.3321713000187,0.06265350000467151,None,,,,,,,,,34,001,2019_Dec_25_1420,untitled,3.1.0,60.17064392864929,
420,_4,N,135,L,N,420_4N135LN,HLN,0,220,220,267,,,0.8250000000000001,732.635837400041,732.9808250000351,732.9975476000109,733.2800719000516,733.2966315000085,None,down,2.0353705000015907,733.2966315000085,None,733.2966315000085,734.0968938000151,0.06271389999892563,None,,,,,,,,,34,001,2019_Dec_25_1420,untitled,3.1.0,60.17064392864929,
042,R,M,45,L,N,042RM045LN,HLN,0,221,221,105,,,1.072,735.4216379999998,735.745420100051,735.7616066000191,736.0449959000107,736.0612563000177,None,down,2.2340785000124015,736.0612563000177,None,736.0612563000177,737.1270046000136,0.08093180001014844,None,,,,,,,,,34,001,2019_Dec_25_1420,untitled,3.1.0,60.17064392864929,
303,_2,M,270,L,N,303_2M270LN,HLN,0,222,222,158,,,0.8210000000000001,738.3604124000412,738.7091110000038,738.7258018000284,739.0093472000444,739.0262368000112,None,up,1.8832813000190072,739.0262368000112,None,739.0262368000112,739.8247933000093,0.05780489998869598,None,,,,,,,,,34,001,2019_Dec_25_1420,untitled,3.1.0,60.17064392864929,
137,F,M,0,R,N,137FM000RN,HRN,0,223,223,112,,,1.0130000000000001,740.9759145000135,741.3460295000114,741.358081900049,741.6235008000513,741.6402623000322,None,down,2.1152501000324264,741.6402623000322,None,741.6402623000322,742.6392275000107,0.05948910000734031,None,,,,,,,,,34,001,2019_Dec_25_1420,untitled,3.1.0,60.17064392864929,
_,G,N,90,_,_,_GN090__,N,0,224,224,58,,,0.885,743.8372361000511,744.1710386000341,744.187762400019,744.4706314000068,744.4873583000153,None,up,3.0011600999860093,744.4873583000153,None,744.4873583000153,745.353245300008,0.07509430003119633,None,,,,,,,,,34,001,2019_Dec_25_1420,untitled,3.1.0,60.17064392864929,
_,G,M,180,_,_,_GM180__,N,0,225,225,12,,,0.851,747.582403300039,747.90102260001,747.9178919999977,748.2008552000043,748.2174978000112,None,down,1.7153874000068754,748.2174978000112,None,748.2174978000112,749.0495821000077,0.08296759997028857,None,,,,,,,,,34,001,2019_Dec_25_1420,untitled,3.1.0,60.17064392864929,
259,_2,N,90,R,N,259_2N090RN,HRN,0,226,226,242,,,0.868,750.0199702000245,750.3493438000442,750.3672111000051,750.649624600017,750.6658503000508,None,up,2.0150169999687932,750.6658503000508,None,750.6658503000508,751.5144895000267,0.07916710001882166,None,,,,,,,,,34,001,2019_Dec_25_1420,untitled,3.1.0,60.17064392864929,
490,_5,M,45,L,N,490_5M045LN,HLN,0,227,227,185,,,0.911,752.7671747000422,753.0966358000296,753.1136144000338,753.3965545000392,753.4131875000312,None,down,2.848937200033106,753.4131875000312,None,753.4131875000312,754.3118279000046,0.07868799997959286,None,,,,,,,,,34,001,2019_Dec_25_1420,untitled,3.1.0,60.17064392864929,
298,_2,M,45,L,N,298_2M045LN,HLN,0,228,228,153,,,0.8190000000000001,756.3580748999957,756.6767020000261,756.693705200043,756.9766533000511,756.9937126000295,None,down,1.6991269999998622,756.9937126000295,None,756.9937126000295,757.7921245000325,0.08751699997810647,None,,,,,,,,,34,001,2019_Dec_25_1420,untitled,3.1.0,60.17064392864929,
_,F,M,135,_,_,_FM135__,N,0,229,229,3,,,1.123,758.7807520000497,759.1082007000223,759.125730800035,759.4076468000421,759.4246868000482,None,down,2.349562200019136,759.4246868000482,None,759.4246868000482,760.5403007999994,0.07822959998156875,None,,,,,,,,,34,001,2019_Dec_25_1420,untitled,3.1.0,60.17064392864929,
033,R,N,0,L,N,033RN000LN,HLN,0,230,230,200,,,0.805,761.8619779000292,762.1894408000517,762.2061748999986,762.4887916000444,762.5061777000083,None,up,1.5990926999947987,762.5061777000083,None,762.5061777000083,763.2877745000296,0.07992540003033355,None,,,,,,,,,34,001,2019_Dec_25_1420,untitled,3.1.0,60.17064392864929,
_,_2,N,225,_,_,__2N225__,N,0,231,231,77,,,0.932,764.1828688000096,764.5198119000415,764.5374521000194,764.8199128000415,764.8366128000198,None,up,1.9820261999848299,764.8366128000198,None,764.8366128000198,765.7519780000439,0.07062240003142506,None,,,,,,,,,34,001,2019_Dec_25_1420,untitled,3.1.0,60.17064392864929,
_,F,M,0,_,_,_FM000__,N,0,232,232,0,,,1.306,766.8939524000161,767.2341324000154,767.2507582000108,767.5336537000258,767.5504024000256,None,down,2.117207400035113,767.5504024000256,None,767.5504024000256,768.832933800004,0.0681773999822326,None,,,,,,,,,34,001,2019_Dec_25_1420,untitled,3.1.0,60.17064392864929,
296,_2,N,315,L,N,296_2N315LN,HLN,0,233,233,255,,,0.836,769.7640711000422,770.0830156000447,770.0990629000007,770.3816931000329,770.3984969000448,None,down,1.7484668000251986,770.3984969000448,None,770.3984969000448,771.2310401000432,0.08270339999580756,None,,,,,,,,,34,001,2019_Dec_25_1420,untitled,3.1.0,60.17064392864929,
_,F,M,90,_,_,_FM090__,N,0,234,234,2,,,1.0130000000000001,772.2139287000173,772.5635898000328,772.5800614000182,772.8627310000011,772.8796097000013,None,down,2.433456300001126,772.8796097000013,None,772.8796097000013,773.8786195000284,0.059993700007908046,None,,,,,,,,,34,001,2019_Dec_25_1420,untitled,3.1.0,60.17064392864929,
005,R,N,180,R,N,005RN180RN,HRN,0,235,235,196,,,1.335,775.3790664999979,775.7271377000143,775.7438927000039,776.026573900017,776.0431660000468,None,down,2.067131199990399,776.0431660000468,None,776.0431660000468,777.3588193000178,0.059217400033958256,None,,,,,,,,,34,001,2019_Dec_25_1420,untitled,3.1.0,60.17064392864929,
291,_2,N,90,L,N,291_2N090LN,HLN,0,236,236,250,,,0.878,778.193565500027,778.5248301000101,778.5410536000272,778.8241301000235,778.8408887000405,None,up,1.7668043000157923,778.8408887000405,None,778.8408887000405,779.7071631000144,0.07421480002813041,None,,,,,,,,,34,001,2019_Dec_25_1420,untitled,3.1.0,60.17064392864929,
496,_5,M,315,L,N,496_5M315LN,HLN,0,237,237,191,,,1.3920000000000001,780.6913829999976,781.0222184000304,781.0389348000172,781.3221123000258,781.3385452000075,None,down,2.5152105999877676,781.3385452000075,None,781.3385452000075,782.7209077000152,0.07494720001704991,None,,,,,,,,,34,001,2019_Dec_25_1420,untitled,3.1.0,60.17064392864929,
_,R,M,315,_,_,_RM315__,N,0,238,238,23,,,0.719,783.9261596000288,784.2694686000468,784.2862258000532,784.5702912000124,784.5862173000351,None,down,1.8985240000183694,784.5862173000351,None,784.5862173000351,785.2852028000052,0.06441450002603233,None,,,,,,,,,34,001,2019_Dec_25_1420,untitled,3.1.0,60.17064392864929,
_,_5,M,180,_,_,__5M180__,N,0,239,239,44,,,1.317,786.5589750000509,786.9008640000247,786.9174501000089,787.200009800028,787.216994700022,None,down,2.2699020000291057,787.216994700022,None,787.216994700022,788.5161601,0.06696720002219081,None,,,,,,,,,34,001,2019_Dec_25_1420,untitled,3.1.0,60.17064392864929,
294,_2,N,225,L,N,294_2N225LN,HLN,0,240,240,253,,,0.861,789.5864858000423,789.8981005000533,789.914527600049,790.1977129000006,790.2141696000472,None,up,1.9657876000273973,790.2141696000472,None,790.2141696000472,791.0635792000103,0.08874530001776293,None,,,,,,,,,34,001,2019_Dec_25_1420,untitled,3.1.0,60.17064392864929,
_,_2,M,0,_,_,__2M000__,N,0,241,241,24,,,0.704,792.268215899996,792.5955285000382,792.612486900005,792.8967149000382,792.911917600024,None,down,2.1347231999970973,792.911917600024,None,792.911917600024,793.5949637000449,0.07950140000320971,None,,,,,,,,,34,001,2019_Dec_25_1420,untitled,3.1.0,60.17064392864929,
260,_2,N,135,R,N,260_2N135RN,HRN,0,242,242,243,,,0.85,795.1247778999968,795.4595447000465,795.4762010000413,795.7593405000516,795.7760530000087,None,up,2.648231500003021,795.7760530000087,None,795.7760530000087,796.6086329000536,0.0691763999639079,None,,,,,,,,,34,001,2019_Dec_25_1420,untitled,3.1.0,60.17064392864929,
001,R,N,0,R,N,001RN000RN,HRN,0,243,243,192,,,0.789,798.5055980000179,798.8403692000429,798.8569501000457,799.1404909000266,799.156964200025,None,up,1.9837611999828368,799.156964200025,None,799.156964200025,799.9224192000111,0.07349949999479577,None,,,,,,,,,34,001,2019_Dec_25_1420,untitled,3.1.0,60.17064392864929,
176,F,M,315,L,N,176FM315LN,HLN,0,244,244,127,,,0.749,801.2094022000092,801.5545350000029,801.5711945000221,801.8542007000069,801.8707075000275,None,down,1.6491237000445835,801.8707075000275,None,801.8707075000275,802.6033406000352,0.06161279999651015,None,,,,,,,,,34,001,2019_Dec_25_1420,untitled,3.1.0,60.17064392864929,
_,_2,N,90,_,_,__2N090__,N,0,245,245,74,,,1.357,803.5878510000184,803.9360551999998,803.952931100037,804.2356746000005,804.2522561000078,None,up,2.250065199972596,804.2522561000078,None,804.2522561000078,805.584854500019,0.061121500039007515,None,,,,,,,,,34,001,2019_Dec_25_1420,untitled,3.1.0,60.17064392864929,
272,_2,M,315,R,N,272_2M315RN,HRN,0,246,246,151,,,1.1320000000000001,806.5691100000404,806.9163253000006,806.9331834000186,807.2161988000153,807.2342156000086,None,down,2.4986008999985643,807.2342156000086,None,807.2342156000086,808.3488370000268,0.05995759996585548,None,,,,,,,,,34,001,2019_Dec_25_1420,untitled,3.1.0,60.17064392864929,
040,R,N,315,L,N,040RN315LN,HLN,0,247,247,207,,,0.717,809.8110948000103,810.1473206000519,810.1631684000022,810.446841099998,810.4631617999985,None,up,2.448716399958357,810.4631617999985,None,810.4631617999985,811.1633787000319,0.07087709999177605,None,,,,,,,,,34,001,2019_Dec_25_1420,untitled,3.1.0,60.17064392864929,
292,_2,N,135,L,N,292_2N135LN,HLN,0,248,248,251,,,1.348,812.9933627000428,813.3273101000232,813.3442218000419,813.6273894000333,813.6436613000114,None,up,2.315664599998854,813.6436613000114,None,813.6436613000114,814.9758395000244,0.07404430001042783,None,,,,,,,,,34,001,2019_Dec_25_1420,untitled,3.1.0,60.17064392864929,
299,_2,M,90,L,N,299_2M090LN,HLN,0,249,249,154,,,1.316,816.03745850001,816.3751206000452,816.3924719000352,816.6746983000194,816.6914775000187,None,down,2.4332962000044063,816.6914775000187,None,816.6914775000187,817.9901530000498,0.07111780002014711,None,,,,,,,,,34,001,2019_Dec_25_1420,untitled,3.1.0,60.17064392864929,
164,F,N,135,L,N,164FN135LN,HLN,0,250,250,219,,,0.967,819.2130326000042,819.5392723000259,819.5556258000433,819.8381759000476,819.8549386000377,None,up,2.3153347999905236,819.8549386000377,None,819.8549386000377,820.8042640000349,0.08046910003758967,None,,,,,,,,,34,001,2019_Dec_25_1420,untitled,3.1.0,60.17064392864929,
139,F,M,90,R,N,139FM090RN,HRN,0,251,251,114,,,0.919,822.246224100003,822.5858535000007,822.6026144000352,822.8853796000476,822.9020471000113,None,down,1.749614600033965,822.9020471000113,None,822.9020471000113,823.801482800045,0.06743369996547699,None,,,,,,,,,34,001,2019_Dec_25_1420,untitled,3.1.0,60.17064392864929,
425,_4,M,0,L,N,425_4M000LN,HLN,0,252,252,168,,,1.3960000000000001,824.7274702000432,825.0675946000265,825.0834351000376,825.3668826000066,825.3832439000253,None,down,3.2979425999801606,825.3832439000253,None,825.3832439000253,826.7658840000513,0.06814889999805018,None,,,,,,,,,34,001,2019_Dec_25_1420,untitled,3.1.0,60.17064392864929,
450,_5,N,45,R,N,450_5N045RN,HRN,0,253,253,273,,,1.092,828.7663565000403,829.0968801000272,829.113538900041,829.3968900000327,829.413133300026,None,up,1.9002278000116348,829.413133300026,None,829.413133300026,830.4793600999983,0.07714389998000115,None,,,,,,,,,34,001,2019_Dec_25_1420,untitled,3.1.0,60.17064392864929,
_,_4,N,135,_,_,__4N135__,N,0,254,254,83,,,1.092,831.3806463000365,831.7282715000329,831.7447790000006,832.0280589000322,832.0446097000386,None,up,2.265271099982783,832.0446097000386,None,832.0446097000386,833.1107798000448,0.060804100008681417,None,,,,,,,,,34,001,2019_Dec_25_1420,untitled,3.1.0,60.17064392864929,
397,_4,M,180,R,N,397_4M180RN,HRN,0,255,255,164,,,1.173,834.380219600047,834.7253443000372,834.7421570000006,835.0251137000159,835.041379000002,None,down,2.082644900016021,835.041379000002,None,835.041379000002,836.1905480000423,0.06333659996744245,None,,,,,,,,,34,001,2019_Dec_25_1420,untitled,3.1.0,60.17064392864929,
261,_2,N,180,R,N,261_2N180RN,HRN,0,256,256,244,,,1.289,837.193929400004,837.539612499997,837.5563887000317,837.8394061000436,837.8560071000247,None,down,2.165229999984149,837.8560071000247,None,837.8560071000247,839.1216756000067,0.06356320000486448,None,,,,,,,,,34,001,2019_Dec_25_1420,untitled,3.1.0,60.17064392864929,
_,_5,N,45,_,_,__5N045__,N,0,257,257,89,,,1.167,840.0899476000341,840.4365681000054,840.4535004000063,840.7366510000429,840.7535052000312,None,up,1.8987323000328615,840.7535052000312,None,840.7535052000312,841.9026863000472,0.06138290005037561,None,,,,,,,,,34,001,2019_Dec_25_1420,untitled,3.1.0,60.17064392864929,
_,_2,M,315,_,_,__2M315__,N,0,258,258,31,,,1.141,842.7258406000328,843.0684619999956,843.0845333000179,843.3678729000385,843.3846594000352,None,down,1.9984128000214696,843.3846594000352,None,843.3846594000352,844.500113200047,0.06527000002097338,None,,,,,,,,,34,001,2019_Dec_25_1420,untitled,3.1.0,60.17064392864929,
045,R,M,180,L,N,045RM180LN,HLN,0,259,259,108,,,1.395,845.4555153000401,845.7995051000034,845.8161473000073,846.0997689000214,846.1154841000098,None,down,2.2155781000037678,846.1154841000098,None,846.1154841000098,847.4977401000215,0.06463660002918914,None,,,,,,,,,34,001,2019_Dec_25_1420,untitled,3.1.0,60.17064392864929,
269,_2,M,180,R,N,269_2M180RN,HRN,0,260,260,148,,,0.793,848.412853100046,848.7470271000057,848.7639192000497,849.0472509000101,849.063052500016,None,down,2.2178883000160567,849.063052500016,None,849.063052500016,849.8457352000405,0.07422599999699742,None,,,,,,,,,34,001,2019_Dec_25_1420,untitled,3.1.0,60.17064392864929,
227,G,N,90,L,N,227GN090LN,HLN,0,261,261,234,,,1.22,851.3685681000352,851.6941685000202,851.7109071000014,851.9936631000019,852.0108851999976,None,up,2.932555000006687,852.0108851999976,None,852.0108851999976,853.2093812000239,0.078068999981042,None,,,,,,,,,34,001,2019_Dec_25_1420,untitled,3.1.0,60.17064392864929,
487,_5,N,270,L,N,487_5N270LN,HLN,0,262,262,286,,,1.045,855.0458554000361,855.3576577000204,855.3745705000474,855.6576907000272,855.6744926000247,None,up,1.848121999995783,855.6744926000247,None,855.6744926000247,856.7068015999976,0.0919002000009641,None,,,,,,,,,34,001,2019_Dec_25_1420,untitled,3.1.0,60.17064392864929,
_,F,N,225,_,_,_FN225__,N,0,263,263,53,,,1.206,857.5924848000286,857.939139700029,857.954904000042,858.2388799000182,858.2553308000206,None,up,2.7831357000395656,858.2553308000206,None,858.2553308000206,859.4371096999967,0.06322230002842844,None,,,,,,,,,34,001,2019_Dec_25_1420,untitled,3.1.0,60.17064392864929,
_,F,N,180,_,_,_FN180__,N,0,264,264,52,,,0.867,861.1207444000174,861.4521102000144,861.468808100035,861.7523954000208,861.7693327000015,None,up,1.8488661000155844,861.7693327000015,None,861.7693327000015,862.6178343000356,0.07332720002159476,None,,,,,,,,,34,001,2019_Dec_25_1420,untitled,3.1.0,60.17064392864929,
208,G,M,315,R,N,208GM315RN,HRN,0,265,265,135,,,1.129,863.7159094000235,864.0333040000405,864.05004500004,864.3335212000529,864.3503061000374,None,down,2.247959300002549,864.3503061000374,None,864.3503061000374,865.4651984000229,0.08953230001498014,None,,,,,,,,,34,001,2019_Dec_25_1420,untitled,3.1.0,60.17064392864929,
200,G,N,315,R,N,200GN315RN,HRN,0,266,266,231,,,0.711,866.6751333000138,867.0152889000019,867.0305847999989,867.3139243000187,867.3309273000341,None,up,2.166890099993907,867.3309273000341,None,867.3309273000341,868.0303037000122,0.06807420001132414,None,,,,,,,,,34,001,2019_Dec_25_1420,untitled,3.1.0,60.17064392864929,
431,_4,M,270,L,N,431_4M270LN,HLN,0,267,267,174,,,1.247,869.5765268999967,869.9117012000061,869.9288030000171,870.211491700029,870.2285551000386,None,down,2.8496346000465564,870.2285551000386,None,870.2285551000386,871.4596736000385,0.07054619997506961,None,,,,,,,,,34,001,2019_Dec_25_1420,untitled,3.1.0,60.17064392864929,
014,R,M,225,R,N,014RM225RN,HRN,0,268,268,101,,,1.2650000000000001,873.1624559000484,873.4917481000302,873.5092501000036,873.7915042000241,873.807982600003,None,down,2.748252599965781,873.807982600003,None,873.807982600003,875.0566899999976,0.07768400001805276,None,,,,,,,,,34,001,2019_Dec_25_1420,untitled,3.1.0,60.17064392864929,
228,G,N,135,L,N,228GN135LN,HLN,0,269,269,235,,,1.067,876.6235718000098,876.9718829000485,876.9897513000178,877.2725451000151,877.2883101000334,None,up,2.716395299998112,877.2883101000334,None,877.2883101000334,878.3374387000222,0.05975020001642406,None,,,,,,,,,34,001,2019_Dec_25_1420,untitled,3.1.0,60.17064392864929,
_,F,M,225,_,_,_FM225__,N,0,270,270,5,,,1.35,880.0934000000125,880.4193976000533,880.4358244000468,880.7188222000259,880.7355337000336,None,down,2.8816682000178844,880.7355337000336,None,880.7355337000336,882.0688602000009,0.07869729999219999,None,,,,,,,,,34,001,2019_Dec_25_1420,untitled,3.1.0,60.17064392864929,
418,_4,N,45,L,N,418_4N045LN,HLN,0,271,271,265,,,1.143,883.686335800041,884.0325294000213,884.0490733000333,884.3327466000337,884.3496393000241,None,up,2.5980341999675147,884.3496393000241,None,884.3496393000241,885.4820839000167,0.06230900000082329,None,,,,,,,,,34,001,2019_Dec_25_1420,untitled,3.1.0,60.17064392864929,
166,F,N,225,L,N,166FN225LN,HLN,0,272,272,221,,,0.856,887.0181743000285,887.3628670000471,887.3800170000177,887.6636431000079,887.679585200036,None,up,2.3986572999856435,887.679585200036,None,887.679585200036,888.5121059000376,0.06348940002499148,None,,,,,,,,,34,001,2019_Dec_25_1420,untitled,3.1.0,60.17064392864929,
_,_2,M,45,_,_,__2M045__,N,0,273,273,25,,,0.919,890.15937020001,890.4938221000484,890.510541399999,890.7938328000018,890.8099592000362,None,up,1.949388100008946,890.8099592000362,None,890.8099592000362,891.7089842000278,0.07348640001146123,None,,,,,,,,,34,001,2019_Dec_25_1420,untitled,3.1.0,60.17064392864929,
047,R,M,270,L,N,047RM270LN,HLN,0,274,274,110,,,0.963,892.8490324000013,893.1749895000248,893.1914928000188,893.4748693000292,893.4913741000346,None,up,2.400978199962992,893.4913741000346,None,893.4913741000346,894.4425278000417,0.08064000000013039,None,,,,,,,,,34,001,2019_Dec_25_1420,untitled,3.1.0,60.17064392864929,
262,_2,N,225,R,N,262_2N225RN,HRN,0,275,275,245,,,0.999,895.9788631999982,896.3052240000106,896.3221391999978,896.605282100034,896.6217896000016,None,up,2.681388999975752,896.6217896000016,None,896.6217896000016,897.6038270000136,0.07846160000190139,None,,,,,,,,,34,001,2019_Dec_25_1420,untitled,3.1.0,60.17064392864929,
_,F,M,45,_,_,_FM045__,N,0,276,276,1,,,0.808,899.3798537999974,899.7189642000012,899.7361443000264,900.0200629000319,900.03517810005,None,down,1.7168173000100069,900.03517810005,None,900.03517810005,900.8349410000374,0.06865899998228997,None,,,,,,,,,34,001,2019_Dec_25_1420,untitled,3.1.0,60.17064392864929,
_,_4,M,90,_,_,__4M090__,N,0,277,277,34,,,0.884,901.8228093000362,902.1669001000118,902.1834233000409,902.4667726000189,902.483452400018,None,down,2.4812412000028417,902.483452400018,None,902.483452400018,903.3489563000039,0.06424550001975149,None,,,,,,,,,34,001,2019_Dec_25_1420,untitled,3.1.0,60.17064392864929,
263,_2,N,270,R,N,263_2N270RN,HRN,0,278,278,246,,,1.239,905.0450414000079,905.3807774000452,905.3966962000122,905.6805313000223,905.6969478999963,None,up,2.2814662999589927,905.6969478999963,None,905.6969478999963,906.9130477000144,0.07248319999780506,None,,,,,,,,,34,001,2019_Dec_25_1420,untitled,3.1.0,60.17064392864929,
_,_5,M,315,_,_,__5M315__,N,0,279,279,47,,,0.772,908.0488627000013,908.3948608000064,908.4112341,908.6944409999996,908.7107577000279,None,down,2.183410700003151,908.7107577000279,None,908.7107577000279,909.4610407000291,0.06370009999955073,None,,,,,,,,,34,001,2019_Dec_25_1420,untitled,3.1.0,60.17064392864929,
043,R,M,90,L,N,043RM090LN,HLN,0,280,280,106,,,0.993,910.9811333999969,911.3087356000324,911.3258370000403,911.6096420999966,911.6253252000315,None,down,2.236519699974451,911.6253252000315,None,911.6253252000315,912.6083779000328,0.07870660000480711,None,,,,,,,,,34,001,2019_Dec_25_1420,untitled,3.1.0,60.17064392864929,
134,F,N,225,R,N,134FN225RN,HRN,0,281,281,213,,,0.766,913.9616697000456,914.2724944000365,914.2896483000368,914.5726842000149,914.5893477000063,None,up,2.031829299987294,914.5893477000063,None,914.5893477000063,915.3382279000361,0.08967650000704452,None,,,,,,,,,34,001,2019_Dec_25_1420,untitled,3.1.0,60.17064392864929,
038,R,N,225,L,N,038RN225LN,HLN,0,282,282,205,,,0.913,916.6948647000245,917.0375681000296,917.0536851000506,917.3370504000341,917.3538678000332,None,up,1.649064700002782,917.3538678000332,None,917.3538678000332,918.2525001000031,0.06638250005198643,None,,,,,,,,,34,001,2019_Dec_25_1420,untitled,3.1.0,60.17064392864929,
421,_4,N,180,L,N,421_4N180LN,HLN,0,283,283,268,,,0.9510000000000001,919.0792074000346,919.417657700018,919.4347263000091,919.7183631000225,919.7348229000345,None,down,1.931720900000073,919.7348229000345,None,919.7348229000345,920.6669918000116,0.06893629999831319,None,,,,,,,,,34,001,2019_Dec_25_1420,untitled,3.1.0,60.17064392864929,
202,G,M,45,R,N,202GM045RN,HRN,0,284,284,129,,,1.051,921.733171800035,922.0828598000226,922.099379500025,922.3828589000041,922.3995033000247,None,None,,922.3995033000247,None,922.3995033000247,923.4313699000049,0.059212899999693036,None,,,,,,,,,34,001,2019_Dec_25_1420,untitled,3.1.0,60.17064392864929,
428,_4,M,135,L,N,428_4M135LN,HLN,0,285,285,171,,,0.752,925.9327646000311,926.2797341000405,926.2962632999988,926.5787685000105,926.5954223000444,925.9327646000311,down,1.6845565999974497,926.5954223000444,None,926.5954223000444,927.328462800011,0.061936500016599894,None,,,,,,,,,34,001,2019_Dec_25_1420,untitled,3.1.0,60.17064392864929,
205,G,M,180,R,N,205GM180RN,HRN,0,286,286,132,,,0.747,928.3564559000079,928.6938625000184,928.7102261999971,928.9929573000409,929.0097376000485,None,down,1.884803999972064,929.0097376000485,None,929.0097376000485,929.7429095000261,0.06803009996656328,None,,,,,,,,,34,001,2019_Dec_25_1420,untitled,3.1.0,60.17064392864929,
_,_4,N,270,_,_,__4N270__,N,0,287,287,86,,,0.854,930.9749952999991,931.3078491000342,931.3244875000091,931.6081825000001,931.6245578000089,None,up,3.1309283999726176,931.6245578000089,None,931.6245578000089,932.4569095000043,0.0712929000146687,None,,,,,,,,,34,001,2019_Dec_25_1420,untitled,3.1.0,60.17064392864929,
,,,,,,,,,,,,,,,,,,,,,,,,,,,,,934.771704600018,None,941.3160636000102,None,944.9126811000169,None,948.5429691000027,None,,,,,,,
