Number,Letter,type,Orientation,human,face_type,image,picture,trials.thisRepN,trials.thisTrialN,trials.thisN,trials.thisIndex,text.started,text.stopped,stimulus_duration,CROSS.started,CROSS.stopped,BLANK.started,BLANK.stopped,TEST.started,TEST.stopped,key_JUDGE.keys,key_JUDGE.rt,key_JUDGE.started,key_JUDGE.stopped,image_2.started,image_2.stopped,ISI.started,ISI.stopped,q1.started,q1.stopped,q2.started,q2.stopped,q3.started,q3.stopped,text_2.started,text_2.stopped,participant,session,date,expName,psychopyVersion,frameRate,
_,_2,N,90,_,_,__2N090__,N,0,0,0,74,310.0602845000103,None,1.281,323.70838530000765,324.0536445999751,324.0536445999751,324.3534348999965,324.3534348999965,None,up,2.515258700004779,324.3534348999965,None,324.3534348999965,325.63570859999163,0.0670047999592498,None,,,,,,,,,35,001,2019_Dec_25_1441,untitled,3.1.0,60.056056316336566,
231,G,N,270,L,N,231GN270LN,HLN,0,1,1,238,,,1.061,326.9839529999881,327.33405000000494,327.3513672000263,327.63414400001056,327.65011679998133,None,None,,327.65011679998133,None,327.65011679998133,328.6995279000257,0.060104799980763346,None,,,,,,,,,35,001,2019_Dec_25_1441,untitled,3.1.0,60.056056316336566,
425,_4,M,0,L,N,425_4M000LN,HLN,0,2,2,168,,,1.121,331.1849295999855,331.5309154000133,331.54686549998587,331.830249599996,331.8465336000081,331.1849295999855,up,1.9820690000196919,331.8465336000081,None,331.8465336000081,332.94531649997225,0.06263569998554885,None,,,,,,,,,35,001,2019_Dec_25_1441,untitled,3.1.0,60.056056316336566,
_,_2,M,270,_,_,__2M270__,N,0,3,3,30,,,0.937,333.89884979999624,334.2454792999779,334.2621062999824,334.5451503000222,334.56193269998766,None,down,1.9320349000045098,334.56193269998766,None,334.56193269998766,335.4803372999886,0.06269549997523427,None,,,,,,,,,35,001,2019_Dec_25_1441,untitled,3.1.0,60.056056316336566,
453,_5,N,180,R,N,453_5N180RN,HRN,0,4,4,276,,,0.766,336.5619986000238,336.9093475000118,336.92601709999144,337.2091084999847,337.22624960000394,None,down,2.4147172000375576,337.22624960000394,None,337.22624960000394,337.9754626000067,0.06132640002761036,None,,,,,,,,,35,001,2019_Dec_25_1441,untitled,3.1.0,60.056056316336566,
041,R,M,0,L,N,041RM000LN,HLN,0,5,5,104,,,1.0230000000000001,339.7144537999993,340.05662909999955,340.07386130001396,340.35593770002015,340.3726051999838,None,down,2.348556999990251,340.3726051999838,None,340.3726051999838,341.37299910001457,0.06646390003152192,None,,,,,,,,,35,001,2019_Dec_25_1441,untitled,3.1.0,60.056056316336566,
239,G,M,270,L,N,239GM270LN,HLN,0,6,6,142,,,1.02,342.7955011000158,343.1369192000129,343.1532815999817,343.43680079997284,343.4542435000185,None,down,2.897506900015287,343.4542435000185,None,343.4542435000185,344.4525082000182,0.06659449997823685,None,,,,,,,,,35,001,2019_Dec_25_1441,untitled,3.1.0,60.056056316336566,
240,G,M,315,L,N,240GM315LN,HLN,0,7,7,143,,,0.847,346.4342900000047,346.76753630000167,346.7840251000016,347.0673806000268,347.0839521000162,None,down,1.9855480000260286,347.0839521000162,None,347.0839521000162,347.91615369997453,0.07352269999682903,None,,,,,,,,,35,001,2019_Dec_25_1441,untitled,3.1.0,60.056056316336566,
139,F,M,90,R,N,139FM090RN,HRN,0,8,8,114,,,1.027,349.16494619997684,349.48134080000455,349.4981867999886,349.7811250999803,349.7980878999806,None,down,2.783577400026843,349.7980878999806,None,349.7980878999806,350.81360950000817,0.08533349999925122,None,,,,,,,,,35,001,2019_Dec_25_1441,untitled,3.1.0,60.056056316336566,
_,_2,M,45,_,_,__2M045__,N,0,9,9,25,,,1.339,352.6697428000043,352.9948447999777,353.01173289999133,353.2952664999757,353.31177979998756,None,down,3.015508599986788,353.31177979998756,None,353.31177979998756,354.64435000001686,0.07927730004303157,None,,,,,,,,,35,001,2019_Dec_25_1441,untitled,3.1.0,60.056056316336566,
171,F,M,90,L,N,171FM090LN,HLN,0,10,10,122,,,1.056,356.419819200004,356.74216199998045,356.7587692000088,357.0419243000215,357.0589833999984,None,down,2.8135064000380225,357.0589833999984,None,357.0589833999984,358.1071596000111,0.08221160003449768,None,,,,,,,,,35,001,2019_Dec_25_1441,untitled,3.1.0,60.056056316336566,
168,F,N,315,L,N,168FN315LN,HLN,0,11,11,223,,,0.88,359.94661009998526,360.28904320002766,360.30546020000475,360.5887007000274,360.6054761999985,None,up,1.9503698000335135,360.6054761999985,None,360.6054761999985,361.4705887999735,0.06672810000600293,None,,,,,,,,,35,001,2019_Dec_25_1441,untitled,3.1.0,60.056056316336566,
_,_2,M,90,_,_,__2M090__,N,0,12,12,26,,,1.306,362.6576523000258,362.9704780000029,362.9862427000189,363.26948120002635,363.2862397999852,None,down,2.8151243000174873,363.2862397999852,None,363.2862397999852,364.58470120001584,0.09211239998694509,None,,,,,,,,,35,001,2019_Dec_25_1441,untitled,3.1.0,60.056056316336566,
420,_4,N,135,L,N,420_4N135LN,HLN,0,13,13,267,,,0.8180000000000001,366.1878909000079,366.5166766999755,366.533690900018,366.8168542999774,366.83365149999736,None,up,3.031731700000819,366.83365149999736,None,366.83365149999736,367.63239320000866,0.07747729995753616,None,,,,,,,,,35,001,2019_Dec_25_1441,untitled,3.1.0,60.056056316336566,
_,_4,M,135,_,_,__4M135__,N,0,14,14,35,,,1.236,369.9387967999792,370.27993790002074,370.29631710000103,370.57962700002827,370.5967706000083,None,down,3.398672199982684,370.5967706000083,None,370.5967706000083,371.81220980000217,0.06560719996923581,None,,,,,,,,,35,001,2019_Dec_25_1441,untitled,3.1.0,60.056056316336566,
_,F,N,225,_,_,_FN225__,N,0,15,15,53,,,1.084,374.1031009000144,374.41032169997925,374.4266055999906,374.70957569999155,374.72654970001895,None,up,2.6820747000165284,374.72654970001895,None,374.72654970001895,375.791948899976,0.0964368000277318,None,,,,,,,,,35,001,2019_Dec_25_1441,untitled,3.1.0,60.056056316336566,
003,R,N,90,R,N,003RN090RN,HRN,0,16,16,194,,,1.089,377.48242590000154,377.82539690000704,377.8432105000247,378.1235917999875,378.13985209999373,None,up,2.415162599994801,378.13985209999373,None,378.13985209999373,379.20549349999055,0.06676339998375624,None,,,,,,,,,35,001,2019_Dec_25_1441,untitled,3.1.0,60.056056316336566,
389,_4,N,180,R,N,389_4N180RN,HRN,0,17,17,260,,,1.055,380.6373143999954,380.97121420002077,380.98745860002236,381.27020069997525,381.28689530002885,None,None,,381.28689530002885,None,381.28689530002885,382.31899990001693,0.07347569998819381,None,,,,,,,,,35,001,2019_Dec_25_1441,untitled,3.1.0,60.056056316336566,
298,_2,M,45,L,N,298_2M045LN,HLN,0,18,18,153,,,1.203,384.81873749999795,385.1671763000195,385.1842851000256,385.46731749997707,385.4843136999989,384.81873749999795,up,0.2658509000320919,385.4843136999989,None,385.4843136999989,None,0.059995300020091236,None,,,,,,,,,35,001,2019_Dec_25_1441,untitled,3.1.0,60.056056316336566,
_,G,M,0,_,_,_GM000__,N,0,19,19,8,,,0.762,385.82572099997196,386.1662013999885,386.18316700001014,386.4661237000255,386.48326549999183,None,down,1.8662072000443004,386.48326549999183,None,386.48326549999183,387.23295059998054,0.06681190000381321,None,,,,,,,,,35,001,2019_Dec_25_1441,untitled,3.1.0,60.056056316336566,
303,_2,M,270,L,N,303_2M270LN,HLN,0,20,20,158,,,1.088,388.43503549997695,388.7643484,388.7808199999854,389.06446640001377,389.0812180999783,None,down,2.5661214999854565,389.0812180999783,None,389.0812180999783,390.1463013999746,0.07785309996688738,None,,,,,,,,,35,001,2019_Dec_25_1441,untitled,3.1.0,60.056056316336566,
136,F,N,315,R,N,136FN315RN,HRN,0,21,21,215,,,1.016,391.7342532000039,392.06150429998524,392.07790049997857,392.36104079999495,392.3779579999973,None,up,2.016745399974752,392.3779579999973,None,392.3779579999973,393.3760116000194,0.07713330001570284,None,,,,,,,,,35,001,2019_Dec_25_1441,untitled,3.1.0,60.056056316336566,
_,_2,M,135,_,_,__2M135__,N,0,22,22,27,,,1.079,394.48174259997904,394.8096686999779,394.82600980001735,395.1083809999982,395.12536310002906,None,down,2.4830955000361428,395.12536310002906,None,395.12536310002906,396.19099009997444,0.07857620000140741,None,,,,,,,,,35,001,2019_Dec_25_1441,untitled,3.1.0,60.056056316336566,
461,_5,M,180,R,N,461_5M180RN,HRN,0,23,23,180,,,1.061,397.70196029997896,398.0229596000281,398.0393856000155,398.3224197999807,398.3391163999913,None,up,2.831621700024698,398.3391163999913,None,398.3391163999913,399.3879345000023,0.08296269999118522,None,,,,,,,,,35,001,2019_Dec_25_1441,untitled,3.1.0,60.056056316336566,
_,_2,M,180,_,_,__2M180__,N,0,24,24,28,,,1.3900000000000001,401.2498524999828,401.5864511000109,401.602720600029,401.8867224000278,401.9025432000053,None,None,,401.9025432000053,None,401.9025432000053,403.2677022999851,0.07071719999657944,None,,,,,,,,,35,001,2019_Dec_25_1441,untitled,3.1.0,60.056056316336566,
_,_5,M,135,_,_,__5M135__,N,0,25,25,43,,,0.858,405.4397864000057,405.7822962999926,405.7991119999788,406.0822190999752,406.09874659997877,405.4397864000057,down,3.181302200013306,406.09874659997877,None,406.09874659997877,406.93134369998006,0.06637449999107048,None,,,,,,,,,35,001,2019_Dec_25_1441,untitled,3.1.0,60.056056316336566,
399,_4,M,270,R,N,399_4M270RN,HRN,0,26,26,166,,,0.995,409.34764990000986,409.6958706000005,409.7126768999733,409.9953423999832,410.01192509999964,None,down,2.3834570000180975,410.01192509999964,None,410.01192509999964,410.9946345000062,0.06052609998732805,None,,,,,,,,,35,001,2019_Dec_25_1441,untitled,3.1.0,60.056056316336566,
_,_2,N,45,_,_,__2N045__,N,0,27,27,73,,,0.807,412.4626263999962,412.80975610000314,412.8263862999738,413.110266099975,413.1264093000209,None,up,2.082700199971441,413.1264093000209,None,413.1264093000209,413.90854889998445,0.06056019995594397,None,,,,,,,,,35,001,2019_Dec_25_1441,untitled,3.1.0,60.056056316336566,
196,G,N,135,R,N,196GN135RN,HRN,0,28,28,227,,,1.362,415.28701089997776,415.62402370001655,415.6410182000254,415.9236814000178,415.9410597999813,None,up,2.4482296999776736,415.9410597999813,None,415.9410597999813,417.29001320002135,0.06924909999361262,None,,,,,,,,,35,001,2019_Dec_25_1441,untitled,3.1.0,60.056056316336566,
398,_4,M,225,R,N,398_4M225RN,HRN,0,29,29,165,,,0.99,418.4630217999802,418.8046478999895,418.82142849999946,419.10435119998874,419.1221557999961,None,down,2.7631195999565534,419.1221557999961,None,419.1221557999961,420.0870162000065,0.06535079999594018,None,,,,,,,,,35,001,2019_Dec_25_1441,untitled,3.1.0,60.056056316336566,
167,F,N,270,L,N,167FN270LN,HLN,0,30,30,222,,,0.753,421.96020700002555,422.3014423000277,422.3180014999816,422.6014312999905,422.6176949000219,None,up,1.982411399949342,422.6176949000219,None,422.6176949000219,423.35118410002906,0.06788249994860962,None,,,,,,,,,35,001,2019_Dec_25_1441,untitled,3.1.0,60.056056316336566,
194,G,N,45,R,N,194GN045RN,HRN,0,31,31,225,,,1.154,424.66890340001555,425.0155730000115,425.032730899984,425.3168933999841,425.3324460000149,None,up,2.4314604999963194,425.3324460000149,None,425.3324460000149,426.46457609999925,0.06238550000125542,None,,,,,,,,,35,001,2019_Dec_25_1441,untitled,3.1.0,60.056056316336566,
304,_2,M,315,L,N,304_2M315LN,HLN,0,32,32,159,,,0.998,427.8515856000013,428.1797625999898,428.1962328000227,428.4809298000182,428.4962060999824,None,down,2.066045799991116,428.4962060999824,None,428.4962060999824,429.4800599999726,0.07878039998468012,None,,,,,,,,,35,001,2019_Dec_25_1441,untitled,3.1.0,60.056056316336566,
037,R,N,180,L,N,037RN180LN,HLN,0,33,33,204,,,1.045,430.6592854000046,430.9775666000205,430.9938625000068,431.2772644999786,431.294149000023,None,up,3.4330639999825507,431.294149000023,None,431.294149000023,432.3257772999932,0.08629060001112521,None,,,,,,,,,35,001,2019_Dec_25_1441,untitled,3.1.0,60.056056316336566,
263,_2,N,270,R,N,263_2N270RN,HRN,0,34,34,246,,,1.1280000000000001,434.79848930001026,435.1400862999726,435.1568345000269,435.4402097000275,435.45685929997126,None,up,2.499413299956359,435.45685929997126,None,435.45685929997126,436.57365849998314,0.06445519998669624,None,,,,,,,,,35,001,2019_Dec_25_1441,untitled,3.1.0,60.056056316336566,
035,R,N,90,L,N,035RN090LN,HLN,0,35,35,202,,,0.975,438.0292356000282,438.3717595000053,438.3872139999876,438.67077839997364,438.6875433999812,None,up,1.9320593999582343,438.6875433999812,None,438.6875433999812,439.6529888000223,0.06613389996346086,None,,,,,,,,,35,001,2019_Dec_25_1441,untitled,3.1.0,60.056056316336566,
014,R,M,225,R,N,014RM225RN,HRN,0,36,36,101,,,1.283,440.69740389997605,441.03522309998516,441.0518029999803,441.3349871999817,441.3510844000266,None,up,2.450374300009571,441.3510844000266,None,441.3510844000266,442.6171660000109,0.06970019999425858,None,,,,,,,,,35,001,2019_Dec_25_1441,untitled,3.1.0,60.056056316336566,
_,_4,M,180,_,_,__4M180__,N,0,37,37,36,,,0.901,443.87825409998186,444.2155245000031,444.2332472000271,444.5153608000255,444.53212200000416,None,up,2.632212000025902,444.53212200000416,None,444.53212200000416,445.41419719997793,0.06819000001996756,None,,,,,,,,,35,001,2019_Dec_25_1441,untitled,3.1.0,60.056056316336566,
422,_4,N,225,L,N,422_4N225LN,HLN,0,38,38,269,,,0.9570000000000001,447.25039569998626,447.5798980999971,447.5967580000288,447.87937179999426,447.89599059999455,None,up,2.648052899981849,447.89599059999455,None,447.89599059999455,448.8452643000055,0.07661950000328943,None,,,,,,,,,35,001,2019_Dec_25_1441,untitled,3.1.0,60.056056316336566,
201,G,M,0,R,N,201GM000RN,HRN,0,39,39,128,,,1.241,450.6254949999857,450.9596791000222,450.9774695999804,451.2596374999848,451.27669500000775,None,down,2.5980783000122756,451.27669500000775,None,451.27669500000775,452.5088727999828,0.07269270002143458,None,,,,,,,,,35,001,2019_Dec_25_1441,untitled,3.1.0,60.056056316336566,
464,_5,M,315,R,N,464_5M315RN,HRN,0,40,40,183,,,1.231,453.9477736999979,454.29180439998163,454.3067634999752,454.59004899999127,454.60663080000086,None,down,2.4323522999766283,454.60663080000086,None,454.60663080000086,455.8228542000288,0.06590480002341792,None,,,,,,,,,35,001,2019_Dec_25_1441,untitled,3.1.0,60.056056316336566,
048,R,M,315,L,N,048RM315LN,HLN,0,41,41,111,,,1.139,457.13277299999027,457.4542460999801,457.4709072000114,457.754288199998,457.77074090001406,None,down,2.398083299980499,457.77074090001406,None,457.77074090001406,458.8867002999759,0.08471780002582818,None,,,,,,,,,35,001,2019_Dec_25_1441,untitled,3.1.0,60.056056316336566,
230,G,N,225,L,N,230GN225LN,HLN,0,42,42,237,,,0.864,460.23954009998124,460.5849903000053,460.60302749997936,460.88501359999646,460.90155060001416,None,up,2.247677500010468,460.90155060001416,None,460.90155060001416,461.75088810001034,0.0641085000243038,None,,,,,,,,,35,001,2019_Dec_25_1441,untitled,3.1.0,60.056056316336566,
040,R,N,315,L,N,040RN315LN,HLN,0,43,43,207,,,1.357,463.21785000001546,463.5654343999922,463.58267430000706,463.8651945000165,463.8823320000083,None,up,3.332142500032205,463.8823320000083,None,463.8823320000083,465.21400039998116,0.062168699980247766,None,,,,,,,,,35,001,2019_Dec_25_1441,untitled,3.1.0,60.056056316336566,
129,F,N,0,R,N,129FN000RN,HRN,0,44,44,208,,,1.172,467.3240291000111,467.62864140002057,467.6453642999986,467.92847129999427,467.9459985999856,None,up,2.096858900040388,467.9459985999856,None,467.9459985999856,469.1103686999995,0.09840509999776259,None,,,,,,,,,35,001,2019_Dec_25_1441,untitled,3.1.0,60.056056316336566,
489,_5,M,0,L,N,489_5M000LN,HLN,0,45,45,184,,,1.266,470.114538200025,470.4595269000274,470.47612200002186,470.7594112000079,470.77592579997145,None,down,2.3147282999707386,470.77592579997145,None,470.77592579997145,472.02487800002564,0.06548679998377338,None,,,,,,,,,35,001,2019_Dec_25_1441,untitled,3.1.0,60.056056316336566,
485,_5,N,180,L,N,485_5N180LN,HLN,0,46,46,284,,,0.961,473.1583522000001,473.5067597000161,473.5242625999963,473.80694989999756,473.8232168999966,None,up,2.5988234999822453,473.8232168999966,None,473.8232168999966,474.77248729998246,0.060868200031109154,None,,,,,,,,,35,001,2019_Dec_25_1441,untitled,3.1.0,60.056056316336566,
174,F,M,225,L,N,174FM225LN,HLN,0,47,47,125,,,1.252,476.5103952999925,476.8371838000021,476.85395900002914,477.13757339998847,477.15395449998323,None,down,2.664708599972073,477.15395449998323,None,477.15395449998323,478.386719800008,0.07855660002678633,None,,,,,,,,,35,001,2019_Dec_25_1441,untitled,3.1.0,60.056056316336566,
397,_4,M,180,R,N,397_4M180RN,HRN,0,48,48,164,,,1.329,479.89008699997794,480.23458879999816,480.2510294999811,480.5343469000072,480.55085250001866,None,up,3.447837100015022,480.55085250001866,None,480.55085250001866,481.86619149998296,0.06474160001380369,None,,,,,,,,,35,001,2019_Dec_25_1441,untitled,3.1.0,60.056056316336566,
396,_4,M,135,R,N,396_4M135RN,HRN,0,49,49,163,,,0.719,484.07519950001733,484.41397539997706,484.4308450000244,484.7135485999752,484.7311494000023,None,None,,484.7311494000023,None,484.7311494000023,485.42982790002134,0.06935500004328787,None,,,,,,,,,35,001,2019_Dec_25_1441,untitled,3.1.0,60.056056316336566,
385,_4,N,0,R,N,385_4N000RN,HRN,0,50,50,256,,,0.756,488.29545520001557,488.6106008000206,488.62696099997265,488.9100515000173,488.92691380000906,488.29545520001557,up,1.7006914999801666,488.92691380000906,None,488.92691380000906,489.65956960001495,0.09164290002081543,None,,,,,,,,,35,001,2019_Dec_25_1441,untitled,3.1.0,60.056056316336566,
395,_4,M,90,R,N,395_4M090RN,HRN,0,51,51,162,,,0.877,490.7033751999843,491.0413390999893,491.058159600012,491.3411597000086,491.3576616999926,None,up,2.0708467999938875,491.3576616999926,None,491.3576616999926,492.2236365000135,0.06886790000135079,None,,,,,,,,,35,001,2019_Dec_25_1441,untitled,3.1.0,60.056056316336566,
_,_5,M,180,_,_,__5M180__,N,0,52,52,44,,,1.333,493.5434146000189,493.83929620002164,493.8556723999791,494.1392132000183,494.15561289998004,None,None,,494.15561289998004,None,494.15561289998004,495.4711541000288,0.1025249999947846,None,,,,,,,,,35,001,2019_Dec_25_1441,untitled,3.1.0,60.056056316336566,
034,R,N,45,L,N,034RN045LN,HLN,0,53,53,201,,,0.879,497.70368660002714,498.052011199994,498.06843069999013,498.35222910001175,498.36967450001976,497.70368660002714,down,0.016132599965203553,498.36967450001976,None,498.36967450001976,None,0.060182199988048524,None,,,,,,,,,35,001,2019_Dec_25_1441,untitled,3.1.0,60.056056316336566,
164,F,N,135,L,N,164FN135LN,HLN,0,54,54,219,,,1.0090000000000001,498.45556390000274,498.8013099000091,498.8180205000099,499.10127069999,499.11801450001076,None,up,2.6148233000421897,499.11801450001076,None,499.11801450001076,500.10038780001923,0.06303050002316013,None,,,,,,,,,35,001,2019_Dec_25_1441,untitled,3.1.0,60.056056316336566,
_,R,M,0,_,_,_RM000__,N,0,55,55,16,,,1.031,501.800490499998,502.14865859999554,502.1653556000092,502.44837910000933,502.46486409998033,None,down,1.9992719999863766,502.46486409998033,None,502.46486409998033,503.4807814999949,0.060708000033628196,None,,,,,,,,,35,001,2019_Dec_25_1441,untitled,3.1.0,60.056056316336566,
490,_5,M,45,L,N,490_5M045LN,HLN,0,56,56,185,,,0.888,504.5511962000164,504.88011620001635,504.895984200004,505.17998000001535,505.1958076999872,None,down,2.199556000006851,505.1958076999872,None,505.1958076999872,506.0622359000263,0.07819789997301996,None,,,,,,,,,35,001,2019_Dec_25_1441,untitled,3.1.0,60.056056316336566,
_,R,N,45,_,_,_RN045__,N,0,57,57,65,,,1.254,507.4630102000083,507.8106855999795,507.82721680001123,508.11038109997753,508.1264939000248,None,up,2.1984901999821886,508.1264939000248,None,508.1264939000248,509.3587502000155,0.06072619999758899,None,,,,,,,,,35,001,2019_Dec_25_1441,untitled,3.1.0,60.056056316336566,
262,_2,N,225,R,N,262_2N225RN,HRN,0,58,58,245,,,0.894,510.39421779999975,510.74099929997465,510.7584083999973,511.04065610002726,511.0570630999864,None,up,1.8664791999617592,511.0570630999864,None,511.0570630999864,511.9398115000222,0.06231459998525679,None,,,,,,,,,35,001,2019_Dec_25_1441,untitled,3.1.0,60.056056316336566,
393,_4,M,0,R,N,393_4M000RN,HRN,0,59,59,160,,,1.252,512.9930380000151,513.3389269000036,513.3558757000137,513.6392809000099,513.6560511999996,None,down,2.2474157999968156,513.6560511999996,None,513.6560511999996,514.8870903999778,0.06133300001965836,None,,,,,,,,,35,001,2019_Dec_25_1441,untitled,3.1.0,60.056056316336566,
033,R,N,0,L,N,033RN000LN,HLN,0,60,60,200,,,1.014,515.9905216000043,516.3189257999766,516.3365893000155,516.6192799999844,516.6362228000071,None,up,2.4336744000320323,516.6362228000071,None,516.6362228000071,517.6351223000092,0.0790749000152573,None,,,,,,,,,35,001,2019_Dec_25_1441,untitled,3.1.0,60.056056316336566,
495,_5,M,270,L,N,495_5M270LN,HLN,0,61,61,190,,,1.293,519.1507305999985,519.4835038000019,519.5004701999715,519.7836963000009,519.7998149999767,None,down,2.348816199984867,519.7998149999767,None,519.7998149999767,521.081969699997,0.07319339999230579,None,,,,,,,,,35,001,2019_Dec_25_1441,untitled,3.1.0,60.056056316336566,
001,R,N,0,R,N,001RN000RN,HRN,0,62,62,192,,,1.207,522.235070499999,522.5642323999782,522.5809241000097,522.8634230999742,522.8802730999887,None,up,2.1655516999890096,522.8802730999887,None,522.8802730999887,524.0793592000264,0.07769280002685264,None,,,,,,,,,35,001,2019_Dec_25_1441,untitled,3.1.0,60.056056316336566,
388,_4,N,135,R,N,388_4N135RN,HRN,0,63,63,259,,,0.736,525.1289563999744,525.4624131000019,525.4782592999982,525.7616835000226,525.7782998000039,None,up,2.28174249996664,525.7782998000039,None,525.7782998000039,526.4937413000152,0.07365949999075383,None,,,,,,,,,35,001,2019_Dec_25_1441,untitled,3.1.0,60.056056316336566,
039,R,N,270,L,N,039RN270LN,HLN,0,64,64,206,,,0.894,528.1443261000095,528.4770366000012,528.492133599997,528.7761283,528.7925108000054,None,up,1.9645663000410423,528.7925108000054,None,528.7925108000054,529.6741541000083,0.07552210002904758,None,,,,,,,,,35,001,2019_Dec_25_1441,untitled,3.1.0,60.056056316336566,
428,_4,M,135,L,N,428_4M135LN,HLN,0,65,65,171,,,1.276,530.8402072999743,531.1732131000026,531.1903023999766,531.4732553000213,531.4898332000012,None,down,2.614996300020721,531.4898332000012,None,531.4898332000012,532.7555553999846,0.0754732999484986,None,,,,,,,,,35,001,2019_Dec_25_1441,untitled,3.1.0,60.056056316336566,
_,_4,M,225,_,_,__4M225__,N,0,66,66,37,,,0.986,534.1813466000021,534.5207215999835,534.537860499986,534.8209697999991,534.8370555000147,None,down,2.8974362000008114,534.8370555000147,None,534.8370555000147,535.8027726999717,0.06800900003872812,None,,,,,,,,,35,001,2019_Dec_25_1441,untitled,3.1.0,60.056056316336566,
427,_4,M,90,L,N,427_4M090LN,HLN,0,67,67,170,,,1.347,537.8052132999874,538.1514801000012,538.1674613999785,538.450583799975,538.4671266999794,None,down,2.8509749000077136,538.4671266999794,None,538.4671266999794,539.798857900023,0.06411199999274686,None,,,,,,,,,35,001,2019_Dec_25_1441,untitled,3.1.0,60.056056316336566,
_,F,M,0,_,_,_FM000__,N,0,68,68,0,,,1.044,541.4191071999958,541.7308150000172,541.7473242999986,542.0305759999901,542.0472980000195,None,down,2.4820510999998078,542.0472980000195,None,542.0472980000195,543.0798551000189,0.09040260000620037,None,,,,,,,,,35,001,2019_Dec_25_1441,untitled,3.1.0,60.056056316336566,
_,_5,N,90,_,_,__5N090__,N,0,69,69,90,,,1.158,544.5987079999759,544.9442630999838,544.961720500025,545.2443623999716,545.2610382999992,None,up,2.1486870999797247,545.2610382999992,None,545.2610382999992,546.393324100005,0.06251130002783611,None,,,,,,,,,35,001,2019_Dec_25_1441,untitled,3.1.0,60.056056316336566,
_,G,N,90,_,_,_GN090__,N,0,70,70,58,,,0.904,547.4840409000171,547.8250767000136,547.8423625999712,548.1260381999891,548.1411651999806,None,up,2.3173451999900863,548.1411651999806,None,548.1411651999806,549.0241615999839,0.06643130001612008,None,,,,,,,,,35,001,2019_Dec_25_1441,untitled,3.1.0,60.056056316336566,
232,G,N,315,L,N,232GN315LN,HLN,0,71,71,239,,,1.29,550.5255404000054,550.8731514000101,550.889486,551.172378999996,551.1888613000046,None,up,2.3821912999846973,551.1888613000046,None,551.1888613000046,552.4719257000252,0.05997110001044348,None,,,,,,,,,35,001,2019_Dec_25_1441,untitled,3.1.0,60.056056316336566,
_,_4,M,0,_,_,__4M000__,N,0,72,72,32,,,0.994,553.6441662000143,553.9865816999809,554.0036855000071,554.286436400027,554.3029639999731,None,down,2.182046200032346,554.3029639999731,None,554.3029639999731,555.285267499974,0.06575030001113191,None,,,,,,,,,35,001,2019_Dec_25_1441,untitled,3.1.0,60.056056316336566,
233,G,M,0,L,N,233GM000LN,HLN,0,73,73,136,,,0.7030000000000001,556.5900442000129,556.9020066999947,556.9173223000253,557.2010202999809,557.2173949999851,None,down,1.6838233000016771,557.2173949999851,None,557.2173949999851,557.8997640999733,0.0945759000023827,None,,,,,,,,,35,001,2019_Dec_25_1441,untitled,3.1.0,60.056056316336566,
_,_5,N,270,_,_,__5N270__,N,0,74,74,94,,,0.924,558.9877203999786,559.3161895999801,559.3324382000137,559.615135399974,559.6321678999811,None,up,2.0318789000157267,559.6321678999811,None,559.6321678999811,560.5476581000257,0.07784829998854548,None,,,,,,,,,35,001,2019_Dec_25_1441,untitled,3.1.0,60.056056316336566,
258,_2,N,45,R,N,258_2N045RN,HRN,0,75,75,241,,,1.283,561.744961599994,562.0798100000247,562.0961001000251,562.379067700007,562.3963110999903,None,down,2.6815097999642603,562.3963110999903,None,562.3963110999903,563.6620989000075,0.07217270002001897,None,,,,,,,,,35,001,2019_Dec_25_1441,untitled,3.1.0,60.056056316336566,
204,G,M,135,R,N,204GM135RN,HRN,0,76,76,131,,,0.861,565.1451782999793,565.4940836000023,565.5100278999889,565.7927986999857,565.8096297999728,None,up,2.315492900030222,565.8096297999728,None,565.8096297999728,566.6596642999793,0.060336100053973496,None,,,,,,,,,35,001,2019_Dec_25_1441,untitled,3.1.0,60.056056316336566,
_,R,N,315,_,_,_RN315__,N,0,77,77,71,,,0.838,568.1983735000249,568.5411001999746,568.5574733000249,568.8406275999732,568.8576413000119,None,up,1.6819697000319138,568.8576413000119,None,568.8576413000119,569.6731310000177,0.06634239997947589,None,,,,,,,,,35,001,2019_Dec_25_1441,untitled,3.1.0,60.056056316336566,
266,_2,M,45,R,N,266_2M045RN,HRN,0,78,78,145,,,1.233,570.6144668000052,570.9552845999715,570.9725448000245,571.25669379998,571.2722914000042,None,down,2.8476056000217795,571.2722914000042,None,571.2722914000042,572.4873809000128,0.0668372000218369,None,,,,,,,,,35,001,2019_Dec_25_1441,untitled,3.1.0,60.056056316336566,
394,_4,M,45,R,N,394_4M045RN,HRN,0,79,79,161,,,0.976,574.1933346000151,574.5354315000004,574.5518068000092,574.8360958999838,574.8527078999905,None,up,2.467853699985426,574.8527078999905,None,574.8527078999905,575.8184287999757,0.06488710001576692,None,,,,,,,,,35,001,2019_Dec_25_1441,untitled,3.1.0,60.056056316336566,
_,R,M,90,_,_,_RM090__,N,0,80,80,18,,,0.7020000000000001,577.4209042000002,577.7329574999749,577.7493981000152,578.0325386999757,578.0491828999948,None,down,2.398383099993225,578.0491828999948,None,578.0491828999948,578.731811399979,0.08924820000538602,None,,,,,,,,,35,001,2019_Dec_25_1441,untitled,3.1.0,60.056056316336566,
267,_2,M,90,R,N,267_2M090RN,HRN,0,81,81,146,,,1.315,580.53102330002,580.8633068000199,580.8810817999765,581.1633970999974,581.1796484999941,None,down,2.9668883999693207,581.1796484999941,None,581.1796484999941,582.4787005999824,0.07466440001735464,None,,,,,,,,,35,001,2019_Dec_25_1441,untitled,3.1.0,60.056056316336566,
234,G,M,45,L,N,234GM045LN,HLN,0,82,82,137,,,1.1,584.2522469999967,584.5600556000136,584.5767085999832,584.8602230999968,584.8768937999848,None,down,2.448166099959053,584.8768937999848,None,584.8768937999848,585.9589764000266,0.09752080001635477,None,,,,,,,,,35,001,2019_Dec_25_1441,untitled,3.1.0,60.056056316336566,
134,F,N,225,R,N,134FN225RN,HRN,0,83,83,213,,,0.788,587.4067897999776,587.7411287999712,587.7577443000046,588.0411837000283,588.06065270002,None,up,1.9309448000276461,588.06065270002,None,588.06065270002,588.8227542000241,0.072708000021521,None,,,,,,,,,35,001,2019_Dec_25_1441,untitled,3.1.0,60.056056316336566,
_,_4,N,45,_,_,__4N045__,N,0,84,84,81,,,0.8140000000000001,590.0628488999791,590.4049704999779,590.4219487999799,590.7051412999863,590.7214399999939,None,up,2.5347901999484748,590.7214399999939,None,590.7214399999939,591.520508799993,0.06435040000360459,None,,,,,,,,,35,001,2019_Dec_25_1441,untitled,3.1.0,60.056056316336566,
015,R,M,270,R,N,015RM270RN,HRN,0,85,85,102,,,0.811,593.3487809000071,593.6684726999956,593.6855740000028,593.9690368999727,593.9857379000168,None,down,1.965130999975372,593.9857379000168,None,593.9857379000168,594.7841641000123,0.0830386999878101,None,,,,,,,,,35,001,2019_Dec_25_1441,untitled,3.1.0,60.056056316336566,
_,_2,N,180,_,_,__2N180__,N,0,86,86,76,,,1.385,596.0276193000027,596.3665294999955,596.3843258999987,596.6662639999995,596.6837202999741,None,up,2.9803727000253275,596.6837202999741,None,596.6837202999741,598.0487444999744,0.06924819998675957,None,,,,,,,,,35,001,2019_Dec_25_1441,untitled,3.1.0,60.056056316336566,
391,_4,N,270,R,N,391_4N270RN,HRN,0,87,87,262,,,1.179,599.7395508000045,600.0799570999807,600.0969582999824,600.3795615999843,600.3961360999965,None,up,2.7993330000317656,600.3961360999965,None,600.3961360999965,601.5622704999987,0.06822920002741739,None,,,,,,,,,35,001,2019_Dec_25_1441,untitled,3.1.0,60.056056316336566,
493,_5,M,180,L,N,493_5M180LN,HLN,0,88,88,188,,,1.083,603.2754977999721,603.6102657999727,603.6274245000095,603.9110575999948,603.9269752000109,None,None,,603.9269752000109,None,603.9269752000109,604.9918763000169,0.07151949999388307,None,,,,,,,,,35,001,2019_Dec_25_1441,untitled,3.1.0,60.056056316336566,
_,F,M,225,_,_,_FM225__,N,0,89,89,5,,,0.719,607.4795764000155,607.8071722000022,607.8235164000071,608.1064903999795,608.1228058999986,607.4795764000155,up,0.23384970001643524,608.1228058999986,None,608.1228058999986,None,0.07980210002278909,None,,,,,,,,,35,001,2019_Dec_25_1441,untitled,3.1.0,60.056056316336566,
140,F,M,135,R,N,140FM135RN,HRN,0,90,90,115,,,1.123,608.4266276999842,608.7724357999978,608.7891111000208,609.0719718000037,609.0884789000265,None,None,,609.0884789000265,None,609.0884789000265,610.1874680999899,0.06287140003405511,None,,,,,,,,,35,001,2019_Dec_25_1441,untitled,3.1.0,60.056056316336566,
387,_4,N,90,R,N,387_4N090RN,HRN,0,91,91,258,,,0.85,612.6612597000203,612.9688994999742,612.9855325000244,613.2684283999843,613.2855966999778,612.6612597000203,up,2.7829591000336222,613.2855966999778,None,613.2855966999778,614.1175759999896,0.09524370002327487,None,,,,,,,,,35,001,2019_Dec_25_1441,untitled,3.1.0,60.056056316336566,
_,R,M,270,_,_,_RM270__,N,0,92,92,22,,,0.72,616.1532859000145,616.4823027999955,616.4992147000157,616.7824891000055,616.7987581000198,None,down,1.6823855999973603,616.7987581000198,None,616.7987581000198,617.498348699999,0.07630469999276102,None,,,,,,,,,35,001,2019_Dec_25_1441,untitled,3.1.0,60.056056316336566,
161,F,N,0,L,N,161FN000LN,HLN,0,93,93,216,,,1.301,618.5486043000128,618.8970463000005,618.9136950999964,619.1969536999823,619.2133905999945,None,up,2.1990433000028133,619.2133905999945,None,619.2133905999945,620.4959015999921,0.06043810001574457,None,,,,,,,,,35,001,2019_Dec_25_1441,untitled,3.1.0,60.056056316336566,
302,_2,M,225,L,N,302_2M225LN,HLN,0,94,94,157,,,1.365,621.4982784999884,621.8276656999951,621.8442143999855,622.1272878000163,622.1437197999912,None,down,3.231643399980385,622.1437197999912,None,622.1437197999912,623.4933598000207,0.07784310000715777,None,,,,,,,,,35,001,2019_Dec_25_1441,untitled,3.1.0,60.056056316336566,
_,R,M,225,_,_,_RM225__,N,0,95,95,21,,,1.309,625.4449033000274,625.7913019999978,625.8101905999938,626.0909735999885,626.107898199989,None,up,3.399235700024292,626.107898199989,None,626.107898199989,627.4060547000263,0.06227639998542145,None,,,,,,,,,35,001,2019_Dec_25_1441,untitled,3.1.0,60.056056316336566,
237,G,M,180,L,N,237GM180LN,HLN,0,96,96,140,,,0.966,629.5759658999741,629.9203794000205,629.9372466999921,630.2208875999786,630.2372132000164,None,up,2.7823635999811813,630.2372132000164,None,630.2372132000164,631.1860460999887,0.062175000028219074,None,,,,,,,,,35,001,2019_Dec_25_1441,untitled,3.1.0,60.056056316336566,
_,R,N,90,_,_,_RN090__,N,0,97,97,66,,,1.042,633.0996867999784,633.4341691000154,633.4507582000224,633.7342403000221,633.7510391999967,None,up,2.9656987999915145,633.7510391999967,None,633.7510391999967,634.782932800008,0.07296489999862388,None,,,,,,,,,35,001,2019_Dec_25_1441,untitled,3.1.0,60.056056316336566,
269,_2,M,180,R,N,269_2M180RN,HRN,0,98,98,148,,,1.284,636.8035416000057,637.1309138999786,637.1472595999949,637.4311567000113,637.4475380000076,None,down,3.3641818000469357,637.4475380000076,None,637.4475380000076,638.7131058999803,0.07803580001927912,None,,,,,,,,,35,001,2019_Dec_25_1441,untitled,3.1.0,60.056056316336566,
_,G,N,45,_,_,_GN045__,N,0,99,99,57,,,1.042,640.8898490000283,641.2272714999854,641.2435852999915,641.527176100004,641.5437591000227,None,up,2.1840742000495084,641.5437591000227,None,641.5437591000227,642.5766053000116,0.06961690000025555,None,,,,,,,,,35,001,2019_Dec_25_1441,untitled,3.1.0,60.056056316336566,
007,R,N,270,R,N,007RN270RN,HRN,0,100,100,198,,,0.809,643.7995022999821,644.1417253999971,644.1584037999855,644.4415048999945,644.4584348999779,None,up,2.0503170000156388,644.4584348999779,None,644.4584348999779,645.2575391000137,0.06363340001553297,None,,,,,,,,,35,001,2019_Dec_25_1441,untitled,3.1.0,60.056056316336566,
_,G,M,270,_,_,_GM270__,N,0,101,101,14,,,0.896,646.5765503000002,646.9225452999817,646.9393447000184,647.2223989000195,647.2398843999836,None,down,2.2496329999994487,647.2398843999836,None,647.2398843999836,648.1211748999776,0.06095630000345409,None,,,,,,,,,35,001,2019_Dec_25_1441,untitled,3.1.0,60.056056316336566,
_,_5,M,225,_,_,__5M225__,N,0,102,102,45,,,1.29,649.5567749000038,649.9029891000246,649.9198076999746,650.2217553000082,650.2613191999844,None,down,3.2898141999612562,650.2613191999844,None,650.2613191999844,651.4852427999722,0.06064949999563396,None,,,,,,,,,35,001,2019_Dec_25_1441,untitled,3.1.0,60.056056316336566,
492,_5,M,135,L,N,492_5M135LN,HLN,0,103,103,187,,,1.185,653.6339997000177,653.9664021999924,653.9833336999873,654.2662098999717,654.2831553000142,None,down,3.2824953999952413,654.2831553000142,None,654.2831553000142,655.4512981000007,0.07475299999350682,None,,,,,,,,,35,001,2019_Dec_25_1441,untitled,3.1.0,60.056056316336566,
432,_4,M,315,L,N,432_4M315LN,HLN,0,104,104,175,,,0.791,657.6483855000115,657.9790949000162,657.9960554999998,658.2795655999798,658.2958625999745,None,None,,658.2958625999745,None,658.2958625999745,659.0783548000036,0.07460130000254139,None,,,,,,,,,35,001,2019_Dec_25_1441,untitled,3.1.0,60.056056316336566,
293,_2,N,180,L,N,293_2N180LN,HLN,0,105,105,252,,,1.33,661.8434704000247,662.1766393000144,662.192995999998,662.4756577999797,662.4934197000111,661.8434704000247,up,3.030138799978886,662.4934197000111,None,662.4934197000111,663.8075424000272,0.07580709998728707,None,,,,,,,,,35,001,2019_Dec_25_1441,untitled,3.1.0,60.056056316336566,
_,G,N,135,_,_,_GN135__,N,0,106,106,59,,,1.188,665.6002531999839,665.9394838999724,665.955634700018,666.2389202999766,666.2556512000156,None,up,3.0002604000037536,666.2556512000156,None,666.2556512000156,667.4211087999865,0.06873940001241863,None,,,,,,,,,35,001,2019_Dec_25_1441,untitled,3.1.0,60.056056316336566,
_,F,N,135,_,_,_FN135__,N,0,107,107,51,,,0.89,669.3263814999955,669.6702535999939,669.6860406000051,669.9691776999971,669.9857641999843,None,up,2.399146399984602,669.9857641999843,None,669.9857641999843,670.8513019999955,0.0637037000269629,None,,,,,,,,,35,001,2019_Dec_25_1441,untitled,3.1.0,60.056056316336566,
225,G,N,0,L,N,225GN000LN,HLN,0,108,108,232,,,1.167,672.4797710999846,672.7998619999853,672.8175374999992,673.1002591000288,673.1170088999788,None,up,2.1310528999892995,673.1170088999788,None,673.1170088999788,674.2652459000237,0.08630670001730323,None,,,,,,,,,35,001,2019_Dec_25_1441,untitled,3.1.0,60.056056316336566,
291,_2,N,90,L,N,291_2N090LN,HLN,0,109,109,250,,,1.186,675.325631899992,675.6649526000256,675.6811889000237,675.9640060000238,675.9818850000156,None,up,2.614036599989049,675.9818850000156,None,675.9818850000156,677.1459964999813,0.06920399999944493,None,,,,,,,,,35,001,2019_Dec_25_1441,untitled,3.1.0,60.056056316336566,
423,_4,N,270,L,N,423_4N270LN,HLN,0,110,110,270,,,0.803,678.665087100002,679.0114236000227,679.0276479999884,679.3110088999965,679.3275608000113,None,up,3.214407099992968,679.3275608000113,None,679.3275608000113,680.1097949999967,0.06244420004077256,None,,,,,,,,,35,001,2019_Dec_25_1441,untitled,3.1.0,60.056056316336566,
268,_2,M,135,R,N,268_2M135RN,HRN,0,111,111,147,,,0.931,682.617291499977,682.9580278000212,682.9751714000013,683.2582109000068,683.2747775000171,None,down,2.8813203999889083,683.2747775000171,None,683.2747775000171,684.1901702000177,0.06851750001078472,None,,,,,,,,,35,001,2019_Dec_25_1441,untitled,3.1.0,60.056056316336566,
_,_4,N,225,_,_,__4N225__,N,0,112,112,85,,,0.747,686.234311999986,686.5713207999943,686.5880979999783,686.8712380999932,686.8877640999854,None,up,2.6174483000067994,686.8877640999854,None,686.8877640999854,687.6205294000101,0.0682760999770835,None,,,,,,,,,35,001,2019_Dec_25_1441,untitled,3.1.0,60.056056316336566,
484,_5,N,135,L,N,484_5N135LN,HLN,0,113,113,283,,,1.285,689.5753583000042,689.9182755000074,689.9349493000191,690.2207043999806,690.2353119999752,None,up,2.9640661999583244,690.2353119999752,None,690.2353119999752,691.5002702000202,0.06228329997975379,None,,,,,,,,,35,001,2019_Dec_25_1441,untitled,3.1.0,60.056056316336566,
138,F,M,45,R,N,138FM045RN,HRN,0,114,114,113,,,0.729,693.3052857000148,693.6151878000237,693.6319879000075,693.9145277999924,693.9320866999915,None,down,2.1837836999911815,693.9320866999915,None,693.9320866999915,694.6478479999932,0.09714149998035282,None,,,,,,,,,35,001,2019_Dec_25_1441,untitled,3.1.0,60.056056316336566,
036,R,N,135,L,N,036RN135LN,HLN,0,115,115,203,,,1.329,696.2119394000038,696.5291024000035,696.5463645000127,696.8299900999991,696.8463186000008,None,up,2.5478626000112854,696.8463186000008,None,696.8463186000008,698.1619548000162,0.08729980001226068,None,,,,,,,,,35,001,2019_Dec_25_1441,untitled,3.1.0,60.056056316336566,
010,R,M,45,R,N,010RM045RN,HRN,0,116,116,97,,,0.882,699.4749093999853,699.8099809000269,699.8263104999787,700.1095445000101,700.1260385999922,None,down,2.1172645000042394,700.1260385999922,None,700.1260385999922,700.9921150999726,0.07201140001416206,None,,,,,,,,,35,001,2019_Dec_25_1441,untitled,3.1.0,60.056056316336566,
_,_2,M,0,_,_,__2M000__,N,0,117,117,24,,,0.999,702.3097662000218,702.6571038999828,702.6739361999789,702.9570402000099,702.9739444999723,None,down,2.36530840001069,702.9739444999723,None,702.9739444999723,703.9561907000025,0.05954819999169558,None,,,,,,,,,35,001,2019_Dec_25_1441,untitled,3.1.0,60.056056316336566,
261,_2,N,180,R,N,261_2N180RN,HRN,0,118,118,244,,,1.074,705.408641099988,705.754325499991,705.7709585999837,706.0542270999867,706.0709601999843,None,up,2.232056199980434,706.0709601999843,None,706.0709601999843,707.1199608999887,0.0623011999996379,None,,,,,,,,,35,001,2019_Dec_25_1441,untitled,3.1.0,60.056056316336566,
002,R,N,45,R,N,002RN045RN,HRN,0,119,119,193,,,1.374,708.3722868000041,708.7185288000037,708.7355065000011,709.0186038999818,709.0351753000286,None,up,2.3164094999665394,709.0351753000286,None,709.0351753000286,710.3844706999953,0.0616071000113152,None,,,,,,,,,35,001,2019_Dec_25_1441,untitled,3.1.0,60.056056316336566,
424,_4,N,315,L,N,424_4N315LN,HLN,0,120,120,271,,,1.059,711.4261350000161,711.7660547000123,711.7828072999837,712.06598080002,712.082446800021,None,up,2.050537400005851,712.082446800021,None,712.082446800021,713.131398700003,0.0672406000085175,None,,,,,,,,,35,001,2019_Dec_25_1441,untitled,3.1.0,60.056056316336566,
417,_4,N,0,L,N,417_4N000LN,HLN,0,121,121,264,,,0.712,714.2160827000043,714.5468810999882,714.5636169000063,714.8473242999753,714.8639364999835,None,up,1.568724500015378,714.8639364999835,None,714.8639364999835,715.5626477000187,0.07445299997925758,None,,,,,,,,,35,001,2019_Dec_25_1441,untitled,3.1.0,60.056056316336566,
227,G,N,90,L,N,227GN090LN,HLN,0,122,122,234,,,1.026,716.5292110000155,716.8447639999795,716.8620008000289,717.1447816999862,717.161246499978,None,up,2.3323864999692887,717.161246499978,None,717.161246499978,718.177662800008,0.08477059996221215,None,,,,,,,,,35,001,2019_Dec_25_1441,untitled,3.1.0,60.056056316336566,
_,_4,M,90,_,_,__4M090__,N,0,123,123,34,,,0.884,719.5609616999864,719.9090978999739,719.925800899975,720.2089347000001,720.225846300018,None,down,2.216958099976182,720.225846300018,None,720.225846300018,721.0910341999843,0.06089039996732026,None,,,,,,,,,35,001,2019_Dec_25_1441,untitled,3.1.0,60.056056316336566,
_,_2,M,315,_,_,__2M315__,N,0,124,124,31,,,1.19,722.5085986999911,722.855922000017,722.8733933999902,723.1561994000222,723.172618600016,None,down,2.301256500009913,723.172618600016,None,723.172618600016,724.3549016999896,0.05844009999418631,None,,,,,,,,,35,001,2019_Dec_25_1441,untitled,3.1.0,60.056056316336566,
_,F,M,315,_,_,_FM315__,N,0,125,125,7,,,0.854,725.5489045000286,725.8878689000267,725.9045318000135,726.1867296000128,726.2030776999891,None,down,1.9489729999913834,726.2030776999891,None,726.2030776999891,727.0358003000147,0.06628780002938583,None,,,,,,,,,35,001,2019_Dec_25_1441,untitled,3.1.0,60.056056316336566,
208,G,M,315,R,N,208GM315RN,HRN,0,126,126,135,,,0.759,728.2227357000229,728.5676513999933,728.5847926000133,728.8678650999791,728.8842177999904,None,down,1.8657923000282608,728.8842177999904,None,728.8842177999904,729.6331857999903,0.06319929996971041,None,,,,,,,,,35,001,2019_Dec_25_1441,untitled,3.1.0,60.056056316336566,
_,_4,N,0,_,_,__4N000__,N,0,127,127,80,,,1.2730000000000001,730.8258684999892,731.1675436000223,731.1824092000024,731.4649625999737,731.4818753,None,up,2.0488125000265427,731.4818753,None,731.4818753,732.7318931000191,0.06773060001432896,None,,,,,,,,,35,001,2019_Dec_25_1441,untitled,3.1.0,60.056056316336566,
265,_2,M,0,R,N,265_2M000RN,HRN,0,128,128,144,,,1.249,733.5966946000117,733.946303899982,733.9631358999759,734.2462919999962,734.2627793999854,None,down,2.7322074999683537,734.2627793999854,None,734.2627793999854,735.4952050999855,0.059113900002557784,None,,,,,,,,,35,001,2019_Dec_25_1441,untitled,3.1.0,60.056056316336566,
_,_4,N,135,_,_,__4N135__,N,0,129,129,83,,,1.305,737.0783526999876,737.4103141999803,737.4268826000043,737.7095981999882,737.7263158999849,None,up,2.700635000015609,737.7263158999849,None,737.7263158999849,739.009139199974,0.07569740002509207,None,,,,,,,,,35,001,2019_Dec_25_1441,untitled,3.1.0,60.056056316336566,
426,_4,M,45,L,N,426_4M045LN,HLN,0,130,130,169,,,0.87,740.5147053999826,740.8404125000234,740.8572227000259,741.1598117999965,741.1971607999876,None,down,1.8586087000439875,741.1971607999876,None,741.1971607999876,742.0063873999752,0.07935790001647547,None,,,,,,,,,35,001,2019_Dec_25_1441,untitled,3.1.0,60.056056316336566,
_,R,M,180,_,_,_RM180__,N,0,131,131,20,,,0.791,743.1381014999934,743.4724083999754,743.4885474999901,743.7710814999882,743.7876620999887,None,None,,743.7876620999887,None,743.7876620999887,744.5542076000129,0.0742479000473395,None,,,,,,,,,35,001,2019_Dec_25_1441,untitled,3.1.0,60.056056316336566,
_,F,N,180,_,_,_FN180__,N,0,132,132,52,,,1.301,747.3195368999732,747.6679902999895,747.6850734999753,747.9676226999727,747.9842036999762,747.3195368999732,down,3.281132299976889,747.9842036999762,None,747.9842036999762,749.2666630999884,0.059358200000133365,None,,,,,,,,,35,001,2019_Dec_25_1441,untitled,3.1.0,60.056056316336566,
_,_2,N,270,_,_,__2N270__,N,0,133,133,78,,,0.731,751.3371993000037,751.6810031000059,751.6978900000104,751.9805119999801,751.9972298999783,None,up,2.2358893000055104,751.9972298999783,None,751.9972298999783,752.7141233999864,0.06442479998804629,None,,,,,,,,,35,001,2019_Dec_25_1441,untitled,3.1.0,60.056056316336566,
271,_2,M,270,R,N,271_2M270RN,HRN,0,134,134,150,,,1.335,754.3334013000131,754.6455655000173,754.6621339999838,754.9448477000115,754.9615110000013,None,down,2.450269200024195,754.9615110000013,None,754.9615110000013,756.2778197000152,0.0887854999746196,None,,,,,,,,,35,001,2019_Dec_25_1441,untitled,3.1.0,60.056056316336566,
207,G,M,270,R,N,207GM270RN,HRN,0,135,135,134,,,0.788,757.4865039000288,757.826158299984,757.8424081000267,758.1261483000126,758.1424003000138,None,down,2.7518235000316054,758.1424003000138,None,758.1424003000138,758.9080572000239,0.06779599998844787,None,,,,,,,,,35,001,2019_Dec_25_1441,untitled,3.1.0,60.056056316336566,
228,G,N,135,L,N,228GN135LN,HLN,0,136,136,235,,,1.357,760.9980417999905,761.3067332999781,761.3227236000239,761.6061862999923,761.6227589999908,None,None,,761.6227589999908,None,761.6227589999908,762.9711275000009,0.09135410003364086,None,,,,,,,,,35,001,2019_Dec_25_1441,untitled,3.1.0,60.056056316336566,
_,F,M,45,_,_,_FM045__,N,0,137,137,1,,,0.9560000000000001,765.1692802999751,765.5202584000072,765.5361737000057,765.8193337999983,765.8358021000167,765.1692802999751,down,2.349158000026364,765.8358021000167,None,765.8358021000167,766.7678872999968,0.05937099998118356,None,,,,,,,,,35,001,2019_Dec_25_1441,untitled,3.1.0,60.056056316336566,
454,_5,N,225,R,N,454_5N225RN,HRN,0,138,138,277,,,1.184,768.2544189000037,768.5995328000281,768.6169262999902,768.9007529999944,768.9166904999875,None,up,2.2027974000084214,768.9166904999875,None,768.9166904999875,770.0826057000086,0.06242490001022816,None,,,,,,,,,35,001,2019_Dec_25_1441,untitled,3.1.0,60.056056316336566,
_,_5,N,225,_,_,__5N225__,N,0,139,139,93,,,0.866,771.2163388999761,771.5411760000279,771.5411760000279,771.8307029000134,771.8469582999824,None,up,1.6328178999829106,771.8469582999824,None,771.8469582999824,772.6969069999759,0.08468859997810796,None,,,,,,,,,35,001,2019_Dec_25_1441,untitled,3.1.0,60.056056316336566,
_,F,N,270,_,_,_FN270__,N,0,140,140,54,,,1.264,773.5614428999834,773.8952536000288,773.9127409000066,774.1948391000042,774.2121463000076,None,up,1.982925200019963,774.2121463000076,None,774.2121463000076,775.4605448999791,0.07464890001574531,None,,,,,,,,,35,001,2019_Dec_25_1441,untitled,3.1.0,60.056056316336566,
_,_2,N,315,_,_,__2N315__,N,0,141,141,79,,,0.717,776.2625023000292,776.6101735000266,776.626664499985,776.9093516999856,776.9259123000083,None,down,1.5341022000066005,776.9259123000083,None,776.9259123000083,777.6254368000082,0.06063660001382232,None,,,,,,,,,35,001,2019_Dec_25_1441,untitled,3.1.0,60.056056316336566,
166,F,N,225,L,N,166FN225LN,HLN,0,142,142,221,,,1.2630000000000001,778.5283094000188,778.8740509999916,778.890882799984,779.174118200026,779.19057169999,None,up,2.1832749999593943,779.19057169999,None,779.19057169999,780.4395341000054,0.060888600011821836,None,,,,,,,,,35,001,2019_Dec_25_1441,untitled,3.1.0,60.056056316336566,
_,_4,N,315,_,_,__4N315__,N,0,143,143,87,,,1.041,781.4470472999965,781.7885609000223,781.8050923999981,782.087844899972,782.1043401000206,None,up,2.6665877000195906,782.1043401000206,None,782.1043401000206,783.1372494000243,0.06525099999271333,None,,,,,,,,,35,001,2019_Dec_25_1441,untitled,3.1.0,60.056056316336566,
235,G,M,90,L,N,235GM090LN,HLN,0,144,144,138,,,0.9440000000000001,784.8403945000027,785.1856981000165,785.202235499979,785.4857028999832,785.5026518999948,None,down,2.614363599976059,785.5026518999948,None,785.5026518999948,786.4344260999933,0.06234890001360327,None,,,,,,,,,35,001,2019_Dec_25_1441,untitled,3.1.0,60.056056316336566,
_,_5,N,0,_,_,__5N000__,N,0,145,145,88,,,0.882,788.1918545999797,788.5329919999931,788.5492644999758,788.8323133999947,788.8489662000211,None,up,2.0338506000116467,788.8489662000211,None,788.8489662000211,789.7144696000032,0.0671058000298217,None,,,,,,,,,35,001,2019_Dec_25_1441,untitled,3.1.0,60.056056316336566,
162,F,N,45,L,N,162FN045LN,HLN,0,146,146,217,,,1.304,790.9691930999979,791.2969201999949,791.3132181999972,791.5980912999948,791.6134000999737,None,up,2.331878900004085,791.6134000999737,None,791.6134000999737,792.8954008999863,0.07778829999733716,None,,,,,,,,,35,001,2019_Dec_25_1441,untitled,3.1.0,60.056056316336566,
199,G,N,270,R,N,199GN270RN,HRN,0,147,147,230,,,1.332,794.0362539999769,794.3601170000038,794.3778216000064,794.6611040999996,794.6772661000141,None,up,2.4836695000412874,794.6772661000141,None,794.6772661000141,795.9927451999974,0.08223830000497401,None,,,,,,,,,35,001,2019_Dec_25_1441,untitled,3.1.0,60.056056316336566,
005,R,N,180,R,N,005RN180RN,HRN,0,148,148,196,,,1.086,797.2402597999899,797.5746841999935,797.5908625000156,797.8741671000025,797.8909018000122,None,None,,797.8909018000122,None,797.8909018000122,798.9565152999712,0.07164570002350956,None,,,,,,,,,35,001,2019_Dec_25_1441,untitled,3.1.0,60.056056316336566,
481,_5,N,0,L,N,481_5N000LN,HLN,0,149,149,280,,,0.848,801.4410749999806,801.7713364000083,801.7878522999818,802.071934800013,802.0887212000089,801.4410749999806,up,1.882380299968645,802.0887212000089,None,802.0887212000089,802.9199561999994,0.07809799996903166,None,,,,,,,,,35,001,2019_Dec_25_1441,untitled,3.1.0,60.056056316336566,
487,_5,N,270,L,N,487_5N270LN,HLN,0,150,150,286,,,0.762,804.0503266999731,804.3857514000265,804.4019602999906,804.685312799993,804.7021322000073,None,up,1.56696629995713,804.7021322000073,None,804.7021322000073,805.4506610999815,0.0720133000286296,None,,,,,,,,,35,001,2019_Dec_25_1441,untitled,3.1.0,60.056056316336566,
_,G,N,315,_,_,_GN315__,N,0,151,151,63,,,1.283,806.3547439000104,806.6834803000093,806.6999207999907,806.9829454999999,806.9994642999955,None,up,2.085004900000058,806.9994642999955,None,806.9994642999955,808.2653768999735,0.07777819997863844,None,,,,,,,,,35,001,2019_Dec_25_1441,untitled,3.1.0,60.056056316336566,
_,G,M,315,_,_,_GM315__,N,0,152,152,15,,,1.3880000000000001,809.1658159000217,809.4977657999843,809.5146179000149,809.7970957999933,809.8137692000018,None,down,2.2151927000377327,809.8137692000018,None,809.8137692000018,811.1958420000155,0.07280900003388524,None,,,,,,,,,35,001,2019_Dec_25_1441,untitled,3.1.0,60.056056316336566,
_,F,M,90,_,_,_FM090__,N,0,153,153,2,,,0.797,812.1087113000103,812.4450509999879,812.4619140999857,812.7445392999798,812.7609749999829,None,down,2.166094599990174,812.7609749999829,None,812.7609749999829,813.5442778000142,0.07220290001714602,None,,,,,,,,,35,001,2019_Dec_25_1441,untitled,3.1.0,60.056056316336566,
238,G,M,225,L,N,238GM225LN,HLN,0,154,154,141,,,1.389,815.000252400001,815.342483800021,815.3591665999847,815.6426453000167,815.658946999989,None,down,2.9805495999753475,815.658946999989,None,815.658946999989,817.025730399997,0.06636140000773594,None,,,,,,,,,35,001,2019_Dec_25_1441,untitled,3.1.0,60.056056316336566,
_,_4,N,180,_,_,__4N180__,N,0,155,155,84,,,1.09,818.7286819000146,819.0558999999776,819.0723860000144,819.3558431999991,819.3724013000028,None,up,2.6486252000322565,819.3724013000028,None,819.3724013000028,820.4382277000113,0.08075439999811351,None,,,,,,,,,35,001,2019_Dec_25_1441,untitled,3.1.0,60.056056316336566,
270,_2,M,225,R,N,270_2M225RN,HRN,0,156,156,149,,,0.791,822.1125665000291,822.4364553000196,822.4526338999858,822.7362847999902,822.7526691000094,None,down,2.284134100016672,822.7526691000094,None,822.7526691000094,823.5353562000091,0.08335819997591898,None,,,,,,,,,35,001,2019_Dec_25_1441,untitled,3.1.0,60.056056316336566,
_,_5,N,315,_,_,__5N315__,N,0,157,157,95,,,0.995,825.1040965000284,825.450473600009,825.4671619000146,825.7504615000216,825.767257599975,None,up,2.2810228999587707,825.767257599975,None,825.767257599975,826.7488651999738,0.06069660000503063,None,,,,,,,,,35,001,2019_Dec_25_1441,untitled,3.1.0,60.056056316336566,
451,_5,N,90,R,N,451_5N090RN,HRN,0,158,158,274,,,1.2630000000000001,828.1320842999849,828.4641351000173,828.4816120999749,828.7642494000029,828.7810318000265,None,up,2.447932699986268,828.7810318000265,None,828.7810318000265,830.0299082000274,0.0755063000251539,None,,,,,,,,,35,001,2019_Dec_25_1441,untitled,3.1.0,60.056056316336566,
229,G,N,180,L,N,229GN180LN,HLN,0,159,159,236,,,1.329,831.2975551999989,831.6450597000076,831.6617669999832,831.9450395000167,831.961131100019,None,up,2.8311825999990106,831.961131100019,None,831.961131100019,833.2761573999887,0.06123580003622919,None,,,,,,,,,35,001,2019_Dec_25_1441,untitled,3.1.0,60.056056316336566,
450,_5,N,45,R,N,450_5N045RN,HRN,0,160,160,273,,,1.381,834.8582343999879,835.2090791999944,835.2252766999882,835.5084231999936,835.5251834000228,None,up,2.7165074999793433,835.5251834000228,None,835.5251834000228,836.8906822000281,0.05926519999047741,None,,,,,,,,,35,001,2019_Dec_25_1441,untitled,3.1.0,60.056056316336566,
_,R,N,225,_,_,_RN225__,N,0,161,161,69,,,0.81,838.3178863999783,838.655508099997,838.672327200009,838.9554382999777,838.9724013999803,None,up,1.9983284000190906,838.9724013999803,None,838.9724013999803,839.770925400022,0.06687370000872761,None,,,,,,,,,35,001,2019_Dec_25_1441,untitled,3.1.0,60.056056316336566,
419,_4,N,90,L,N,419_4N090LN,HLN,0,162,162,266,,,1.179,841.0434004000272,841.386374099995,841.4034452000051,841.6862641000189,841.702704299998,None,down,2.5515305000008084,841.702704299998,None,841.702704299998,842.8687169000041,0.06530959997326136,None,,,,,,,,,35,001,2019_Dec_25_1441,untitled,3.1.0,60.056056316336566,
390,_4,N,225,R,N,390_4N225RN,HRN,0,163,163,261,,,1.163,844.3266368000186,844.6670424999902,844.6832580000046,844.9661882999935,844.9829989999998,None,up,2.882045600039419,844.9829989999998,None,844.9829989999998,846.132321299985,0.06546529999468476,None,,,,,,,,,35,001,2019_Dec_25_1441,untitled,3.1.0,60.056056316336566,
169,F,M,0,L,N,169FM000LN,HLN,0,164,164,120,,,1.2710000000000001,847.9708628000226,848.280319500016,848.2967212999938,848.5803145000245,848.5975130000152,None,down,2.3978617999819107,848.5975130000152,None,848.5975130000152,849.846091000014,0.0977837999816984,None,,,,,,,,,35,001,2019_Dec_25_1441,untitled,3.1.0,60.056056316336566,
431,_4,M,270,L,N,431_4M270LN,HLN,0,165,165,174,,,1.245,851.087113799993,851.4116534999921,851.427773399977,851.7104139999719,851.7272877999931,None,down,2.5652712999726646,851.7272877999931,None,851.7272877999931,852.9594913999899,0.08485720003955066,None,,,,,,,,,35,001,2019_Dec_25_1441,untitled,3.1.0,60.056056316336566,
458,_5,M,45,R,N,458_5M045RN,HRN,0,166,166,177,,,1.184,854.3687706000055,854.7083332000184,854.7258054999984,855.0082855999935,855.0251722999965,None,down,3.1975073000066914,855.0251722999965,None,855.0251722999965,856.1903244000277,0.06804980000015348,None,,,,,,,,,35,001,2019_Dec_25_1441,untitled,3.1.0,60.056056316336566,
_,F,M,135,_,_,_FM135__,N,0,167,167,3,,,1.1340000000000001,858.306068099977,858.6378559999866,858.6543443999835,858.9381496999995,858.9541684999713,None,down,3.001824499981012,858.9541684999713,None,858.9541684999713,860.0701083000167,0.07543989998521283,None,,,,,,,,,35,001,2019_Dec_25_1441,untitled,3.1.0,60.056056316336566,
_,G,N,0,_,_,_GN000__,N,0,168,168,56,,,1.223,862.0623359999736,862.3681264999905,862.3850264999783,862.6679572000285,862.685317000025,None,up,2.082579700043425,862.685317000025,None,862.685317000025,863.9006716000149,0.09398470004089177,None,,,,,,,,,35,001,2019_Dec_25_1441,untitled,3.1.0,60.056056316336566,
163,F,N,90,L,N,163FN090LN,HLN,0,169,169,218,,,0.844,864.8342277000193,865.1830651999917,865.1997373999911,865.4824528999743,865.4986264000181,None,up,2.482713799981866,865.4986264000181,None,865.4986264000181,866.3313275999972,0.059333199984394014,None,,,,,,,,,35,001,2019_Dec_25_1441,untitled,3.1.0,60.056056316336566,
141,F,M,180,R,N,141FM180RN,HRN,0,170,170,116,,,0.766,868.0595238999813,868.3960971999913,868.4131567999721,868.6965689000208,868.7123316000216,None,down,3.3991905999719165,868.7123316000216,None,868.7123316000216,869.4627527000266,0.07016060000751168,None,,,,,,,,,35,001,2019_Dec_25_1441,untitled,3.1.0,60.056056316336566,
257,_2,N,0,R,N,257_2N000RN,HRN,0,171,171,240,,,1.387,872.1957081999863,872.5258275999804,872.5446951999911,872.8257522999775,872.8427744000219,None,up,2.5674021000158973,872.8427744000219,None,872.8427744000219,874.2075913000153,0.07521630002884194,None,,,,,,,,,35,001,2019_Dec_25_1441,untitled,3.1.0,60.056056316336566,
_,_5,N,180,_,_,__5N180__,N,0,172,172,92,,,1.212,875.4757075000089,875.8229547999799,875.8406004999997,876.1227585999877,876.1396427000291,None,up,2.681091299979016,876.1396427000291,None,876.1396427000291,877.3383041999768,0.05855010001687333,None,,,,,,,,,35,001,2019_Dec_25_1441,untitled,3.1.0,60.056056316336566,
198,G,N,225,R,N,198GN225RN,HRN,0,173,173,229,,,0.8170000000000001,878.8956846999936,879.2368165000225,879.2530707999831,879.5369239000138,879.5537512999726,None,up,2.580804699973669,879.5537512999726,None,879.5537512999726,880.3530074000009,0.0671662000240758,None,,,,,,,,,35,001,2019_Dec_25_1441,untitled,3.1.0,60.056056316336566,
_,_5,M,0,_,_,__5M000__,N,0,174,174,40,,,0.878,882.2001658999943,882.5501838999917,882.5677556999726,882.8507511999924,882.8668103999807,None,down,2.7004496000008658,882.8668103999807,None,882.8668103999807,883.732698399981,0.05813759996090084,None,,,,,,,,,35,001,2019_Dec_25_1441,untitled,3.1.0,60.056056316336566,
131,F,N,90,R,N,131FN090RN,HRN,0,175,175,210,,,0.833,885.653498700005,885.9808070000145,885.9976644000271,886.2811038999935,886.2973634999944,None,up,2.1323642000206746,886.2973634999944,None,886.2973634999944,887.1130419999827,0.0776472999714315,None,,,,,,,,,35,001,2019_Dec_25_1441,untitled,3.1.0,60.056056316336566,
455,_5,N,270,R,N,455_5N270RN,HRN,0,176,176,278,,,0.9470000000000001,888.5042389999726,888.844672999985,888.861459799984,889.1448054999928,889.161265600007,None,up,1.9512381000095047,889.161265600007,None,889.161265600007,890.0937798999948,0.06674280000152066,None,,,,,,,,,35,001,2019_Dec_25_1441,untitled,3.1.0,60.056056316336566,
_,G,N,180,_,_,_GN180__,N,0,177,177,60,,,1.062,891.1983676999807,891.5260236000177,891.5427643000148,891.8259923000005,891.8427115000086,None,up,2.616948399983812,891.8427115000086,None,891.8427115000086,892.891895400011,0.07708210003329441,None,,,,,,,,,35,001,2019_Dec_25_1441,untitled,3.1.0,60.056056316336566,
462,_5,M,225,R,N,462_5M225RN,HRN,0,178,178,181,,,1.03,894.5312057000119,894.8731522000162,894.8899236000143,895.1729687000043,895.1895898000221,None,down,2.6987150999484584,895.1895898000221,None,895.1895898000221,896.2052681000205,0.06477920000907034,None,,,,,,,,,35,001,2019_Dec_25_1441,untitled,3.1.0,60.056056316336566,
292,_2,N,135,L,N,292_2N135LN,HLN,0,179,179,251,,,1.185,897.9792551000137,898.3031566999853,898.3210275999736,898.603245700011,898.6211849999963,None,up,3.0489375999895856,898.6211849999963,None,898.6211849999963,899.7854556000093,0.08066070004133508,None,,,,,,,,,35,001,2019_Dec_25_1441,untitled,3.1.0,60.056056316336566,
272,_2,M,315,R,N,272_2M315RN,HRN,0,180,180,151,,,0.993,901.7749338999856,902.083719599992,902.100069499982,902.3837440999923,902.3998573999852,None,down,2.515195699990727,902.3998573999852,None,902.3998573999852,903.3822249000077,0.09361809998517856,None,,,,,,,,,35,001,2019_Dec_25_1441,untitled,3.1.0,60.056056316336566,
_,_2,N,135,_,_,__2N135__,N,0,181,181,75,,,1.252,904.9947568000061,905.3307323000045,905.3471773000201,905.6305349000031,905.6465647000005,None,up,2.450814399984665,905.6465647000005,None,905.6465647000005,906.878715800005,0.07278250000672415,None,,,,,,,,,35,001,2019_Dec_25_1441,untitled,3.1.0,60.056056316336566,
_,_5,M,45,_,_,__5M045__,N,0,182,182,41,,,1.164,908.1694311000174,908.4950577000272,908.5273098999751,908.8107363000163,908.827674900007,None,down,2.881968700035941,908.827674900007,None,908.827674900007,909.976471300004,0.06512110005132854,None,,,,,,,,,35,001,2019_Dec_25_1441,untitled,3.1.0,60.056056316336566,
_,R,N,180,_,_,_RN180__,N,0,183,183,68,,,1.1260000000000001,911.7820348999812,912.1251557000214,912.1419975999743,912.4245875999914,912.4411296999897,None,up,2.9645553000154905,912.4411296999897,None,912.4411296999897,913.5568989000167,0.06625969999004155,None,,,,,,,,,35,001,2019_Dec_25_1441,untitled,3.1.0,60.056056316336566,
_,G,M,225,_,_,_GM225__,N,0,184,184,13,,,1.125,915.4862643000088,915.822593400022,915.8382541000028,916.121740099974,916.137702899985,None,down,2.4837165999924764,916.137702899985,None,916.137702899985,917.2532360000187,0.07215389999328181,None,,,,,,,,,35,001,2019_Dec_25_1441,untitled,3.1.0,60.056056316336566,
290,_2,N,45,L,N,290_2N045LN,HLN,0,185,185,249,,,1.353,918.6966689000255,919.0353591999738,919.051940299978,919.334962999972,919.3514669000288,None,up,2.5150103000341915,919.3514669000288,None,919.3514669000288,920.6837840999942,0.06860440003219992,None,,,,,,,,,35,001,2019_Dec_25_1441,untitled,3.1.0,60.056056316336566,
012,R,M,135,R,N,012RM135RN,HRN,0,186,186,99,,,1.037,921.9327252000221,922.2826781999902,922.2996609000256,922.5825527000125,922.598755199986,None,down,3.132974300009664,922.598755199986,None,922.598755199986,923.6158089999808,0.05918989999918267,None,,,,,,,,,35,001,2019_Dec_25_1441,untitled,3.1.0,60.056056316336566,
197,G,N,180,R,N,197GN180RN,HRN,0,187,187,228,,,0.86,925.8254909000243,926.1454698999878,926.1623903000145,926.445643700019,926.4622471000184,None,up,2.8147634000051767,926.4622471000184,None,926.4622471000184,927.3111411000136,0.08181669999612495,None,,,,,,,,,35,001,2019_Dec_25_1441,untitled,3.1.0,60.056056316336566,
494,_5,M,225,L,N,494_5M225LN,HLN,0,188,188,189,,,1.315,929.3663329000119,929.6930433000089,929.7094551000046,929.9928258999716,930.0095427000197,None,down,2.6666007000021636,930.0095427000197,None,930.0095427000197,931.3078455000068,0.08114490000298247,None,,,,,,,,,35,001,2019_Dec_25_1441,untitled,3.1.0,60.056056316336566,
459,_5,M,90,R,N,459_5M090RN,HRN,0,189,189,178,,,0.964,932.7425731000258,933.0899908000138,933.1066135999863,933.389327300014,933.4060126999975,None,down,2.3500806000083685,933.4060126999975,None,933.4060126999975,934.3557127999957,0.06002299999818206,None,,,,,,,,,35,001,2019_Dec_25_1441,untitled,3.1.0,60.056056316336566,
421,_4,N,180,L,N,421_4N180LN,HLN,0,190,190,268,,,1.081,935.8233966000262,936.1707681000116,936.1872741000261,936.470653299999,936.4875240999972,None,up,3.298140399972908,936.4875240999972,None,936.4875240999972,937.5522745000198,0.058731500001158565,None,,,,,,,,,35,001,2019_Dec_25_1441,untitled,3.1.0,60.056056316336566,
300,_2,M,135,L,N,300_2M135LN,HLN,0,191,191,155,,,1.113,939.8572463999735,940.2004814000102,940.2173173999763,940.499979300017,940.5169974999735,None,down,2.850610199966468,940.5169974999735,None,940.5169974999735,941.6154924000148,0.06462320004357025,None,,,,,,,,,35,001,2019_Dec_25_1441,untitled,3.1.0,60.056056316336566,
289,_2,N,0,L,N,289_2N000LN,HLN,0,192,192,248,,,1.337,943.4395150999771,943.7803015999962,943.7971285000094,944.0813319999725,944.0967086000019,None,up,2.0989812000188977,944.0967086000019,None,944.0967086000019,945.4130118999747,0.06525450001936406,None,,,,,,,,,35,001,2019_Dec_25_1441,untitled,3.1.0,60.056056316336566,
_,_2,M,225,_,_,__2M225__,N,0,193,193,29,,,0.704,946.265947900014,946.6115857000113,946.6293261999963,946.9122292000102,946.9279328000266,None,down,2.6653764999937266,946.9279328000266,None,946.9279328000266,947.6104227000033,0.06363910000072792,None,,,,,,,,,35,001,2019_Dec_25_1441,untitled,3.1.0,60.056056316336566,
429,_4,M,180,L,N,429_4M180LN,HLN,0,194,194,172,,,0.934,949.6811864000047,950.0088445000001,950.0254499000148,950.3075037000235,950.3242015999858,None,up,3.1663167999940924,950.3242015999858,None,950.3242015999858,951.2410755999736,0.07967619999544695,None,,,,,,,,,35,001,2019_Dec_25_1441,untitled,3.1.0,60.056056316336566,
013,R,M,180,R,N,013RM180RN,HRN,0,195,195,100,,,1.2570000000000001,953.5716567999916,953.9052513000206,953.9221029999899,954.2085847000126,954.2085847000126,None,None,,954.2085847000126,None,954.2085847000126,955.4539034999907,0.07365259999642149,None,,,,,,,,,35,001,2019_Dec_25_1441,untitled,3.1.0,60.056056316336566,
_,_4,M,315,_,_,__4M315__,N,0,196,196,39,,,1.373,957.7844608000014,958.1009848000249,958.1188091000076,958.4015916999779,958.417872400023,957.7844608000014,down,0.03374769998481497,958.417872400023,None,958.417872400023,None,0.09041469998192042,None,,,,,,,,,35,001,2019_Dec_25_1441,untitled,3.1.0,60.056056316336566,
418,_4,N,45,L,N,418_4N045LN,HLN,0,197,197,265,,,0.933,958.5226536000264,958.8674702999997,958.88532880001,959.1675605999772,959.1842006000225,None,up,2.4186943999957293,959.1842006000225,None,959.1842006000225,960.1012663000147,0.06389330001547933,None,,,,,,,,,35,001,2019_Dec_25_1441,untitled,3.1.0,60.056056316336566,
202,G,M,45,R,N,202GM045RN,HRN,0,198,198,129,,,1.12,961.6977110999869,962.0149444999988,962.0312614000286,962.3142636999837,962.3313700999715,None,down,2.61523809999926,962.3313700999715,None,962.3313700999715,963.430441399978,0.08456630003638566,None,,,,,,,,,35,001,2019_Dec_25_1441,untitled,3.1.0,60.056056316336566,
195,G,N,90,R,N,195GN090RN,HRN,0,199,199,226,,,0.983,965.032726400008,965.3613271000213,965.3783245999948,965.6613296000287,965.6776215999853,None,up,2.7680244999937713,965.6776215999853,None,965.6776215999853,966.6437052999972,0.07827830000314862,None,,,,,,,,,35,001,2019_Dec_25_1441,untitled,3.1.0,60.056056316336566,
297,_2,M,0,L,N,297_2M000LN,HLN,0,200,200,152,,,0.871,968.5165797999944,968.8586942999973,968.8752358999918,969.1594398000161,969.1779055999941,None,down,2.862362700048834,969.1779055999941,None,969.1779055999941,970.0252102999948,0.06450640002731234,None,,,,,,,,,35,001,2019_Dec_25_1441,untitled,3.1.0,60.056056316336566,
488,_5,N,315,L,N,488_5N315LN,HLN,0,201,201,287,,,0.8150000000000001,972.120509499975,972.4553070000256,972.4724083999754,972.7551890999894,972.7715962000075,None,up,1.9156973999924958,972.7715962000075,None,972.7715962000075,973.5706772999838,0.07207360002212226,None,,,,,,,,,35,001,2019_Dec_25_1441,untitled,3.1.0,60.056056316336566,
142,F,M,225,R,N,142FM225RN,HRN,0,202,202,117,,,1.347,974.7587199999834,975.1032904000022,975.1199892999721,975.4030368999811,975.4195137000061,None,down,2.617278099991381,975.4195137000061,None,975.4195137000061,976.7513123999815,0.06468080001650378,None,,,,,,,,,35,001,2019_Dec_25_1441,untitled,3.1.0,60.056056316336566,
_,G,M,45,_,_,_GM045__,N,0,203,203,9,,,0.779,978.1025395999895,978.4510390000069,978.4675020999857,978.7499139999854,978.7667737000156,None,down,1.8490936000016518,978.7667737000156,None,978.7667737000156,979.5333388000145,0.058983199996873736,None,,,,,,,,,35,001,2019_Dec_25_1441,untitled,3.1.0,60.056056316336566,
132,F,N,135,R,N,132FN135RN,HRN,0,204,204,211,,,0.773,980.6996421000222,981.031431499985,981.0480113999802,981.3310778000159,981.3478800000157,None,up,2.016742300009355,981.3478800000157,None,981.3478800000157,982.0970540000126,0.07582240004558116,None,,,,,,,,,35,001,2019_Dec_25_1441,untitled,3.1.0,60.056056316336566,
_,F,N,90,_,_,_FN090__,N,0,205,205,50,,,1.286,983.4495818000287,983.7790035000071,983.7955041999812,984.0793384999852,984.0956001000013,None,up,2.682639900012873,984.0956001000013,None,984.0956001000013,985.3611998999841,0.07609330001287162,None,,,,,,,,,35,001,2019_Dec_25_1441,untitled,3.1.0,60.056056316336566,
_,R,M,135,_,_,_RM135__,N,0,206,206,19,,,0.921,986.869898999983,987.1924333000206,987.2095194000285,987.4925047999714,987.509335300012,None,down,2.251078100001905,987.509335300012,None,987.509335300012,988.4251542999991,0.0806946000084281,None,,,,,,,,,35,001,2019_Dec_25_1441,untitled,3.1.0,60.056056316336566,
294,_2,N,225,L,N,294_2N225LN,HLN,0,207,207,253,,,0.735,989.8459449000075,990.1732318999711,990.1900983999949,990.4736250999849,990.4901000999962,None,up,2.5831953999586403,990.4901000999962,None,990.4901000999962,991.2055067999754,0.0765561000443995,None,,,,,,,,,35,001,2019_Dec_25_1441,untitled,3.1.0,60.056056316336566,
491,_5,M,90,L,N,491_5M090LN,HLN,0,208,208,186,,,1.086,993.1527519000228,993.4874740000232,993.5040400000289,993.7871714999783,993.8035075999796,None,down,2.715454999997746,993.8035075999796,None,993.8035075999796,994.8690039999783,0.0709326000069268,None,,,,,,,,,35,001,2019_Dec_25_1441,untitled,3.1.0,60.056056316336566,
_,_2,N,0,_,_,__2N000__,N,0,209,209,72,,,0.752,996.5851996000274,996.9345307999756,996.9511888999841,997.234379099973,997.2504800999886,None,up,1.568179499998223,997.2504800999886,None,997.2504800999886,997.9831016000244,0.058654400054365396,None,,,,,,,,,35,001,2019_Dec_25_1441,untitled,3.1.0,60.056056316336566,
496,_5,M,315,L,N,496_5M315LN,HLN,0,210,210,191,,,0.835,998.9010194999864,999.2323030999978,999.2487177000148,999.5326390999835,999.5492808999843,None,down,1.9985884000197984,999.5492808999843,None,999.5492808999843,1000.3642473000218,0.0744381999829784,None,,,,,,,,,35,001,2019_Dec_25_1441,untitled,3.1.0,60.056056316336566,
044,R,M,135,L,N,044RM135LN,HLN,0,211,211,107,,,0.848,1001.6239277999848,1001.9631070999894,1001.9804996000021,1002.2629285000148,1002.279635999992,None,down,2.3336907000048086,1002.279635999992,None,1002.279635999992,1003.1119719999842,0.06901079998351634,None,,,,,,,,,35,001,2019_Dec_25_1441,untitled,3.1.0,60.056056316336566,
011,R,M,90,R,N,011RM090RN,HRN,0,212,212,98,,,0.853,1004.6830665000016,1005.0269941000151,1005.044109600014,1005.3269124000217,1005.3440387999872,None,down,2.397042699973099,1005.3440387999872,None,1005.3440387999872,1006.1759609000292,0.06318420002935454,None,,,,,,,,,35,001,2019_Dec_25_1441,untitled,3.1.0,60.056056316336566,
452,_5,N,135,R,N,452_5N135RN,HRN,0,213,213,275,,,1.098,1007.8081767000258,1008.1576428000117,1008.17479249998,1008.4576053000055,1008.4739070999785,None,down,2.53214119997574,1008.4739070999785,None,1008.4739070999785,1009.556226900022,0.05979720002505928,None,,,,,,,,,35,001,2019_Dec_25_1441,untitled,3.1.0,60.056056316336566,
_,F,N,0,_,_,_FN000__,N,0,214,214,48,,,1.002,1011.0890145999729,1011.4213988999836,1011.438235300011,1011.7224164999789,1011.7380458000116,None,up,1.7341859000152908,1011.7380458000116,None,1011.7380458000116,1012.720640900021,0.07499740005005151,None,,,,,,,,,35,001,2019_Dec_25_1441,untitled,3.1.0,60.056056316336566,
_,R,N,0,_,_,_RN000__,N,0,215,215,64,,,0.736,1013.5417268999736,1013.8859252000111,1013.9027663000161,1014.1857849999797,1014.2022526999936,None,up,1.5857218999881297,1014.2022526999936,None,1014.2022526999936,1014.9188127000234,0.06301809998694807,None,,,,,,,,,35,001,2019_Dec_25_1441,untitled,3.1.0,60.056056316336566,
_,G,M,90,_,_,_GM090__,N,0,216,216,10,,,1.095,1015.8815853000269,1016.2001877999865,1016.2172156000161,1016.5003073000116,1016.5172714000219,None,down,2.30022450000979,1016.5172714000219,None,1016.5172714000219,1017.5996450000093,0.08393500000238419,None,,,,,,,,,35,001,2019_Dec_25_1441,untitled,3.1.0,60.056056316336566,
400,_4,M,315,R,N,400_4M315RN,HRN,0,217,217,167,,,1.018,1018.9079264000175,1019.2315477000084,1019.2481421999983,1019.531685199996,1019.5559208000195,None,down,3.0745634000049904,1019.5559208000195,None,1019.5559208000195,1020.5470761000179,0.08215650002239272,None,,,,,,,,,35,001,2019_Dec_25_1441,untitled,3.1.0,60.056056316336566,
392,_4,N,315,R,N,392_4N315RN,HRN,0,218,218,263,,,0.962,1022.7013201999944,1023.044725499989,1023.0617665000027,1023.3451267000055,1023.3607769000228,None,up,1.9492755000246689,1023.3607769000228,None,1023.3607769000228,1024.3112149999943,0.06367060000775382,None,,,,,,,,,35,001,2019_Dec_25_1441,untitled,3.1.0,60.056056316336566,
295,_2,N,270,L,N,295_2N270LN,HLN,0,219,219,254,,,1.365,1025.3878813000047,1025.725842099986,1025.7424374999828,1026.0254164999933,1026.0419376000063,None,up,2.232453499978874,1026.0419376000063,None,1026.0419376000063,1027.3912724999827,0.06958200002554804,None,,,,,,,,,35,001,2019_Dec_25_1441,untitled,3.1.0,60.056056316336566,
264,_2,N,315,R,N,264_2N315RN,HRN,0,220,220,247,,,1.034,1028.3645232000272,1028.6904618000262,1028.7065348000033,1028.9895790999872,1029.0060967999743,None,up,1.9184461999684572,1029.0060967999743,None,1029.0060967999743,1030.022557999997,0.08147530001588166,None,,,,,,,,,35,001,2019_Dec_25_1441,untitled,3.1.0,60.056056316336566,
135,F,N,270,R,N,135FN270RN,HRN,0,221,221,214,,,1.203,1031.0101153000141,1031.337558500003,1031.3549047000124,1031.6372898999834,1031.654134900018,None,down,2.215039099974092,1031.654134900018,None,1031.654134900018,1032.8360533000086,0.07671320001827553,None,,,,,,,,,35,001,2019_Dec_25_1441,untitled,3.1.0,60.056056316336566,
_,G,M,180,_,_,_GM180__,N,0,222,222,12,,,0.926,1033.9453375000157,1034.2853830999811,1034.3016538000084,1034.5850946999853,1034.6015178000089,None,up,3.3974028000375256,1034.6015178000089,None,1034.6015178000089,1035.5176319999737,0.0678671000059694,None,,,,,,,,,35,001,2019_Dec_25_1441,untitled,3.1.0,60.056056316336566,
460,_5,M,135,R,N,460_5M135RN,HRN,0,223,223,179,,,1.2510000000000001,1038.072038399987,1038.4159034999902,1038.4312664999743,1038.7143040000228,1038.7310730000027,None,None,,1038.7310730000027,None,1038.7310730000027,1039.9638722999953,0.06531989999348298,None,,,,,,,,,35,001,2019_Dec_25_1441,untitled,3.1.0,60.056056316336566,
047,R,M,270,L,N,047RM270LN,HLN,0,224,224,110,,,1.149,1042.2632540999912,1042.6114063999848,1042.6275494999718,1042.9105970999808,1042.92718280002,1042.2632540999912,down,2.5825071000144817,1042.92718280002,None,1042.92718280002,1044.059643400018,0.06188329996075481,None,,,,,,,,,35,001,2019_Dec_25_1441,untitled,3.1.0,60.056056316336566,
046,R,M,225,L,N,046RM225LN,HLN,0,225,225,109,,,1.053,1045.6131434999988,1045.9248789999983,1045.9418370000203,1046.2267745999852,1046.2416052999906,None,down,3.3305354999611154,1046.2416052999906,None,1046.2416052999906,1047.2737759000156,0.09439779998501763,None,,,,,,,,,35,001,2019_Dec_25_1441,untitled,3.1.0,60.056056316336566,
_,R,M,315,_,_,_RM315__,N,0,226,226,23,,,0.711,1049.6530082999961,1049.9880856000236,1050.0046950000105,1050.2877088999958,1050.3040012000129,None,down,1.8322585999849252,1050.3040012000129,None,1050.3040012000129,1051.0037228,0.07355170004302636,None,,,,,,,,,35,001,2019_Dec_25_1441,untitled,3.1.0,60.056056316336566,
_,F,M,270,_,_,_FM270__,N,0,227,227,6,,,0.9400000000000001,1052.207923799986,1052.5523175999988,1052.568958399992,1052.8522676000139,1052.868853699998,None,down,2.2996541999746114,1052.868853699998,None,1052.868853699998,1053.7845943000284,0.06440289999591187,None,,,,,,,,,35,001,2019_Dec_25_1441,untitled,3.1.0,60.056056316336566,
_,_5,M,270,_,_,__5M270__,N,0,228,228,46,,,0.71,1055.2569850999862,1055.583096300019,1055.5996825000038,1055.8829316999763,1055.899516800011,None,down,2.5482745000044815,1055.899516800011,None,1055.899516800011,1056.598898300028,0.0801733999978751,None,,,,,,,,,35,001,2019_Dec_25_1441,untitled,3.1.0,60.056056316336566,
143,F,M,270,R,N,143FM270RN,HRN,0,229,229,118,,,0.77,1058.5143474999932,1058.863582400023,1058.8805579000036,1059.163100100006,1059.179630299972,None,down,2.2163924999767914,1059.179630299972,None,1059.179630299972,1059.930139700009,0.05840519996127114,None,,,,,,,,,35,001,2019_Dec_25_1441,untitled,3.1.0,60.056056316336566,
016,R,M,315,R,N,016RM315RN,HRN,0,230,230,103,,,0.9420000000000001,1061.4692313999985,1061.8112243000069,1061.8279791999958,1062.1109067000216,1062.1279264999903,None,down,1.8155964000034146,1062.1279264999903,None,1062.1279264999903,1063.0599685999914,0.06573989999014884,None,,,,,,,,,35,001,2019_Dec_25_1441,untitled,3.1.0,60.056056316336566,
_,R,N,135,_,_,_RN135__,N,0,231,231,67,,,1.194,1064.0155322999926,1064.3586421000073,1064.3752755000023,1064.6585364000057,1064.6750413000118,None,up,2.947598200000357,1064.6750413000118,None,1064.6750413000118,1065.8570144000114,0.06519739999203011,None,,,,,,,,,35,001,2019_Dec_25_1441,untitled,3.1.0,60.056056316336566,
165,F,N,180,L,N,165FN180LN,HLN,0,232,232,220,,,1.181,1067.6958416000125,1068.0389035000117,1068.055735700007,1068.3386226000148,1068.3553631000104,None,up,3.297566800029017,1068.3553631000104,None,1068.3553631000104,1069.521589800017,0.0664225000073202,None,,,,,,,,,35,001,2019_Dec_25_1441,untitled,3.1.0,60.056056316336566,
170,F,M,45,L,N,170FM045LN,HLN,0,233,233,121,,,0.833,1071.7378422999755,1072.0685155999963,1072.0854975000257,1072.3686286999728,1072.3855803000042,None,down,1.9346118999528699,1072.3855803000042,None,1072.3855803000042,1073.2012196999858,0.07753380003850907,None,,,,,,,,,35,001,2019_Dec_25_1441,untitled,3.1.0,60.056056316336566,
296,_2,N,315,L,N,296_2N315LN,HLN,0,234,234,255,,,0.979,1074.4102096999995,1074.7332872999832,1074.7495636999956,1075.0335975000053,1075.0491154000047,None,up,2.3656085000257008,1075.0491154000047,None,1075.0491154000047,1076.0160879999748,0.08148849999997765,None,,,,,,,,,35,001,2019_Dec_25_1441,untitled,3.1.0,60.056056316336566,
206,G,M,225,R,N,206GM225RN,HRN,0,235,235,133,,,1.3860000000000001,1077.4874633,1077.8306443999754,1077.8475083999801,1078.1311837999965,1078.1469584999722,None,down,3.0325566999963485,1078.1469584999722,None,1078.1469584999722,1079.5121605999884,0.0662356999819167,None,,,,,,,,,35,001,2019_Dec_25_1441,untitled,3.1.0,60.056056316336566,
456,_5,N,315,R,N,456_5N315RN,HRN,0,236,236,279,,,1.311,1081.252144899976,1081.5935731999925,1081.6101224999875,1081.8938651999924,1081.9104555000085,None,up,2.4157484999741428,1081.9104555000085,None,1081.9104555000085,1083.209121300024,0.06600719998823479,None,,,,,,,,,35,001,2019_Dec_25_1441,untitled,3.1.0,60.056056316336566,
_,F,N,315,_,_,_FN315__,N,0,237,237,55,,,1.082,1084.4038379000267,1084.7408291000174,1084.757321699988,1085.040793800028,1085.0572321999935,None,up,1.9658439000486396,1085.0572321999935,None,1085.0572321999935,1086.1226570999715,0.06885290000354871,None,,,,,,,,,35,001,2019_Dec_25_1441,untitled,3.1.0,60.056056316336566,
203,G,M,90,R,N,203GM090RN,HRN,0,238,238,130,,,0.729,1087.1037079999805,1087.4385668999748,1087.455114500015,1087.738396700006,1087.7550704000168,None,down,2.2680342000094242,1087.7550704000168,None,1087.7550704000168,1088.4713389999815,0.07334380003158003,None,,,,,,,,,35,001,2019_Dec_25_1441,untitled,3.1.0,60.056056316336566,
430,_4,M,225,L,N,430_4M225LN,HLN,0,239,239,173,,,1.222,1090.1046559999813,1090.4365127999918,1090.4527542000287,1090.735957099998,1090.7526147000026,None,down,3.284914999967441,1090.7526147000026,None,1090.7526147000026,1091.9679877000162,0.07312740001361817,None,,,,,,,,,35,001,2019_Dec_25_1441,untitled,3.1.0,60.056056316336566,
_,_5,N,135,_,_,__5N135__,N,0,240,240,91,,,0.731,1094.1341156000271,1094.4490919000236,1094.4659783000243,1094.7486417000182,1094.765458400012,None,up,2.617519000021275,1094.765458400012,None,1094.765458400012,1095.4815328000113,0.08601979998638853,None,,,,,,,,,35,001,2019_Dec_25_1441,untitled,3.1.0,60.056056316336566,
_,_5,N,45,_,_,__5N045__,N,0,241,241,89,,,0.9510000000000001,1097.4475809999858,1097.795868700021,1097.8131001000293,1098.0959989000112,1098.1133631999837,None,up,1.8654631999670528,1098.1133631999837,None,1098.1133631999837,1099.0448898000177,0.05731650005327538,None,,,,,,,,,35,001,2019_Dec_25_1441,untitled,3.1.0,60.056056316336566,
457,_5,M,0,R,N,457_5M000RN,HRN,0,242,242,176,,,1.169,1100.0483140000142,1100.3943876000121,1100.4109443000052,1100.6941005000263,1100.7105354000232,None,down,2.1146219999645837,1100.7105354000232,None,1100.7105354000232,1101.859225800028,0.06270309997489676,None,,,,,,,,,35,001,2019_Dec_25_1441,untitled,3.1.0,60.056056316336566,
463,_5,M,270,R,N,463_5M270RN,HRN,0,243,243,182,,,1.266,1102.906233799993,1103.2422430000152,1103.2583241999964,1103.540807500016,1103.5578712000279,None,down,3.1157548999763094,1103.5578712000279,None,1103.5578712000279,1104.8069325999822,0.07335730001796037,None,,,,,,,,,35,001,2019_Dec_25_1441,untitled,3.1.0,60.056056316336566,
176,F,M,315,L,N,176FM315LN,HLN,0,244,244,127,,,1.3900000000000001,1106.7586694000056,1107.089018700004,1107.1047064000159,1107.3879976000171,1107.4047971999971,None,down,2.631148000014946,1107.4047971999971,None,1107.4047971999971,1108.786789899983,0.07717000000411645,None,,,,,,,,,35,001,2019_Dec_25_1441,untitled,3.1.0,60.056056316336566,
133,F,N,180,R,N,133FN180RN,HRN,0,245,245,212,,,1.305,1110.1041743999813,1110.4523167000152,1110.468389799993,1110.7519871999975,1110.7687719999813,None,up,3.381123099999968,1110.7687719999813,None,1110.7687719999813,1112.0503404000192,0.061411699978634715,None,,,,,,,,,35,001,2019_Dec_25_1441,untitled,3.1.0,60.056056316336566,
173,F,M,180,L,N,173FM180LN,HLN,0,246,246,124,,,1.287,1114.2224374000216,1114.5648741999757,1114.58150879998,1114.8651372999884,1114.881573999999,None,None,,1114.881573999999,None,1114.881573999999,1116.1469096000073,0.06513320002704859,None,,,,,,,,,35,001,2019_Dec_25_1441,untitled,3.1.0,60.056056316336566,
004,R,N,135,R,N,004RN135RN,HRN,0,247,247,195,,,1.083,1118.4276579999714,1118.7613714999752,1118.778206099989,1119.060934100009,1119.0773725999752,1118.4276579999714,up,3.100576800003182,1119.0773725999752,None,1119.0773725999752,1120.143131799996,0.07477050001034513,None,,,,,,,,,35,001,2019_Dec_25_1441,untitled,3.1.0,60.056056316336566,
_,F,M,180,_,_,_FM180__,N,0,248,248,4,,,0.875,1122.2494086999795,1122.5920877999743,1122.6084932999802,1122.8912030999782,1122.908085700008,None,down,2.481679400021676,1122.908085700008,None,1122.908085700008,1123.7766606999794,0.06493969995062798,None,,,,,,,,,35,001,2019_Dec_25_1441,untitled,3.1.0,60.056056316336566,
130,F,N,45,R,N,130FN045RN,HRN,0,249,249,209,,,1.159,1125.4856764000142,1125.8048972000252,1125.8221198000247,1126.105790600006,1126.1219631999847,None,up,2.2490554999676533,1126.1219631999847,None,1126.1219631999847,1127.2714616999729,0.08431659999769181,None,,,,,,,,,35,001,2019_Dec_25_1441,untitled,3.1.0,60.056056316336566,
_,R,M,45,_,_,_RM045__,N,0,250,250,17,,,0.787,1128.4394261999987,1128.7860528000165,1128.8024712000042,1129.0856084999978,1129.102041199978,None,down,1.9209547999780625,1129.102041199978,None,1129.102041199978,1129.8687053999747,0.061694799980614334,None,,,,,,,,,35,001,2019_Dec_25_1441,untitled,3.1.0,60.056056316336566,
236,G,M,135,L,N,236GM135LN,HLN,0,251,251,139,,,1.284,1131.1275711000198,1131.4335105000064,1131.4502302000183,1131.7332765000174,1131.7497074999847,None,down,2.8987895000027493,1131.7497074999847,None,1131.7497074999847,1133.0322196999914,0.09350379998795688,None,,,,,,,,,35,001,2019_Dec_25_1441,untitled,3.1.0,60.056056316336566,
042,R,M,45,L,N,042RM045LN,HLN,0,252,252,105,,,0.839,1134.715484699991,1135.0637216999894,1135.080924400012,1135.3634057000163,1135.380505100009,None,down,1.86937080003554,1135.380505100009,None,1135.380505100009,1136.1959648000193,0.05951619998086244,None,,,,,,,,,35,001,2019_Dec_25_1441,untitled,3.1.0,60.056056316336566,
_,_4,N,90,_,_,__4N090__,N,0,253,253,82,,,1.181,1137.3368205999723,1137.661970700021,1137.6782961999997,1137.9618333000108,1137.980659199995,None,up,2.4462709999643266,1137.980659199995,None,1137.980659199995,1139.1436751,0.07941189996199682,None,,,,,,,,,35,001,2019_Dec_25_1441,untitled,3.1.0,60.056056316336566,
_,_4,M,45,_,_,__4M045__,N,0,254,254,33,,,1.172,1140.4992263999884,1140.8426311999792,1140.8589694999973,1141.1423438999918,1141.1589391999878,None,down,2.100507299997844,1141.1589391999878,None,1141.1589391999878,1142.3071310999803,0.06591599999228492,None,,,,,,,,,35,001,2019_Dec_25_1441,untitled,3.1.0,60.056056316336566,
260,_2,N,135,R,N,260_2N135RN,HRN,0,255,255,243,,,1.328,1143.3631835000124,1143.6729276999831,1143.689673100016,1143.973626699997,1143.9896663000109,None,up,2.7148663999978453,1143.9896663000109,None,1143.9896663000109,1145.3052724999725,0.09353730001021177,None,,,,,,,,,35,001,2019_Dec_25_1441,untitled,3.1.0,60.056056316336566,
_,F,N,45,_,_,_FN045__,N,0,256,256,49,,,1.014,1146.7736911000102,1147.1196067000274,1147.1361459000036,1147.4195244999719,1147.436218900024,None,up,2.099470699962694,1147.436218900024,None,1147.436218900024,1148.435462000023,0.06282309995731339,None,,,,,,,,,35,001,2019_Dec_25_1441,untitled,3.1.0,60.056056316336566,
_,_2,N,225,_,_,__2N225__,N,0,257,257,77,,,0.9500000000000001,1149.6043327000225,1149.9505890000146,1149.9677080999827,1150.2504787999787,1150.2673404000234,None,up,2.034595699980855,1150.2673404000234,None,1150.2673404000234,1151.1995969000272,0.06058170000324026,None,,,,,,,,,35,001,2019_Dec_25_1441,untitled,3.1.0,60.056056316336566,
_,_4,M,270,_,_,__4M270__,N,0,258,258,38,,,1.0070000000000001,1152.4017862000037,1152.7155637000105,1152.7318917000084,1153.0149927000166,1153.031703000015,None,down,2.0844817999750376,1153.031703000015,None,1153.031703000015,1154.0305726000224,0.08960820001084358,None,,,,,,,,,35,001,2019_Dec_25_1441,untitled,3.1.0,60.056056316336566,
205,G,M,180,R,N,205GM180RN,HRN,0,259,259,132,,,1.295,1155.1867496999912,1155.5297179999761,1155.5459239999764,1155.829825200024,1155.8457276999834,None,None,,1155.8457276999834,None,1155.8457276999834,1157.1282853999874,0.06387000001268461,None,,,,,,,,,35,001,2019_Dec_25_1441,untitled,3.1.0,60.056056316336566,
386,_4,N,45,R,N,386_4N045RN,HRN,0,260,260,257,,,1.354,1159.3785165000008,1159.727327200002,1159.7438020000118,1160.025604000024,1160.0420520000043,1159.3785165000008,up,2.281641800014768,1160.0420520000043,None,1160.0420520000043,1161.3743740000064,0.0628294000052847,None,,,,,,,,,35,001,2019_Dec_25_1441,untitled,3.1.0,60.056056316336566,
482,_5,N,45,L,N,482_5N045LN,HLN,0,261,261,281,,,1.105,1162.3981691999943,1162.740152399987,1162.7568621999817,1163.0393301000004,1163.055982400023,None,up,2.7988587000290863,1163.055982400023,None,1163.055982400023,1164.138398799987,0.06740609998814762,None,,,,,,,,,35,001,2019_Dec_25_1441,untitled,3.1.0,60.056056316336566,
193,G,N,0,R,N,193GN000RN,HRN,0,262,262,224,,,1.393,1165.920916299976,1166.270153600024,1166.2874047000078,1166.570376800024,1166.5867175000021,None,up,2.2341076000011526,1166.5867175000021,None,1166.5867175000021,1168.0070363000268,0.0586030000122264,None,,,,,,,,,35,001,2019_Dec_25_1441,untitled,3.1.0,60.056056316336566,
_,_5,M,315,_,_,__5M315__,N,0,263,263,47,,,0.743,1168.889943999995,1169.2340592999826,1169.2507776999846,1169.5337491999962,1169.5505735999905,None,down,1.8173000999959186,1169.5505735999905,None,1169.5505735999905,1170.2827584000188,0.0625486999633722,None,,,,,,,,,35,001,2019_Dec_25_1441,untitled,3.1.0,60.056056316336566,
483,_5,N,90,L,N,483_5N090LN,HLN,0,264,264,282,,,0.904,1171.4392923000269,1171.782142799988,1171.798409399984,1172.0829362000222,1172.0983675000025,None,up,2.1154636000283062,1172.0983675000025,None,1172.0983675000025,1172.9806224000058,0.06479819997912273,None,,,,,,,,,35,001,2019_Dec_25_1441,untitled,3.1.0,60.056056316336566,
299,_2,M,90,L,N,299_2M090LN,HLN,0,265,265,154,,,1.397,1174.2994329999783,1174.6298904999858,1174.646803200012,1174.9294278000016,1174.9458629,None,down,2.5012072999961674,1174.9458629,None,1174.9458629,1176.3278694999753,0.0763918999582529,None,,,,,,,,,35,001,2019_Dec_25_1441,untitled,3.1.0,60.056056316336566,
200,G,N,315,R,N,200GN315RN,HRN,0,266,266,231,,,1.191,1177.520236100012,1177.859881100012,1177.876605700003,1178.1595494999783,1178.1760597000248,None,up,2.265571399999317,1178.1760597000248,None,1178.1760597000248,1179.3587733000168,0.06607810000423342,None,,,,,,,,,35,001,2019_Dec_25_1441,untitled,3.1.0,60.056056316336566,
301,_2,M,180,L,N,301_2M180LN,HLN,0,267,267,156,,,0.962,1180.5086975999875,1180.8570937999757,1180.8742160000256,1181.1569900999893,1181.1738082999946,None,down,2.9151903999736533,1181.1738082999946,None,1181.1738082999946,1182.1226895999862,0.060193999961484224,None,,,,,,,,,35,001,2019_Dec_25_1441,untitled,3.1.0,60.056056316336566,
_,R,N,270,_,_,_RN270__,N,0,268,268,70,,,0.712,1184.1852805999806,1184.5041442000074,1184.520820899983,1184.804010700027,1184.8204835000215,None,up,2.049549199989997,1184.8204835000215,None,1184.8204835000215,1185.519626000023,0.08770990004995838,None,,,,,,,,,35,001,2019_Dec_25_1441,untitled,3.1.0,60.056056316336566,
137,F,M,0,R,N,137FM000RN,HRN,0,269,269,112,,,0.866,1186.9552224000217,1187.2853176000062,1187.3018926000223,1187.5850930999732,1187.6016557000112,None,down,2.2817842999938875,1187.6016557000112,None,1187.6016557000112,1188.4506289000274,0.07610439998097718,None,,,,,,,,,35,001,2019_Dec_25_1441,untitled,3.1.0,60.056056316336566,
_,G,N,225,_,_,_GN225__,N,0,270,270,61,,,1.381,1189.9686785999802,1190.299385100021,1190.317339000001,1190.5990274000214,1190.6158598000184,None,up,2.5976305000367574,1190.6158598000184,None,1190.6158598000184,1191.980929900019,0.07688130001770332,None,,,,,,,,,35,001,2019_Dec_25_1441,untitled,3.1.0,60.056056316336566,
172,F,M,135,L,N,172FM135LN,HLN,0,271,271,123,,,1.131,1193.2872788999812,1193.6294992999756,1193.6462201999966,1193.9291789000272,1193.945617099991,None,down,2.450885800004471,1193.945617099991,None,1193.945617099991,1195.061779599986,0.06609760003630072,None,,,,,,,,,35,001,2019_Dec_25_1441,untitled,3.1.0,60.056056316336566,
259,_2,N,90,R,N,259_2N090RN,HRN,0,272,272,242,,,0.965,1196.483773600019,1196.810216700018,1196.8268606999773,1197.109801099985,1197.126766900008,None,up,2.032863100001123,1197.126766900008,None,1197.126766900008,1198.0761100000236,0.078516400011722,None,,,,,,,,,35,001,2019_Dec_25_1441,untitled,3.1.0,60.056056316336566,
008,R,N,315,R,N,008RN315RN,HRN,0,273,273,199,,,1.319,1199.2262270000065,1199.5754805000033,1199.5910480999737,1199.8740518999984,1199.890582800028,None,up,2.199252200021874,1199.890582800028,None,1199.890582800028,1201.1895183000015,0.058340399991720915,None,,,,,,,,,35,001,2019_Dec_25_1441,untitled,3.1.0,60.056056316336566,
449,_5,N,0,R,N,449_5N000RN,HRN,0,274,274,272,,,0.709,1202.1607615000103,1202.5051746999961,1202.521966499975,1202.804301200027,1202.8211550000124,None,up,1.5827937999856658,1202.8211550000124,None,1202.8211550000124,1203.5039151000092,0.06361529999412596,None,,,,,,,,,35,001,2019_Dec_25_1441,untitled,3.1.0,60.056056316336566,
045,R,M,180,L,N,045RM180LN,HLN,0,275,275,108,,,0.734,1204.4912981999805,1204.8211810999783,1204.8367461999878,1205.119384300022,1205.136258499988,None,down,2.4980856999754906,1205.136258499988,None,1205.136258499988,1205.8515898999758,0.07904290000442415,None,,,,,,,,,35,001,2019_Dec_25_1441,untitled,3.1.0,60.056056316336566,
_,_5,M,90,_,_,__5M090__,N,0,276,276,42,,,1.195,1207.707094100013,1208.0507817000034,1208.0672078999924,1208.3503793000127,1208.3670820000116,None,down,2.999726100009866,1208.3670820000116,None,1208.3670820000116,1209.5488823999767,0.06466279999585822,None,,,,,,,,,35,001,2019_Dec_25_1441,untitled,3.1.0,60.056056316336566,
009,R,M,0,R,N,009RM000RN,HRN,0,277,277,96,,,1.1360000000000001,1211.4506705999956,1211.7807027000235,1211.7969258999801,1212.080014200008,1212.0967266000225,None,down,1.9340977999963798,1212.0967266000225,None,1212.0967266000225,1213.2119197000284,0.07519740000134334,None,,,,,,,,,35,001,2019_Dec_25_1441,untitled,3.1.0,60.056056316336566,
006,R,N,225,R,N,006RN225RN,HRN,0,278,278,197,,,1.23,1214.117376099981,1214.4451515999972,1214.4613983000163,1214.745362400019,1214.761180899979,None,up,2.665464600024279,1214.761180899979,None,1214.761180899979,1215.9773542999756,0.07965970004443079,None,,,,,,,,,35,001,2019_Dec_25_1441,untitled,3.1.0,60.056056316336566,
175,F,M,270,L,N,175FM270LN,HLN,0,279,279,126,,,1.323,1217.5098233000026,1217.8418648000224,1217.8585023999913,1218.1418058000272,1218.158545000013,None,down,2.3642797999782488,1218.158545000013,None,1218.158545000013,1219.4569856000016,0.07444600004237145,None,,,,,,,,,35,001,2019_Dec_25_1441,untitled,3.1.0,60.056056316336566,
144,F,M,315,R,N,144FM315RN,HRN,0,280,280,119,,,0.902,1220.591607999988,1220.9392053000047,1220.9558055999805,1221.240030999994,1221.2554410999874,None,down,1.7168485000147484,1221.2554410999874,None,1221.2554410999874,1222.138048599998,0.06085119995987043,None,,,,,,,,,35,001,2019_Dec_25_1441,untitled,3.1.0,60.056056316336566,
486,_5,N,225,L,N,486_5N225LN,HLN,0,281,281,285,,,0.845,1223.0437487000017,1223.3872099000146,1223.4037617000286,1223.6867530000163,1223.7034177000169,None,up,1.9821060000103898,1223.7034177000169,None,1223.7034177000169,1224.5358260999783,0.06391630001598969,None,,,,,,,,,35,001,2019_Dec_25_1441,untitled,3.1.0,60.056056316336566,
_,_4,N,270,_,_,__4N270__,N,0,282,282,86,,,0.98,1225.7649102000287,1226.1012003999786,1226.1181115999934,1226.402416899975,1226.417899299995,None,down,2.465590499981772,1226.417899299995,None,1226.417899299995,1227.3832218999742,0.07144879997940734,None,,,,,,,,,35,001,2019_Dec_25_1441,untitled,3.1.0,60.056056316336566,
_,G,M,135,_,_,_GM135__,N,0,283,283,11,,,1.029,1228.9724857999827,1229.2980838000076,1229.3153754000086,1229.5984302000143,1229.6150220999843,None,down,3.1637862999923527,1229.6150220999843,None,1229.6150220999843,1230.6315564999823,0.08034860005136579,None,,,,,,,,,35,001,2019_Dec_25_1441,untitled,3.1.0,60.056056316336566,
_,G,N,270,_,_,_GN270__,N,0,284,284,62,,,0.842,1232.8487211000174,1233.1949971999857,1233.212010600022,1233.4956269999966,1233.5116206000093,None,up,1.7157983999932185,1233.5116206000093,None,1233.5116206000093,1234.3272820999846,0.06347759999334812,None,,,,,,,,,35,001,2019_Dec_25_1441,untitled,3.1.0,60.056056316336566,
226,G,N,45,L,N,226GN045LN,HLN,0,285,285,233,,,0.918,1235.3044912000187,1235.6432431000285,1235.6599944999907,1235.9424457999994,1235.9593829999794,None,up,1.9507859000004828,1235.9593829999794,None,1235.9593829999794,1236.8583713999833,0.06932859995868057,None,,,,,,,,,35,001,2019_Dec_25_1441,untitled,3.1.0,60.056056316336566,
038,R,N,225,L,N,038RN225LN,HLN,0,286,286,205,,,0.936,1237.97994629998,1238.323885800026,1238.3412526000175,1238.6235641000094,1238.6401684000157,None,up,1.7490337999770418,1238.6401684000157,None,1238.6401684000157,1239.5566234000144,0.0633059999672696,None,,,,,,,,,35,001,2019_Dec_25_1441,untitled,3.1.0,60.056056316336566,
043,R,M,90,L,N,043RM090LN,HLN,0,287,287,106,,,1.327,1240.4722864999785,1240.8050309999962,1240.8215444000089,1241.1047930999775,1241.1212549000047,None,down,2.335867900052108,1241.1212549000047,None,1241.1212549000047,1242.4369230999728,0.0759773000027053,None,,,,,,,,,35,001,2019_Dec_25_1441,untitled,3.1.0,60.056056316336566,
,,,,,,,,,,,,,,,,,,,,,,,,,,,,,1243.4726329999976,None,1247.765745199984,None,1250.9962001999957,None,1254.3430537999957,None,,,,,,,
