Number,Letter,type,Orientation,human,face_type,image,picture,trials.thisRepN,trials.thisTrialN,trials.thisN,trials.thisIndex,text.started,text.stopped,stimulus_duration,CROSS.started,CROSS.stopped,BLANK.started,BLANK.stopped,TEST.started,TEST.stopped,key_JUDGE.keys,key_JUDGE.started,key_JUDGE.stopped,image_2.started,image_2.stopped,ISI.started,ISI.stopped,key_JUDGE.rt,q1.started,q1.stopped,q2.started,q2.stopped,q3.started,q3.stopped,text_2.started,text_2.stopped,participant,session,date,expName,psychopyVersion,frameRate,
142,F,M,225,R,N,142FM225RN,HRN,0,0,0,117,13.984805115349445,None,0.72,35.651002332018834,35.934261109541694,35.934261109541694,36.08429044188961,36.13429911579078,None,None,36.13429911579078,None,36.13429911579078,36.81753094463056,0.2543409226636868,None,,,,,,,,,,36,001,2019_Dec_25_1443,untitled,3.1.0,60.009178522645854,
012,R,M,135,R,N,012RM135RN,HRN,0,1,1,99,,,0.848,39.65079905818493,39.98408935308544,40.00075482791726,40.28409769591963,40.31742632813257,39.65079905818493,down,40.31742632813257,None,40.31742632813257,41.13408988278752,0.05752020488944254,None,2.6836254649788316,,,,,,,,,36,001,2019_Dec_25_1443,untitled,3.1.0,60.009178522645854,
428,_4,M,135,L,N,428_4M135LN,HLN,0,2,2,171,,,0.71,43.06737567520395,43.41736057864546,43.43402340495959,43.71734376055247,43.750677689800796,None,None,43.750677689800796,None,43.750677689800796,44.433953550273145,0.05621580927254399,None,,,,,,,,,,36,001,2019_Dec_25_1443,untitled,3.1.0,60.009178522645854,
300,_2,M,135,L,N,300_2M135LN,HLN,0,3,3,155,,,1.207,47.267298470876995,47.61723834949589,47.63390647284541,47.91724404380875,47.95060015440686,47.267298470876995,down,47.95060015440686,None,47.95060015440686,49.13389620983435,0.05858722698758356,None,2.9836139439248655,,,,,,,,,36,001,2019_Dec_25_1443,untitled,3.1.0,60.009178522645854,
_,F,N,90,_,_,_FN090__,N,0,4,4,50,,,1.082,51.01719815821707,51.35049805399831,51.36716650841481,51.6505126870652,51.68385654826125,None,up,51.68385654826125,None,51.68385654826125,52.733822514794156,0.05792708362423582,None,2.7002654478164914,,,,,,,,,36,001,2019_Dec_25_1443,untitled,3.1.0,60.009178522645854,
204,G,M,135,R,N,204GM135RN,HRN,0,5,5,131,,,0.727,54.46710075893134,54.80040893133264,54.817087648763845,55.100396417081356,55.13374491318609,None,down,55.13374491318609,None,55.13374491318609,55.81707275084409,0.05709842823489453,None,2.1668315369752236,,,,,,,,,36,001,2019_Dec_25_1443,untitled,3.1.0,60.009178522645854,
266,_2,M,45,R,N,266_2M045RN,HRN,0,6,6,145,,,0.727,57.367045007606066,57.7170593758201,57.73371094592949,58.017027659807354,58.050361257992336,None,down,58.050361257992336,None,58.050361257992336,58.73361758563624,0.05595426802392467,None,3.2002429354070046,,,,,,,,,36,001,2019_Dec_25_1443,untitled,3.1.0,60.009178522645854,
_,_4,N,315,_,_,__4N315__,N,0,7,7,87,,,0.811,61.3169578713314,61.666942774772906,61.683598648724,61.96693522649366,62.000280080883385,None,up,62.000280080883385,None,62.000280080883385,62.78358289003518,0.05731196507986169,None,2.4001157402817626,,,,,,,,,36,001,2019_Dec_25_1443,untitled,3.1.0,60.009178522645854,
166,F,N,225,L,N,166FN225LN,HLN,0,8,8,221,,,0.8190000000000001,64.483520252561,64.81685491015378,64.83350846665053,65.1168728538687,65.15020876950803,None,None,65.15020876950803,None,65.15020876950803,65.93351323398747,0.05952778230494005,None,,,,,,,,,,36,001,2019_Dec_25_1443,untitled,3.1.0,60.009178522645854,
265,_2,M,0,R,N,265_2M000RN,HRN,0,9,9,144,,,0.914,68.66677227635955,69.01676942920312,69.03341801972783,69.31675327323683,69.35006932498436,68.66677227635955,down,69.35006932498436,None,69.35006932498436,70.23340769050264,0.05707359837106196,None,3.2335205836243404,,,,,,,,,36,001,2019_Dec_25_1443,untitled,3.1.0,60.009178522645854,
041,R,M,0,L,N,041RM000LN,HLN,0,10,10,104,,,0.995,72.6666663356009,73.00000860768341,73.01667010974052,73.30000139047115,73.33333333333212,None,down,73.33333333333212,None,73.33333333333212,74.31661852983234,0.06352936346593197,None,2.2002187676735048,,,,,,,,,36,001,2019_Dec_25_1443,untitled,3.1.0,60.009178522645854,
_,_2,N,45,_,_,__2N045__,N,0,11,11,73,,,0.909,75.59994352033027,75.94991485011269,75.9665786696205,76.24989538349837,76.28324123108177,None,up,76.28324123108177,None,76.28324123108177,77.16657694808237,0.057951582421083,None,1.8001655986518017,,,,,,,,,36,001,2019_Dec_25_1443,untitled,3.1.0,60.009178522645854,
036,R,N,135,L,N,036RN135LN,HLN,0,12,12,203,,,0.812,78.16652927474206,78.49984340631272,78.51650954327488,78.79988154498642,78.83321050826271,None,up,78.83321050826271,None,78.83321050826271,79.61651927658022,0.060148197881062515,None,1.6835125718571362,,,,,,,,,36,001,2019_Dec_25_1443,untitled,3.1.0,60.009178522645854,
_,_4,M,0,_,_,__4M000__,N,0,13,13,32,,,0.874,80.59985181536103,80.93314343451857,80.9498234762068,81.23312827174595,81.26644101284546,None,down,81.26644101284546,None,81.26644101284546,82.11643220651968,0.05857232906782883,None,2.1835801090892346,,,,,,,,,36,001,2019_Dec_25_1443,untitled,3.1.0,60.009178522645854,
195,G,N,90,R,N,195GN090RN,HRN,0,14,14,226,,,1.352,83.51641585191464,83.86639380299312,83.88304239351783,84.16641075351436,84.19973144017058,None,down,84.19973144017058,None,84.19973144017058,85.51638009690942,0.058141613662883174,None,3.3834545692916436,,,,,,,,,36,001,2019_Dec_25_1443,untitled,3.1.0,60.009178522645854,
176,F,M,315,L,N,176FM315LN,HLN,0,15,15,127,,,1.3920000000000001,87.64964198644157,87.99965701678593,88.01633407888949,88.29964748211569,88.33298041817397,None,down,88.33298041817397,None,88.33298041817397,89.68291466868686,0.05862331305979751,None,2.10015275333717,,,,,,,,,36,001,2019_Dec_25_1443,untitled,3.1.0,60.009178522645854,
135,F,N,270,R,N,135FN270RN,HRN,0,16,16,214,,,0.927,90.51626356207271,90.84959027410514,90.86626899153634,91.14956617258213,91.18287725835762,None,up,91.18287725835762,None,91.18287725835762,92.06624475758508,0.06025546290402417,None,1.933518199959508,,,,,,,,,36,001,2019_Dec_25_1443,untitled,3.1.0,60.009178522645854,
237,G,M,180,L,N,237GM180LN,HLN,0,17,17,140,,,1.296,93.19951293734994,93.53287739078223,93.54951141445417,93.8328281283284,93.86616934100675,None,down,93.86616934100675,None,93.86616934100675,95.1494546037211,0.059259288686007494,None,2.6169595928695344,,,,,,,,,36,001,2019_Dec_25_1443,untitled,3.1.0,60.009178522645854,
450,_5,N,45,R,N,450_5N045RN,HRN,0,18,18,273,,,1.082,96.54945314703582,96.89945129307307,96.91611643683791,97.19943679243079,97.23275946547437,None,down,97.23275946547437,None,97.23275946547437,98.28273271543367,0.057094124393188395,None,3.216800483089173,,,,,,,,,36,001,2019_Dec_25_1443,untitled,3.1.0,60.009178522645854,
487,_5,N,270,L,N,487_5N270LN,HLN,0,19,19,286,,,0.856,100.56603684884249,100.86601374051315,100.88268451238764,101.166021752284,101.19935270195128,None,down,101.19935270195128,None,101.19935270195128,102.01599937229912,0.09317158827980165,None,2.216903775333776,,,,,,,,,36,001,2019_Dec_25_1443,untitled,3.1.0,60.009178522645854,
_,_2,N,0,_,_,__2N000__,N,0,20,20,72,,,0.768,103.49927728537295,103.83258181606288,103.84928933613264,104.13262988668066,104.16591912217336,None,up,104.16591912217336,None,104.16591912217336,104.91591051448631,0.05894643237843411,None,1.850219959505921,,,,,,,,,36,001,2019_Dec_25_1443,untitled,3.1.0,60.009178522645854,
_,F,M,225,_,_,_FM225__,N,0,21,21,5,,,1.002,106.09924166279234,106.43257598931814,106.44924874757999,106.73252275408595,106.76585204842922,None,down,106.76585204842922,None,106.76585204842922,107.74918061442804,0.05849916372972075,None,3.05014474156269,,,,,,,,,36,001,2019_Dec_25_1443,untitled,3.1.0,60.009178522645854,
_,_4,N,270,_,_,__4N270__,N,0,22,22,86,,,1.369,109.8824570708166,110.23243535295842,110.24910082779388,110.5324476685746,110.56579616467934,None,up,110.56579616467934,None,110.56579616467934,111.91576782552511,0.057633098014775896,None,3.150284914430813,,,,,,,,,36,001,2019_Dec_25_1443,untitled,3.1.0,60.009178522645854,
492,_5,M,135,L,N,492_5M135LN,HLN,0,23,23,187,,,0.807,113.78237814494787,114.13237000075242,114.14903481345755,114.43238397169262,114.46571657668028,None,up,114.46571657668028,None,114.46571657668028,115.24901309559937,0.05790556440479122,None,2.0002254551836813,,,,,,,,,36,001,2019_Dec_25_1443,untitled,3.1.0,60.009178522645854,
044,R,M,135,L,N,044RM135LN,HLN,0,24,24,107,,,1.08,116.54899925708742,116.88229186944227,116.89895502681975,117.18231908297457,117.21565135690253,None,down,117.21565135690253,None,117.21565135690253,118.26560110125138,0.06294867567703477,None,2.650178311541822,,,,,,,,,36,001,2019_Dec_25_1443,untitled,3.1.0,60.009178522645854,
421,_4,N,180,L,N,421_4N180LN,HLN,0,25,25,268,,,1.1420000000000001,119.94890510223922,120.28222022700356,120.29887974266967,120.58224677840553,120.61557474848814,None,None,120.61557474848814,None,120.61557474848814,121.73220360754567,0.059717151412769454,None,,,,,,,,,,36,001,2019_Dec_25_1443,untitled,3.1.0,60.009178522645854,
_,_5,M,0,_,_,__5M000__,N,0,26,26,40,,,0.795,124.13214553876605,124.48212481410519,124.49879128213433,124.78211892114996,124.8154502018806,124.13214553876605,down,124.8154502018806,None,124.8154502018806,125.59880498821803,0.05728216924035223,None,2.6834735062038817,,,,,,,,,36,001,2019_Dec_25_1443,untitled,3.1.0,60.009178522645854,
170,F,M,45,L,N,170FM045LN,HLN,0,27,27,121,,,1.055,127.56543828354552,127.91542749083237,127.93208601330116,128.21541067273574,128.2487210963809,None,down,128.2487210963809,None,128.2487210963809,129.26535876176422,0.0586193402778008,None,2.283650096207566,,,,,,,,,36,001,2019_Dec_25_1443,untitled,3.1.0,60.009178522645854,
_,_5,M,315,_,_,__5M315__,N,0,28,28,47,,,1.241,130.61535161076245,130.94865084441335,130.96531764350584,131.24860787219222,131.2819782185761,None,down,131.2819782185761,None,131.2819782185761,132.49861548668196,0.059260612946673064,None,3.0834760222969635,,,,,,,,,36,001,2019_Dec_25_1443,untitled,3.1.0,60.009178522645854,
296,_2,N,315,L,N,296_2N315LN,HLN,0,29,29,255,,,1.082,134.4485952255127,134.7819206132881,134.79859833752198,135.0818630742142,135.11518342980344,None,down,135.11518342980344,None,135.11518342980344,136.16519640754632,0.059584063332295045,None,2.483591762575088,,,,,,,,,36,001,2019_Dec_25_1443,untitled,3.1.0,60.009178522645854,
_,_2,M,225,_,_,__2M225__,N,0,30,30,29,,,0.906,137.66518283388723,138.01515085302162,138.0318159967901,138.31517508696925,138.34851762390463,None,down,138.34851762390463,None,138.34851762390463,139.23180467437123,0.05635320119836251,None,2.8500911752671527,,,,,,,,,36,001,2019_Dec_25_1443,untitled,3.1.0,60.009178522645854,
456,_5,N,315,R,N,456_5N315RN,HRN,0,31,31,279,,,0.917,141.26511046310407,141.61503875445123,141.6317058846107,141.91505901562414,141.94840320788353,None,None,141.94840320788353,None,141.94840320788353,142.831720385253,0.05821908284269739,None,,,,,,,,,,36,001,2019_Dec_25_1443,untitled,3.1.0,60.009178522645854,
141,F,M,180,R,N,141FM180RN,HRN,0,32,32,116,,,0.9390000000000001,145.481656688371,145.81498273827674,145.83163662583684,146.1150102828724,146.14833328698296,145.481656688371,down,146.14833328698296,None,146.14833328698296,147.0649585705396,0.06076861346082296,None,2.0501444104993425,,,,,,,,,36,001,2019_Dec_25_1443,untitled,3.1.0,60.009178522645854,
_,R,M,135,_,_,_RM135__,N,0,33,33,19,,,0.904,148.2815971629061,148.61491526725513,148.6315804110236,148.9149371837484,148.94827210619405,None,down,148.94827210619405,None,148.94827210619405,149.83158762823587,0.058553789433062775,None,2.6168682189636456,,,,,,,,,36,001,2019_Dec_25_1443,untitled,3.1.0,60.009178522645854,
206,G,M,225,R,N,206GM225RN,HRN,0,34,34,133,,,0.736,151.63152280573195,151.98151399940616,151.99819470322473,152.28149949876752,152.3148357454702,None,down,152.3148357454702,None,152.3148357454702,153.03148989788315,0.05907554768054979,None,2.6501452050542866,,,,,,,,,36,001,2019_Dec_25_1443,untitled,3.1.0,60.009178522645854,
_,F,M,90,_,_,_FM090__,N,0,35,35,2,,,0.901,155.04813219817515,155.38145526849985,155.3981257093037,155.68144937554462,155.7147856222473,None,down,155.7147856222473,None,155.7147856222473,156.598086246373,0.06412627344252542,None,2.6167738654730783,,,,,,,,,36,001,2019_Dec_25_1443,untitled,3.1.0,60.009178522645854,
168,F,N,315,L,N,168FN315LN,HLN,0,36,36,223,,,1.106,158.41471106643803,158.7480513521332,158.76470656395395,159.0480070556514,159.08135621388647,None,up,159.08135621388647,None,159.08135621388647,160.16464849517433,0.060333925277518574,None,2.2835084004400414,,,,,,,,,36,001,2019_Dec_25_1443,untitled,3.1.0,60.009178522645854,
047,R,M,270,L,N,047RM270LN,HLN,0,37,37,110,,,0.793,161.44799235637402,161.7812859619189,161.7979693142588,162.08130688522215,162.1146394902098,None,down,162.1146394902098,None,162.1146394902098,162.86459545858452,0.0588133442979597,None,3.3167794273649633,,,,,,,,,36,001,2019_Dec_25_1443,untitled,3.1.0,60.009178522645854,
_,R,N,90,_,_,_RN090__,N,0,38,38,66,,,0.713,165.49786098982804,165.8478783376304,165.8645464609799,166.14786085740343,166.1811881653557,None,None,166.1811881653557,None,166.1811881653557,166.86453023880313,0.057930394272261765,None,,,,,,,,,,36,001,2019_Dec_25_1443,untitled,3.1.0,60.009178522645854,
260,_2,N,135,R,N,260_2N135RN,HRN,0,39,39,243,,,1.3960000000000001,169.6978135813406,170.04781437589554,170.06446230428992,170.78128331340122,170.78128331340122,169.6978135813406,None,170.78128331340122,None,170.78128331340122,171.76438973486802,0.05850876461045118,None,,,,,,,,,,36,001,2019_Dec_25_1443,untitled,3.1.0,60.009178522645854,
002,R,N,45,R,N,002RN045RN,HRN,0,40,40,193,,,0.887,173.91435484063186,174.2477086999861,174.26437384375458,174.54766771415598,174.58101356173938,173.91435484063186,up,174.58101356173938,None,174.58101356173938,175.43100409328326,0.05972476590613951,None,1.7834997927566292,,,,,,,,,36,001,2019_Dec_25_1443,untitled,3.1.0,60.009178522645854,
_,_4,M,180,_,_,__4M180__,N,0,41,41,36,,,0.867,176.44764208973356,176.78098138223504,176.7976438774822,177.08097019224078,177.11431570876084,None,down,177.11431570876084,None,177.11431570876084,177.9642850521559,0.05788305199530441,None,2.4169556863016624,,,,,,,,,36,001,2019_Dec_25_1443,untitled,3.1.0,60.009178522645854,
495,_5,M,270,L,N,495_5M270LN,HLN,0,42,42,190,,,1.139,179.59756779877353,179.94755932351472,179.9642072519091,180.24757163912727,180.28090159559724,None,down,180.28090159559724,None,180.28090159559724,181.39751721206267,0.05807937346617109,None,3.2001174618199,,,,,,,,,36,001,2019_Dec_25_1443,untitled,3.1.0,60.009178522645854,
_,_5,N,45,_,_,__5N045__,N,0,43,43,89,,,1.235,183.54747337907247,183.89745828251398,183.91412276415213,184.19747953687693,184.23082372913996,None,up,184.23082372913996,None,184.23082372913996,185.44742689756458,0.056850460645364365,None,2.6001143498069723,,,,,,,,,36,001,2019_Dec_25_1443,untitled,3.1.0,60.009178522645854,
003,R,N,90,R,N,003RN090RN,HRN,0,44,44,194,,,1.358,186.91406813844878,187.2473905466395,187.26407820281747,187.54738862646263,187.58071758973892,None,down,187.58071758973892,None,187.58071758973892,188.89737055031947,0.06204188897754648,None,2.500296634130791,,,,,,,,,36,001,2019_Dec_25_1443,untitled,3.1.0,60.009178522645854,
483,_5,N,90,L,N,483_5N090LN,HLN,0,45,45,282,,,0.757,190.16401649232648,190.49735412950395,190.51401066558537,190.7973257241356,190.83064707292215,None,up,190.83064707292215,None,190.83064707292215,191.54732175135723,0.058854396345850546,None,2.5666569333588996,,,,,,,,,36,001,2019_Dec_25_1443,untitled,3.1.0,60.009178522645854,
205,G,M,180,R,N,205GM180RN,HRN,0,46,46,132,,,0.87,193.46391856333503,193.8139309451617,193.83062522263936,194.11389161465559,194.14724011076032,None,down,194.14724011076032,None,194.14724011076032,194.99721375799345,0.056781930215947796,None,2.00020658448193,,,,,,,,,36,001,2019_Dec_25_1443,untitled,3.1.0,60.009178522645854,
175,F,M,270,L,N,175FM270LN,HLN,0,47,47,126,,,1.176,196.2138440737399,196.56384288190384,196.58053782151183,196.8638389753396,196.89719475487072,None,down,196.89719475487072,None,196.89719475487072,198.0471376792848,0.05795754159044009,None,2.6502869008218113,,,,,,,,,36,001,2019_Dec_25_1443,untitled,3.1.0,60.009178522645854,
033,R,N,0,L,N,033RN000LN,HLN,0,48,48,200,,,0.9560000000000001,199.63049782887538,199.9637897790999,199.98045028795968,200.26380209471245,200.29711913965366,None,up,200.29711913965366,None,200.29711913965366,201.21379805571996,0.06072358863821137,None,1.6835724945995025,,,,,,,,,36,001,2019_Dec_25_1443,untitled,3.1.0,60.009178522645854,
449,_5,N,0,R,N,449_5N000RN,HRN,0,49,49,272,,,0.715,202.06375614290664,202.39707358512533,202.41374468806316,202.69703326142553,202.73038208859361,None,up,202.73038208859361,None,202.73038208859361,203.41370793986061,0.05848724539464456,None,1.4168729200828238,,,,,,,,,36,001,2019_Dec_25_1443,untitled,3.1.0,60.009178522645854,
007,R,N,270,R,N,007RN270RN,HRN,0,50,50,198,,,1.03,204.21369145283097,204.5636948959036,204.5803600396721,204.86369098933937,204.89698949464582,None,up,204.89698949464582,None,204.89698949464582,205.91365364522062,0.0574669034431281,None,1.9835182661736326,,,,,,,,,36,001,2019_Dec_25_1443,untitled,3.1.0,60.009178522645854,
_,_5,N,135,_,_,__5N135__,N,0,51,51,91,,,1.101,206.9469766493312,207.29695128976164,207.31359789389535,207.5969689024132,207.63027535327637,None,down,207.63027535327637,None,207.63027535327637,208.71357458692728,0.05772281659665168,None,3.266792272683233,,,,,,,,,36,001,2019_Dec_25_1443,untitled,3.1.0,60.009178522645854,
395,_4,M,90,R,N,395_4M090RN,HRN,0,52,52,162,,,1.338,210.98019139522512,211.31354260606167,211.33023324182432,211.61351585602097,211.64684481929726,None,down,211.64684481929726,None,211.64684481929726,212.96350605649786,0.05990287880922551,None,2.500151958778588,,,,,,,,,36,001,2019_Dec_25_1443,untitled,3.1.0,60.009178522645854,
424,_4,N,315,L,N,424_4N315LN,HLN,0,53,53,271,,,1.381,214.23014041123315,214.5634747377626,214.58013557768572,214.86347050013137,214.896800125538,None,up,214.896800125538,None,214.896800125538,216.24676648934837,0.05978369545118767,None,2.1334962834625912,,,,,,,,,36,001,2019_Dec_25_1443,untitled,3.1.0,60.009178522645854,
_,_5,M,135,_,_,__5M135__,N,0,54,54,43,,,0.922,217.09670868541798,217.44674655924246,217.46341335833495,217.7467264304978,217.78006764317252,None,down,217.78006764317252,None,217.78006764317252,218.66337621285493,0.05714444625482429,None,2.283468672656454,,,,,,,,,36,001,2019_Dec_25_1443,untitled,3.1.0,60.009178522645854,
463,_5,M,270,R,N,463_5M270RN,HRN,0,55,55,182,,,0.889,220.13000255581937,220.47997918263718,220.49664730599034,220.77996997903392,220.81333502838243,None,up,220.81333502838243,None,220.81333502838243,221.66328649427305,0.05841838390188059,None,2.5667886971787084,,,,,,,,,36,001,2019_Dec_25_1443,untitled,3.1.0,60.009178522645854,
197,G,N,180,R,N,197GN180RN,HRN,0,56,56,228,,,0.9530000000000001,223.46326669659175,223.79658215242307,223.81327907841842,224.096605724244,224.12992475557257,None,down,224.12992475557257,None,224.12992475557257,225.04653812079414,0.06151152304300922,None,2.2502926613524323,,,,,,,,,36,001,2019_Dec_25_1443,untitled,3.1.0,60.009178522645854,
432,_4,M,315,L,N,432_4M315LN,HLN,0,57,57,175,,,1.0090000000000001,226.4631713499075,226.7964987240739,226.8131655231664,227.09651567459514,227.12984563106875,None,down,227.12984563106875,None,227.12984563106875,228.11316956215887,0.05950162817680393,None,1.9001779804784746,,,,,,,,,36,001,2019_Dec_25_1443,untitled,3.1.0,60.009178522645854,
485,_5,N,180,L,N,485_5N180LN,HLN,0,58,58,284,,,1.188,229.0964719740332,229.4464631677074,229.4631044748021,229.74644668067413,229.77977100904536,None,up,229.77977100904536,None,229.77977100904536,230.92971459558976,0.059139774268260226,None,3.033480259924545,,,,,,,,,36,001,2019_Dec_25_1443,untitled,3.1.0,60.009178522645854,
298,_2,M,45,L,N,298_2M045LN,HLN,0,59,59,153,,,1.393,232.87971254298827,233.22970141920814,233.24638675793176,233.5296965194466,233.56302978656822,None,None,233.56302978656822,None,233.56302978656822,234.91302164237277,0.05814922815625323,None,,,,,,,,,,36,001,2019_Dec_25_1443,untitled,3.1.0,60.009178522645854,
462,_5,M,225,R,N,462_5M225RN,HRN,0,60,60,181,,,1.3900000000000001,237.09627830108002,237.42961229654247,237.4462797577653,237.72960309293921,237.7629403328392,237.09627830108002,up,237.7629403328392,None,237.7629403328392,239.11286630673203,0.060926531405129936,None,3.2669482042365416,,,,,,,,,36,001,2019_Dec_25_1443,untitled,3.1.0,60.009178522645854,
452,_5,N,135,R,N,452_5N135RN,HRN,0,61,61,275,,,0.811,241.11286001649933,241.44619334983145,241.462868756611,241.74618547048885,241.7795220482585,None,down,241.7795220482585,None,241.7795220482585,242.56283975532642,0.059436077332065906,None,2.033485225900222,,,,,,,,,36,001,2019_Dec_25_1443,untitled,3.1.0,60.009178522645854,
_,F,M,180,_,_,_FM180__,N,0,62,62,4,,,0.973,243.8794771558605,244.22948424064816,244.24617421428047,244.5294843068623,244.5628119458779,None,down,244.5628119458779,None,244.5628119458779,245.51278340808494,0.05725502192217391,None,1.9834835043584462,,,,,,,,,36,001,2019_Dec_25_1443,untitled,3.1.0,60.009178522645854,
_,G,N,45,_,_,_GN045__,N,0,63,63,57,,,0.866,246.62939968667706,246.96273169575215,246.97939385993595,247.26275824715412,247.29609714237813,None,up,247.29609714237813,None,247.29609714237813,248.1460661547062,0.06399020577373449,None,1.883306252228067,,,,,,,,,36,001,2019_Dec_25_1443,untitled,3.1.0,60.009178522645854,
261,_2,N,180,R,N,261_2N180RN,HRN,0,64,64,244,,,1.121,249.262681771168,249.595998220193,249.61266435715515,249.89600921154852,249.92933254672243,None,up,249.92933254672243,None,249.92933254672243,251.01266290046988,0.06070140729207196,None,2.8668126000629854,,,,,,,,,36,001,2019_Dec_25_1443,untitled,3.1.0,60.009178522645854,
011,R,M,90,R,N,011RM090RN,HRN,0,65,65,98,,,1.274,252.87927156457226,253.2126019183197,253.22929321621268,253.51258079638137,253.54591969160538,None,down,253.54591969160538,None,253.54591969160538,254.7958769842371,0.05947150127394707,None,2.700147588722757,,,,,,,,,36,001,2019_Dec_25_1443,untitled,3.1.0,60.009178522645854,
043,R,M,90,L,N,043RM090LN,HLN,0,66,66,106,,,0.736,256.3125312028642,256.6625283557041,256.67919482373327,256.9624973018181,256.99582494083734,None,up,256.99582494083734,None,256.99582494083734,257.7125135239985,0.05895735751983011,None,2.3336408926043077,,,,,,,,,36,001,2019_Dec_25_1443,untitled,3.1.0,60.009178522645854,
388,_4,N,135,R,N,388_4N135RN,HRN,0,67,67,259,,,1.055,259.39577647293845,259.7457620385103,259.762408973711,260.0457902452363,260.0791228502276,None,down,260.0791228502276,None,260.0791228502276,261.09574661088845,0.05841474218686926,None,2.0834770154906437,,,,,,,,,36,001,2019_Dec_25_1443,untitled,3.1.0,60.009178522645854,
459,_5,M,90,R,N,459_5M090RN,HRN,0,68,68,178,,,0.977,262.2457411814248,262.57906358961554,262.59571317333393,262.87906630434736,262.91238897739095,None,down,262.91238897739095,None,262.91238897739095,263.86237268900004,0.06103876240013051,None,2.133472446796077,,,,,,,,,36,001,2019_Dec_25_1443,untitled,3.1.0,60.009178522645854,
137,F,M,0,R,N,137FM000RN,HRN,0,69,69,112,,,1.334,265.1289875109069,265.4623258102147,265.4789793667114,265.7622940941983,265.7956296787743,None,up,265.7956296787743,None,265.7956296787743,267.112306144958,0.05926259933767142,None,2.000335368720698,,,,,,,,,36,001,2019_Dec_25_1443,untitled,3.1.0,60.009178522645854,
_,_5,N,0,_,_,__5N000__,N,0,70,70,88,,,1.035,267.8622664171744,268.21226092149664,268.22892838271946,268.5122742303065,268.5456190846962,None,up,268.5456190846962,None,268.5456190846962,269.5622312580854,0.056857413008401636,None,1.8169661479550996,,,,,,,,,36,001,2019_Dec_25_1443,untitled,3.1.0,60.009178522645854,
_,G,N,180,_,_,_GN180__,N,0,71,71,60,,,0.764,270.42889918279616,270.778829129471,270.7954982460178,271.0788778622191,271.11219623142097,None,down,271.11219623142097,None,271.11219623142097,271.86220450804103,0.057736390252102865,None,1.6335068775406398,,,,,,,,,36,001,2019_Dec_25_1443,untitled,3.1.0,60.009178522645854,
389,_4,N,180,R,N,389_4N180RN,HRN,0,72,72,260,,,0.973,272.82882787142444,273.1621681571196,273.1788164165773,273.4621755067601,273.4954779848449,None,down,273.4954779848449,None,273.4954779848449,274.44547758756744,0.060420002144383034,None,2.0501520249927125,,,,,,,,,36,001,2019_Dec_25_1443,untitled,3.1.0,60.009178522645854,
133,F,N,180,R,N,133FN180RN,HRN,0,73,73,212,,,1.031,275.62877728470994,275.96207651836085,275.97874199319267,276.2620769156383,276.2954058789146,None,down,276.2954058789146,None,276.2954058789146,277.31202897744515,0.058949743026460055,None,1.7668005493032979,,,,,,,,,36,001,2019_Dec_25_1443,untitled,3.1.0,60.009178522645854,
484,_5,N,135,L,N,484_5N135LN,HLN,0,74,74,283,,,0.808,278.12871107173487,278.4786963062397,278.4953693955649,278.7787142499583,278.8120359298082,None,up,278.8120359298082,None,278.8120359298082,279.5953526436824,0.05787709282594733,None,2.5336292391220923,,,,,,,,,36,001,2019_Dec_25_1443,untitled,3.1.0,60.009178522645854,
208,G,M,315,R,N,208GM315RN,HRN,0,75,75,135,,,1.0030000000000001,281.42864194538924,281.7619875281234,281.77862221392206,282.0619842836859,282.0953069567295,None,up,282.0953069567295,None,282.0953069567295,283.0785987745294,0.05871468696568627,None,2.750143682158523,,,,,,,,,36,001,2019_Dec_25_1443,untitled,3.1.0,60.009178522645854,
486,_5,N,225,L,N,486_5N225LN,HLN,0,76,76,285,,,0.9500000000000001,284.9285588481034,285.26186602731104,285.2785414340906,285.5618869506143,285.59521690708425,None,down,285.59521690708425,None,285.59521690708425,286.51186801370204,0.060332932083838386,None,2.250164539243997,,,,,,,,,36,001,2019_Dec_25_1443,untitled,3.1.0,60.009178522645854,
461,_5,M,180,R,N,461_5M180RN,HRN,0,77,77,180,,,1.0,287.9285336871726,288.2618428527712,288.27850236843733,288.5618117988852,288.5951308302174,None,down,288.5951308302174,None,288.5951308302174,289.5784438361661,0.0592632614680042,None,1.9336433424832649,,,,,,,,,36,001,2019_Dec_25_1443,untitled,3.1.0,60.009178522645854,
_,_2,M,90,_,_,__2M090__,N,0,78,78,26,,,1.3900000000000001,290.59511295271295,290.94508626888273,290.96177359399735,291.2450942806536,291.27839808299905,None,down,291.27839808299905,None,291.27839808299905,292.6283737166268,0.055988698768487666,None,2.3004688540786447,,,,,,,,,36,001,2019_Dec_25_1443,untitled,3.1.0,60.009178522645854,
391,_4,N,270,R,N,391_4N270RN,HRN,0,79,79,262,,,1.1500000000000001,293.64504813020903,293.9950426345349,294.0117091025604,294.295037072643,294.328371001895,None,up,294.328371001895,None,294.328371001895,295.444961126359,0.05797012205948704,None,2.116776845057757,,,,,,,,,36,001,2019_Dec_25_1443,untitled,3.1.0,60.009178522645854,
_,G,N,270,_,_,_GN270__,N,0,80,80,62,,,1.337,296.5116594428291,296.86163507645324,296.8783137938808,297.1616420950304,297.1949753621484,None,up,297.1949753621484,None,297.1949753621484,298.51158958813903,0.05800885664939415,None,2.7501215008087456,,,,,,,,,36,001,2019_Dec_25_1443,untitled,3.1.0,60.009178522645854,
172,F,M,135,L,N,172FM135LN,HLN,0,81,81,123,,,1.141,300.0282557251048,300.3615711809325,300.37820156288944,300.66155601816354,300.69488663676384,None,up,300.69488663676384,None,300.69488663676384,301.811507881328,0.05888717176640057,None,2.3335223713802407,,,,,,,,,36,001,2019_Dec_25_1443,untitled,3.1.0,60.009178522645854,
227,G,N,90,L,N,227GN090LN,HLN,0,82,82,234,,,0.732,303.0948070487684,303.4448128092954,303.461500465477,303.7448102269882,303.77813885920114,None,up,303.77813885920114,None,303.77813885920114,304.4948092337945,0.05835415731417015,None,1.533613016941672,,,,,,,,,36,001,2019_Dec_25_1443,untitled,3.1.0,60.009178522645854,
164,F,N,135,L,N,164FN135LN,HLN,0,83,83,219,,,0.902,305.37812409370963,305.72805735102884,305.744721832667,306.028115022531,306.06140194056934,None,up,306.06140194056934,None,306.06140194056934,306.94469594339535,0.058629272225516615,None,1.5335232983597962,,,,,,,,,36,001,2019_Dec_25_1443,untitled,3.1.0,60.009178522645854,
169,F,M,0,L,N,169FM000LN,HLN,0,84,84,120,,,0.9430000000000001,307.6780572848147,308.0113969083832,308.02807827432844,308.31139267075196,308.3446895207344,None,down,308.3446895207344,None,308.3446895207344,309.2613975705135,0.05975555493569118,None,2.017014748278598,,,,,,,,,36,001,2019_Dec_25_1443,untitled,3.1.0,60.009178522645854,
_,G,N,0,_,_,_GN000__,N,0,85,85,56,,,1.2650000000000001,310.444639331301,310.77799352172224,310.79465105099735,311.0780021956198,311.1113238754697,None,up,311.1113238754697,None,311.1113238754697,312.36127520893206,0.05895470899849897,None,2.0001582490112924,,,,,,,,,36,001,2019_Dec_25_1443,untitled,3.1.0,60.009178522645854,
140,F,M,135,R,N,140FM135RN,HRN,0,86,86,115,,,1.1520000000000001,313.17793048696694,313.52792995726486,313.5445901350613,313.8279376379687,313.8612659391183,None,down,313.8612659391183,None,313.8612659391183,314.97791267567663,0.05712954833506956,None,1.9003213315700123,,,,,,,,,36,001,2019_Dec_25_1443,untitled,3.1.0,60.009178522645854,
001,R,N,0,R,N,001RN000RN,HRN,0,87,87,192,,,1.306,315.8445557705236,316.1778523556568,316.1945072364142,316.47787890705877,316.5111913170949,None,up,316.5111913170949,None,316.5111913170949,317.79451630759286,0.05916857691045152,None,1.9501701011322439,,,,,,,,,36,001,2019_Dec_25_1443,untitled,3.1.0,60.009178522645854,
_,F,N,180,_,_,_FN180__,N,0,88,88,52,,,1.1340000000000001,318.52783858335897,318.8778089199441,318.8944591657928,319.17776065068756,319.211116761282,None,down,319.211116761282,None,319.211116761282,320.32777740257006,0.05797939187323209,None,1.8502146624668967,,,,,,,,,36,001,2019_Dec_25_1443,untitled,3.1.0,60.009178522645854,
_,F,M,0,_,_,_FM000__,N,0,89,89,0,,,1.33,321.14442175546355,321.4777620411587,321.49442685386384,321.7778018351564,321.8110824629621,None,up,321.8110824629621,None,321.8110824629621,323.1277301265036,0.05711498148230021,None,2.0168369664388592,,,,,,,,,36,001,2019_Dec_25_1443,untitled,3.1.0,60.009178522645854,
494,_5,M,225,L,N,494_5M225LN,HLN,0,90,90,189,,,0.754,323.8943671297602,324.24438050478057,324.2610459796124,324.5443676594623,324.57769430528424,None,up,324.57769430528424,None,324.57769430528424,325.294319655055,0.05798336465159082,None,2.6334813855464745,,,,,,,,,36,001,2019_Dec_25_1443,untitled,3.1.0,60.009178522645854,
394,_4,M,45,R,N,394_4M045RN,HRN,0,91,91,161,,,0.871,327.2943097231073,327.6276437185734,327.64430323423585,327.9276275626071,327.9609565258834,None,down,327.9609565258834,None,327.9609565258834,328.81093911187054,0.05912686273950385,None,1.8001017031310766,,,,,,,,,36,001,2019_Dec_25_1443,untitled,3.1.0,60.009178522645854,
481,_5,N,0,L,N,481_5N000LN,HLN,0,92,92,280,,,0.934,329.84421113198914,330.1775858484325,330.1942453640986,330.4775693613992,330.5108923655098,None,up,330.5108923655098,None,330.5108923655098,331.42753022953184,0.05972344164183596,None,2.2501559315569466,,,,,,,,,36,001,2019_Dec_25_1443,untitled,3.1.0,60.009178522645854,
_,_4,M,45,_,_,__4M045__,N,0,93,93,33,,,0.79,332.84418133614963,333.17748421151555,333.1941659085278,333.47750943865685,333.5108350912851,None,None,333.5108350912851,None,333.5108350912851,334.26078443836013,0.05831343633326469,None,,,,,,,,,,36,001,2019_Dec_25_1443,untitled,3.1.0,60.009178522645854,
489,_5,M,0,L,N,489_5M000LN,HLN,0,94,94,184,,,1.281,337.02741779990174,337.3773950888499,337.39406188794237,337.6773852231163,337.710723125143,337.02741779990174,down,337.710723125143,None,337.710723125143,338.9607052476422,0.05719675450382056,None,2.316795980605093,,,,,,,,,36,001,2019_Dec_25_1443,untitled,3.1.0,60.009178522645854,
046,R,M,225,L,N,046RM225LN,HLN,0,95,95,109,,,1.306,340.11067333298706,340.4439858092337,340.46065327045653,340.7440083878573,340.7773658227161,None,down,340.7773658227161,None,340.7773658227161,342.06065042329647,0.05896960692189168,None,2.2669230433057237,,,,,,,,,36,001,2019_Dec_25_1443,untitled,3.1.0,60.009178522645854,
_,G,N,90,_,_,_GN090__,N,0,96,96,58,,,1.2690000000000001,343.11060182297297,343.46060063114055,343.47725981573967,343.76057355003286,343.79390284437613,None,down,343.79390284437613,None,343.79390284437613,345.0439210529439,0.05741790584579576,None,2.7003068309277296,,,,,,,,,36,001,2019_Dec_25_1443,untitled,3.1.0,60.009178522645854,
386,_4,N,45,R,N,386_4N045RN,HRN,0,97,97,257,,,0.8130000000000001,346.577214261215,346.91053170343366,346.9272163800306,347.2105158785307,347.2438342477326,None,down,347.2438342477326,None,347.2438342477326,348.0271622178152,0.05859186189627508,None,2.116845706550521,,,,,,,,,36,001,2019_Dec_25_1443,untitled,3.1.0,60.009178522645854,
_,F,M,270,_,_,_FM270__,N,0,98,98,6,,,1.053,349.4271399040408,349.7771171929926,349.7937836610181,350.07711394855505,350.110447877807,None,down,350.110447877807,None,350.110447877807,351.1271011032404,0.05656408952563652,None,1.9669365507543262,,,,,,,,,36,001,2019_Dec_25_1443,untitled,3.1.0,60.009178522645854,
009,R,M,0,R,N,009RM000RN,HRN,0,99,99,96,,,1.174,352.1604049055859,352.4936889102537,352.51038020814667,352.7937349944841,352.8270920982759,None,up,352.8270920982759,None,352.8270920982759,353.9770492584794,0.05908481749429484,None,2.4167861810892646,,,,,,,,,36,001,2019_Dec_25_1443,untitled,3.1.0,60.009178522645854,
302,_2,M,225,L,N,302_2M225LN,HLN,0,100,100,157,,,1.25,355.3269871507073,355.6603439896462,355.67701145086903,355.96032882687723,355.99365017566015,None,down,355.99365017566015,None,355.99365017566015,357.2103000242314,0.059065615732833976,None,2.050173544208519,,,,,,,,,36,001,2019_Dec_25_1443,untitled,3.1.0,60.009178522645854,
234,G,M,45,L,N,234GM045LN,HLN,0,101,101,137,,,1.113,358.12696172492724,358.46025533047214,358.4769082248422,358.76025473455593,358.7935721105641,None,down,358.7935721105641,None,358.7935721105641,359.87692001075266,0.05799826257498353,None,1.8501828802400269,,,,,,,,,36,001,2019_Dec_25_1443,untitled,3.1.0,60.009178522645854,
_,_5,N,315,_,_,__5N315__,N,0,102,102,95,,,1.2630000000000001,360.7102215618579,361.0602276534519,361.0768838584663,361.3601850122941,361.3935295356205,None,up,361.3935295356205,None,361.3935295356205,362.6435126513097,0.05635651184638846,None,2.350153415463865,,,,,,,,,36,001,2019_Dec_25_1443,untitled,3.1.0,60.009178522645854,
422,_4,N,225,L,N,422_4N225LN,HLN,0,103,103,269,,,1.322,363.8101587919555,364.1601599175774,364.17678996846735,364.4601338296634,364.4934508746046,None,down,364.4934508746046,None,364.4934508746046,365.77675302162606,0.05852862850224483,None,2.0501738752718666,,,,,,,,,36,001,2019_Dec_25_1443,untitled,3.1.0,60.009178522645854,
267,_2,M,90,R,N,267_2M090RN,HRN,0,104,104,146,,,0.845,366.6267514987303,366.9601030406302,366.9767625562963,367.2600623858634,367.2934098887745,None,down,367.2934098887745,None,367.2934098887745,368.1100512620833,0.058844795461482136,None,1.7002690895315027,,,,,,,,,36,001,2019_Dec_25_1443,untitled,3.1.0,60.009178522645854,
425,_4,M,0,L,N,425_4M000LN,HLN,0,105,105,168,,,0.998,369.07667462546306,369.41003014014495,369.42671117502687,369.710016301633,369.7433767160728,None,up,369.7433767160728,None,369.7433767160728,370.7266787968838,0.0583846152840124,None,1.716818029530259,,,,,,,,,36,001,2019_Dec_25_1443,untitled,3.1.0,60.009178522645854,
_,R,M,0,_,_,_RM000__,N,0,106,106,16,,,0.706,371.52666197878716,371.87665780737007,371.8933203026172,372.1766287398714,372.2099510818516,None,up,372.2099510818516,None,372.2099510818516,372.8932626973292,0.054985241127724294,None,1.4501422916837328,,,,,,,,,36,001,2019_Dec_25_1443,untitled,3.1.0,60.009178522645854,
_,_2,N,225,_,_,__2N225__,N,0,107,107,77,,,1.053,373.7266258265008,374.07660179119193,374.09326892134777,374.37659192545834,374.4099321449394,None,down,374.4099321449394,None,374.4099321449394,375.4265443183285,0.057231516315368935,None,1.8168231279269094,,,,,,,,,36,001,2019_Dec_25_1443,untitled,3.1.0,60.009178522645854,
228,G,N,135,L,N,228GN135LN,HLN,0,108,108,235,,,0.842,376.30987771787477,376.64320707842853,376.6598371293221,376.9432124416817,376.9765602756561,None,up,376.9765602756561,None,376.9765602756561,377.79315496881827,0.058788183367141755,None,2.283452450476034,,,,,,,,,36,001,2019_Dec_25_1443,untitled,3.1.0,60.009178522645854,
_,_2,N,315,_,_,__2N315__,N,0,109,109,79,,,0.961,379.3264600954244,379.6764784364168,379.6931455665763,379.9764520174431,380.00978561562806,None,down,380.00978561562806,None,380.00978561562806,380.9597769417269,0.057706925479578786,None,2.650258760306315,,,,,,,,,36,001,2019_Dec_25_1443,untitled,3.1.0,60.009178522645854,
239,G,M,270,L,N,239GM270LN,HLN,0,110,110,142,,,0.788,382.72640169558144,383.07640480759073,383.0930716066832,383.37639957676583,383.4097315196268,None,up,383.4097315196268,None,383.4097315196268,384.15969675781525,0.05710008356254548,None,1.5001599043353053,,,,,,,,,36,001,2019_Dec_25_1443,untitled,3.1.0,60.009178522645854,
138,F,M,45,R,N,138FM045RN,HRN,0,111,111,113,,,1.183,384.9763397864481,385.3263362771613,385.34298784726707,385.6263482617105,385.65966696197574,None,down,385.65966696197574,None,385.65966696197574,386.80965557334275,0.0580674551310949,None,2.583582956249302,,,,,,,,,36,001,2019_Dec_25_1443,untitled,3.1.0,60.009178522645854,
_,F,N,0,_,_,_FN000__,N,0,112,112,48,,,0.745,388.3096370337116,388.6595553931111,388.67623775225366,388.95961538206757,388.99296785095066,None,up,388.99296785095066,None,388.99296785095066,389.70956671552995,0.05732222809456289,None,1.3667688995010394,,,,,,,,,36,001,2019_Dec_25_1443,untitled,3.1.0,60.009178522645854,
016,R,M,315,R,N,016RM315RN,HRN,0,113,113,103,,,1.212,390.4428942883351,390.7762405331996,390.7928990556684,391.07621676273993,391.1095487056009,None,down,391.1095487056009,None,391.1095487056009,392.2928808471006,0.05870674140896881,None,3.000291668155114,,,,,,,,,36,001,2019_Dec_25_1443,untitled,3.1.0,60.009178522645854,
_,G,N,315,_,_,_GN315__,N,0,114,114,63,,,1.354,394.1761576345525,394.5261484971634,394.5427941081034,394.8261455837928,394.8595016943873,None,up,394.8595016943873,None,394.8595016943873,396.17611294079325,0.05546131241862895,None,2.600077932671411,,,,,,,,,36,001,2019_Dec_25_1443,untitled,3.1.0,60.009178522645854,
034,R,N,45,L,N,034RN045LN,HLN,0,115,115,201,,,1.1520000000000001,397.5260296448723,397.87607678851055,397.89274259440936,398.176070233425,398.20936940086176,None,up,398.20936940086176,None,398.20936940086176,399.3260333527978,0.05783570971834706,None,2.417003359645605,,,,,,,,,36,001,2019_Dec_25_1443,untitled,3.1.0,60.009178522645854,
173,F,M,180,L,N,173FM180LN,HLN,0,116,116,124,,,0.761,400.709351192294,401.0426742626187,401.0593145765197,401.34266009303974,401.37599004951335,None,down,401.37599004951335,None,401.37599004951335,402.12595462557147,0.059470839143614285,None,1.4669785959958972,,,,,,,,,36,001,2019_Dec_25_1443,untitled,3.1.0,60.009178522645854,
493,_5,M,180,L,N,493_5M180LN,HLN,0,117,117,188,,,0.719,402.92592423381575,403.2592923289594,403.27595052036486,403.5592847806802,403.59259884604035,None,down,403.59259884604035,None,403.59259884604035,404.2759174138773,0.05845844274881529,None,2.200170101132244,,,,,,,,,36,001,2019_Dec_25_1443,untitled,3.1.0,60.009178522645854,
488,_5,N,315,L,N,488_5N315LN,HLN,0,118,118,287,,,1.184,405.85918122358635,406.2092247255132,406.22589351099305,406.50921717723395,406.5425703082474,None,up,406.5425703082474,None,406.5425703082474,407.6925403799796,0.0570944554565358,None,2.2167822745213925,,,,,,,,,36,001,2019_Dec_25_1443,untitled,3.1.0,60.009178522645854,
014,R,M,225,R,N,014RM225RN,HRN,0,119,119,101,,,1.274,408.82584067303833,409.1758100164334,409.1924754912652,409.47581968352824,409.5091532817132,None,up,409.5091532817132,None,409.5091532817132,410.75912116841937,0.05821014409229974,None,2.483489132464456,,,,,,,,,36,001,2019_Dec_25_1443,untitled,3.1.0,60.009178522645854,
194,G,N,45,R,N,194GN045RN,HRN,0,120,120,225,,,1.356,412.0757678387672,412.4090680656118,412.42575340433905,412.7090618415932,412.7423620022273,None,None,412.7423620022273,None,412.7423620022273,414.0590305228543,0.05880275022354908,None,,,,,,,,,,36,001,2019_Dec_25_1443,untitled,3.1.0,60.009178522645854,
451,_5,N,90,R,N,451_5N090RN,HRN,0,121,121,274,,,0.964,416.2756717637385,416.60899417193286,416.6257013609393,416.90896907721617,416.9423000268798,416.2756717637385,down,416.9423000268798,None,416.9423000268798,417.89228142103457,0.058295558832469396,None,1.9668438525914098,,,,,,,,,36,001,2019_Dec_25_1443,untitled,3.1.0,60.009178522645854,
038,R,N,225,L,N,038RN225LN,HLN,0,122,122,205,,,1.16,418.9755730401921,419.3256016441992,419.3422667879677,419.6255666175348,419.658941598831,None,down,419.658941598831,None,419.658941598831,420.7755489386691,0.057217942656279774,None,1.8669387357804226,,,,,,,,,36,001,2019_Dec_25_1443,untitled,3.1.0,60.009178522645854,
230,G,N,225,L,N,230GN225LN,HLN,0,123,123,237,,,0.882,421.59222441166276,421.9422218955697,421.9588751210031,422.24216998459815,422.27549861680745,None,down,422.27549861680745,None,422.27549861680745,423.1254967628447,0.058403154915140476,None,2.2836573796339508,,,,,,,,,36,001,2019_Dec_25_1443,untitled,3.1.0,60.009178522645854,
201,G,M,0,R,N,201GM000RN,HRN,0,124,124,128,,,1.341,424.6421536299931,424.9754763692508,424.99213555384995,425.2754704762956,425.3087911629482,None,down,425.3087911629482,None,425.3087911629482,426.625439819687,0.05917023223446449,None,2.6167847906144743,,,,,,,,,36,001,2019_Dec_25_1443,untitled,3.1.0,60.009178522645854,
171,F,M,90,L,N,171FM090LN,HLN,0,125,125,122,,,1.229,428.00872786334367,428.34208072950787,428.3587405762373,428.64207450548565,428.67539353681786,None,up,428.67539353681786,None,428.67539353681786,429.89204106793477,0.05826476979564177,None,2.0834690699302882,,,,,,,,,36,001,2019_Dec_25_1443,untitled,3.1.0,60.009178522645854,
482,_5,N,45,L,N,482_5N045LN,HLN,0,126,126,281,,,1.2,430.82532090118184,431.17533560046286,431.19200438594635,431.4753138163942,431.5086464213855,None,up,431.5086464213855,None,431.5086464213855,432.691951415567,0.05762647671508603,None,2.7836285769881215,,,,,,,,,36,001,2019_Dec_25_1443,untitled,3.1.0,60.009178522645854,
_,G,M,225,_,_,_GM225__,N,0,127,127,13,,,0.9470000000000001,434.3585849757437,434.7085659064069,434.72525124513413,435.00857557350173,435.0419320151632,None,down,435.0419320151632,None,435.0419320151632,435.95858080432663,0.05689548546433798,None,1.8002821334885084,,,,,,,,,36,001,2019_Dec_25_1443,untitled,3.1.0,60.009178522645854,
037,R,N,180,L,N,037RN180LN,HLN,0,128,128,204,,,1.159,436.92519390469533,437.25852127886174,437.2751695383231,437.5585372361893,437.5918618956239,None,down,437.5918618956239,None,437.5918618956239,438.708477843149,0.06079542971565388,None,2.0834439090031083,,,,,,,,,36,001,2019_Dec_25_1443,untitled,3.1.0,60.009178522645854,
398,_4,M,225,R,N,398_4M225RN,HRN,0,129,129,165,,,0.916,439.7584845306592,440.0918076009839,440.10847373794604,440.391802370159,440.4251346440833,None,up,440.4251346440833,None,440.4251346440833,441.308429640103,0.05897887673563673,None,1.7668346489845135,,,,,,,,,36,001,2019_Dec_25_1443,untitled,3.1.0,60.009178522645854,
042,R,M,45,L,N,042RM045LN,HLN,0,130,130,105,,,1.167,442.2584338777342,442.60841745691505,442.6250849181379,442.90841123289647,442.9417229808023,None,down,442.9417229808023,None,442.9417229808023,444.09170927471496,0.05693322686420288,None,2.1334966145295766,,,,,,,,,36,001,2019_Dec_25_1443,untitled,3.1.0,60.009178522645854,
490,_5,M,45,L,N,490_5M045LN,HLN,0,131,131,185,,,0.723,445.14168318680095,445.49168894733157,445.5083577328114,445.791679081598,445.8249934780215,None,down,445.8249934780215,None,445.8249934780215,446.5083312476236,0.058751435168233,None,1.483509327423235,,,,,,,,,36,001,2019_Dec_25_1443,untitled,3.1.0,60.009178522645854,
010,R,M,45,R,N,010RM045RN,HRN,0,132,132,97,,,1.345,447.3916504113804,447.7249446790556,447.74161412666945,448.0249503733721,448.05829423456817,None,down,448.05829423456817,None,448.05829423456817,449.37492335847855,0.0587911629518203,None,2.383423118128121,,,,,,,,,36,001,2019_Dec_25_1443,untitled,3.1.0,60.009178522645854,
235,G,M,90,L,N,235GM090LN,HLN,0,133,133,138,,,0.862,450.5249126319759,450.8581820697909,450.87484125439005,451.15822649869733,451.19154950280426,None,down,451.19154950280426,None,451.19154950280426,452.0414930231382,0.05891564334524446,None,1.516828358751809,,,,,,,,,36,001,2019_Dec_25_1443,untitled,3.1.0,60.009178522645854,
_,G,M,270,_,_,_GM270__,N,0,134,134,14,,,1.246,452.77485966159657,453.1248336398967,453.1414901759781,453.42482774694145,453.4581626693871,None,up,453.4581626693871,None,453.4581626693871,454.6747767629531,0.05642140056443168,None,2.0168320004668203,,,,,,,,,36,001,2019_Dec_25_1443,untitled,3.1.0,60.009178522645854,
_,_4,N,0,_,_,__4N000__,N,0,135,135,80,,,0.884,455.54144601192456,455.89142429407,455.9081126123783,456.19145183866567,456.2247834504633,None,up,456.2247834504633,None,456.2247834504633,457.07472995037824,0.05693422005788307,None,1.6001732793556585,,,,,,,,,36,001,2019_Dec_25_1443,untitled,3.1.0,60.009178522645854,
427,_4,M,90,L,N,427_4M090LN,HLN,0,136,136,170,,,1.213,457.9080818233451,458.24140588685987,458.258065402526,458.54138112321016,458.5747077690321,None,down,458.5747077690321,None,458.5747077690321,459.75805017354287,0.0598820217201137,None,2.7168468321724504,,,,,,,,,36,001,2019_Dec_25_1443,untitled,3.1.0,60.009178522645854,
400,_4,M,315,R,N,400_4M315RN,HRN,0,137,137,167,,,0.748,461.37465155421523,461.70797892838164,461.7246278499697,462.00796012389765,462.0413039850937,None,down,462.0413039850937,None,462.0413039850937,462.7579386046782,0.058835194580751704,None,1.5834816503993352,,,,,,,,,36,001,2019_Dec_25_1443,untitled,3.1.0,60.009178522645854,
203,G,M,90,R,N,203GM090RN,HRN,0,138,138,130,,,1.363,463.69127968493194,464.04126889221516,464.0579098682465,464.3412696205596,464.3746045430016,None,down,464.3746045430016,None,464.3746045430016,465.724565609773,0.057305674850795185,None,2.10012990985706,,,,,,,,,36,001,2019_Dec_25_1443,untitled,3.1.0,60.009178522645854,
_,_2,M,270,_,_,__2M270__,N,0,139,139,30,,,1.27,466.5412288333646,466.8911958593053,466.9078507400591,467.1912068506572,467.22455501569857,None,down,467.22455501569857,None,467.22455501569857,468.47451164619997,0.05707227411039639,None,2.116780155705783,,,,,,,,,36,001,2019_Dec_25_1443,untitled,3.1.0,60.009178522645854,
_,_5,M,45,_,_,__5M045__,N,0,140,140,41,,,1.209,469.4244950267421,469.75775949858144,469.7744613905488,470.05780525174487,470.0911279247921,None,down,470.0911279247921,None,470.0911279247921,471.2744289461916,0.05917023223446449,None,2.0336246042134007,,,,,,,,,36,001,2019_Dec_25_1443,untitled,3.1.0,60.009178522645854,
_,F,M,315,_,_,_FM315__,N,0,141,141,7,,,0.911,472.207762080885,472.54110104232313,472.5577506260415,472.8410554215843,472.8744032555587,None,down,472.8744032555587,None,472.8744032555587,473.75771778440685,0.057371556758880615,None,2.2501559315569466,,,,,,,,,36,001,2019_Dec_25_1443,untitled,3.1.0,60.009178522645854,
_,_4,N,225,_,_,__4N225__,N,0,142,142,85,,,0.915,475.1910360211805,475.54099443943414,475.5576622317203,475.84101536273374,475.87434167749234,None,down,475.87434167749234,None,475.87434167749234,476.75762574837063,0.05613337412069086,None,1.866786114871502,,,,,,,,,36,001,2019_Dec_25_1443,untitled,3.1.0,60.009178522645854,
270,_2,M,225,R,N,270_2M225RN,HRN,0,143,143,149,,,1.272,477.80764402315253,478.15762892659404,478.1742987052712,478.4576376004916,478.49096788802854,None,up,478.49096788802854,None,478.49096788802854,479.74095001052774,0.05838627060438739,None,2.8501269302723813,,,,,,,,,36,001,2019_Dec_25_1443,untitled,3.1.0,60.009178522645854,
_,_5,M,180,_,_,__5M180__,N,0,144,144,44,,,1.355,481.4242010411326,481.75752245612966,481.7741832960528,482.05754271729893,482.09088028826227,None,down,482.09088028826227,None,482.09088028826227,483.40750411513363,0.058898427971143974,None,2.03348853654461,,,,,,,,,36,001,2019_Dec_25_1443,untitled,3.1.0,60.009178522645854,
_,R,N,270,_,_,_RN270__,N,0,145,145,70,,,0.852,484.2074710748602,484.540804077129,484.5574695519608,484.8407958667194,484.874122181478,None,up,484.874122181478,None,484.874122181478,485.69076686543485,0.057683750936121214,None,2.2668214063887717,,,,,,,,,36,001,2019_Dec_25_1443,untitled,3.1.0,60.009178522645854,
271,_2,M,270,R,N,271_2M270RN,HRN,0,146,146,150,,,1.2,487.20739757845877,487.55739440023535,487.5740804010893,487.8574004256152,487.8907168084261,None,up,487.8907168084261,None,487.8907168084261,489.0740270996466,0.05800620812806301,None,3.11681988348937,,,,,,,,,36,001,2019_Dec_25_1443,untitled,3.1.0,60.009178522645854,
225,G,N,0,L,N,225GN000LN,HLN,0,147,147,232,,,1.059,491.0906793318827,491.42399445664705,491.4406357637454,491.7239746589694,491.75731752697175,None,down,491.75731752697175,None,491.75731752697175,492.7739475778617,0.0590636293454736,None,2.033640826390183,,,,,,,,,36,001,2019_Dec_25_1443,untitled,3.1.0,60.009178522645854,
232,G,N,315,L,N,232GN315LN,HLN,0,148,148,239,,,1.292,493.87395168306466,494.2072479371345,494.22391241877267,494.5072672051101,494.5406017964888,None,down,494.5406017964888,None,494.5406017964888,495.7905544542118,0.05972013099381002,None,2.583473042712285,,,,,,,,,36,001,2019_Dec_25_1443,untitled,3.1.0,60.009178522645854,
390,_4,N,225,R,N,390_4N225RN,HRN,0,149,149,261,,,0.758,497.2071939735579,497.5405200234636,497.5571795391297,497.84050750921233,497.8738394520733,None,up,497.8738394520733,None,497.8738394520733,498.5904899627749,0.059340068517485633,None,1.5668363705226511,,,,,,,,,36,001,2019_Dec_25_1443,untitled,3.1.0,60.009178522645854,
464,_5,M,315,R,N,464_5M315RN,HRN,0,150,150,183,,,1.221,499.52382607705295,499.85713855329595,499.873789792342,500.1571429233554,500.1904761904734,None,down,500.1904761904734,None,500.1904761904734,501.3737474160371,0.062010768881009426,None,2.3667977021432307,,,,,,,,,36,001,2019_Dec_25_1443,untitled,3.1.0,60.009178522645854,
163,F,N,90,L,N,163FN090LN,HLN,0,151,151,218,,,1.1320000000000001,502.6404003104035,502.9737372854506,502.9903792546793,503.27373271675606,503.30706267322967,None,up,503.30706267322967,None,503.30706267322967,504.4237067612703,0.0593814516250859,None,2.1335038979595993,,,,,,,,,36,001,2019_Dec_25_1443,untitled,3.1.0,60.009178522645854,
_,_2,N,270,_,_,__2N270__,N,0,152,152,78,,,0.837,505.5236943132295,505.8570577734681,505.8736841826467,506.1570071867536,506.1903424402626,None,up,506.1903424402626,None,506.1903424402626,507.00698381357506,0.05902754327325965,None,2.2668204131950915,,,,,,,,,36,001,2019_Dec_25_1443,untitled,3.1.0,60.009178522645854,
040,R,N,315,L,N,040RN315LN,HLN,0,153,153,207,,,1.12,508.54028298101184,508.8736027406849,508.8902884104755,509.17359155069425,509.2069198518402,None,up,509.2069198518402,None,509.2069198518402,510.2902316659565,0.05840911408449756,None,3.2669329752534395,,,,,,,,,36,001,2019_Dec_25_1443,untitled,3.1.0,60.009178522645854,
_,_4,N,90,_,_,__4N090__,N,0,154,154,82,,,0.734,512.5402081603497,512.8901920705975,512.9068598628837,513.1901971027837,513.22352606606,None,up,513.22352606606,None,513.22352606606,513.9401358557807,0.05662368120465544,None,1.800252337648999,,,,,,,,,36,001,2019_Dec_25_1443,untitled,3.1.0,60.009178522645854,
132,F,N,135,R,N,132FN135RN,HRN,0,155,155,211,,,1.184,515.1067925905008,515.4401577060635,515.4568059655212,515.7401316181495,515.7734506494817,None,down,515.7734506494817,None,515.7734506494817,516.923436612331,0.05914871301865787,None,2.400448129417782,,,,,,,,,36,001,2019_Dec_25_1443,untitled,3.1.0,60.009178522645854,
_,F,N,315,_,_,_FN315__,N,0,156,156,55,,,1.331,518.256744453669,518.5900337553721,518.6067224047474,518.8900424292733,518.9233796691733,None,None,518.9233796691733,None,518.9233796691733,520.2400418995676,0.05880341235024389,None,,,,,,,,,,36,001,2019_Dec_25_1443,untitled,3.1.0,60.009178522645854,
_,_2,M,135,_,_,__2M135__,N,0,157,157,27,,,0.898,522.9399252985204,523.2566302362866,523.2732963732487,523.5566226880073,523.589957279386,522.9399252985204,down,523.589957279386,None,523.589957279386,524.4732420123946,0.0825970450459863,None,1.7668210753254243,,,,,,,,,36,001,2019_Dec_25_1443,untitled,3.1.0,60.009178522645854,
269,_2,M,180,R,N,269_2M180RN,HRN,0,158,158,148,,,1.241,525.4232273793277,525.7732142691602,525.7898979525598,526.0732279090334,526.1065535616617,None,down,526.1065535616617,None,526.1065535616617,527.3232474418583,0.05712590662005823,None,2.48346165408293,,,,,,,,,36,001,2019_Dec_25_1443,untitled,3.1.0,60.009178522645854,
_,_5,M,225,_,_,__5M225__,N,0,159,159,45,,,0.9510000000000001,528.6564956915208,529.0065133703829,529.0231685822073,529.3064849650182,529.3398076380618,None,down,529.3398076380618,None,529.3398076380618,530.2564680144969,0.056688900982408086,None,2.1169059603598726,,,,,,,,,36,001,2019_Dec_25_1443,untitled,3.1.0,60.009178522645854,
198,G,N,225,R,N,198GN225RN,HRN,0,160,160,229,,,1.347,531.5397916807342,531.8730962114241,531.8897451330122,532.1730780690705,532.2064245787842,None,up,532.2064245787842,None,532.2064245787842,533.5230427775532,0.05910269500236609,None,2.116809620481945,,,,,,,,,36,001,2019_Dec_25_1443,untitled,3.1.0,60.009178522645854,
_,R,N,225,_,_,_RN225__,N,0,161,161,69,,,1.318,534.4063645898277,534.7396919639941,534.7563485000755,535.0396933544653,535.0729955014904,None,down,535.0729955014904,None,535.0729955014904,536.3563112221709,0.057684413066454,None,2.516848553710588,,,,,,,,,36,001,2019_Dec_25_1443,untitled,3.1.0,60.009178522645854,
_,G,N,225,_,_,_GN225__,N,0,162,162,61,,,0.846,537.6562785129609,538.0063014888619,538.0229533900347,538.3062869882233,538.3396278698347,None,up,538.3396278698347,None,538.3396278698347,539.15625335203,0.05661275605962146,None,2.6001411660618032,,,,,,,,,36,001,2019_Dec_25_1443,untitled,3.1.0,60.009178522645854,
_,G,M,0,_,_,_GM000__,N,0,163,163,8,,,1.139,541.0062564640393,541.3561933630735,541.3728919443965,541.656187139055,541.6895319934447,None,down,541.6895319934447,None,541.6895319934447,542.806174095098,0.05707492263172753,None,2.0836425479283207,,,,,,,,,36,001,2019_Dec_25_1443,untitled,3.1.0,60.009178522645854,
396,_4,M,135,R,N,396_4M135RN,HRN,0,164,164,163,,,1.1520000000000001,543.8561847553865,544.1894985558938,544.2061742937367,544.4894658466837,544.5228242747362,None,down,544.5228242747362,None,544.5228242747362,545.6394640589315,0.05932318421037053,None,2.4503948941819544,,,,,,,,,36,001,2019_Dec_25_1443,untitled,3.1.0,60.009178522645854,
_,G,M,315,_,_,_GM315__,N,0,165,165,15,,,0.847,547.0561032472142,547.3894180409152,547.4060782187116,547.689414134351,547.7227255511898,None,down,547.7227255511898,None,547.7227255511898,548.5393960582078,0.057380826576263644,None,2.3501448077768146,,,,,,,,,36,001,2019_Dec_25_1443,untitled,3.1.0,60.009178522645854,
015,R,M,270,R,N,015RM270RN,HRN,0,166,166,102,,,0.9580000000000001,550.1393558007185,550.4893311032793,550.505989956815,550.7893328248174,550.8226703957807,None,down,550.8226703957807,None,550.8226703957807,551.7393277926312,0.057344409437064314,None,2.2667985629122995,,,,,,,,,36,001,2019_Dec_25_1443,untitled,3.1.0,60.009178522645854,
004,R,N,135,R,N,004RN135RN,HRN,0,167,167,195,,,0.968,553.1559656566533,553.5059578435212,553.5226256358073,553.8059171887544,553.8392802517119,None,down,553.8392802517119,None,553.8392802517119,554.7892371470662,0.05832038869630196,None,2.066812864915846,,,,,,,,,36,001,2019_Dec_25_1443,untitled,3.1.0,60.009178522645854,
_,R,N,0,_,_,_RN000__,N,0,168,168,64,,,0.836,555.9725510799981,556.3225641239551,556.3392276123996,556.6225360496537,556.6558709720957,None,up,556.6558709720957,None,556.6558709720957,557.4725361820783,0.05758509360384778,None,1.4668517981481273,,,,,,,,,36,001,2019_Dec_25_1443,untitled,3.1.0,60.009178522645854,
200,G,N,315,R,N,200GN315RN,HRN,0,169,169,231,,,1.2770000000000001,558.205842566731,558.5391911290499,558.5558546174943,558.8391703381749,558.8724943354791,None,up,558.8724943354791,None,558.8724943354791,560.1224774511684,0.057013344561710255,None,2.8668069719606137,,,,,,,,,36,001,2019_Dec_25_1443,untitled,3.1.0,60.009178522645854,
_,_4,M,135,_,_,__4M135__,N,0,170,170,35,,,1.189,561.8057566222888,562.155758410041,562.1724331546902,562.4557419230077,562.4890503602619,None,down,562.4890503602619,None,562.4890503602619,563.6390320192695,0.05533352137717884,None,2.233506016771571,,,,,,,,,36,001,2019_Dec_25_1443,untitled,3.1.0,60.009178522645854,
_,F,M,45,_,_,_FM045__,N,0,171,171,1,,,0.928,564.7890216238302,565.1390449307983,565.1557170269298,565.4390267884446,565.4723597244993,None,down,565.4723597244993,None,565.4723597244993,566.3889754071752,0.05650615317063057,None,2.3668596112765954,,,,,,,,,36,001,2019_Dec_25_1443,untitled,3.1.0,60.009178522645854,
129,F,N,0,R,N,129FN000RN,HRN,0,172,172,208,,,1.044,567.922293776377,568.2556224748005,568.2722972194497,568.5556294933776,568.5889624294323,None,up,568.5889624294323,None,568.5889624294323,569.6055385167492,0.057895301397365984,None,1.8502970976223878,,,,,,,,,36,001,2019_Dec_25_1443,untitled,3.1.0,60.009178522645854,
291,_2,N,90,L,N,291_2N090LN,HLN,0,173,173,250,,,1.35,570.5222492150424,570.8555755960151,570.8722410708469,571.1555653992145,571.1888973420755,None,up,571.1888973420755,None,571.1888973420755,572.5055099127421,0.0584630776575068,None,2.066962175173103,,,,,,,,,36,001,2019_Dec_25_1443,untitled,3.1.0,60.009178522645854,
417,_4,N,0,L,N,417_4N000LN,HLN,0,174,174,264,,,1.1480000000000001,573.3221797576334,573.6721481078312,573.6888149069237,573.9721425459393,574.0055016361221,None,up,574.0055016361221,None,574.0055016361221,575.122141420321,0.05525174835565849,None,1.783502110207337,,,,,,,,,36,001,2019_Dec_25_1443,untitled,3.1.0,60.009178522645854,
397,_4,M,180,R,N,397_4M180RN,HRN,0,175,175,164,,,1.246,575.8554421768677,576.2054433024896,576.2221021560254,576.5054476725454,576.5387918648084,None,up,576.5387918648084,None,576.5387918648084,577.7554109243429,0.05800223534970428,None,2.166898412080627,,,,,,,,,36,001,2019_Dec_25_1443,untitled,3.1.0,60.009178522645854,
496,_5,M,315,L,N,496_5M315LN,HLN,0,176,176,191,,,0.85,578.7720422994971,579.1220374659497,579.1386949952248,579.4220501126256,579.4553645090491,None,down,579.4553645090491,None,579.4553645090491,580.2720091930096,0.05737884018526529,None,1.800234791211551,,,,,,,,,36,001,2019_Dec_25_1443,untitled,3.1.0,60.009178522645854,
272,_2,M,315,R,N,272_2M315RN,HRN,0,177,177,151,,,1.0170000000000001,581.3386740719252,581.6719991286373,581.6886669209234,581.9719637709059,582.0053410696564,None,down,582.0053410696564,None,582.0053410696564,582.9886020984195,0.057220922240958316,None,2.0003522530278133,,,,,,,,,36,001,2019_Dec_25_1443,untitled,3.1.0,60.009178522645854,
193,G,N,0,R,N,193GN000RN,HRN,0,178,178,224,,,1.082,584.0719301347162,584.4219213283905,584.4386152748011,584.7219313265487,584.7552851196924,None,up,584.7552851196924,None,584.7552851196924,585.8052193039948,0.057305674850795185,None,2.1003328526276164,,,,,,,,,36,001,2019_Dec_25_1443,untitled,3.1.0,60.009178522645854,
_,_2,M,180,_,_,__2M180__,N,0,179,179,28,,,1.313,586.9385540277981,587.2718751117318,587.2885260197108,587.5718685566499,587.6051899054328,None,down,587.6051899054328,None,587.6051899054328,588.8885228414874,0.05850446076874505,None,2.1836330794722016,,,,,,,,,36,001,2019_Dec_25_1443,untitled,3.1.0,60.009178522645854,
426,_4,M,45,L,N,426_4M045LN,HLN,0,180,180,169,,,0.847,589.8717808906695,590.2051264734037,590.2217886375875,590.505107668916,590.538441267101,None,down,590.538441267101,None,590.538441267101,591.3551273341727,0.05953970063637826,None,2.1001901636664115,,,,,,,,,36,001,2019_Dec_25_1443,untitled,3.1.0,60.009178522645854,
431,_4,M,270,L,N,431_4M270LN,HLN,0,181,181,174,,,1.2650000000000001,592.721718451834,593.0550865469777,593.0717556635245,593.3550786676351,593.3884125968834,None,down,593.3884125968834,None,593.3884125968834,594.6383894223436,0.05865542635001475,None,2.3501262681456865,,,,,,,,,36,001,2019_Dec_25_1443,untitled,3.1.0,60.009178522645854,
_,_5,N,225,_,_,__5N225__,N,0,182,182,93,,,1.334,595.8049839168671,596.1550019267961,596.171674685058,596.4549940474535,596.4883160583668,None,down,596.4883160583668,None,596.4883160583668,597.8049726606623,0.05641477926474181,None,2.7334785383900453,,,,,,,,,36,001,2019_Dec_25_1443,untitled,3.1.0,60.009178522645854,
_,R,N,180,_,_,_RN180__,N,0,183,183,68,,,1.353,599.2882562018349,599.638234152917,599.6549002898792,599.9382229629227,599.9715711279641,None,down,599.9715711279641,None,599.9715711279641,601.28822938558,0.05656740017366246,None,2.0501914217129524,,,,,,,,,36,001,2019_Dec_25_1443,untitled,3.1.0,60.009178522645854,
_,_2,M,45,_,_,__2M045__,N,0,184,184,25,,,1.063,602.1048700967622,602.4382014437069,602.454852020619,602.7381660859755,602.7715116024992,None,down,602.7715116024992,None,602.7715116024992,603.8214792243525,0.05857067374381586,None,3.116663620869076,,,,,,,,,36,001,2019_Dec_25_1443,untitled,3.1.0,60.009178522645854,
167,F,N,270,L,N,167FN270LN,HLN,0,185,185,222,,,0.799,605.9714638629412,606.3047538267783,606.3214507527737,606.6047515755345,606.6381090103932,None,down,606.6381090103932,None,606.6381090103932,607.4213926177799,0.05884545759181492,None,2.100157719305571,,,,,,,,,36,001,2019_Dec_25_1443,untitled,3.1.0,60.009178522645854,
045,R,M,180,L,N,045RM180LN,HLN,0,186,186,108,,,0.936,608.8047233688085,609.154704961602,609.1713562006444,609.4547176082815,609.4880717324886,None,up,609.4880717324886,None,609.4880717324886,610.4046758278928,0.057491402243613265,None,2.8335584574488166,,,,,,,,,36,001,2019_Dec_25_1443,untitled,3.1.0,60.009178522645854,
_,_5,N,90,_,_,__5N090__,N,0,187,187,90,,,0.9560000000000001,612.3879666524954,612.7379628121416,612.7545895523835,613.0379714860428,613.0712911795017,None,up,613.0712911795017,None,613.0712911795017,613.9879492384825,0.05682132693618769,None,2.5001615596593183,,,,,,,,,36,001,2019_Dec_25_1443,untitled,3.1.0,60.009178522645854,
165,F,N,180,L,N,165FN180LN,HLN,0,188,188,220,,,0.887,615.6545294972166,615.9878876604162,616.0045415479799,616.2878801121369,616.3211948396238,None,down,616.3211948396238,None,616.3211948396238,617.1711767634806,0.05983467944315635,None,1.6336611537772114,,,,,,,,,36,001,2019_Dec_25_1443,untitled,3.1.0,60.009178522645854,
454,_5,N,225,R,N,454_5N225RN,HRN,0,189,189,277,,,0.841,618.0378612414388,618.3711733866185,618.3878362129326,618.6711612034342,618.7044891735131,None,up,618.7044891735131,None,618.7044891735131,619.5211348506673,0.05837799398432253,None,1.7169454895047238,,,,,,,,,36,001,2019_Dec_25_1443,untitled,3.1.0,60.009178522645854,
_,G,M,90,_,_,_GM090__,N,0,190,190,10,,,0.785,620.487804232067,620.8377788724974,620.854459576316,621.1377551020378,621.1711009496248,None,down,621.1711009496248,None,621.1711009496248,621.9211045913398,0.056264475810166914,None,1.5502106234744133,,,,,,,,,36,001,2019_Dec_25_1443,untitled,3.1.0,60.009178522645854,
134,F,N,225,R,N,134FN225RN,HRN,0,191,191,213,,,1.34,622.7877625841065,623.137747487548,623.1544099827952,623.4377190821797,623.4710543356887,None,up,623.4710543356887,None,623.4710543356887,624.7876960400645,0.058537567252642475,None,2.7003204045868188,,,,,,,,,36,001,2019_Dec_25_1443,untitled,3.1.0,60.009178522645854,
144,F,M,315,R,N,144FM315RN,HRN,0,192,192,119,,,0.902,626.2543290043286,626.5876828636829,626.6043327784682,626.8876382361377,626.9209804420097,None,down,626.9209804420097,None,626.9209804420097,627.804306889193,0.059052042073744815,None,1.933518199959508,,,,,,,,,36,001,2019_Dec_25_1443,untitled,3.1.0,60.009178522645854,
264,_2,N,315,R,N,264_2N315RN,HRN,0,193,193,247,,,1.047,628.9376306878585,629.2709342253511,629.2875871197211,629.5709316430475,629.6042582888695,None,None,629.6042582888695,None,629.6042582888695,630.620940316945,0.058370710557937855,None,,,,,,,,,,36,001,2019_Dec_25_1443,untitled,3.1.0,60.009178522645854,
_,_2,N,135,_,_,__2N135__,N,0,194,194,75,,,1.228,633.7375132260386,634.0708266954825,634.0708266954825,634.3874574747133,634.3874574747133,633.7375132260386,up,634.3874574747133,None,634.3874574747133,635.5874703200316,0.07190960869411356,None,2.6168235252043814,,,,,,,,,36,001,2019_Dec_25_1443,untitled,3.1.0,60.009178522645854,
_,_2,N,180,_,_,__2N180__,N,0,195,195,76,,,0.876,637.0707575029228,637.4207609459954,637.4374257587006,637.7207537287832,637.7540866648378,None,down,637.7540866648378,None,637.7540866648378,638.6040589878139,0.05734440944070229,None,1.8336289742692315,,,,,,,,,36,001,2019_Dec_25_1443,untitled,3.1.0,60.009178522645854,
_,F,N,135,_,_,_FN135__,N,0,196,196,51,,,1.28,639.6707126105248,640.0040379983002,640.020701817808,640.3040287946969,640.3373630550122,None,down,640.3373630550122,None,640.3373630550122,641.5873117399569,0.05821544113132404,None,2.0169624400259636,,,,,,,,,36,001,2019_Dec_25_1443,untitled,3.1.0,60.009178522645854,
130,F,N,45,R,N,130FN045RN,HRN,0,197,197,209,,,1.051,642.4373373643793,642.7706657317394,642.7872928030447,643.0706350089167,643.1039686071017,None,down,643.1039686071017,None,643.1039686071017,644.1206195150808,0.05882493156968849,None,2.73344642509619,,,,,,,,,36,001,2019_Dec_25_1443,untitled,3.1.0,60.009178522645854,
420,_4,N,135,L,N,420_4N135LN,HLN,0,198,198,267,,,1.198,645.9038746508886,646.2539029238324,646.2705707161185,646.5538688903616,646.5872213592447,None,up,646.5872213592447,None,646.5872213592447,647.7705210563872,0.05767348792869598,None,2.050164274391136,,,,,,,,,36,001,2019_Dec_25_1443,untitled,3.1.0,60.009178522645854,
292,_2,N,135,L,N,292_2N135LN,HLN,0,199,199,251,,,1.359,648.7038518736263,649.0538126093343,649.0704830501381,649.3538090338334,649.3871320379403,None,up,649.3871320379403,None,649.3871320379403,650.70379857218,0.05826377660559956,None,1.9501989037780731,,,,,,,,,36,001,2019_Dec_25_1443,untitled,3.1.0,60.009178522645854,
_,F,N,225,_,_,_FN225__,N,0,200,200,53,,,0.785,651.4204080308373,651.75378142302,651.7704485531794,652.0537685777053,652.0870922439426,None,down,652.0870922439426,None,652.0870922439426,652.8370846294492,0.058524324660538696,None,1.8836571809952147,,,,,,,,,36,001,2019_Dec_25_1443,untitled,3.1.0,60.009178522645854,
295,_2,N,270,L,N,295_2N270LN,HLN,0,201,201,254,,,1.306,654.0536851493562,654.3870406640344,654.4036829643264,654.6870218595504,654.7203574441228,None,down,654.7203574441228,None,654.7203574441228,656.003678461846,0.05837567652997677,None,2.266998857165163,,,,,,,,,36,001,2019_Dec_25_1443,untitled,3.1.0,60.009178522645854,
_,_2,M,0,_,_,__2M000__,N,0,202,202,24,,,1.366,657.053657339904,657.4036167513514,657.4202825572502,657.7036131758505,657.7369858396924,None,down,657.7369858396924,None,657.7369858396924,659.0869376366463,0.05625686132043484,None,2.8167953184783983,,,,,,,,,36,001,2019_Dec_25_1443,untitled,3.1.0,60.009178522645854,
455,_5,N,270,R,N,455_5N270RN,HRN,0,203,203,278,,,1.258,660.6202288585264,660.9702154172919,660.9868812231907,661.2701810527578,661.3035312041866,None,up,661.3035312041866,None,661.3035312041866,662.5202141592454,0.05767779177040211,None,1.8835383287041623,,,,,,,,,36,001,2019_Dec_25_1443,untitled,3.1.0,60.009178522645854,
392,_4,N,315,R,N,392_4N315RN,HRN,0,204,204,263,,,0.978,663.2701638373837,663.6035176967416,663.6201494029556,663.9035147833711,663.9368457330347,None,up,663.9368457330347,None,663.9368457330347,664.8867758121341,0.05960889319976559,None,2.100238499137049,,,,,,,,,36,001,2019_Dec_25_1443,untitled,3.1.0,60.009178522645854,
226,G,N,45,L,N,226GN045LN,HLN,0,205,205,233,,,0.981,666.1201202692464,666.4534151990556,666.4700839845354,666.7534116235547,666.7867730311882,None,up,666.7867730311882,None,666.7867730311882,667.7367537632126,0.05952414058992872,None,2.2668416013475507,,,,,,,,,36,001,2019_Dec_25_1443,untitled,3.1.0,60.009178522645854,
399,_4,M,270,R,N,399_4M270RN,HRN,0,206,206,166,,,1.158,669.1200504145563,669.4700498848542,669.4867362167752,669.770042336575,669.8033696445273,None,up,669.8033696445273,None,669.8033696445273,670.9199882405737,0.05693190260353731,None,2.4666723609807377,,,,,,,,,36,001,2019_Dec_25_1443,untitled,3.1.0,60.009178522645854,
_,_4,N,180,_,_,__4N180__,N,0,207,207,84,,,0.749,672.3366479548786,672.6866437834615,672.7033536209856,672.9866104121211,673.0199324230343,None,down,673.0199324230343,None,673.0199324230343,673.7366190198081,0.05679086896634544,None,1.5336577107009361,,,,,,,,,36,001,2019_Dec_25_1443,untitled,3.1.0,60.009178522645854,
_,R,M,180,_,_,_RM180__,N,0,208,208,20,,,1.374,674.6366006788121,674.9699260665911,674.9865677047528,675.2699175251146,675.3032517854299,None,down,675.3032517854299,None,675.3032517854299,676.6531956368271,0.05840083746079472,None,2.133619439598988,,,,,,,,,36,001,2019_Dec_25_1443,untitled,3.1.0,60.009178522645854,
143,F,M,270,R,N,143FM270RN,HRN,0,209,209,118,,,0.846,677.5198592576962,677.853197557004,677.8698640250332,678.1531545847829,678.1865252622338,None,up,678.1865252622338,None,678.1865252622338,679.0031603453135,0.058548492394038476,None,2.483310357431037,,,,,,,,,36,001,2019_Dec_25_1443,untitled,3.1.0,60.009178522645854,
289,_2,N,0,L,N,289_2N000LN,HLN,0,210,210,248,,,1.358,680.7364313060243,681.0864585857671,681.1031230674089,681.3864616315659,681.4197727173378,None,up,681.4197727173378,None,681.4197727173378,682.736384625874,0.057482132429868216,None,2.4168206118338276,,,,,,,,,36,001,2019_Dec_25_1443,untitled,3.1.0,60.009178522645854,
304,_2,M,315,L,N,304_2M315LN,HLN,0,211,211,159,,,1.283,683.9030413605942,684.2530520870969,684.2697291492004,684.5530465252086,684.5863764816786,None,down,684.5863764816786,None,684.5863764816786,685.8363516518148,0.057800947903160704,None,2.2833329360546486,,,,,,,,,36,001,2019_Dec_25_1443,untitled,3.1.0,60.009178522645854,
429,_4,M,180,L,N,429_4M180LN,HLN,0,212,212,172,,,0.806,686.9529702478612,687.2862910007279,687.3029541581054,687.5862933843964,687.6195915586395,None,up,687.6195915586395,None,687.6195915586395,688.4029678641928,0.06708963515484356,None,2.2668422634778835,,,,,,,,,36,001,2019_Dec_25_1443,untitled,3.1.0,60.009178522645854,
_,_2,N,90,_,_,__2N090__,N,0,213,213,74,,,1.3,689.9528841709907,690.3029134371282,690.319585864323,690.6029118480146,690.6362434598122,None,up,690.6362434598122,None,690.6362434598122,691.9195369991467,0.05749239544093143,None,2.03367757459273,,,,,,,,,36,001,2019_Dec_25_1443,untitled,3.1.0,60.009178522645854,
005,R,N,180,R,N,005RN180RN,HRN,0,214,214,196,,,0.897,692.7361949256992,693.0861963823845,693.1028555669873,693.3862050562857,693.4195125003462,None,up,693.4195125003462,None,693.4195125003462,694.3027962401611,0.057650313385238405,None,2.5002860400563804,,,,,,,,,36,001,2019_Dec_25_1443,untitled,3.1.0,60.009178522645854,
460,_5,M,135,R,N,460_5M135RN,HRN,0,215,215,179,,,1.25,695.9861148080017,696.3361261966311,696.3527830637795,696.6361272560389,696.6694443009801,None,down,696.6694443009801,None,696.6694443009801,697.88609050784,0.058214447937643854,None,2.7001217656616063,,,,,,,,,36,001,2019_Dec_25_1443,untitled,3.1.0,60.009178522645854,
_,G,M,135,_,_,_GM135__,N,0,216,216,11,,,1.045,699.4526881805832,699.7860393914234,699.8027065215792,700.0860338295315,700.119330679514,None,down,700.119330679514,None,700.119330679514,701.1360047620365,0.05816015329401125,None,2.4002633952150063,,,,,,,,,36,001,2019_Dec_25_1443,untitled,3.1.0,60.009178522645854,
290,_2,N,45,L,N,290_2N045LN,HLN,0,217,217,249,,,1.035,702.6026529552837,702.9359531821283,702.9526166705728,703.23594033681,703.2692997580561,None,up,703.2692997580561,None,703.2692997580561,704.2859410651545,0.05869051922854851,None,1.9667988277651602,,,,,,,,,36,001,2019_Dec_25_1443,untitled,3.1.0,60.009178522645854,
174,F,M,225,L,N,174FM225LN,HLN,0,218,218,125,,,1.01,705.3025750888228,705.6525894570404,705.6692410271462,705.9525531061154,705.985889683885,None,down,705.985889683885,None,705.985889683885,706.9691768667726,0.0574665723797807,None,3.0668072368134744,,,,,,,,,36,001,2019_Dec_25_1443,untitled,3.1.0,60.009178522645854,
301,_2,M,180,L,N,301_2M180LN,HLN,0,219,219,156,,,1.2610000000000001,709.1191618364282,709.469140780704,709.4857923508098,709.7691527652496,709.8024999370973,None,down,709.8024999370973,None,709.8024999370973,711.0524310756009,0.058121418704104144,None,2.5669356899852573,,,,,,,,,36,001,2019_Dec_25_1443,untitled,3.1.0,60.009178522645854,
453,_5,N,180,R,N,453_5N180RN,HRN,0,220,220,276,,,1.0,712.4524090928935,712.7857424262256,712.8023830711936,713.0857289187807,713.1190770838184,None,down,713.1190770838184,None,713.1190770838184,714.1023920761581,0.05908879027629155,None,1.633637317099783,,,,,,,,,36,001,2019_Dec_25_1443,untitled,3.1.0,60.009178522645854,
202,G,M,45,R,N,202GM045RN,HRN,0,221,221,129,,,1.236,714.8357252770656,715.1690202068748,715.1856989243024,715.4690262322547,715.5023694313204,None,down,715.5023694313204,None,715.5023694313204,716.7189782278474,0.05830383545253426,None,2.2334788694533927,,,,,,,,,36,001,2019_Dec_25_1443,untitled,3.1.0,60.009178522645854,
039,R,N,270,L,N,039RN270LN,HLN,0,222,222,206,,,1.28,717.8023191756729,718.1522977888817,718.1689384338497,718.4522753426827,718.4856105961917,None,down,718.4856105961917,None,718.4856105961917,719.7355947050783,0.0555920830447576,None,2.116819883493008,,,,,,,,,36,001,2019_Dec_25_1443,untitled,3.1.0,60.009178522645854,
008,R,N,315,R,N,008RN315RN,HRN,0,223,223,199,,,1.244,720.6689073137495,721.0189190334495,721.0355666307769,721.3189171132726,721.3522291922382,None,up,721.3522291922382,None,721.3522291922382,722.568866460344,0.05846142233349383,None,2.083692538726609,,,,,,,,,36,001,2019_Dec_25_1443,untitled,3.1.0,60.009178522645854,
131,F,N,90,R,N,131FN090RN,HRN,0,224,224,210,,,1.387,723.5188491787594,723.8521302038425,723.8687797875609,724.1521461611701,724.1854996232469,None,down,724.1854996232469,None,724.1854996232469,725.5354613521449,0.05908117578292149,None,2.3502808754419675,,,,,,,,,36,001,2019_Dec_25_1443,untitled,3.1.0,60.009178522645854,
419,_4,N,90,L,N,419_4N090LN,HLN,0,225,225,266,,,0.743,726.6187430393584,726.9520839871839,726.9687428407196,727.2520830602043,727.2854100370896,None,up,727.2854100370896,None,727.2854100370896,728.0021128560438,0.05735334819109994,None,1.433484762408625,,,,,,,,,36,001,2019_Dec_25_1443,untitled,3.1.0,60.009178522645854,
_,_4,M,315,_,_,__4M315__,N,0,226,226,39,,,1.244,728.7853881868105,729.1353773940937,729.1520190322553,729.43535196831,729.4687246321519,None,down,729.4687246321519,None,729.4687246321519,730.6853393878446,0.05633664795459481,None,2.066948932580999,,,,,,,,,36,001,2019_Dec_25_1443,untitled,3.1.0,60.009178522645854,
_,G,N,135,_,_,_GN135__,N,0,227,227,59,,,1.185,731.6019828799726,731.9519843366579,731.9686574259831,732.2519877135201,732.2853146904054,None,None,732.2853146904054,None,732.2853146904054,733.4352744991302,0.056684928204049356,None,,,,,,,,,,36,001,2019_Dec_25_1443,untitled,3.1.0,60.009178522645854,
161,F,N,0,L,N,161FN000LN,HLN,0,228,228,216,,,0.9520000000000001,735.8185787649672,736.151899517834,736.168557709243,736.451892631685,736.485224574546,735.8185787649672,up,736.485224574546,None,736.485224574546,737.401852506624,0.05869184348921408,None,1.6836344037328672,,,,,,,,,36,001,2019_Dec_25_1443,untitled,3.1.0,60.009178522645854,
_,_5,N,180,_,_,__5N180__,N,0,229,229,92,,,1.197,738.2351742526844,738.585180013215,738.6018348939724,738.8851767687775,738.918505069927,None,down,738.918505069927,None,738.918505069927,740.1018087398479,0.05596883487669402,None,1.9001425565365935,,,,,,,,,36,001,2019_Dec_25_1443,untitled,3.1.0,60.009178522645854,
_,_4,M,90,_,_,__4M090__,N,0,230,230,34,,,0.972,740.885094664689,741.2351378355488,741.2517649068577,741.5351120787018,741.5684456768868,None,down,741.5684456768868,None,741.5684456768868,742.5184234293265,0.05593440412849304,None,3.0001132241886808,,,,,,,,,36,001,2019_Dec_25_1443,untitled,3.1.0,60.009178522645854,
238,G,M,225,L,N,238GM225LN,HLN,0,231,231,141,,,1.086,744.6350383836616,744.9850361986319,745.0017049841153,745.2850187184049,745.3183506612659,None,down,745.3183506612659,None,745.3183506612659,746.3683116618231,0.058490556042670505,None,2.1333453178813215,,,,,,,,,36,001,2019_Dec_25_1443,untitled,3.1.0,60.009178522645854,
_,_4,N,45,_,_,__4N045__,N,0,232,232,81,,,0.994,747.5183108672682,747.8683060337207,747.8849585970238,748.168277628356,748.2015969907516,None,up,748.2015969907516,None,748.2015969907516,749.1516081807422,0.05656673804696766,None,2.866835774602805,,,,,,,,,36,001,2019_Dec_25_1443,untitled,3.1.0,60.009178522645854,
259,_2,N,90,R,N,259_2N090RN,HRN,0,233,233,242,,,1.073,751.1515475958731,751.4848657002221,751.5015540185304,751.7848902652331,751.8181963850329,None,down,751.8181963850329,None,751.8181963850329,752.8681934716624,0.0573887721329811,None,2.1168506725261977,,,,,,,,,36,001,2019_Dec_25_1443,untitled,3.1.0,60.009178522645854,
_,R,N,315,_,_,_RN315__,N,0,234,234,71,,,0.928,754.0014503952225,754.3515031669667,754.3681656622139,754.6514876731271,754.6848179606641,None,up,754.6848179606641,None,754.6848179606641,755.6014723779299,0.055335507768177195,None,1.7669680681283353,,,,,,,,,36,001,2019_Dec_25_1443,untitled,3.1.0,60.009178522645854,
_,F,N,270,_,_,_FN270__,N,0,235,235,54,,,1.031,756.5181135526036,756.8680746193713,756.8847606202289,757.1680677332224,757.2014288097926,None,up,757.2014288097926,None,757.2014288097926,758.2180489287384,0.05653230729876668,None,2.816805912556447,,,,,,,,,36,001,2019_Dec_25_1443,untitled,3.1.0,60.009178522645854,
293,_2,N,180,L,N,293_2N180LN,HLN,0,236,236,252,,,1.162,760.1013492217971,760.4346703057308,760.4513606104301,760.7346836145371,760.768015888465,None,down,760.768015888465,None,760.768015888465,761.9179932436273,0.05782743309464422,None,2.800148052214354,,,,,,,,,36,001,2019_Dec_25_1443,untitled,3.1.0,60.009178522645854,
006,R,N,225,R,N,006RN225RN,HRN,0,237,237,197,,,1.3860000000000001,763.6345997226999,763.9845948891525,764.00125804653,764.2845717808232,764.3179000819691,None,up,764.3179000819691,None,764.3179000819691,765.6679184229652,0.05653495581645984,None,2.083499196836783,,,,,,,,,36,001,2019_Dec_25_1443,untitled,3.1.0,60.009178522645854,
299,_2,M,90,L,N,299_2M090LN,HLN,0,238,238,154,,,0.705,766.467877106068,766.817882866595,766.8345079515129,767.1178663795654,767.1511887215456,None,down,767.1511887215456,None,767.1511887215456,767.8345162281366,0.05654422563384287,None,2.0668012776477553,,,,,,,,,36,001,2019_Dec_25_1443,untitled,3.1.0,60.009178522645854,
048,R,M,315,L,N,048RM315LN,HLN,0,239,239,111,,,1.0090000000000001,769.3011621039295,769.6345023896247,769.6511542907974,769.9344796123623,769.9678132105473,None,down,769.9678132105473,None,769.9678132105473,770.9510947653325,0.058832546063058544,None,1.7668197510647587,,,,,,,,,36,001,2019_Dec_25_1443,untitled,3.1.0,60.009178522645854,
457,_5,M,0,R,N,457_5M000RN,HRN,0,240,240,176,,,0.855,771.8177444814792,772.1510377559607,772.1677426275128,772.4510732461167,772.4844104860131,None,down,772.4844104860131,None,772.4844104860131,773.3010449069625,0.05913712574692909,None,2.5169581361842575,,,,,,,,,36,001,2019_Dec_25_1443,untitled,3.1.0,60.009178522645854,
_,_4,N,135,_,_,__4N135__,N,0,241,241,83,,,0.846,775.0676802548915,775.4177091899619,775.4343567872929,775.7176668798711,775.7510037887041,None,up,775.7510037887041,None,775.7510037887041,776.5676746267891,0.055890372503199615,None,1.8668503414628503,,,,,,,,,36,001,2019_Dec_25_1443,untitled,3.1.0,60.009178522645854,
387,_4,N,90,R,N,387_4N090RN,HRN,0,242,242,258,,,1.2690000000000001,777.6843008373289,778.0342655458116,778.0509472428239,778.3342818342026,778.3676025208588,None,down,778.3676025208588,None,778.3676025208588,779.6175972238198,0.055759601873432985,None,2.1669937587648747,,,,,,,,,36,001,2019_Dec_25_1443,untitled,3.1.0,60.009178522645854,
196,G,N,135,R,N,196GN135RN,HRN,0,243,243,227,,,1.311,780.6008986425004,780.9508888429809,780.9675417373473,781.250875004469,781.2842251558977,None,down,781.2842251558977,None,781.2842251558977,782.5675008177277,0.058334293422376504,None,2.2836176518503635,,,,,,,,,36,001,2019_Dec_25_1443,untitled,3.1.0,60.009178522645854,
139,F,M,90,R,N,139FM090RN,HRN,0,244,244,114,,,0.96,783.6508361374508,783.9841671533286,784.0008332902944,784.2841437139359,784.3174557929051,None,down,784.3174557929051,None,784.3174557929051,785.2341178246643,0.05902886753392522,None,1.7335593182178854,,,,,,,,,36,001,2019_Dec_25_1443,untitled,3.1.0,60.009178522645854,
_,G,M,180,_,_,_GM180__,N,0,245,245,12,,,1.218,786.1174300360581,786.46742387825,786.4840890220185,786.7674150057137,786.8007724405688,None,down,786.8007724405688,None,786.8007724405688,787.9840741240987,0.056109868513885885,None,2.1003110023448244,,,,,,,,,36,001,2019_Dec_25_1443,untitled,3.1.0,60.009178522645854,
303,_2,M,270,L,N,303_2M270LN,HLN,0,246,246,158,,,0.778,788.9673745495857,789.3173601151575,789.3340292317043,789.6173419728002,789.6506699428828,None,up,789.6506699428828,None,789.6506699428828,790.4006911310353,0.05571689450516715,None,1.8668291533103911,,,,,,,,,36,001,2019_Dec_25_1443,untitled,3.1.0,60.009178522645854,
418,_4,N,45,L,N,418_4N045LN,HLN,0,247,247,265,,,1.084,791.5839802340997,791.9339899674087,791.9506544490469,792.2339824191295,792.2673223075471,None,up,792.2673223075471,None,792.2673223075471,793.3172780110654,0.05753642706986284,None,1.9669560835827724,,,,,,,,,36,001,2019_Dec_25_1443,untitled,3.1.0,60.009178522645854,
_,R,M,315,_,_,_RM315__,N,0,248,248,23,,,1.184,794.3172819838437,794.6505775757832,794.6672456991328,794.9506008165372,794.9839274623591,None,down,794.9839274623591,None,794.9839274623591,796.1338611169595,0.0592417422485596,None,2.383464170172374,,,,,,,,,36,001,2019_Dec_25_1443,untitled,3.1.0,60.009178522645854,
231,G,N,270,L,N,231GN270LN,HLN,0,249,249,238,,,1.166,797.4505352656925,797.7838599913375,797.8005228176517,798.0838431732409,798.1171615424428,None,down,798.1171615424428,None,798.1171615424428,799.2671604168208,0.058944445991073735,None,2.183498005004367,,,,,,,,,36,001,2019_Dec_25_1443,untitled,3.1.0,60.009178522645854,
423,_4,N,270,L,N,423_4N270LN,HLN,0,250,250,270,,,0.781,800.3671155244265,800.717108704488,800.7337662337632,801.0170955281064,801.0504231671221,None,down,801.0504231671221,None,801.0504231671221,801.8004268088371,0.059124876344867516,None,1.7001849990519986,,,,,,,,,36,001,2019_Dec_25_1443,untitled,3.1.0,60.009178522645854,
_,_5,M,270,_,_,__5M270__,N,0,251,251,46,,,0.894,802.8170707644531,803.1670391146508,803.183705251613,803.4670368634106,803.5003982710441,None,down,803.5003982710441,None,803.5003982710441,804.3837025368812,0.05699381173326401,None,2.2834461602433294,,,,,,,,,36,001,2019_Dec_25_1443,untitled,3.1.0,60.009178522645854,
258,_2,N,45,R,N,258_2N045RN,HRN,0,252,252,241,,,1.01,805.8670175292209,806.2003098105088,806.2169739610836,806.5002890196374,806.5336901550545,None,down,806.5336901550545,None,806.5336901550545,807.516976344752,0.06086098056039191,None,2.016888943624508,,,,,,,,,36,001,2019_Dec_25_1443,untitled,3.1.0,60.009178522645854,
162,F,N,45,L,N,162FN045LN,HLN,0,253,253,217,,,1.036,808.6336171221446,808.9669223149613,808.9836106332732,809.2669035104773,809.3002708772801,None,up,809.3002708772801,None,809.3002708772801,810.3169022524307,0.05942978709936142,None,1.5669661479550996,,,,,,,,,36,001,2019_Dec_25_1443,untitled,3.1.0,60.009178522645854,
_,_5,N,270,_,_,__5N270__,N,0,254,254,94,,,1.33,810.933547664732,811.2835299196558,811.3001990362027,811.5835018453545,811.6168625908576,None,up,811.6168625908576,None,811.6168625908576,812.9334890662503,0.05724972488678759,None,2.6668030653963797,,,,,,,,,36,001,2019_Dec_25_1443,untitled,3.1.0,60.009178522645854,
294,_2,N,225,L,N,294_2N225LN,HLN,0,255,255,253,,,0.7030000000000001,814.3501458009705,814.7001224277883,814.7167749910914,815.0001215008087,815.0334392078803,None,down,815.0334392078803,None,815.0334392078803,815.7167657212776,0.0579512513577356,None,2.700158513864153,,,,,,,,,36,001,2019_Dec_25_1443,untitled,3.1.0,60.009178522645854,
229,G,N,180,L,N,229GN180LN,HLN,0,256,256,236,,,0.932,817.8167496315218,818.1500753503642,818.166737845615,818.4500651535673,818.4833871644805,None,down,818.4833871644805,None,818.4833871644805,819.4000452234613,0.05982474749907851,None,2.700107860935532,,,,,,,,,36,001,2019_Dec_25_1443,untitled,3.1.0,60.009178522645854,
207,G,M,270,R,N,207GM270RN,HRN,0,257,257,134,,,1.2510000000000001,821.2666426313554,821.6000017877486,821.6166613034147,821.899984969652,821.9333132708016,None,down,821.9333132708016,None,821.9333132708016,823.149939282699,0.05945428589984658,None,2.8999776862256113,,,,,,,,,36,001,2019_Dec_25_1443,untitled,3.1.0,60.009178522645854,
_,F,N,45,_,_,_FN045__,N,0,258,258,49,,,1.2730000000000001,824.8999296818183,825.2499145852598,825.266582708613,825.5498980982302,825.5832247440521,None,up,825.5832247440521,None,825.5832247440521,826.8332144810411,0.056461128348018974,None,2.2001975795210456,,,,,,,,,36,001,2019_Dec_25_1443,untitled,3.1.0,60.009178522645854,
_,_5,M,90,_,_,__5M090__,N,0,259,259,42,,,0.801,827.8498634026291,828.1998390362569,828.2165144430364,828.4998195696389,828.5331544920846,None,down,828.5331544920846,None,828.5331544920846,829.3164781583255,0.0574559783017321,None,2.316981708005187,,,,,,,,,36,001,2019_Dec_25_1443,untitled,3.1.0,60.009178522645854,
_,R,N,45,_,_,_RN045__,N,0,260,260,65,,,0.964,830.9331225774295,831.2664476341415,831.283116088558,831.5664341266965,831.5997723597902,None,up,831.5997723597902,None,831.5997723597902,832.5497428288036,0.058804074480576674,None,1.7168329274463758,,,,,,,,,36,001,2019_Dec_25_1443,untitled,3.1.0,60.009178522645854,
_,R,M,270,_,_,_RM270__,N,0,261,261,22,,,1.04,833.3997419680345,833.7330597413165,833.749724885085,834.0330349776632,834.0663642720065,None,down,834.0663642720065,None,834.0663642720065,835.0829943228964,0.05811181782337371,None,1.7503290784879937,,,,,,,,,36,001,2019_Dec_25_1443,untitled,3.1.0,60.009178522645854,
_,R,M,45,_,_,_RM045__,N,0,262,262,17,,,0.866,835.8830029967976,836.2329441996771,836.2496699283147,836.5329753859878,836.5663053424578,None,down,836.5663053424578,None,836.5663053424578,837.4162889216423,0.056974609975441126,None,2.3501573882422235,,,,,,,,,36,001,2019_Dec_25_1443,untitled,3.1.0,60.009178522645854,
_,F,M,135,_,_,_FM135__,N,0,263,263,3,,,1.22,838.9829418822228,839.3329532708522,839.3495836528091,839.6329146024764,839.6662505181157,None,down,839.6662505181157,None,839.6662505181157,840.8495588229453,0.057304350590129616,None,1.9666991772392066,,,,,,,,,36,001,2019_Dec_25_1443,untitled,3.1.0,60.009178522645854,
262,_2,N,225,R,N,262_2N225RN,HRN,0,264,264,245,,,1.058,841.7161979450138,842.0495385617724,842.0662066851255,842.3494939342272,842.3828593146427,None,up,842.3828593146427,None,842.3828593146427,843.3994791025216,0.06039153056917712,None,1.8334925755407312,,,,,,,,,36,001,2019_Dec_25_1443,untitled,3.1.0,60.009178522645854,
240,G,M,315,L,N,240GM315LN,HLN,0,265,265,143,,,0.862,844.2994680449556,844.6328066753267,844.6494661909892,844.9328097211219,844.9661410018525,None,down,844.9661410018525,None,844.9661410018525,845.8161004132999,0.05929603688855423,None,1.8001500386017142,,,,,,,,,36,001,2019_Dec_25_1443,untitled,3.1.0,60.009178522645854,
430,_4,M,225,L,N,430_4M225LN,HLN,0,266,266,173,,,1.082,846.8327344369682,847.1827246374487,847.1994050102003,847.4827263589868,847.5160781657396,None,up,847.5160781657396,None,847.5160781657396,848.5660282411554,0.059122227827174356,None,2.5501487143446866,,,,,,,,,36,001,2019_Dec_25_1443,untitled,3.1.0,60.009178522645854,
268,_2,M,135,R,N,268_2M135RN,HRN,0,267,267,147,,,0.705,850.13268285706,850.4826538557791,850.499334890661,850.7826790829204,850.816003742355,None,down,850.816003742355,None,850.816003742355,851.4993302557523,0.05830416651951964,None,2.2835809036478167,,,,,,,,,36,001,2019_Dec_25_1443,untitled,3.1.0,60.009178522645854,
297,_2,M,0,L,N,297_2M000LN,HLN,0,268,268,152,,,0.925,853.1826359120605,853.515917930341,853.5325979720255,853.8159431574823,853.8493082068308,None,down,853.8493082068308,None,853.8493082068308,854.7325601644188,0.06034716787326033,None,2.583436956640071,,,,,,,,,36,001,2019_Dec_25_1443,untitled,3.1.0,60.009178522645854,
385,_4,N,0,R,N,385_4N000RN,HRN,0,269,269,256,,,0.8290000000000001,856.5158894587585,856.8492194814462,856.8658415867794,857.1491884275601,857.1825160665758,None,up,857.1825160665758,None,857.1825160665758,857.9991829318824,0.05898318058098084,None,2.00017480225506,,,,,,,,,36,001,2019_Dec_25_1443,untitled,3.1.0,60.009178522645854,
_,R,M,225,_,_,_RM225__,N,0,270,270,21,,,1.31,859.2491157257136,859.5991420122627,859.6158078181616,859.899108309859,859.9324667379115,None,down,859.9324667379115,None,859.9324667379115,861.2157609393762,0.057616875834355596,None,2.8668470308111864,,,,,,,,,36,001,2019_Dec_25_1443,untitled,3.1.0,60.009178522645854,
_,G,M,45,_,_,_GM045__,N,0,271,271,9,,,1.008,862.8657521992609,863.2157344541847,863.2324015843442,863.5157308786838,863.5490618283511,None,None,863.5490618283511,None,863.5490618283511,864.5323850973109,0.05764600954353227,None,,,,,,,,,,36,001,2019_Dec_25_1443,untitled,3.1.0,60.009178522645854,
199,G,N,270,R,N,199GN270RN,HRN,0,272,272,230,,,1.365,867.0822838576714,867.4156251365639,867.4322932599134,867.7156344725918,867.7489670775831,867.0822838576714,up,867.7489670775831,None,867.7489670775831,869.0989403937529,0.06916143915077555,None,2.166985813208157,,,,,,,,,36,001,2019_Dec_25_1443,untitled,3.1.0,60.009178522645854,
393,_4,M,0,R,N,393_4M000RN,HRN,0,273,273,160,,,0.879,869.9989217216935,870.3322424745638,870.3489215230547,870.6322349262846,870.6655708419239,None,down,870.6655708419239,None,870.6655708419239,871.515550117263,0.05909938435070217,None,2.433469533421885,,,,,,,,,36,001,2019_Dec_25_1443,untitled,3.1.0,60.009178522645854,
035,R,N,90,L,N,035RN090LN,HLN,0,274,274,202,,,1.351,873.1655082706602,873.5155050924368,873.5321725536596,873.8154991994852,873.8488374325752,None,up,873.8488374325752,None,873.8488374325752,875.1654817854724,0.0583121120762371,None,1.9836182477665716,,,,,,,,,36,001,2019_Dec_25_1443,untitled,3.1.0,60.009178522645854,
_,_4,M,270,_,_,__4M270__,N,0,275,275,38,,,0.84,875.8987941292908,876.2487538718015,876.2654269611266,876.548761552509,876.5820660169848,None,up,876.5820660169848,None,876.5820660169848,877.3987431452988,0.057207348581869155,None,2.066870801270852,,,,,,,,,36,001,2019_Dec_25_1443,untitled,3.1.0,60.009178522645854,
_,_4,M,225,_,_,__4M225__,N,0,276,276,37,,,0.892,878.7320456896014,879.0653810093208,879.0820756178655,879.3653456515931,879.3987143426566,None,down,879.3987143426566,None,879.3987143426566,880.248677064752,0.059162286677747034,None,1.8834906553638575,,,,,,,,,36,001,2019_Dec_25_1443,untitled,3.1.0,60.009178522645854,
236,G,M,135,L,N,236GM135LN,HLN,0,277,277,139,,,0.871,881.3653211527926,881.6986574657094,881.7153255890626,881.9986605115082,882.0319755700584,None,down,882.0319755700584,None,882.0319755700584,882.8819422649321,0.05946223145656404,None,2.583452847757144,,,,,,,,,36,001,2019_Dec_25_1443,untitled,3.1.0,60.009178522645854,
_,R,N,135,_,_,_RN135__,N,0,278,278,67,,,1.2750000000000001,884.6818982995173,885.031857710961,885.0485211994055,885.3319090922305,885.3652387176371,None,up,885.3652387176371,None,885.3652387176371,886.6152155430973,0.056078748417348834,None,1.9834553638502257,,,,,,,,,36,001,2019_Dec_25_1443,untitled,3.1.0,60.009178522645854,
_,_2,M,315,_,_,__2M315__,N,0,279,279,31,,,0.854,887.4152040220397,887.7651472113066,887.7817961328947,888.0651479396474,888.0984901455195,None,down,888.0984901455195,None,888.0984901455195,888.9151633010588,0.057702952701220056,None,2.3001308368366153,,,,,,,,,36,001,2019_Dec_25_1443,untitled,3.1.0,60.009178522645854,
263,_2,N,270,R,N,263_2N270RN,HRN,0,280,280,246,,,0.993,890.4818046743712,890.8150929828807,890.8317458772472,891.11511324405,891.1484739895568,None,up,891.1484739895568,None,891.1484739895568,892.098421946157,0.060251821189012844,None,1.8167873729216808,,,,,,,,,36,001,2019_Dec_25_1443,untitled,3.1.0,60.009178522645854,
013,R,M,180,R,N,013RM180RN,HRN,0,281,281,100,,,0.719,893.0483887734554,893.3817429638766,893.3983392461487,893.6816665541046,893.7150342519708,None,up,893.7150342519708,None,893.7150342519708,894.3983557993924,0.059085810691613005,None,3.183472844073549,,,,,,,,,36,001,2019_Dec_25_1443,untitled,3.1.0,60.009178522645854,
233,G,M,0,L,N,233GM000LN,HLN,0,282,282,136,,,1.249,896.964951154685,897.3149777723011,897.3316568207956,897.6149477116123,897.6482796544733,None,down,897.6482796544733,None,897.6482796544733,898.8649232128118,0.05795555520307971,None,2.0501629501341085,,,,,,,,,36,001,2019_Dec_25_1443,untitled,3.1.0,60.009178522645854,
136,F,N,315,R,N,136FN315RN,HRN,0,283,283,215,,,0.985,899.7649028854285,900.1149142740578,900.1315784246326,900.4148861997564,900.4482343647978,None,up,900.4482343647978,None,900.4482343647978,901.398226684094,0.05771950594498776,None,1.5835051560061402,,,,,,,,,36,001,2019_Dec_25_1443,untitled,3.1.0,60.009178522645854,
_,R,M,90,_,_,_RM090__,N,0,284,284,18,,,1.211,902.1148884510003,902.4481731177948,902.4648329645242,902.7481735150723,902.7814690407977,None,down,902.7814690407977,None,902.7814690407977,903.9648276674889,0.05872263252240373,None,2.5668459714033816,,,,,,,,,36,001,2019_Dec_25_1443,untitled,3.1.0,60.009178522645854,
257,_2,N,0,R,N,257_2N000RN,HRN,0,285,285,240,,,0.857,905.4314384504032,905.7647876748488,905.7814531496842,906.0647602626777,906.0980885638273,None,up,906.0980885638273,None,906.0980885638273,906.9147491388976,0.05944071224075742,None,1.6002802133116347,,,,,,,,,36,001,2019_Dec_25_1443,untitled,3.1.0,60.009178522645854,
491,_5,M,90,L,N,491_5M090LN,HLN,0,286,286,186,,,0.855,907.7647201376167,908.114726560274,908.1314036223775,908.4147104043077,908.4481065737564,None,down,908.4481065737564,None,908.4481065737564,909.2646933213618,0.057874113244906766,None,1.5667651915755414,,,,,,,,,36,001,2019_Dec_25_1443,untitled,3.1.0,60.009178522645854,
458,_5,M,45,R,N,458_5M045RN,HRN,0,287,287,177,,,1.074,910.081345619812,910.4313527045997,910.4480151998505,910.7313438320598,910.7646754438574,None,down,910.7646754438574,None,910.7646754438574,911.8146526665951,0.058638542042899644,None,2.183505619494099,,,,,,,,,36,001,2019_Dec_25_1443,untitled,3.1.0,60.009178522645854,
,,,,,,,,,,,,,,,,,,,,,,,,,,,,,912.9646091646682,None,920.0811175161107,None,923.0144433673777,None,929.5143020026771,None,,,,,,,
