Number,Letter,type,Orientation,human,face_type,image,picture,trials.thisRepN,trials.thisTrialN,trials.thisN,trials.thisIndex,text.started,text.stopped,stimulus_duration,CROSS.started,CROSS.stopped,BLANK.started,BLANK.stopped,TEST.started,TEST.stopped,key_JUDGE.keys,key_JUDGE.started,key_JUDGE.stopped,image_2.started,image_2.stopped,ISI.started,ISI.stopped,key_JUDGE.rt,q1.started,q1.stopped,q2.started,q2.stopped,q3.started,q3.stopped,text_2.started,text_2.stopped,participant,session,date,expName,psychopyVersion,frameRate,
_,R,M,180,_,_,_RM180__,N,0,0,0,20,167.2095272000297,None,1.178,209.9275331000099,210.26228530000662,210.27913370000897,210.5620726000052,210.57891470001778,None,None,210.57891470001778,None,210.57891470001778,211.7441339000361,0.06384310004068539,None,,,,,,,,,,37,001,2019_Dec_25_1518,untitled,3.1.0,59.94998972162162,
496,_5,M,315,L,N,496_5M315LN,HLN,0,1,1,191,,,0.995,214.16131440002937,214.50840350001818,214.52507969998987,214.80829150002683,214.82476089999545,214.16131440002937,None,214.82476089999545,None,214.82476089999545,215.80721090000588,0.06188699998892844,None,,,,,,,,,,37,001,2019_Dec_25_1518,untitled,3.1.0,59.94998972162162,
_,G,M,180,_,_,_GM180__,N,0,2,2,12,,,1.18,218.36113370000385,218.7044264000142,218.7044264000142,219.0055476000416,219.02106930001173,218.36113370000385,down,219.02106930001173,None,219.02106930001173,None,0.06591369997477159,None,0.41666270000860095,,,,,,,,,37,001,2019_Dec_25_1518,untitled,3.1.0,59.94998972162162,
041,R,M,0,L,N,041RM000LN,HLN,0,3,3,104,,,1.044,219.5130419000052,219.85336390003795,219.87061290000565,220.15359529998386,220.17012259998592,None,down,220.17012259998592,None,220.17012259998592,221.2023395000142,0.06661879998864606,None,3.3477951000095345,,,,,,,,,37,001,2019_Dec_25_1518,untitled,3.1.0,59.94998972162162,
494,_5,M,225,L,N,494_5M225LN,HLN,0,4,4,189,,,1.111,223.59479960001772,223.9337495000218,223.95047650003107,224.23366050003096,224.25037040002644,None,None,224.25037040002644,None,224.25037040002644,225.34858490002807,0.07012790004955605,None,,,,,,,,,,37,001,2019_Dec_25_1518,untitled,3.1.0,59.94998972162162,
458,_5,M,45,R,N,458_5M045RN,HRN,0,5,5,177,,,0.9580000000000001,227.81998850003583,228.12966370000504,228.1466143000289,228.43039340001997,228.4467676000204,227.81998850003583,down,228.4467676000204,None,228.4467676000204,229.37866729998495,0.09839120000833645,None,2.383215999987442,,,,,,,,,37,001,2019_Dec_25_1518,untitled,3.1.0,59.94998972162162,
045,R,M,180,L,N,045RM180LN,HLN,0,6,6,108,,,1.246,230.9052323999931,231.24409320001723,231.26061990001472,231.54355599998962,231.561008699995,None,down,231.561008699995,None,231.561008699995,232.7924459000351,0.06704950000857934,None,2.5820473000057973,,,,,,,,,37,001,2019_Dec_25_1518,untitled,3.1.0,59.94998972162162,
_,_2,M,135,_,_,__2M135__,N,0,7,7,27,,,1.355,234.22882600000594,234.55708090000553,234.57381780003197,234.8573357000132,234.873788100027,None,up,234.873788100027,None,234.873788100027,236.205976199999,0.07686410000314936,None,2.881799500028137,,,,,,,,,37,001,2019_Dec_25_1518,untitled,3.1.0,59.94998972162162,
237,G,M,180,L,N,237GM180LN,HLN,0,8,8,140,,,1.091,237.84045830002287,238.17105030000675,238.18772849999368,238.47109960002126,238.4874588000239,None,up,238.4874588000239,None,238.4874588000239,239.56973180000205,0.07522999995853752,None,2.8998529000091366,,,,,,,,,37,001,2019_Dec_25_1518,untitled,3.1.0,59.94998972162162,
_,F,M,225,_,_,_FM225__,N,0,9,9,5,,,0.856,241.45572560001165,241.80216900003143,241.81783920002636,242.1010474000359,242.11821300000884,None,down,242.11821300000884,None,242.11821300000884,242.9511789000244,0.06154940003762022,None,2.5140809000004083,,,,,,,,,37,001,2019_Dec_25_1518,untitled,3.1.0,59.94998972162162,
_,_2,N,45,_,_,__2N045__,N,0,10,10,73,,,1.344,244.70139760000166,245.04853800003184,245.06553269998403,245.349121700041,245.36481460003415,None,up,245.36481460003415,None,245.36481460003415,246.69654080003966,0.061370400013402104,None,3.1334724000189453,,,,,,,,,37,001,2019_Dec_25_1518,untitled,3.1.0,59.94998972162162,
_,_5,M,90,_,_,__5M090__,N,0,11,11,42,,,1.1340000000000001,248.57877020002343,248.91159880004125,248.92838589998428,249.21127259999048,249.2278864000109,None,up,249.2278864000109,None,249.2278864000109,250.34383060003165,0.0711017000139691,None,2.7151550000417046,,,,,,,,,37,001,2019_Dec_25_1518,untitled,3.1.0,59.94998972162162,
302,_2,M,225,L,N,302_2M225LN,HLN,0,12,12,157,,,1.232,252.02319360000547,252.3586221000296,252.37621750001563,252.65860120003344,252.67497779999394,None,down,252.67497779999394,None,252.67497779999394,253.89074780000374,0.07188070000847802,None,2.599015199986752,,,,,,,,,37,001,2019_Dec_25_1518,untitled,3.1.0,59.94998972162162,
046,R,M,225,L,N,046RM225LN,HLN,0,13,13,109,,,0.796,255.362266000011,255.68964300001971,255.70894010004122,255.9893968999968,256.0061960000312,None,down,256.0061960000312,None,256.0061960000312,256.7881388000096,0.07923400000436231,None,2.1821192000061274,,,,,,,,,37,001,2019_Dec_25_1518,untitled,3.1.0,59.94998972162162,
171,F,M,90,L,N,171FM090LN,HLN,0,14,14,122,,,1.194,258.2554134000093,258.60322620003717,258.6200381999952,258.9041256000055,258.92014170001494,None,down,258.92014170001494,None,258.92014170001494,260.10198199999286,0.06018109997967258,None,2.2838081000372767,,,,,,,,,37,001,2019_Dec_25_1518,untitled,3.1.0,59.94998972162162,
198,G,N,225,R,N,198GN225RN,HRN,0,15,15,229,,,0.806,261.29022670001723,261.6174070999841,261.6339794000378,261.9175299000344,261.93357940000715,None,down,261.93357940000715,None,261.93357940000715,262.73268850002205,0.07781879999674857,None,2.349104900029488,,,,,,,,,37,001,2019_Dec_25_1518,untitled,3.1.0,59.94998972162162,
_,F,M,270,_,_,_FM270__,N,0,16,16,6,,,0.8280000000000001,264.36483119998593,264.69849859998794,264.7146994000068,264.9980942000402,265.0148398000165,None,up,265.0148398000165,None,265.0148398000165,265.8308355000336,0.07314120000228286,None,2.165517200017348,,,,,,,,,37,001,2019_Dec_25_1518,untitled,3.1.0,59.94998972162162,
228,G,N,135,L,N,228GN135LN,HLN,0,17,17,235,,,0.996,267.26724660000764,267.59548180003185,267.61174040002516,267.8955811000196,267.91187850001734,None,up,267.91187850001734,None,267.91187850001734,268.89444649999496,0.07772689999546856,None,2.4655932000023313,,,,,,,,,37,001,2019_Dec_25_1518,untitled,3.1.0,59.94998972162162,
392,_4,N,315,R,N,392_4N315RN,HRN,0,18,18,263,,,1.2670000000000001,270.4458303999854,270.7932060000021,270.8100671999855,271.0923619000241,271.10919839999406,None,up,271.10919839999406,None,271.10919839999406,272.35825950000435,0.06126300001051277,None,2.281903099967167,,,,,,,,,37,001,2019_Dec_25_1518,untitled,3.1.0,59.94998972162162,
429,_4,M,180,L,N,429_4M180LN,HLN,0,19,19,172,,,1.3820000000000001,273.4725491999998,273.8069656000007,273.82294620003086,274.1068922000122,274.12345970002934,None,down,274.12345970002934,None,274.12345970002934,275.48866770003224,0.07250819995533675,None,2.7017185000004247,,,,,,,,,37,001,2019_Dec_25_1518,untitled,3.1.0,59.94998972162162,
176,F,M,315,L,N,176FM315LN,HLN,0,20,20,127,,,0.922,276.93366919999244,277.23735180002404,277.25350089999847,277.53653360001044,277.5531062000082,None,down,277.5531062000082,None,277.5531062000082,278.46931180002866,0.09682440001051873,None,3.1003038000199012,,,,,,,,,37,001,2019_Dec_25_1518,untitled,3.1.0,59.94998972162162,
_,R,M,315,_,_,_RM315__,N,0,21,21,23,,,0.99,280.7203542999923,281.06662140000844,281.08363320003264,281.3667787000304,281.38359400001355,None,down,281.38359400001355,None,281.38359400001355,282.34908790001646,0.06014620000496507,None,2.6989396000280976,,,,,,,,,37,001,2019_Dec_25_1518,untitled,3.1.0,59.94998972162162,
_,G,N,45,_,_,_GN045__,N,0,22,22,57,,,1.096,284.1607091000187,284.49731220002286,284.51452550000977,284.7983710000408,284.8138731000363,None,up,284.8138731000363,None,284.8138731000363,285.89589490002254,0.06984720000764355,None,1.9984203000203706,,,,,,,,,37,001,2019_Dec_25_1518,untitled,3.1.0,59.94998972162162,
_,_2,M,180,_,_,__2M180__,N,0,23,23,28,,,1.082,286.8816219000146,287.22798229998443,287.2451815000386,287.5279772999929,287.5443598999991,None,down,287.5443598999991,None,287.5443598999991,288.61058239999693,0.06234880001284182,None,2.3986341999843717,,,,,,,,,37,001,2019_Dec_25_1518,untitled,3.1.0,59.94998972162162,
230,G,N,225,L,N,230GN225LN,HLN,0,24,24,237,,,0.8230000000000001,290.0148053999874,290.3588306999882,290.37630460003857,290.65824290004093,290.6751821000362,None,down,290.6751821000362,None,290.6751821000362,291.47410859999945,0.06542269996134564,None,2.4495454000425525,,,,,,,,,37,001,2019_Dec_25_1518,untitled,3.1.0,59.94998972162162,
195,G,N,90,R,N,195GN090RN,HRN,0,25,25,226,,,0.99,293.19813269999577,293.5396325000329,293.5563312000013,293.8391064000316,293.8558897000039,None,down,293.8558897000039,None,293.8558897000039,294.82198690000223,0.06664380000438541,None,2.284924299980048,,,,,,,,,37,001,2019_Dec_25_1518,untitled,3.1.0,59.94998972162162,
_,R,N,315,_,_,_RN315__,N,0,26,26,71,,,1.162,296.2351542999968,296.55356920004124,296.5702047999948,296.8531504999846,296.87016839999706,None,up,296.87016839999706,None,296.87016839999706,298.01840000000084,0.08300230000168085,None,2.084010099992156,,,,,,,,,37,001,2019_Dec_25_1518,untitled,3.1.0,59.94998972162162,
395,_4,M,90,R,N,395_4M090RN,HRN,0,27,27,162,,,0.893,299.024458000029,299.3678925000131,299.3845697999932,299.66777790000197,299.6845989000285,None,down,299.6845989000285,None,299.6845989000285,300.5665749000036,0.06289520004065707,None,2.082001200004015,,,,,,,,,37,001,2019_Dec_25_1518,untitled,3.1.0,59.94998972162162,
263,_2,N,270,R,N,263_2N270RN,HRN,0,28,28,246,,,1.079,301.8351368000149,302.18219960003626,302.1986853000126,302.48164429998724,302.4980536000221,None,up,302.4980536000221,None,302.4980536000221,303.5638505000388,0.061426499974913895,None,2.2508799000061117,,,,,,,,,37,001,2019_Dec_25_1518,untitled,3.1.0,59.94998972162162,
_,_4,N,135,_,_,__4N135__,N,0,29,29,83,,,1.2610000000000001,304.82622119999724,305.1630970000406,305.17956220003543,305.4625763000222,305.4794155000127,None,up,305.4794155000127,None,305.4794155000127,306.72800860001007,0.06899820000398904,None,2.5980001999996603,,,,,,,,,37,001,2019_Dec_25_1518,untitled,3.1.0,59.94998972162162,
_,_4,M,0,_,_,__4M000__,N,0,30,30,32,,,1.3800000000000001,308.1586430000025,308.49299120000796,308.5098487000214,308.79302430001553,308.80949250003323,None,down,308.80949250003323,None,308.80949250003323,310.1750605000416,0.0724420000333339,None,3.2980457000085153,,,,,,,,,37,001,2019_Dec_25_1518,untitled,3.1.0,59.94998972162162,
486,_5,N,225,L,N,486_5N225LN,HLN,0,31,31,285,,,1.298,312.177452700038,312.52304960001493,312.539832999988,312.82251930003986,312.8394953000243,None,down,312.8394953000243,None,312.8394953000243,314.1225134000415,0.06298849999438971,None,2.649425799958408,,,,,,,,,37,001,2019_Dec_25_1518,untitled,3.1.0,59.94998972162162,
270,_2,M,225,R,N,270_2M225RN,HRN,0,32,32,149,,,0.794,315.5682365000248,315.9036759000155,315.9203606999945,316.20366070000455,316.22013999999035,None,down,316.22013999999035,None,316.22013999999035,317.0033213000279,0.07025300001259893,None,2.1668513999902643,,,,,,,,,37,001,2019_Dec_25_1518,untitled,3.1.0,59.94998972162162,
011,R,M,90,R,N,011RM090RN,HRN,0,33,33,98,,,0.8300000000000001,318.4557568000164,318.80078580003465,318.81799419998424,319.10045550001087,319.1169802999939,None,down,319.1169802999939,None,319.1169802999939,319.9334397999919,0.06196790002286434,None,2.6506890999735333,,,,,,,,,37,001,2019_Dec_25_1518,untitled,3.1.0,59.94998972162162,
038,R,N,225,L,N,038RN225LN,HLN,0,34,34,205,,,0.862,321.8581848000176,322.1809481999953,322.1977796999854,322.4813352000201,322.49780300003476,None,down,322.49780300003476,None,322.49780300003476,323.3468938000151,0.08186580002075061,None,1.6657487000338733,,,,,,,,,37,001,2019_Dec_25_1518,untitled,3.1.0,59.94998972162162,
260,_2,N,135,R,N,260_2N135RN,HRN,0,35,35,243,,,1.353,324.24036639998667,324.5790230000275,324.59647869999753,324.8805483999895,324.89576370001305,None,down,324.89576370001305,None,324.89576370001305,326.2277827000362,0.06827620003605261,None,2.3145669999648817,,,,,,,,,37,001,2019_Dec_25_1518,untitled,3.1.0,59.94998972162162,
005,R,N,180,R,N,005RN180RN,HRN,0,36,36,196,,,0.974,327.28523350000614,327.62664880004013,327.64275749999797,327.9262107000104,327.9428598000086,None,down,327.9428598000086,None,327.9428598000086,328.8920819000341,0.06715439999243245,None,1.8165321000269614,,,,,,,,,37,001,2019_Dec_25_1518,untitled,3.1.0,59.94998972162162,
464,_5,M,315,R,N,464_5M315RN,HRN,0,37,37,183,,,0.753,329.8281962000183,330.1742044999846,330.19134399999166,330.4740026000072,330.4908568999963,None,down,330.4908568999963,None,330.4908568999963,331.2241638000123,0.060426299984101206,None,1.9012399999774061,,,,,,,,,37,001,2019_Dec_25_1518,untitled,3.1.0,59.94998972162162,
174,F,M,225,L,N,174FM225LN,HLN,0,38,38,125,,,0.747,332.46605600003386,332.8056702000322,332.82266290002735,333.1058248000336,333.12347729998874,None,down,333.12347729998874,None,333.12347729998874,333.8547836000216,0.06736029998864979,None,2.3467095000087284,,,,,,,,,37,001,2019_Dec_25_1518,untitled,3.1.0,59.94998972162162,
_,R,N,45,_,_,_RN045__,N,0,39,39,65,,,1.228,335.5500873000128,335.88629510003375,335.9035919000162,336.1853196999873,336.2018395999912,None,up,336.2018395999912,None,336.2018395999912,337.41826250002487,0.07165539998095483,None,2.4162917000357993,,,,,,,,,37,001,2019_Dec_25_1518,untitled,3.1.0,59.94998972162162,
290,_2,N,45,L,N,290_2N045LN,HLN,0,40,40,249,,,0.9470000000000001,338.6889206999913,339.0333437999943,339.0503066999954,339.3341684000334,339.34975799999665,None,up,339.34975799999665,None,339.34975799999665,340.2821144000045,0.06360019999556243,None,2.6815827999962494,,,,,,,,,37,001,2019_Dec_25_1518,untitled,3.1.0,59.94998972162162,
233,G,M,0,L,N,233GM000LN,HLN,0,41,41,136,,,0.9420000000000001,342.0977810000186,342.4473251000163,342.4635123999906,342.74664319999283,342.76366709999274,None,up,342.76366709999274,None,342.76366709999274,343.67919110000366,0.05936049995943904,None,2.8814859999693,,,,,,,,,37,001,2019_Dec_25_1518,untitled,3.1.0,59.94998972162162,
394,_4,M,45,R,N,394_4M045RN,HRN,0,42,42,161,,,0.715,345.717848100001,346.06060550000984,346.07716759998584,346.3600886000204,346.3766418999876,None,down,346.3766418999876,None,346.3766418999876,347.0761144999997,0.06603220000397414,None,2.3825635999673977,,,,,,,,,37,001,2019_Dec_25_1518,untitled,3.1.0,59.94998972162162,
042,R,M,45,L,N,042RM045LN,HLN,0,43,43,105,,,0.789,348.8444255000213,349.1741114000324,349.19118230004096,349.4744771000114,349.4916688000085,None,up,349.4916688000085,None,349.4916688000085,350.2567994000274,0.07538460002979264,None,2.8351708000409417,,,,,,,,,37,001,2019_Dec_25_1518,untitled,3.1.0,59.94998972162162,
168,F,N,315,L,N,168FN315LN,HLN,0,44,44,223,,,0.888,352.4222720999969,352.73814690002473,352.7545041000121,353.03771130001405,353.05485549999867,None,up,353.05485549999867,None,353.05485549999867,353.93793529999675,0.08468519995221868,None,2.2656080999877304,,,,,,,,,37,001,2019_Dec_25_1518,untitled,3.1.0,59.94998972162162,
267,_2,M,90,R,N,267_2M090RN,HRN,0,45,45,146,,,0.804,355.40434150001965,355.73498599999584,355.75210720003815,356.03494270000374,356.0516790000256,None,down,356.0516790000256,None,356.0516790000256,356.8343647000147,0.07467810000525787,None,2.1325689000077546,,,,,,,,,37,001,2019_Dec_25_1518,untitled,3.1.0,59.94998972162162,
131,F,N,90,R,N,131FN090RN,HRN,0,46,46,210,,,1.12,358.2589784000302,358.59933470003307,358.61636929999804,358.89961250004126,358.9159166000318,None,down,358.9159166000318,None,358.9159166000318,360.01535529998364,0.06780990003608167,None,2.1311678000492975,,,,,,,,,37,001,2019_Dec_25_1518,untitled,3.1.0,59.94998972162162,
271,_2,M,270,R,N,271_2M270RN,HRN,0,47,47,150,,,1.116,361.1188394000055,361.46358829998644,361.48040270002093,361.7633310999954,361.78001079999376,None,None,361.78001079999376,None,361.78001079999376,362.87911209999584,0.06450599996605888,None,,,,,,,,,,37,001,2019_Dec_25_1518,untitled,3.1.0,59.94998972162162,
_,_4,N,45,_,_,__4N045__,N,0,48,48,81,,,0.71,365.32379789999686,365.659999400028,365.67700359999435,365.95971750002354,365.976602300012,365.32379789999686,up,365.976602300012,None,365.976602300012,366.6756896000006,0.07200909999664873,None,1.6328336999868043,,,,,,,,,37,001,2019_Dec_25_1518,untitled,3.1.0,59.94998972162162,
133,F,N,180,R,N,133FN180RN,HRN,0,49,49,212,,,0.758,367.7034350000322,368.02461349999066,368.04158730001654,368.32498520001536,368.3414039000054,None,down,368.3414039000054,None,368.3414039000054,369.090496800025,0.0862920000217855,None,1.6820951999980025,,,,,,,,,37,001,2019_Dec_25_1518,untitled,3.1.0,59.94998972162162,
426,_4,M,45,L,N,426_4M045LN,HLN,0,50,50,169,,,1.154,370.1045855000266,370.43923439999344,370.4561796000344,370.7391121000401,370.7559675000375,None,down,370.7559675000375,None,370.7559675000375,371.88785260001896,0.07246900000609457,None,2.3673033000086434,,,,,,,,,37,001,2019_Dec_25_1518,untitled,3.1.0,59.94998972162162,
007,R,N,270,R,N,007RN270RN,HRN,0,51,51,198,,,0.709,373.19919479999226,373.53691309998976,373.55295179999666,373.83700050000334,373.85250979999546,None,up,373.85250979999546,None,373.85250979999546,374.5523580000154,0.06746099999872968,None,1.6837171000079252,,,,,,,,,37,001,2019_Dec_25_1518,untitled,3.1.0,59.94998972162162,
300,_2,M,135,L,N,300_2M135LN,HLN,0,52,52,155,,,0.707,375.62204879999626,375.9512617000146,375.96778150001774,376.25104310002644,376.2679846000392,None,up,376.2679846000392,None,376.2679846000392,376.9501796000404,0.07757680001668632,None,2.0324956999975257,,,,,,,,,37,001,2019_Dec_25_1518,untitled,3.1.0,59.94998972162162,
013,R,M,180,R,N,013RM180RN,HRN,0,53,53,100,,,1.123,378.3864123999956,378.7153289000271,378.73215779999737,379.01553590002004,379.0318898000405,None,down,379.0318898000405,None,379.0318898000405,380.1474903000053,0.07638429995859042,None,2.0989576999563724,,,,,,,,,37,001,2019_Dec_25_1518,untitled,3.1.0,59.94998972162162,
295,_2,N,270,L,N,295_2N270LN,HLN,0,54,54,254,,,1.243,381.2092902000295,381.5460421000025,381.56352419999894,381.84585929999594,381.8630142000038,None,down,381.8630142000038,None,381.8630142000038,383.0945855000173,0.07007289998000488,None,2.248338799981866,,,,,,,,,37,001,2019_Dec_25_1518,untitled,3.1.0,59.94998972162162,
257,_2,N,0,R,N,257_2N000RN,HRN,0,55,55,240,,,0.768,384.20691440004157,384.5271014000173,384.54349640000146,384.82769260002533,384.844193500001,None,up,384.844193500001,None,384.844193500001,385.59238540002843,0.08712770004058257,None,1.6693751999991946,,,,,,,,,37,001,2019_Dec_25_1518,untitled,3.1.0,59.94998972162162,
033,R,N,0,L,N,033RN000LN,HLN,0,56,56,200,,,1.063,386.6078640000196,386.92596349999076,386.9420459000394,387.224373700039,387.24121250002645,None,up,387.24121250002645,None,387.24121250002645,388.290175000031,0.08301609999034554,None,1.834166600019671,,,,,,,,,37,001,2019_Dec_25_1518,untitled,3.1.0,59.94998972162162,
_,_4,N,225,_,_,__4N225__,N,0,57,57,85,,,0.724,389.14801489998354,389.4894303000183,389.5060233999975,389.7890798000153,389.80554370000027,None,down,389.80554370000027,None,389.80554370000027,390.5050540000084,0.06587480002781376,None,1.5307065999950282,,,,,,,,,37,001,2019_Dec_25_1518,untitled,3.1.0,59.94998972162162,
199,G,N,270,R,N,199GN270RN,HRN,0,58,58,230,,,1.348,391.4066269000177,391.75392420002026,391.75392420002026,392.05370400001993,392.0707024000003,None,up,392.0707024000003,None,392.0707024000003,393.40269910002826,0.06247129995608702,None,2.448181999963708,,,,,,,,,37,001,2019_Dec_25_1518,untitled,3.1.0,59.94998972162162,
231,G,N,270,L,N,231GN270LN,HLN,0,59,59,238,,,1.285,394.6099827000289,394.93473280000035,394.95172020001337,395.2342992000049,395.25084880000213,None,up,395.25084880000213,None,395.25084880000213,396.5162823999999,0.08263980003539473,None,2.049329300003592,,,,,,,,,37,001,2019_Dec_25_1518,untitled,3.1.0,59.94998972162162,
206,G,M,225,R,N,206GM225RN,HRN,0,60,60,133,,,1.051,397.3682714999886,397.71542389999377,397.73313070001313,398.0160410000244,398.03278539999155,None,down,398.03278539999155,None,398.03278539999155,399.064168300014,0.06128630001330748,None,2.630753299978096,,,,,,,,,37,001,2019_Dec_25_1518,untitled,3.1.0,59.94998972162162,
393,_4,M,0,R,N,393_4M000RN,HRN,0,61,61,160,,,0.9570000000000001,400.7418047999963,401.08038510003826,401.09570840001106,401.3797307999921,401.3953830000246,None,up,401.3953830000246,None,401.3953830000246,402.32808010000736,0.0699212999898009,None,1.7662309000152163,,,,,,,,,37,001,2019_Dec_25_1518,untitled,3.1.0,59.94998972162162,
232,G,N,315,L,N,232GN315LN,HLN,0,62,62,239,,,1.335,403.2489966999856,403.57655779999914,403.59385669999756,403.8767944999854,403.89349749998655,None,up,403.89349749998655,None,403.89349749998655,405.2107699000044,0.07852229999843985,None,2.5481522000045516,,,,,,,,,37,001,2019_Dec_25_1518,untitled,3.1.0,59.94998972162162,
268,_2,M,135,R,N,268_2M135RN,HRN,0,63,63,147,,,1.2,406.5128885000013,406.8572096999851,406.87436630000593,407.15705690003233,407.1734514000127,None,down,407.1734514000127,None,407.1734514000127,408.35610279999673,0.06419850001111627,None,2.1672220999607816,,,,,,,,,37,001,2019_Dec_25_1518,untitled,3.1.0,59.94998972162162,
_,_5,N,225,_,_,__5N225__,N,0,64,64,93,,,1.206,409.40797739999834,409.75450270000147,409.7715149000287,410.05470239999704,410.07121329999063,None,down,410.07121329999063,None,410.07121329999063,411.2534669000306,0.05943299998762086,None,2.4823021000484005,,,,,,,,,37,001,2019_Dec_25_1518,untitled,3.1.0,59.94998972162162,
235,G,M,90,L,N,235GM090LN,HLN,0,65,65,138,,,1.243,412.6493661000277,412.9689877000055,412.9861887000152,413.26897020003526,413.28539279999677,None,up,413.28539279999677,None,413.28539279999677,414.5175908000092,0.086454100033734,None,2.94978240004275,,,,,,,,,37,001,2019_Dec_25_1518,untitled,3.1.0,59.94998972162162,
166,F,N,225,L,N,166FN225LN,HLN,0,66,66,221,,,1.159,416.325923299999,416.64907640003366,416.66554260003613,416.9486828999943,416.96546020003734,None,down,416.96546020003734,None,416.96546020003734,418.11419390002266,0.0821717000217177,None,2.2837445000186563,,,,,,,,,37,001,2019_Dec_25_1518,untitled,3.1.0,59.94998972162162,
_,_2,N,0,_,_,__2N000__,N,0,67,67,72,,,1.26,419.3363667000085,419.6634540000232,419.6799967000261,419.96290290000616,419.9795141000068,None,up,419.9795141000068,None,419.9795141000068,421.22840710001765,0.07779030001256615,None,2.06638999999268,,,,,,,,,37,001,2019_Dec_25_1518,untitled,3.1.0,59.94998972162162,
_,F,N,45,_,_,_FN045__,N,0,68,68,49,,,1.062,422.113147200027,422.46080669999355,422.4775401999941,422.76025920000393,422.7767026000074,None,up,422.7767026000074,None,422.7767026000074,423.8262429999886,0.06050270004197955,None,2.3325569999869913,,,,,,,,,37,001,2019_Dec_25_1518,untitled,3.1.0,59.94998972162162,
400,_4,M,315,R,N,400_4M315RN,HRN,0,69,69,167,,,1.156,425.1795956999995,425.52479260001564,425.5413346000132,425.82502759998897,425.84162830002606,None,down,425.84162830002606,None,425.84162830002606,426.97310320002725,0.06330899999011308,None,2.597882699978072,,,,,,,,,37,001,2019_Dec_25_1518,untitled,3.1.0,59.94998972162162,
391,_4,N,270,R,N,391_4N270RN,HRN,0,70,70,262,,,1.2750000000000001,428.5099906999967,428.85519410000416,428.8717682000133,429.15486180002335,429.17123269999865,None,up,429.17123269999865,None,429.17123269999865,430.42080560000613,0.06370020000031218,None,2.0171145999920554,,,,,,,,,37,001,2019_Dec_25_1518,untitled,3.1.0,59.94998972162162,
_,_4,M,135,_,_,__4M135__,N,0,71,71,35,,,1.056,431.28775120002683,431.6026135000284,431.6190287999925,431.9026509000105,431.9191335000214,None,up,431.9191335000214,None,431.9191335000214,432.9678598000319,0.08756189997075126,None,2.9327123999828473,,,,,,,,,37,001,2019_Dec_25_1518,untitled,3.1.0,59.94998972162162,
_,F,M,180,_,_,_FM180__,N,0,72,72,4,,,1.213,434.94769629999064,435.26590090000536,435.2830893000355,435.56626180000603,435.58271180000156,None,down,435.58271180000156,None,435.58271180000156,436.7811995000229,0.08533759997226298,None,2.797945400001481,,,,,,,,,37,001,2019_Dec_25_1518,untitled,3.1.0,59.94998972162162,
457,_5,M,0,R,N,457_5M000RN,HRN,0,73,73,176,,,0.8300000000000001,438.46765030000824,438.7965743000386,438.81318110000575,439.0956636000192,439.1122683000285,None,up,439.1122683000285,None,439.1122683000285,439.9287274000235,0.0785335999680683,None,2.432582600042224,,,,,,,,,37,001,2019_Dec_25_1518,untitled,3.1.0,59.94998972162162,
389,_4,N,180,R,N,389_4N180RN,HRN,0,74,74,260,,,0.976,441.6206241000327,441.9601624000352,441.97696290002204,442.25980790000176,442.27668410004117,None,down,442.27668410004117,None,442.27668410004117,443.2426379999961,0.06831040000542998,None,1.9154653000296094,,,,,,,,,37,001,2019_Dec_25_1518,untitled,3.1.0,59.94998972162162,
136,F,N,315,R,N,136FN315RN,HRN,0,75,75,215,,,0.795,444.2599183000275,444.60801890003495,444.62416519998806,444.9081175000174,444.924351499998,None,up,444.924351499998,None,444.924351499998,445.7068858999992,0.06085790001088753,None,1.632858099997975,,,,,,,,,37,001,2019_Dec_25_1518,untitled,3.1.0,59.94998972162162,
144,F,M,315,R,N,144FM315RN,HRN,0,76,76,119,,,1.088,446.62495950004086,446.9730865000165,446.9899337000097,447.2724217000068,447.2895367000019,None,down,447.2895367000019,None,447.2895367000019,448.3554564000224,0.0604462000192143,None,1.8999504000530578,,,,,,,,,37,001,2019_Dec_25_1518,untitled,3.1.0,59.94998972162162,
264,_2,N,315,R,N,264_2N315RN,HRN,0,77,77,247,,,1.0010000000000001,449.27466170000844,449.60379130003275,449.6202229000046,449.90376529999776,449.91998950002016,None,down,449.91998950002016,None,449.91998950002016,450.9026503000059,0.0763567999820225,None,2.550081900029909,,,,,,,,,37,001,2019_Dec_25_1518,untitled,3.1.0,59.94998972162162,
_,G,N,90,_,_,_GN090__,N,0,78,78,58,,,0.799,452.56082690000767,452.88414770003874,452.90102540003136,453.1837918999954,453.2007770999917,None,down,453.2007770999917,None,453.2007770999917,453.9826936000027,0.07998989999759942,None,1.9646135999937542,,,,,,,,,37,001,2019_Dec_25_1518,untitled,3.1.0,59.94998972162162,
289,_2,N,0,L,N,289_2N000LN,HLN,0,79,79,248,,,0.852,455.23768630000995,455.58158950001234,455.5985629000352,455.88162410003133,455.898256400018,None,up,455.898256400018,None,455.898256400018,456.73148700001184,0.0647649000165984,None,1.7319238999625668,,,,,,,,,37,001,2019_Dec_25_1518,untitled,3.1.0,59.94998972162162,
225,G,N,0,L,N,225GN000LN,HLN,0,80,80,232,,,1.268,457.71153810003307,458.0464745000354,458.06304040004034,458.3459520000033,458.3635376000311,None,up,458.3635376000311,None,458.3635376000311,459.6120483999839,0.07282760000089183,None,2.4170409999787807,,,,,,,,,37,001,2019_Dec_25_1518,untitled,3.1.0,59.94998972162162,
449,_5,N,0,R,N,449_5N000RN,HRN,0,81,81,272,,,0.936,460.8584649999975,461.19341280002845,461.2108118000324,461.49374130001524,461.5106266000075,None,up,461.5106266000075,None,461.5106266000075,462.4256972000003,0.06859610002720729,None,1.6498747000005096,,,,,,,,,37,001,2019_Dec_25_1518,untitled,3.1.0,59.94998972162162,
453,_5,N,180,R,N,453_5N180RN,HRN,0,82,82,276,,,1.311,463.2644178000046,463.57471640000585,463.5915093999938,463.87484460003907,463.89113740000175,None,down,463.89113740000175,None,463.89113740000175,465.1897734000231,0.0931406999588944,None,2.315929399977904,,,,,,,,,37,001,2019_Dec_25_1518,untitled,3.1.0,59.94998972162162,
_,_2,M,315,_,_,__2M315__,N,0,83,83,31,,,1.062,466.27643420000095,466.6225393000059,466.6389772000257,466.9220093000331,466.9387649000273,None,up,466.9387649000273,None,466.9387649000273,467.98745710001094,0.06238750001648441,None,2.448875100002624,,,,,,,,,37,001,2019_Dec_25_1518,untitled,3.1.0,59.94998972162162,
452,_5,N,135,R,N,452_5N135RN,HRN,0,84,84,275,,,1.031,469.462516300031,469.802634200023,469.81924380001146,470.10252690000925,470.11894230003236,None,down,470.11894230003236,None,470.11894230003236,471.1342493999982,0.06731720000971109,None,2.665176300040912,,,,,,,,,37,001,2019_Dec_25_1518,untitled,3.1.0,59.94998972162162,
164,F,N,135,L,N,164FN135LN,HLN,0,85,85,219,,,1.046,472.8710875000106,473.20017979998374,473.2179926999961,473.49883540003793,473.51539050001884,None,up,473.51539050001884,None,473.51539050001884,474.54845830000704,0.07776870002271608,None,2.9358181999996305,,,,,,,,,37,001,2019_Dec_25_1518,untitled,3.1.0,59.94998972162162,
129,F,N,0,R,N,129FN000RN,HRN,0,86,86,208,,,0.989,476.555672699993,476.8642540000146,476.87979490001453,477.1627062000334,477.17935779999243,None,up,477.17935779999243,None,477.17935779999243,478.1621764000156,0.09399999998277053,None,2.8832884000148624,,,,,,,,,37,001,2019_Dec_25_1518,untitled,3.1.0,59.94998972162162,
006,R,N,225,R,N,006RN225RN,HRN,0,87,87,197,,,1.093,480.1315931000281,480.4765486000106,480.4935329,480.7763200000045,480.7932246000273,None,up,480.7932246000273,None,480.7932246000273,481.8753260000376,0.062053099973127246,None,2.083022200036794,,,,,,,,,37,001,2019_Dec_25_1518,untitled,3.1.0,59.94998972162162,
422,_4,N,225,L,N,422_4N225LN,HLN,0,88,88,269,,,1.1380000000000001,482.9608309000032,483.29107580002164,483.3078474000213,483.59097449999535,483.60772810003255,None,down,483.60772810003255,None,483.60772810003255,484.72271490003914,0.07589829998323694,None,2.066270600014832,,,,,,,,,37,001,2019_Dec_25_1518,untitled,3.1.0,59.94998972162162,
454,_5,N,225,R,N,454_5N225RN,HRN,0,89,89,277,,,1.325,485.74168310000096,486.0889672000194,486.1054834999959,486.3885117000318,486.4047950000386,None,up,486.4047950000386,None,486.4047950000386,487.72056220000377,0.06078490003710613,None,2.664815800031647,,,,,,,,,37,001,2019_Dec_25_1518,untitled,3.1.0,59.94998972162162,
390,_4,N,225,R,N,390_4N225RN,HRN,0,90,90,261,,,1.006,489.1410248000175,489.4866661000415,489.5023300999892,489.785349200014,489.8018941000337,None,up,489.8018941000337,None,489.8018941000337,490.7841728000203,0.06461190001573414,None,1.7326319999992847,,,,,,,,,37,001,2019_Dec_25_1518,untitled,3.1.0,59.94998972162162,
138,F,M,45,R,N,138FM045RN,HRN,0,91,91,113,,,1.287,491.61489870003425,491.9498079000041,491.9663253999897,492.24961850000545,492.2660884000361,None,down,492.2660884000361,None,492.2660884000361,493.5317643000162,0.07282599998870865,None,2.2022038999712095,,,,,,,,,37,001,2019_Dec_25_1518,untitled,3.1.0,59.94998972162162,
239,G,M,270,L,N,239GM270LN,HLN,0,92,92,142,,,0.9390000000000001,494.56810080003925,494.8808563000057,494.89765160001116,495.1808400999871,495.1974656000384,None,down,495.1974656000384,None,495.1974656000384,496.1302172000287,0.0896775999572128,None,2.4151161999907345,,,,,,,,,37,001,2019_Dec_25_1518,untitled,3.1.0,59.94998972162162,
035,R,N,90,L,N,035RN090LN,HLN,0,93,93,202,,,0.972,497.6803886999842,498.0285522000049,498.0454221999971,498.32822580001084,498.3451778999879,None,up,498.3451778999879,None,498.3451778999879,499.2936210000189,0.06117689999518916,None,1.6153246000176296,,,,,,,,,37,001,2019_Dec_25_1518,untitled,3.1.0,59.94998972162162,
016,R,M,315,R,N,016RM315RN,HRN,0,94,94,103,,,1.1440000000000001,500.0380478000152,500.3759230999858,500.3934172000154,500.6762308999896,500.69317480002064,None,up,500.69317480002064,None,500.69317480002064,501.8249794000294,0.06910189997870475,None,2.0148283999878913,,,,,,,,,37,001,2019_Dec_25_1518,untitled,3.1.0,59.94998972162162,
_,G,M,45,_,_,_GM045__,N,0,95,95,9,,,1.395,502.7796493000351,503.12417090003146,503.1402892000042,503.423403599998,503.4402973999968,None,down,503.4402973999968,None,503.4402973999968,504.8220081999898,0.06400030001532286,None,2.899323599995114,,,,,,,,,37,001,2019_Dec_25_1518,untitled,3.1.0,59.94998972162162,
_,G,N,0,_,_,_GN000__,N,0,96,96,56,,,0.79,506.4111141000176,506.7539613000117,506.7714220000198,507.05378409998957,507.0701839000103,None,up,507.0701839000103,None,507.0701839000103,507.8360284999944,0.06404560001101345,None,1.5006487999926321,,,,,,,,,37,001,2019_Dec_25_1518,untitled,3.1.0,59.94998972162162,
_,_2,N,225,_,_,__2N225__,N,0,97,97,77,,,0.966,508.66879860003246,508.9854964000406,509.00187360000564,509.28558999998495,509.30245100002503,None,down,509.30245100002503,None,509.30245100002503,510.25041869998677,0.08711439999751747,None,1.9818801000365056,,,,,,,,,37,001,2019_Dec_25_1518,untitled,3.1.0,59.94998972162162,
_,R,N,135,_,_,_RN135__,N,0,98,98,67,,,1.262,511.3810916999937,511.6994534000405,511.7163053000113,511.9996735000168,512.0158634000109,None,down,512.0158634000109,None,512.0158634000109,513.2646469000028,0.06690839998191223,None,2.8976463000290096,,,,,,,,,37,001,2019_Dec_25_1518,untitled,3.1.0,59.94998972162162,
_,G,N,315,_,_,_GN315__,N,0,99,99,63,,,0.744,514.982412900019,515.329941300035,515.3463154000347,515.6296445000335,515.645648900012,None,up,515.645648900012,None,515.645648900012,516.3791553000337,0.06155000004218891,None,1.4329587999964133,,,,,,,,,37,001,2019_Dec_25_1518,untitled,3.1.0,59.94998972162162,
040,R,N,315,L,N,040RN315LN,HLN,0,100,100,207,,,0.743,517.1650014999905,517.4946609000326,517.5111335000256,517.7949652000098,517.81234210002,None,up,517.81234210002,None,517.81234210002,518.5431574000395,0.07782209996366873,None,1.6476801000535488,,,,,,,,,37,001,2019_Dec_25_1518,untitled,3.1.0,59.94998972162162,
_,_2,M,270,_,_,__2M270__,N,0,101,101,30,,,0.9380000000000001,519.5388111000066,519.8758328999975,519.8934811000363,520.1755884999875,520.1920294000302,None,down,520.1920294000302,None,520.1920294000302,521.1078968000365,0.06974750000517815,None,2.082480499986559,,,,,,,,,37,001,2019_Dec_25_1518,untitled,3.1.0,59.94998972162162,
450,_5,N,45,R,N,450_5N045RN,HRN,0,102,102,273,,,1.27,522.3562614000402,522.6898275000276,522.7076156000257,522.9901462999987,523.0067647999967,None,down,523.0067647999967,None,523.0067647999967,524.2556104999967,0.07090149994473904,None,2.100974100001622,,,,,,,,,37,001,2019_Dec_25_1518,untitled,3.1.0,59.94998972162162,
397,_4,M,180,R,N,397_4M180RN,HRN,0,103,103,164,,,0.776,525.1782741000061,525.5209308000049,525.5374578000046,525.8207254000008,525.8370801000274,None,down,525.8370801000274,None,525.8370801000274,526.6037837000331,0.06373380002332851,None,1.9990450999466702,,,,,,,,,37,001,2019_Dec_25_1518,untitled,3.1.0,59.94998972162162,
_,_5,M,270,_,_,__5M270__,N,0,104,104,46,,,1.145,527.9288345000241,528.2519473999855,528.2686339000356,528.5511610000394,528.5679983000155,None,up,528.5679983000155,None,528.5679983000155,529.7003497999976,0.08376750000752509,None,2.7980096000246704,,,,,,,,,37,001,2019_Dec_25_1518,untitled,3.1.0,59.94998972162162,
_,_5,N,90,_,_,__5N090__,N,0,105,105,90,,,0.964,531.4347317999927,531.7817082999973,531.7982811999973,532.0815845000325,532.0985573999933,None,down,532.0985573999933,None,532.0985573999933,533.0474428000161,0.0608380000339821,None,2.698112200014293,,,,,,,,,37,001,2019_Dec_25_1518,untitled,3.1.0,59.94998972162162,
036,R,N,135,L,N,036RN135LN,HLN,0,106,106,203,,,1.036,534.8879272000049,535.2130080999923,535.2296128000016,535.5123797000269,535.5281641000183,None,up,535.5281641000183,None,535.5281641000183,536.5448773000389,0.0820518999826163,None,1.8161643000203185,,,,,,,,,37,001,2019_Dec_25_1518,untitled,3.1.0,59.94998972162162,
259,_2,N,90,R,N,259_2N090RN,HRN,0,107,107,242,,,0.9510000000000001,537.4124840000295,537.7601752000046,537.7769388000015,538.0599343000213,538.0766925000353,None,down,538.0766925000353,None,538.0766925000353,539.0090472000302,0.06116400001337752,None,1.8840205000014976,,,,,,,,,37,001,2019_Dec_25_1518,untitled,3.1.0,59.94998972162162,
236,G,M,135,L,N,236GM135LN,HLN,0,108,108,139,,,1.2610000000000001,540.0647870000103,540.3744750000187,540.3908990999917,540.6751680999878,540.6907244999893,None,up,540.6907244999893,None,540.6907244999893,541.9400456000003,0.09331040002871305,None,2.3155514000100084,,,,,,,,,37,001,2019_Dec_25_1518,untitled,3.1.0,59.94998972162162,
197,G,N,180,R,N,197GN180RN,HRN,0,109,109,228,,,1.179,543.0864808000042,543.4223051000154,543.4389599999995,543.7218516999856,543.7390036000288,None,down,543.7390036000288,None,543.7390036000288,544.9047433999949,0.07120290002785623,None,2.448186399997212,,,,,,,,,37,001,2019_Dec_25_1518,untitled,3.1.0,59.94998972162162,
_,R,M,270,_,_,_RM270__,N,0,110,110,22,,,1.139,546.2828120000195,546.6023423000006,546.6194963000016,546.9029899000307,546.9207427999936,None,up,546.9207427999936,None,546.9207427999936,548.0342670000391,0.08615089999511838,None,2.266436900012195,,,,,,,,,37,001,2019_Dec_25_1518,untitled,3.1.0,59.94998972162162,
_,_4,M,45,_,_,__4M045__,N,0,111,111,33,,,0.746,549.253012000001,549.5996187999845,549.6165870000259,549.8994181000162,549.9164464999922,None,down,549.9164464999922,None,549.9164464999922,550.6485798000358,0.05908460001228377,None,1.7670647999620996,,,,,,,,,37,001,2019_Dec_25_1518,untitled,3.1.0,59.94998972162162,
261,_2,N,180,R,N,261_2N180RN,HRN,0,112,112,244,,,1.171,551.7577231000178,552.09756319999,552.1147036000038,552.3974179000361,552.4143720000284,None,down,552.4143720000284,None,552.4143720000284,553.5629399000318,0.06747190002351999,None,3.031176000018604,,,,,,,,,37,001,2019_Dec_25_1518,untitled,3.1.0,59.94998972162162,
421,_4,N,180,L,N,421_4N180LN,HLN,0,113,113,268,,,1.1280000000000001,555.5310726999887,555.8614020000095,555.8776300000027,556.1607021000236,556.1771968000103,None,down,556.1771968000103,None,556.1771968000103,557.2929786000168,0.07665599999018013,None,1.8163168999599293,,,,,,,,,37,001,2019_Dec_25_1518,untitled,3.1.0,59.94998972162162,
_,G,M,225,_,_,_GM225__,N,0,114,114,13,,,1.133,558.0790446000174,558.4089589000214,558.4256565000396,558.7094799000188,558.7255115000298,None,down,558.7255115000298,None,558.7255115000298,559.840990800003,0.07571379997534677,None,2.332738699973561,,,,,,,,,37,001,2019_Dec_25_1518,untitled,3.1.0,59.94998972162162,
165,F,N,180,L,N,165FN180LN,HLN,0,115,115,220,,,1.061,561.1350274999859,561.4730933000101,561.4896209000144,561.772656599991,561.7893848000094,None,down,561.7893848000094,None,561.7893848000094,562.8383318000124,0.06910680001601577,None,1.817191299982369,,,,,,,,,37,001,2019_Dec_25_1518,untitled,3.1.0,59.94998972162162,
193,G,N,0,R,N,193GN000RN,HRN,0,116,116,224,,,0.804,563.6940710000345,564.0206801000168,564.037215600023,564.3204473000369,564.3371749999933,None,up,564.3371749999933,None,564.3371749999933,565.120172200026,0.07851820002542809,None,1.8007983000134118,,,,,,,,,37,001,2019_Dec_25_1518,untitled,3.1.0,59.94998972162162,
012,R,M,135,R,N,012RM135RN,HRN,0,117,117,99,,,1.065,566.2108700000099,566.5517946000327,566.5685690999962,566.8513696999871,566.8681031999877,None,down,566.8681031999877,None,566.8681031999877,567.917138800025,0.0660238999989815,None,3.3999987000133842,,,,,,,,,37,001,2019_Dec_25_1518,untitled,3.1.0,59.94998972162162,
_,_2,N,315,_,_,__2N315__,N,0,118,118,79,,,0.922,570.3521410000394,570.6814513999852,570.6983657000237,570.9812700999901,570.9979649999877,None,up,570.9979649999877,None,570.9979649999877,571.897708500037,0.0757535999873653,None,2.8980818000272848,,,,,,,,,37,001,2019_Dec_25_1518,untitled,3.1.0,59.94998972162162,
_,_2,M,225,_,_,__2M225__,N,0,119,119,29,,,1.1480000000000001,573.9803537999978,574.3122486000066,574.3280529000331,574.6117433999898,574.6281759000267,None,down,574.6281759000267,None,574.6281759000267,575.760805900034,0.07564039999851957,None,2.5314455999759957,,,,,,,,,37,001,2019_Dec_25_1518,untitled,3.1.0,59.94998972162162,
_,_4,N,90,_,_,__4N090__,N,0,120,120,82,,,1.218,577.2327993999934,577.5755962000112,577.5925018000416,577.8750624000095,577.8915233000298,None,down,577.8915233000298,None,577.8915233000298,579.0910619000206,0.06597229995531961,None,2.41757749998942,,,,,,,,,37,001,2019_Dec_25_1518,untitled,3.1.0,59.94998972162162,
_,R,M,225,_,_,_RM225__,N,0,121,121,21,,,0.725,580.3963338999893,580.723141000024,580.7409845000366,581.0224268999882,581.0391802000231,None,up,581.0391802000231,None,581.0391802000231,581.7552110000397,0.07898960000602528,None,1.4827222999883816,,,,,,,,,37,001,2019_Dec_25_1518,untitled,3.1.0,59.94998972162162,
_,R,N,90,_,_,_RN090__,N,0,122,122,66,,,0.982,582.6048304000287,582.9376391000114,582.9544406000059,583.2379468000145,583.2539871000336,None,down,583.2539871000336,None,583.2539871000336,584.2197930000257,0.07434869999997318,None,2.1501860999851488,,,,,,,,,37,001,2019_Dec_25_1518,untitled,3.1.0,59.94998972162162,
485,_5,N,180,L,N,485_5N180LN,HLN,0,123,123,284,,,0.841,585.471170600038,585.8181839000317,585.8356845999951,586.1183541000355,586.1349794000271,None,down,586.1349794000271,None,586.1349794000271,586.9670228000032,0.059510999999474734,None,1.9823461000341922,,,,,,,,,37,001,2019_Dec_25_1518,untitled,3.1.0,59.94998972162162,
135,F,N,270,R,N,135FN270RN,HRN,0,124,124,214,,,1.064,588.190716000041,588.532451600011,588.5489361000364,588.8319350000238,588.8486045000027,None,up,588.8486045000027,None,588.8486045000027,589.8982956000254,0.06526629999279976,None,1.916018299991265,,,,,,,,,37,001,2019_Dec_25_1518,untitled,3.1.0,59.94998972162162,
_,G,M,270,_,_,_GM270__,N,0,125,125,14,,,0.834,590.8328393999836,591.1794823000091,591.1962249000208,591.4798807000043,591.4961576000205,None,up,591.4961576000205,None,591.4961576000205,592.3125703000114,0.06118839996634051,None,2.0848885000450537,,,,,,,,,37,001,2019_Dec_25_1518,untitled,3.1.0,59.94998972162162,
388,_4,N,135,R,N,388_4N135RN,HRN,0,126,126,259,,,1.262,593.65169530001,593.9945155000314,594.0112876000348,594.2940617999993,594.3105184999877,None,up,594.3105184999877,None,594.3105184999877,595.559219799994,0.06371260003652424,None,2.91563619999215,,,,,,,,,37,001,2019_Dec_25_1518,untitled,3.1.0,59.94998972162162,
481,_5,N,0,L,N,481_5N000LN,HLN,0,127,127,280,,,0.718,597.3194315999863,597.6410792000243,597.6581163000083,597.9414553000242,597.9575303000165,None,up,597.9575303000165,None,597.9575303000165,598.65744119999,0.08372970001073554,None,2.184079200029373,,,,,,,,,37,001,2019_Dec_25_1518,untitled,3.1.0,59.94998972162162,
_,_5,N,270,_,_,__5N270__,N,0,128,128,94,,,0.757,600.2365632000146,600.555562100024,600.5724363999907,600.8553505000309,600.8719175999868,None,None,600.8719175999868,None,600.8719175999868,601.6215417000349,0.08349560003262013,None,,,,,,,,,,37,001,2019_Dec_25_1518,untitled,3.1.0,59.94998972162162,
172,F,M,135,L,N,172FM135LN,HLN,0,129,129,123,,,1.2590000000000001,604.4309323999914,604.7521555999992,604.7687239000225,605.051197200024,605.0681117000058,604.4309323999914,down,605.0681117000058,None,605.0681117000058,606.3168772000354,0.08370159997139126,None,2.0487029999494553,,,,,,,,,37,001,2019_Dec_25_1518,untitled,3.1.0,59.94998972162162,
139,F,M,90,R,N,139FM090RN,HRN,0,130,130,114,,,1.2770000000000001,607.1957916000392,607.5326008999837,607.5492306000087,607.831978000002,607.8490413000109,None,down,607.8490413000109,None,607.8490413000109,609.1146691000322,0.06976169999688864,None,2.2485864000045694,,,,,,,,,37,001,2019_Dec_25_1518,untitled,3.1.0,59.94998972162162,
_,_4,N,180,_,_,__4N180__,N,0,131,131,84,,,1.004,610.1776613999973,610.5142493000021,610.5322592000011,610.8134220000356,610.8307431000285,None,None,610.8307431000285,None,610.8307431000285,611.8121968000196,0.07181029999628663,None,,,,,,,,,,37,001,2019_Dec_25_1518,untitled,3.1.0,59.94998972162162,
_,R,N,270,_,_,_RN270__,N,0,132,132,70,,,1.035,614.3816587000038,614.7099775000243,614.7265061000362,615.0089567000396,615.0259634000249,614.3816587000038,up,615.0259634000249,None,615.0259634000249,616.0420171000296,0.08032340003410354,None,2.0512514000292867,,,,,,,,,37,001,2019_Dec_25_1518,untitled,3.1.0,59.94998972162162,
420,_4,N,135,L,N,420_4N135LN,HLN,0,133,133,267,,,1.228,617.144632200012,617.4906424999936,617.507454800012,617.7908656999934,617.8067817999981,None,down,617.8067817999981,None,617.8067817999981,619.0225735999993,0.060776199970860034,None,2.0173313000123017,,,,,,,,,37,001,2019_Dec_25_1518,untitled,3.1.0,59.94998972162162,
387,_4,N,90,R,N,387_4N090RN,HRN,0,134,134,258,,,1.1400000000000001,619.8994319000049,620.238554599986,620.2554246000363,620.5384157000226,620.5553173000226,None,down,620.5553173000226,None,620.5553173000226,621.6875026000198,0.0670731000136584,None,2.082666500005871,,,,,,,,,37,001,2019_Dec_25_1518,untitled,3.1.0,59.94998972162162,
234,G,M,45,L,N,234GM045LN,HLN,0,135,135,137,,,1.059,622.7434252999956,623.0523820000235,623.0696334000095,623.352272899996,623.3688760999939,None,up,623.3688760999939,None,623.3688760999939,624.4181473000208,0.09720229997765273,None,2.3486917999689467,,,,,,,,,37,001,2019_Dec_25_1518,untitled,3.1.0,59.94998972162162,
004,R,N,135,R,N,004RN135RN,HRN,0,136,136,195,,,1.23,625.7966724000289,626.1330259999959,626.1500277000014,626.4331693000277,626.4494901000289,None,down,626.4494901000289,None,626.4494901000289,627.6649452000274,0.07052590005332604,None,2.1828339000348933,,,,,,,,,37,001,2019_Dec_25_1518,untitled,3.1.0,59.94998972162162,
417,_4,N,0,L,N,417_4N000LN,HLN,0,137,137,264,,,1.176,628.7099725999869,629.0470751000103,629.0639581999858,629.3469879000331,629.3645116999978,None,down,629.3645116999978,None,629.3645116999978,630.5295877000317,0.06914099998539314,None,2.15071459999308,,,,,,,,,37,001,2019_Dec_25_1518,untitled,3.1.0,59.94998972162162,
_,G,N,225,_,_,_GN225__,N,0,138,138,61,,,0.734,631.5808080999996,631.9283172999858,631.9445475999964,632.2282428999897,632.2447742000222,None,down,632.2447742000222,None,632.2447742000222,632.9611426999909,0.0590935000218451,None,1.8989697999786586,,,,,,,,,37,001,2019_Dec_25_1518,untitled,3.1.0,59.94998972162162,
_,_5,N,0,_,_,__5N000__,N,0,139,139,88,,,1.123,634.2257645000354,634.5590440999949,634.5753904000157,634.8587424000143,634.8765361999976,None,up,634.8765361999976,None,634.8765361999976,635.9745918000117,0.07276250002905726,None,1.982745400047861,,,,,,,,,37,001,2019_Dec_25_1518,untitled,3.1.0,59.94998972162162,
_,_5,N,315,_,_,__5N315__,N,0,140,140,95,,,0.935,636.9300646000193,637.2735765000107,637.2902739000274,637.5728145000176,637.5894238000037,None,down,637.5894238000037,None,637.5894238000037,638.505488499999,0.0636477000080049,None,3.3821859000017866,,,,,,,,,37,001,2019_Dec_25_1518,untitled,3.1.0,59.94998972162162,
002,R,N,45,R,N,002RN045RN,HRN,0,141,141,193,,,0.934,641.0412379000336,641.3867335999967,641.4036486000405,641.6863647000282,641.702600300021,None,down,641.702600300021,None,641.702600300021,642.6194342999952,0.062339299998711795,None,3.1655139999929816,,,,,,,,,37,001,2019_Dec_25_1518,untitled,3.1.0,59.94998972162162,
303,_2,M,270,L,N,303_2M270LN,HLN,0,142,142,158,,,0.719,644.9566066000261,645.2834345999872,645.3004798000329,645.5828202000121,645.599636400002,None,down,645.599636400002,None,645.599636400002,646.2990570000256,0.07799099996918812,None,2.5148078000056557,,,,,,,,,37,001,2019_Dec_25_1518,untitled,3.1.0,59.94998972162162,
_,G,M,90,_,_,_GM090__,N,0,143,143,10,,,0.988,648.1822124000173,648.5308224000037,648.547441600007,648.8306172000011,648.8475108999992,None,down,648.8475108999992,None,648.8475108999992,649.8126253000228,0.06092540000099689,None,2.115425900032278,,,,,,,,,37,001,2019_Dec_25_1518,untitled,3.1.0,59.94998972162162,
044,R,M,135,L,N,044RM135LN,HLN,0,144,144,107,,,1.226,651.052432299999,651.3776191000361,651.3946328000166,651.6777061999892,651.6944324999931,None,up,651.6944324999931,None,651.6944324999931,652.9096613000147,0.07943260000320151,None,1.9486389000085182,,,,,,,,,37,001,2019_Dec_25_1518,untitled,3.1.0,59.94998972162162,
_,_5,M,0,_,_,__5M000__,N,0,145,145,40,,,0.753,653.7234451000113,654.0587887000293,654.0759371999884,654.3587046000175,654.3751336000278,None,down,654.3751336000278,None,654.3751336000278,655.1076348000206,0.07176670001354069,None,2.3148940000100993,,,,,,,,,37,001,2019_Dec_25_1518,untitled,3.1.0,59.94998972162162,
_,_2,N,90,_,_,__2N090__,N,0,146,146,74,,,1.101,656.7566035999916,657.1061378000304,657.1235466999933,657.4055517000379,657.4221965000033,None,up,657.4221965000033,None,657.4221965000033,658.5048259000177,0.05945649999193847,None,2.783263099961914,,,,,,,,,37,001,2019_Dec_25_1518,untitled,3.1.0,59.94998972162162,
_,G,N,180,_,_,_GN180__,N,0,147,147,60,,,0.887,660.3058257999946,660.6198806000175,660.636667600018,660.9196618000278,660.936044800037,None,down,660.936044800037,None,660.936044800037,661.8018773000222,0.09009579999838024,None,2.0822647999739274,,,,,,,,,37,001,2019_Dec_25_1518,untitled,3.1.0,59.94998972162162,
272,_2,M,315,R,N,272_2M315RN,HRN,0,148,148,151,,,1.096,663.106846700015,663.434784299985,663.4506454000366,663.7334088000352,663.7499359000358,None,down,663.7499359000358,None,663.7499359000358,664.8333814000362,0.07931250002002344,None,3.2988159999949858,,,,,,,,,37,001,2019_Dec_25_1518,untitled,3.1.0,59.94998972162162,
_,G,N,270,_,_,_GN270__,N,0,149,149,62,,,0.934,667.116385500005,667.4637717999867,667.4806424999842,667.7634382999968,667.7803493000101,None,down,667.7803493000101,None,667.7803493000101,668.6961489000241,0.06033880001632497,None,2.6499305000179447,,,,,,,,,37,001,2019_Dec_25_1518,untitled,3.1.0,59.94998972162162,
_,G,M,315,_,_,_GM315__,N,0,150,150,15,,,0.847,670.5338967000134,670.8436332999845,670.8613704000018,671.1438982000109,671.160952700011,None,down,671.160952700011,None,671.160952700011,671.9928244000184,0.09299959999043494,None,2.032362000027206,,,,,,,,,37,001,2019_Dec_25_1518,untitled,3.1.0,59.94998972162162,
203,G,M,90,R,N,203GM090RN,HRN,0,151,151,130,,,1.313,673.2661071000039,673.6087279000203,673.6251743999892,673.9081656000344,673.9249721000087,None,down,673.9249721000087,None,673.9249721000087,675.2234125999967,0.06481889996211976,None,2.0668267000000924,,,,,,,,,37,001,2019_Dec_25_1518,untitled,3.1.0,59.94998972162162,
140,F,M,135,R,N,140FM135RN,HRN,0,152,152,115,,,1.162,676.0895980999921,676.405835099984,676.4226779000019,676.7058674999862,676.7225853999844,None,up,676.7225853999844,None,676.7225853999844,677.8715973999933,0.08608550002099946,None,3.3147460999898612,,,,,,,,,37,001,2019_Dec_25_1518,untitled,3.1.0,59.94998972162162,
_,F,N,270,_,_,_FN270__,N,0,153,153,54,,,1.099,680.1220314000384,680.4526063000085,680.469224600005,680.7521971000242,680.7688616000232,None,down,680.7688616000232,None,680.7688616000232,681.8512555999914,0.07511450001038611,None,1.7492438000044785,,,,,,,,,37,001,2019_Dec_25_1518,untitled,3.1.0,59.94998972162162,
_,R,M,45,_,_,_RM045__,N,0,154,154,17,,,1.193,682.6059275000007,682.9340993000078,682.9505049000145,683.2333848000271,683.2498460999923,None,down,683.2498460999923,None,683.2498460999923,684.4325290000415,0.0794834999833256,None,2.517349799978547,,,,,,,,,37,001,2019_Dec_25_1518,untitled,3.1.0,59.94998972162162,
385,_4,N,0,R,N,385_4N000RN,HRN,0,155,155,256,,,1.0,685.8530478000175,686.1807672000141,686.1974320000154,686.4808954999899,686.4970320999855,None,up,686.4970320999855,None,686.4970320999855,687.4795213000034,0.07716640003491193,None,1.9677841999800876,,,,,,,,,37,001,2019_Dec_25_1518,untitled,3.1.0,59.94998972162162,
_,R,M,90,_,_,_RM090__,N,0,156,156,18,,,1.122,688.5490836999961,688.8783235999872,688.8952438000124,689.1781602000119,689.1951828000019,None,down,689.1951828000019,None,689.1951828000019,690.2934515000088,0.0756796000059694,None,2.3158574999542907,,,,,,,,,37,001,2019_Dec_25_1518,untitled,3.1.0,59.94998972162162,
229,G,N,180,L,N,229GN180LN,HLN,0,157,157,236,,,1.32,691.5825053000008,691.9261208000244,691.9424644000246,692.2256753999973,692.2421194000053,None,down,692.2421194000053,None,692.2421194000053,693.5409910000162,0.06410660000983626,None,3.3987754000118002,,,,,,,,,37,001,2019_Dec_25_1518,untitled,3.1.0,59.94998972162162,
_,G,N,135,_,_,_GN135__,N,0,158,158,59,,,1.037,695.736383200041,696.0558931000414,696.0721171000041,696.35568410001,696.3717662999989,None,down,696.3717662999989,None,696.3717662999989,697.3894328000024,0.0844799000187777,None,1.833000200043898,,,,,,,,,37,001,2019_Dec_25_1518,untitled,3.1.0,59.94998972162162,
208,G,M,315,R,N,208GM315RN,HRN,0,159,159,135,,,1.34,698.2726765000261,698.6202837000019,698.6368189000059,698.9195826000068,698.9362165000057,None,None,698.9362165000057,None,698.9362165000057,700.2519428000087,0.06127669999841601,None,,,,,,,,,,37,001,2019_Dec_25_1518,untitled,3.1.0,59.94998972162162,
_,F,M,135,_,_,_FM135__,N,0,160,160,3,,,1.355,702.4683059999952,702.8168067000224,702.8332825000398,703.1167864000308,703.1325820999919,702.4683059999952,down,703.1325820999919,None,703.1325820999919,704.4658673999947,0.059921400039456785,None,2.2660460000042804,,,,,,,,,37,001,2019_Dec_25_1518,untitled,3.1.0,59.94998972162162,
048,R,M,315,L,N,048RM315LN,HLN,0,161,161,111,,,1.245,705.4752342000138,705.8136611999944,705.8303984000231,706.1138164000004,706.1325005000108,None,down,706.1325005000108,None,706.1325005000108,707.3625152999884,0.06742590002249926,None,2.3972573000355624,,,,,,,,,37,001,2019_Dec_25_1518,untitled,3.1.0,59.94998972162162,
459,_5,M,90,R,N,459_5M090RN,HRN,0,162,162,178,,,0.844,708.5966372000403,708.9444013999891,708.9611495999852,709.2443724999903,709.2610893000383,None,down,709.2610893000383,None,709.2610893000383,710.0931194000295,0.05961699999170378,None,2.9810063000186346,,,,,,,,,37,001,2019_Dec_25_1518,untitled,3.1.0,59.94998972162162,
_,_2,N,180,_,_,__2N180__,N,0,163,163,76,,,0.896,712.3138947000261,712.6579659000272,712.6747222000267,712.9575940000359,712.9741821000353,None,down,712.9741821000353,None,712.9741821000353,713.8566607999965,0.06530849996488541,None,1.867736199987121,,,,,,,,,37,001,2019_Dec_25_1518,untitled,3.1.0,59.94998972162162,
432,_4,M,315,L,N,432_4M315LN,HLN,0,164,164,175,,,1.272,714.9264904999873,715.2559877000167,715.2721562000224,715.5552715000231,715.5718856999883,None,down,715.5718856999883,None,715.5718856999883,716.8374369000085,0.07612209999933839,None,2.148424300015904,,,,,,,,,37,001,2019_Dec_25_1518,untitled,3.1.0,59.94998972162162,
291,_2,N,90,L,N,291_2N090LN,HLN,0,165,165,250,,,1.235,717.7886419999995,718.136311899987,718.153430300008,718.4366160000209,718.4527257999871,None,down,718.4527257999871,None,718.4527257999871,719.668399200018,0.06079060002230108,None,1.9341049999929965,,,,,,,,,37,001,2019_Dec_25_1518,untitled,3.1.0,59.94998972162162,
175,F,M,270,L,N,175FM270LN,HLN,0,166,166,126,,,1.348,720.468643900007,720.801634500036,720.8178561000386,721.1004723000224,721.1173729000147,None,down,721.1173729000147,None,721.1173729000147,722.4503512000083,0.07366619998356327,None,2.08375089999754,,,,,,,,,37,001,2019_Dec_25_1518,untitled,3.1.0,59.94998972162162,
240,G,M,315,L,N,240GM315LN,HLN,0,167,167,143,,,0.742,723.2891908999882,723.6152053000405,723.6330569999991,723.9147403000388,723.9311678000377,None,down,723.9311678000377,None,723.9311678000377,724.6641821000376,0.07988330000080168,None,1.3833654000191018,,,,,,,,,37,001,2019_Dec_25_1518,untitled,3.1.0,59.94998972162162,
_,F,M,315,_,_,_FM315__,N,0,168,168,7,,,1.041,725.3790206999984,725.7301636000047,725.7464573000325,726.0300477999845,726.0459842000273,None,down,726.0459842000273,None,726.0459842000273,727.061708400026,0.05765919998520985,None,3.2672015000134706,,,,,,,,,37,001,2019_Dec_25_1518,untitled,3.1.0,59.94998972162162,
399,_4,M,270,R,N,399_4M270RN,HRN,0,169,169,166,,,1.353,729.4020621000091,729.7268255000236,729.74324109999,730.0268164000008,730.0430606000009,None,down,730.0430606000009,None,730.0430606000009,731.3746100999997,0.07971129997167736,None,2.1145385000272654,,,,,,,,,37,001,2019_Dec_25_1518,untitled,3.1.0,59.94998972162162,
425,_4,M,0,L,N,425_4M000LN,HLN,0,170,170,168,,,0.881,732.225631600013,732.5740546000306,732.5906444999855,732.8732994000311,732.8909593999851,None,up,732.8909593999851,None,732.8909593999851,733.7559187000152,0.060888600011821836,None,1.7523040999658406,,,,,,,,,37,001,2019_Dec_25_1518,untitled,3.1.0,59.94998972162162,
483,_5,N,90,L,N,483_5N090LN,HLN,0,171,171,282,,,0.727,734.7392204999924,735.0552012000117,735.0720549999969,735.3557725999854,735.3740080000134,None,up,735.3740080000134,None,735.3740080000134,736.0872514999937,0.0848946999758482,None,1.5146162000019103,,,,,,,,,37,001,2019_Dec_25_1518,untitled,3.1.0,59.94998972162162,
194,G,N,45,R,N,194GN045RN,HRN,0,172,172,225,,,1.057,736.96169560001,737.3039049000363,737.3196973000304,737.6028734000283,737.6192850000225,None,down,737.6192850000225,None,737.6192850000225,738.6686716999975,0.06537760002538562,None,2.051050000009127,,,,,,,,,37,001,2019_Dec_25_1518,untitled,3.1.0,59.94998972162162,
162,F,N,45,L,N,162FN045LN,HLN,0,173,173,217,,,0.978,739.7595441000303,740.0840440000175,740.1005029000225,740.3838448000024,740.4003739000182,None,down,740.4003739000182,None,740.4003739000182,741.3665538000059,0.08083130000159144,None,2.0842071000370197,,,,,,,,,37,001,2019_Dec_25_1518,untitled,3.1.0,59.94998972162162,
043,R,M,90,L,N,043RM090LN,HLN,0,174,174,106,,,0.923,742.5661371999886,742.898064500012,742.9144530000049,743.1981233000406,743.2151821000152,None,up,743.2151821000152,None,743.2151821000152,744.1303488000412,0.0721694000530988,None,1.665052000025753,,,,,,,,,37,001,2019_Dec_25_1518,untitled,3.1.0,59.94998972162162,
_,_5,M,45,_,_,__5M045__,N,0,175,175,41,,,1.357,744.9459795000148,745.2962326999987,745.3124432000332,745.5955096000107,745.6129371999996,None,down,745.6129371999996,None,745.6129371999996,746.9447372999857,0.05871890002163127,None,3.0158103000139818,,,,,,,,,37,001,2019_Dec_25_1518,untitled,3.1.0,59.94998972162162,
009,R,M,0,R,N,009RM000RN,HRN,0,176,176,96,,,1.233,748.6960340000223,749.0429895999841,749.0599119000253,749.3422658999916,749.3588961000205,None,down,749.3588961000205,None,749.3588961000205,750.5745077999891,0.06069489999208599,None,2.6320720000076108,,,,,,,,,37,001,2019_Dec_25_1518,untitled,3.1.0,59.94998972162162,
262,_2,N,225,R,N,262_2N225RN,HRN,0,177,177,245,,,0.799,752.0693548999843,752.4061640999862,752.4229812000412,752.7068456000416,752.7230901999865,None,up,752.7230901999865,None,752.7230901999865,753.5076476000249,0.06950290000531822,None,1.8679877000395209,,,,,,,,,37,001,2019_Dec_25_1518,untitled,3.1.0,59.94998972162162,
460,_5,M,135,R,N,460_5M135RN,HRN,0,178,178,179,,,1.3760000000000001,754.6840110000339,755.0047242,755.0212079000194,755.304252300004,755.3209179000114,None,down,755.3209179000114,None,755.3209179000114,756.6860074999859,0.08301619999110699,None,2.2658348999684677,,,,,,,,,37,001,2019_Dec_25_1518,untitled,3.1.0,59.94998972162162,
008,R,N,315,R,N,008RN315RN,HRN,0,179,179,199,,,1.052,757.6549781000358,758.0013808000367,758.0202658000053,758.301118000003,758.3179402000387,None,down,758.3179402000387,None,758.3179402000387,759.3500662000151,0.06075930001679808,None,2.199551400030032,,,,,,,,,37,001,2019_Dec_25_1518,untitled,3.1.0,59.94998972162162,
_,_5,M,180,_,_,__5M180__,N,0,180,180,44,,,0.868,760.5868623999995,760.932682899991,760.9493691000389,761.2321923000272,761.2487709000125,None,down,761.2487709000125,None,761.2487709000125,762.0984125999967,0.06284869997762144,None,2.2823124999995343,,,,,,,,,37,001,2019_Dec_25_1518,untitled,3.1.0,59.94998972162162,
_,_4,M,180,_,_,__4M180__,N,0,181,181,36,,,1.049,763.6127602999914,763.9464304000139,763.9632089000079,764.245973800018,764.2625117999851,None,down,764.2625117999851,None,764.2625117999851,765.2953095000121,0.07223520003026351,None,3.252258400025312,,,,,,,,,37,001,2019_Dec_25_1518,untitled,3.1.0,59.94998972162162,
427,_4,M,90,L,N,427_4M090LN,HLN,0,182,182,170,,,0.727,767.6010854000342,767.9262602000381,767.943069400033,768.2259363000048,768.2432992000249,None,up,768.2432992000249,None,768.2432992000249,768.9586267999839,0.0759408000158146,None,2.0822372999973595,,,,,,,,,37,001,2019_Dec_25_1518,untitled,3.1.0,59.94998972162162,
173,F,M,180,L,N,173FM180LN,HLN,0,183,183,124,,,0.866,770.407342999999,770.7407476000371,770.7572884000256,771.0405446999939,771.0568726999918,None,down,771.0568726999918,None,771.0568726999918,771.9060535000172,0.07300220004981384,None,1.6823543999926187,,,,,,,,,37,001,2019_Dec_25_1518,untitled,3.1.0,59.94998972162162,
431,_4,M,270,L,N,431_4M270LN,HLN,0,184,184,174,,,1.139,772.8082299000234,773.1548776000272,773.1714887000271,773.4548897999921,773.4713234000374,None,None,773.4713234000374,None,773.4713234000374,774.5869276000303,0.06235339998966083,None,,,,,,,,,,37,001,2019_Dec_25_1518,untitled,3.1.0,59.94998972162162,
484,_5,N,135,L,N,484_5N135LN,HLN,0,185,185,283,,,1.014,777.0351608000346,777.3516038000234,777.3679324000259,777.6515583000146,777.6677010999992,777.0351608000346,up,777.6677010999992,None,777.6677010999992,778.6668199000414,0.08883679995778948,None,2.2152546999859624,,,,,,,,,37,001,2019_Dec_25_1518,untitled,3.1.0,59.94998972162162,
396,_4,M,135,R,N,396_4M135RN,HRN,0,186,186,163,,,1.1320000000000001,779.9563443000079,780.2986363000236,780.3156659000088,780.5992109000217,780.6156274999958,None,up,780.6156274999958,None,780.6156274999958,781.7310039000004,0.06602079997537658,None,2.350092700042296,,,,,,,,,37,001,2019_Dec_25_1518,untitled,3.1.0,59.94998972162162,
134,F,N,225,R,N,134FN225RN,HRN,0,187,187,213,,,0.873,783.0504075000063,783.3796394999954,783.3964944999898,783.6791491000331,783.6956859999918,None,up,783.6956859999918,None,783.6956859999918,784.5614218999981,0.07631480001145974,None,1.6679765000008047,,,,,,,,,37,001,2019_Dec_25_1518,untitled,3.1.0,59.94998972162162,
297,_2,M,0,L,N,297_2M000LN,HLN,0,188,188,152,,,1.352,785.4643359000329,785.7774782000342,785.7938212000299,786.0769726000144,786.0941582000232,None,down,786.0941582000232,None,786.0941582000232,787.4260131000192,0.08945229998789728,None,2.5821898000431247,,,,,,,,,37,001,2019_Dec_25_1518,untitled,3.1.0,59.94998972162162,
_,_4,N,0,_,_,__4N000__,N,0,189,189,80,,,0.783,788.7453788000275,789.0916282000253,789.1081460000132,789.392997100018,789.4080996999983,None,up,789.4080996999983,None,789.4080996999983,790.1732881999924,0.062031099980231375,None,1.6340486999833956,,,,,,,,,37,001,2019_Dec_25_1518,untitled,3.1.0,59.94998972162162,
196,G,N,135,R,N,196GN135RN,HRN,0,190,190,227,,,1.224,791.1106223000097,791.4559380999999,791.4733465000172,791.7561370999902,791.7727881000028,None,down,791.7727881000028,None,791.7727881000028,792.9714152000379,0.060306600003968924,None,1.949013500008732,,,,,,,,,37,001,2019_Dec_25_1518,untitled,3.1.0,59.94998972162162,
490,_5,M,45,L,N,490_5M045LN,HLN,0,191,191,185,,,1.033,793.7986085999873,794.13698260003,794.153815000027,794.4363618000061,794.4533576000249,None,down,794.4533576000249,None,794.4533576000249,795.4690838000388,0.06826239998918027,None,2.082576699962374,,,,,,,,,37,001,2019_Dec_25_1518,untitled,3.1.0,59.94998972162162,
428,_4,M,135,L,N,428_4M135LN,HLN,0,192,192,171,,,1.291,796.6253490000381,796.9510948000243,796.9679719000123,797.2506427000044,797.2678656000062,None,up,797.2678656000062,None,797.2678656000062,798.5496292000171,0.07984790002228692,None,2.3981920999940485,,,,,,,,,37,001,2019_Dec_25_1518,untitled,3.1.0,59.94998972162162,
266,_2,M,45,R,N,266_2M045RN,HRN,0,193,193,145,,,1.06,799.7373328999965,800.08159050002,800.0986907000188,800.3815005000215,800.3979452000349,None,down,800.3979452000349,None,800.3979452000349,801.4468421000056,0.06362109998008236,None,2.850691999949049,,,,,,,,,37,001,2019_Dec_25_1518,untitled,3.1.0,59.94998972162162,
_,F,M,0,_,_,_FM000__,N,0,194,194,0,,,1.291,803.3196517000324,803.6619662999874,803.6787115000188,803.9620847000042,803.9788866000017,None,up,803.9788866000017,None,803.9788866000017,805.2607279000222,0.06416440004250035,None,2.533140600018669,,,,,,,,,37,001,2019_Dec_25_1518,untitled,3.1.0,59.94998972162162,
_,R,M,0,_,_,_RM000__,N,0,195,195,16,,,1.314,806.5995694000158,806.9256567999837,806.9418234000332,807.2259198999964,807.2423714000033,None,down,807.2423714000033,None,807.2423714000033,808.5407127999933,0.07923309999750927,None,2.4486988999997266,,,,,,,,,37,001,2019_Dec_25_1518,untitled,3.1.0,59.94998972162162,
430,_4,M,225,L,N,430_4M225LN,HLN,0,196,196,173,,,0.963,809.7954031000263,810.1061295000254,810.1228785000276,810.4082321000169,810.4229731000378,None,down,810.4229731000378,None,810.4229731000378,811.3599278000183,0.09485030005453154,None,2.082056500017643,,,,,,,,,37,001,2019_Dec_25_1518,untitled,3.1.0,59.94998972162162,
_,R,N,180,_,_,_RN180__,N,0,197,197,68,,,1.25,812.587018900027,812.9200914000394,812.9374089000048,813.2197140000062,813.2375487000099,None,down,813.2375487000099,None,813.2375487000099,814.4688728000037,0.0728679999592714,None,1.9982127999537624,,,,,,,,,37,001,2019_Dec_25_1518,untitled,3.1.0,59.94998972162162,
456,_5,N,315,R,N,456_5N315RN,HRN,0,198,198,279,,,0.975,815.3269758000388,815.6516425000154,815.6687119000126,815.9515295000165,815.9678872000077,None,down,815.9678872000077,None,815.9678872000077,816.9333680000273,0.08154809998814017,None,2.564824100001715,,,,,,,,,37,001,2019_Dec_25_1518,untitled,3.1.0,59.94998972162162,
_,_2,M,45,_,_,__2M045__,N,0,199,199,25,,,1.042,818.6087724000099,818.9486399000161,818.9650976000121,819.2486413000152,819.2649451000034,None,down,819.2649451000034,None,819.2649451000034,820.2971126000048,0.06744950002757832,None,1.7827928999904543,,,,,,,,,37,001,2019_Dec_25_1518,untitled,3.1.0,59.94998972162162,
_,F,N,180,_,_,_FN180__,N,0,200,200,52,,,1.2630000000000001,821.1311708000139,821.4626848000335,821.4799842000357,821.7629153000307,821.7798272999935,None,down,821.7798272999935,None,821.7798272999935,823.0282123000361,0.07277979998616502,None,2.000501099973917,,,,,,,,,37,001,2019_Dec_25_1518,untitled,3.1.0,59.94998972162162,
039,R,N,270,L,N,039RN270LN,HLN,0,201,201,206,,,0.934,823.84945530002,824.1941103999852,824.2110247000237,824.4940997000085,824.5105274000089,None,down,824.5105274000089,None,824.5105274000089,825.4258073000237,0.062001599988434464,None,2.1982947000069544,,,,,,,,,37,001,2019_Dec_25_1518,untitled,3.1.0,59.94998972162162,
_,R,M,135,_,_,_RM135__,N,0,202,202,19,,,0.935,826.7888769999845,827.1254031999852,827.1415579000022,827.4246821000124,827.4418908000225,None,down,827.4418908000225,None,827.4418908000225,828.3567718000268,0.0718328999937512,None,1.699800200003665,,,,,,,,,37,001,2019_Dec_25_1518,untitled,3.1.0,59.94998972162162,
424,_4,N,315,L,N,424_4N315LN,HLN,0,203,203,271,,,0.765,829.2112735999981,829.5558881000034,829.5729279000079,829.8556934000226,829.8725465000025,None,down,829.8725465000025,None,829.8725465000025,830.6221247999929,0.06297520000953227,None,2.165063399996143,,,,,,,,,37,001,2019_Dec_25_1518,untitled,3.1.0,59.94998972162162,
_,_2,N,270,_,_,__2N270__,N,0,204,204,78,,,1.354,832.1255818000063,832.4533673000406,832.4701949000009,832.7534766999888,832.7697761000018,None,down,832.7697761000018,None,832.7697761000018,834.1020774000208,0.07847340003354475,None,2.2489241000148468,,,,,,,,,37,001,2019_Dec_25_1518,untitled,3.1.0,59.94998972162162,
170,F,M,45,L,N,170FM045LN,HLN,0,205,205,121,,,0.859,835.0924372000154,835.4342150000157,835.4511395000154,835.7345510000014,835.7501554000191,None,down,835.7501554000191,None,835.7501554000191,836.5831035000156,0.06640710000647232,None,3.080863400013186,,,,,,,,,37,001,2019_Dec_25_1518,untitled,3.1.0,59.94998972162162,
201,G,M,0,R,N,201GM000RN,HRN,0,206,206,128,,,1.221,838.8991230000393,839.247837700008,839.264275500027,839.5473700999864,839.5636904999847,None,down,839.5636904999847,None,839.5636904999847,840.7625982000027,0.0611528999870643,None,3.2329769000061788,,,,,,,,,37,001,2019_Dec_25_1518,untitled,3.1.0,59.94998972162162,
_,_2,N,135,_,_,__2N135__,N,0,207,207,75,,,0.991,842.8629188000341,843.2107286000391,843.2275789999985,843.5109524999862,843.5276273000054,None,down,843.5276273000054,None,843.5276273000054,844.5093641999993,0.05979050003224984,None,1.7982717999839224,,,,,,,,,37,001,2019_Dec_25_1518,untitled,3.1.0,59.94998972162162,
_,_5,M,315,_,_,__5M315__,N,0,208,208,47,,,0.734,845.392256000021,845.7421576000052,845.7586331000202,846.0414705000003,846.0580765000195,None,down,846.0580765000195,None,846.0580765000195,846.7742702999967,0.05853919999208301,None,1.5666109999874607,,,,,,,,,37,001,2019_Dec_25_1518,untitled,3.1.0,59.94998972162162,
142,F,M,225,R,N,142FM225RN,HRN,0,209,209,117,,,1.258,847.7057471000007,848.0400447000284,848.0564856000128,848.3395465000067,848.3565174000105,None,down,848.3565174000105,None,848.3565174000105,849.6051980000339,0.07271719997515902,None,1.9836226000334136,,,,,,,,,37,001,2019_Dec_25_1518,untitled,3.1.0,59.94998972162162,
_,_2,M,0,_,_,__2M000__,N,0,210,210,24,,,1.351,850.4277105000219,850.7541631000349,850.7718367000343,851.0539950000239,851.0699102000217,None,down,851.0699102000217,None,851.0699102000217,852.4021444999962,0.07923839997965842,None,2.1013050000183284,,,,,,,,,37,001,2019_Dec_25_1518,untitled,3.1.0,59.94998972162162,
_,F,N,135,_,_,_FN135__,N,0,211,211,51,,,0.974,853.2522945000092,853.5849313000217,853.6020829000045,853.885095500038,853.9019142999896,None,down,853.9019142999896,None,853.9019142999896,854.8668878999888,0.07233320001978427,None,2.766252000001259,,,,,,,,,37,001,2019_Dec_25_1518,untitled,3.1.0,59.94998972162162,
451,_5,N,90,R,N,451_5N090RN,HRN,0,212,212,274,,,0.909,856.756434000039,857.0815503000049,857.0988748000236,857.3817487999913,857.3983178000199,None,down,857.3983178000199,None,857.3983178000199,858.29782050004,0.07973090000450611,None,1.715444200031925,,,,,,,,,37,001,2019_Dec_25_1518,untitled,3.1.0,59.94998972162162,
003,R,N,90,R,N,003RN090RN,HRN,0,213,213,194,,,1.3960000000000001,859.182865699986,859.5291447000345,859.5457518000039,859.8294909000397,859.8460435000015,None,down,859.8460435000015,None,859.8460435000015,861.2283526000101,0.06258649996016175,None,2.2002505999989808,,,,,,,,,37,001,2019_Dec_25_1518,untitled,3.1.0,59.94998972162162,
491,_5,M,90,L,N,491_5M090LN,HLN,0,214,214,186,,,0.808,862.1329625000362,862.4604481999995,862.4773266999982,862.760395499994,862.7772355999914,None,down,862.7772355999914,None,862.7772355999914,863.57612350001,0.07850110001163557,None,1.9324902000371367,,,,,,,,,37,001,2019_Dec_25_1518,untitled,3.1.0,59.94998972162162,
161,F,N,0,L,N,161FN000LN,HLN,0,215,215,216,,,0.978,864.8001930000028,865.1258802000084,865.1415524000186,865.424528100004,865.4419263000018,None,up,865.4419263000018,None,865.4419263000018,866.406991099997,0.08174440002767369,None,2.283549200044945,,,,,,,,,37,001,2019_Dec_25_1518,untitled,3.1.0,59.94998972162162,
462,_5,M,225,R,N,462_5M225RN,HRN,0,216,216,181,,,1.156,867.8176142000011,868.1391004000325,868.1551911000279,868.4388651000336,868.4554527000291,None,up,868.4554527000291,None,868.4554527000291,869.6042809000355,0.08171489997766912,None,2.3312838000128977,,,,,,,,,37,001,2019_Dec_25_1518,untitled,3.1.0,59.94998972162162,
269,_2,M,180,R,N,269_2M180RN,HRN,0,217,217,148,,,1.334,870.8551235999912,871.2029258999974,871.2194595999899,871.5025922000059,871.5202406999888,None,down,871.5202406999888,None,871.5202406999888,872.8347614000086,0.06154179997975007,None,2.8980405000038445,,,,,,,,,37,001,2019_Dec_25_1518,untitled,3.1.0,59.94998972162162,
_,_4,M,90,_,_,__4M090__,N,0,218,218,34,,,0.8140000000000001,874.4917072000098,874.8339094000403,874.849866900011,875.1327273999923,875.149459999986,None,down,875.149459999986,None,875.149459999986,875.9486817999859,0.06700400001136586,None,1.8825863999663852,,,,,,,,,37,001,2019_Dec_25_1518,untitled,3.1.0,59.94998972162162,
_,G,M,0,_,_,_GM000__,N,0,219,219,8,,,0.995,877.0978331000078,877.4470026000054,877.4638519000146,877.7474173000082,877.7640873999917,None,up,877.7640873999917,None,877.7640873999917,878.7462211000384,0.05896240001311526,None,1.915378600009717,,,,,,,,,37,001,2019_Dec_25_1518,untitled,3.1.0,59.94998972162162,
034,R,N,45,L,N,034RN045LN,HLN,0,220,220,201,,,0.789,879.7682085999986,880.096345500031,880.1118856000248,880.3952259999933,880.4125748000224,None,up,880.4125748000224,None,880.4125748000224,881.1775080999942,0.08002530003432184,None,1.9007664000382647,,,,,,,,,37,001,2019_Dec_25_1518,untitled,3.1.0,59.94998972162162,
047,R,M,270,L,N,047RM270LN,HLN,0,221,221,110,,,0.843,882.3826569000375,882.7263700999902,882.7429063000018,883.0258912999998,883.0426820000284,None,down,883.0426820000284,None,883.0426820000284,883.8759849999915,0.06264249997911975,None,1.7842590999789536,,,,,,,,,37,001,2019_Dec_25_1518,untitled,3.1.0,59.94998972162162,
226,G,N,45,L,N,226GN045LN,HLN,0,222,222,233,,,0.8320000000000001,884.9219447000069,885.2408872999949,885.2575473000179,885.5403526999871,885.5570986000239,None,up,885.5570986000239,None,885.5570986000239,886.3732305000303,0.08403359999647364,None,1.8323974999948405,,,,,,,,,37,001,2019_Dec_25_1518,untitled,3.1.0,59.94998972162162,
205,G,M,180,R,N,205GM180RN,HRN,0,223,223,132,,,1.035,887.459794000024,887.805214699998,887.8220964000211,888.1044451000053,888.1223335000104,None,down,888.1223335000104,None,888.1223335000104,889.1374766000081,0.06348240002989769,None,1.8815245000296272,,,,,,,,,37,001,2019_Dec_25_1518,untitled,3.1.0,59.94998972162162,
482,_5,N,45,L,N,482_5N045LN,HLN,0,224,224,281,,,0.711,890.0755339000025,890.4192557000206,890.4357462000335,890.7199054000084,890.7357809999958,None,up,890.7357809999958,None,890.7357809999958,891.4353534000111,0.06482989998767152,None,1.9821408999850973,,,,,,,,,37,001,2019_Dec_25_1518,untitled,3.1.0,59.94998972162162,
455,_5,N,270,R,N,455_5N270RN,HRN,0,225,225,278,,,0.875,892.7982106999843,893.1337132999906,893.1507048000349,893.4337269000243,893.4502218000125,None,up,893.4502218000125,None,893.4502218000125,894.2993089000229,0.07314009999390692,None,1.6161567000090145,,,,,,,,,37,001,2019_Dec_25_1518,untitled,3.1.0,59.94998972162162,
238,G,M,225,L,N,238GM225LN,HLN,0,226,226,141,,,1.088,895.1613865999971,895.4822468000348,895.4986776000005,895.7819834999973,895.798385400034,None,down,895.798385400034,None,895.798385400034,896.8637688999879,0.08607359998859465,None,1.8983533999999054,,,,,,,,,37,001,2019_Dec_25_1518,untitled,3.1.0,59.94998972162162,
207,G,M,270,R,N,207GM270RN,HRN,0,227,227,134,,,0.705,897.7712801999878,898.113646599988,898.1292866999866,898.4130210999865,898.429147900024,None,down,898.429147900024,None,898.429147900024,899.1118289000005,0.06776120001450181,None,2.0160605999990366,,,,,,,,,37,001,2019_Dec_25_1518,untitled,3.1.0,59.94998972162162,
014,R,M,225,R,N,014RM225RN,HRN,0,228,228,101,,,0.892,900.5320082000108,900.8604814999853,900.8783068000339,901.1602827000315,901.176813500002,None,down,901.176813500002,None,901.176813500002,902.059529900027,0.07824080000864342,None,2.998143600008916,,,,,,,,,37,001,2019_Dec_25_1518,untitled,3.1.0,59.94998972162162,
_,_5,N,135,_,_,__5N135__,N,0,229,229,91,,,1.0150000000000001,904.2550145999994,904.5909875000361,904.6074932999909,904.8905672000255,904.9084966999944,None,down,904.9084966999944,None,904.9084966999944,905.9060825000051,0.0708660000236705,None,2.4323865000042133,,,,,,,,,37,001,2019_Dec_25_1518,untitled,3.1.0,59.94998972162162,
_,_4,M,225,_,_,__4M225__,N,0,230,230,37,,,0.976,907.4293286000029,907.7551692000125,907.7713148000184,908.0541923000128,908.070997700037,None,down,908.070997700037,None,908.070997700037,909.0366749000386,0.07982650003395975,None,1.7838099999935366,,,,,,,,,37,001,2019_Dec_25_1518,untitled,3.1.0,59.94998972162162,
130,F,N,45,R,N,130FN045RN,HRN,0,231,231,209,,,1.371,909.9374007000006,910.269825800031,910.285527900036,910.5686591999838,910.585574900033,None,down,910.585574900033,None,910.585574900033,911.9340916000074,0.07343829999445006,None,2.7313301999820396,,,,,,,,,37,001,2019_Dec_25_1518,untitled,3.1.0,59.94998972162162,
_,_4,M,270,_,_,__4M270__,N,0,232,232,38,,,1.2670000000000001,913.4001142000197,913.7334843000281,913.7497504000203,914.032649300003,914.0487694999902,None,down,914.0487694999902,None,914.0487694999902,915.2976026000106,0.07459160004509613,None,2.8662872000131756,,,,,,,,,37,001,2019_Dec_25_1518,untitled,3.1.0,59.94998972162162,
298,_2,M,45,L,N,298_2M045LN,HLN,0,233,233,153,,,1.065,917.0179484999971,917.3292436000193,917.346143600007,917.6287855000119,917.6453052000143,None,down,917.6453052000143,None,917.6453052000143,918.6949103000225,0.09011239995015785,None,2.3672370000276715,,,,,,,,,37,001,2019_Dec_25_1518,untitled,3.1.0,59.94998972162162,
_,_5,M,225,_,_,__5M225__,N,0,234,234,45,,,0.966,920.0941622999962,920.4267654999858,920.4437058999902,920.7267315000063,920.7430551000289,None,down,920.7430551000289,None,920.7430551000289,921.6928650999907,0.07253119995584711,None,1.8832669000257738,,,,,,,,,37,001,2019_Dec_25_1518,untitled,3.1.0,59.94998972162162,
010,R,M,45,R,N,010RM045RN,HRN,0,235,235,97,,,1.325,922.7083489000215,923.0411583000096,923.0579177000327,923.3416667000274,923.35739010002,None,down,923.35739010002,None,923.35739010002,924.6727327000117,0.07221740001114085,None,2.233720500022173,,,,,,,,,37,001,2019_Dec_25_1518,untitled,3.1.0,59.94998972162162,
301,_2,M,180,L,N,301_2M180LN,HLN,0,236,236,156,,,1.393,925.673899699992,926.0051660999889,926.0226453000214,926.3051819000393,926.3215549000306,None,down,926.3215549000306,None,926.3215549000306,927.703672600037,0.07448590005515143,None,2.132353499997407,,,,,,,,,37,001,2019_Dec_25_1518,untitled,3.1.0,59.94998972162162,
227,G,N,90,L,N,227GN090LN,HLN,0,237,237,234,,,1.118,928.5214292000164,928.8696669000201,928.8863279999932,929.1696602000156,929.1859172999975,None,up,929.1859172999975,None,929.1859172999975,930.2846819999977,0.06031309999525547,None,2.033521799952723,,,,,,,,,37,001,2019_Dec_25_1518,untitled,3.1.0,59.94998972162162,
_,_4,M,315,_,_,__4M315__,N,0,238,238,39,,,0.728,931.3331604999839,931.6339008000214,931.6507434000378,931.9330243000295,931.9498775000102,None,down,931.9498775000102,None,931.9498775000102,932.6660819000099,0.08134430000791326,None,1.7215378999826498,,,,,,,,,37,001,2019_Dec_25_1518,untitled,3.1.0,59.94998972162162,
015,R,M,270,R,N,015RM270RN,HRN,0,239,239,102,,,1.363,933.7653471000376,934.0815821000142,934.0982186000329,934.3977073000278,934.3977073000278,None,down,934.3977073000278,None,934.3977073000278,935.7465169000207,0.08303090004483238,None,2.7651765999617055,,,,,,,,,37,001,2019_Dec_25_1518,untitled,3.1.0,59.94998972162162,
_,F,N,0,_,_,_FN000__,N,0,240,240,48,,,1.053,937.2468838000204,937.5787035000394,937.5957926000119,937.878872500034,937.895047100028,None,up,937.895047100028,None,937.895047100028,938.9273314999882,0.07523179997224361,None,1.9172861999832094,,,,,,,,,37,001,2019_Dec_25_1518,untitled,3.1.0,59.94998972162162,
_,F,N,90,_,_,_FN090__,N,0,241,241,50,,,1.002,939.8925635000342,940.2262755000265,940.2427311000065,940.525979100028,940.5429230000009,None,down,940.5429230000009,None,940.5429230000009,941.5249547000276,0.07162499998230487,None,2.53129940002691,,,,,,,,,37,001,2019_Dec_25_1518,untitled,3.1.0,59.94998972162162,
_,_4,N,270,_,_,__4N270__,N,0,242,242,86,,,0.9520000000000001,943.1430950000067,943.4902992999996,943.506594400038,943.789924199984,943.8066858000238,None,up,943.8066858000238,None,943.8066858000238,944.7389039000263,0.061666699999477714,None,3.1807567999931052,,,,,,,,,37,001,2019_Dec_25_1518,untitled,3.1.0,59.94998972162162,
487,_5,N,270,L,N,487_5N270LN,HLN,0,243,243,286,,,1.069,947.0659457999864,947.4032374999952,947.4209634999861,947.7029922000365,947.7194033000269,None,down,947.7194033000269,None,947.7194033000269,948.7686013000202,0.06918109999969602,None,1.9344877999974415,,,,,,,,,37,001,2019_Dec_25_1518,untitled,3.1.0,59.94998972162162,
489,_5,M,0,L,N,489_5M000LN,HLN,0,244,244,184,,,1.113,949.7260200000019,950.0682222000323,950.0849355999962,950.3674501000205,950.383739300014,None,down,950.383739300014,None,950.383739300014,951.4830853000167,0.06490519997896627,None,1.85045780002838,,,,,,,,,37,001,2019_Dec_25_1518,untitled,3.1.0,59.94998972162162,
_,_2,M,90,_,_,__2M090__,N,0,245,245,26,,,1.3840000000000001,952.314156300039,952.648493900022,952.6659164000303,952.9486312000081,952.9653773999889,None,down,952.9653773999889,None,952.9653773999889,954.3305904000299,0.07140150002669543,None,2.8315826000180095,,,,,,,,,37,001,2019_Dec_25_1518,untitled,3.1.0,59.94998972162162,
258,_2,N,45,R,N,258_2N045RN,HRN,0,246,246,241,,,1.322,955.8709564000019,956.2120482000173,956.2292320000124,956.5120782000013,956.5292599000386,None,down,956.5292599000386,None,956.5292599000386,957.827350000036,0.06494589999783784,None,3.0494510999997146,,,,,,,,,37,001,2019_Dec_25_1518,untitled,3.1.0,59.94998972162162,
202,G,M,45,R,N,202GM045RN,HRN,0,247,247,129,,,1.226,959.6613522000262,959.9927238000091,960.0091694000294,960.2920645999839,960.308940900024,None,down,960.308940900024,None,960.308940900024,961.5248375000083,0.07467850000830367,None,2.250287299975753,,,,,,,,,37,001,2019_Dec_25_1518,untitled,3.1.0,59.94998972162162,
_,_5,N,45,_,_,__5N045__,N,0,248,248,89,,,0.8280000000000001,962.6396015000064,962.9734021000331,962.9894118999946,963.2731066000415,963.2895754000056,None,up,963.2895754000056,None,963.2895754000056,964.1055168000166,0.07169160002376884,None,2.1163961999700405,,,,,,,,,37,001,2019_Dec_25_1518,untitled,3.1.0,59.94998972162162,
200,G,N,315,R,N,200GN315RN,HRN,0,249,249,231,,,0.792,965.4848823000211,965.8206001000362,965.8375465000281,966.1207485999912,966.1370648000157,None,up,966.1370648000157,None,966.1370648000157,966.9198585000122,0.06996839999919757,None,1.6487801999901421,,,,,,,,,37,001,2019_Dec_25_1518,untitled,3.1.0,59.94998972162162,
001,R,N,0,R,N,001RN000RN,HRN,0,250,250,192,,,1.311,967.8597717999946,968.2016467000358,968.2182591999881,968.5017877999926,968.5183713000151,None,up,968.5183713000151,None,968.5183713000151,969.8175160000101,0.06688830000348389,None,2.0490967000368983,,,,,,,,,37,001,2019_Dec_25_1518,untitled,3.1.0,59.94998972162162,
167,F,N,270,L,N,167FN270LN,HLN,0,251,251,222,,,0.768,970.6485458000097,970.9831402000273,970.999481900013,971.2823692000238,971.2988022000063,None,down,971.2988022000063,None,971.2988022000063,972.0477901999839,0.07209139998303726,None,1.599503800040111,,,,,,,,,37,001,2019_Dec_25_1518,untitled,3.1.0,59.94998972162162,
_,_5,N,180,_,_,__5N180__,N,0,252,252,92,,,0.9590000000000001,972.9832821000018,973.3146448000334,973.3308890000335,973.6143852000241,973.6303705000319,None,down,973.6303705000319,None,973.6303705000319,974.5797151000006,0.07581240002764389,None,2.232695800019428,,,,,,,,,37,001,2019_Dec_25_1518,untitled,3.1.0,59.94998972162162,
_,F,N,315,_,_,_FN315__,N,0,253,253,55,,,1.238,975.9288306999952,976.278042800026,976.2948567999993,976.5780978000257,976.5944821999874,None,up,976.5944821999874,None,976.5944821999874,977.8102933000191,0.058666099968831986,None,1.9006681999890134,,,,,,,,,37,001,2019_Dec_25_1518,untitled,3.1.0,59.94998972162162,
_,G,M,135,_,_,_GM135__,N,0,254,254,11,,,0.969,978.5686853000079,978.9097149000154,978.9258295000182,979.2090749000199,979.2255125000374,None,down,979.2255125000374,None,979.2255125000374,980.17501549999,0.06589199998416007,None,1.6351429000496864,,,,,,,,,37,001,2019_Dec_25_1518,untitled,3.1.0,59.94998972162162,
294,_2,N,225,L,N,294_2N225LN,HLN,0,255,255,253,,,1.4000000000000001,980.9442974000121,981.273977200035,981.2908054,981.5736917000031,981.5904472999973,None,down,981.5904472999973,None,981.5904472999973,982.9724476999836,0.0749799000332132,None,2.1511633000336587,,,,,,,,,37,001,2019_Dec_25_1518,untitled,3.1.0,59.94998972162162,
493,_5,M,180,L,N,493_5M180LN,HLN,0,256,256,188,,,1.324,983.8361463000183,984.1551096999901,984.1716656000353,984.4543776999926,984.4708740999922,None,down,984.4708740999922,None,984.4708740999922,985.7863134000218,0.0839321999810636,None,2.0161250999663025,,,,,,,,,37,001,2019_Dec_25_1518,untitled,3.1.0,59.94998972162162,
204,G,M,135,R,N,204GM135RN,HRN,0,257,257,131,,,0.709,986.5714583999943,986.9021924000117,986.9200731000165,987.2020715000108,987.2187888000044,None,down,987.2187888000044,None,987.2187888000044,987.9195852000266,0.07514050003373995,None,1.4676462999777868,,,,,,,,,37,001,2019_Dec_25_1518,untitled,3.1.0,59.94998972162162,
418,_4,N,45,L,N,418_4N045LN,HLN,0,258,258,265,,,1.363,988.7679285000195,989.0999856999842,989.1168822000036,989.3996737999842,989.4163445000304,None,up,989.4163445000304,None,989.4163445000304,990.7656158999889,0.07209420000435784,None,2.4819292000029236,,,,,,,,,37,001,2019_Dec_25_1518,untitled,3.1.0,59.94998972162162,
_,_4,N,315,_,_,__4N315__,N,0,259,259,87,,,0.97,991.9652725000051,992.3145446000271,992.3310365999932,992.6141892999876,992.630804800021,None,up,992.630804800021,None,992.630804800021,993.5798023000243,0.05988930002786219,None,1.6676970000262372,,,,,,,,,37,001,2019_Dec_25_1518,untitled,3.1.0,59.94998972162162,
_,R,N,225,_,_,_RN225__,N,0,260,260,69,,,0.935,994.3759215000318,994.712449499988,994.7292105000233,995.0122652000282,995.0286124999984,None,down,995.0286124999984,None,995.0286124999984,995.9440811999957,0.06845309998607263,None,1.7842575999675319,,,,,,,,,37,001,2019_Dec_25_1518,untitled,3.1.0,59.94998972162162,
_,R,N,0,_,_,_RN000__,N,0,261,261,64,,,1.153,996.8982212999836,997.2266090000048,997.2431741000037,997.5262521000113,997.5424149000319,None,up,997.5424149000319,None,997.5424149000319,998.6754839000059,0.07715729996562004,None,1.8510399999795482,,,,,,,,,37,001,2019_Dec_25_1518,untitled,3.1.0,59.94998972162162,
495,_5,M,270,L,N,495_5M270LN,HLN,0,262,262,190,,,1.012,999.465811000031,999.8076493000262,999.8250133999973,1000.1073915000306,1000.1249330000137,None,down,1000.1249330000137,None,1000.1249330000137,1001.1237441000412,0.06534590001683682,None,2.7325727000134066,,,,,,,,,37,001,2019_Dec_25_1518,untitled,3.1.0,59.94998972162162,
292,_2,N,135,L,N,292_2N135LN,HLN,0,263,263,251,,,0.98,1002.9260090999887,1003.271203100041,1003.2878047000268,1003.5713983000023,1003.5879464999889,None,up,1003.5879464999889,None,1003.5879464999889,1004.5533697000355,0.061662200023420155,None,2.033370500023011,,,,,,,,,37,001,2019_Dec_25_1518,untitled,3.1.0,59.94998972162162,
296,_2,N,315,L,N,296_2N315LN,HLN,0,264,264,255,,,1.0050000000000001,1005.7167061000364,1006.0354904000415,1006.0517801000387,1006.3348219000036,1006.3520937000285,None,down,1006.3520937000285,None,1006.3520937000285,1007.3342189000105,0.08647879998898134,None,1.8337133000022732,,,,,,,,,37,001,2019_Dec_25_1518,untitled,3.1.0,59.94998972162162,
_,_5,M,135,_,_,__5M135__,N,0,265,265,43,,,0.926,1008.2589014000259,1008.600143800024,1008.616666499991,1008.8999232000206,1008.9166455999948,None,down,1008.9166455999948,None,1008.9166455999948,1009.8322334000259,0.06626769999274984,None,1.915268000040669,,,,,,,,,37,001,2019_Dec_25_1518,untitled,3.1.0,59.94998972162162,
163,F,N,90,L,N,163FN090LN,HLN,0,266,266,218,,,1.063,1010.9008030000259,1011.2477400000207,1011.2646741000353,1011.5478724000277,1011.5646815000218,None,up,1011.5646815000218,None,1011.5646815000218,1012.6137875000131,0.062247399997431785,None,1.983804500021506,,,,,,,,,37,001,2019_Dec_25_1518,untitled,3.1.0,59.94998972162162,
132,F,N,135,R,N,132FN135RN,HRN,0,267,267,211,,,0.9410000000000001,1013.6295608000364,1013.9620619000052,1013.9790192000219,1014.2630807000096,1014.2786601000116,None,down,1014.2786601000116,None,1014.2786601000116,1015.2108508000383,0.07258310000179335,None,2.399679499969352,,,,,,,,,37,001,2019_Dec_25_1518,untitled,3.1.0,59.94998972162162,
293,_2,N,180,L,N,293_2N180LN,HLN,0,268,268,252,,,0.992,1016.7583084999933,1017.0933283999912,1017.1092323000194,1017.3934072999982,1017.4091955000185,None,down,1017.4091955000185,None,1017.4091955000185,1018.3917830000282,0.07103360001929104,None,2.8660650000092573,,,,,,,,,37,001,2019_Dec_25_1518,untitled,3.1.0,59.94998972162162,
037,R,N,180,L,N,037RN180LN,HLN,0,269,269,204,,,1.225,1020.375643300009,1020.6893074000254,1020.7057608999894,1020.9891086000134,1021.0057598000276,None,down,1021.0057598000276,None,1021.0057598000276,1022.2212996000308,0.08705850003752857,None,2.1492193000158295,,,,,,,,,37,001,2019_Dec_25_1518,untitled,3.1.0,59.94998972162162,
463,_5,M,270,R,N,463_5M270RN,HRN,0,270,270,182,,,0.904,1023.2381491000415,1023.570596000005,1023.587322300009,1023.8701402000152,1023.8868502000114,None,up,1023.8868502000114,None,1023.8868502000114,1024.7694207000313,0.07507419999456033,None,1.8989584000082687,,,,,,,,,37,001,2019_Dec_25_1518,untitled,3.1.0,59.94998972162162,
143,F,M,270,R,N,143FM270RN,HRN,0,271,271,118,,,1.304,1025.8631047999952,1026.2018697999883,1026.2185315000243,1026.5017680000165,1026.5176896000048,None,up,1026.5176896000048,None,1026.5176896000048,1027.799647100037,0.070256800041534,None,2.0487669999711215,,,,,,,,,37,001,2019_Dec_25_1518,untitled,3.1.0,59.94998972162162,
488,_5,N,315,L,N,488_5N315LN,HLN,0,272,272,287,,,0.836,1028.6366334999911,1028.9820435000001,1028.9990767000127,1029.2815293000313,1029.299032800016,None,down,1029.299032800016,None,1029.299032800016,1030.1142369000008,0.06337089999578893,None,1.9349696999997832,,,,,,,,,37,001,2019_Dec_25_1518,untitled,3.1.0,59.94998972162162,
_,F,M,90,_,_,_FM090__,N,0,273,273,2,,,1.067,1031.3406995999976,1031.6471316000097,1031.6635438000085,1031.9463082000148,1031.9629939000006,None,down,1031.9629939000006,None,1031.9629939000006,1033.012314099993,0.07685939996736124,None,3.049512400000822,,,,,,,,,37,001,2019_Dec_25_1518,untitled,3.1.0,59.94998972162162,
461,_5,M,180,R,N,461_5M180RN,HRN,0,274,274,180,,,0.999,1035.0836760000093,1035.4265207999852,1035.4439181000344,1035.7269852000172,1035.743036800006,None,down,1035.743036800006,None,1035.743036800006,1036.7255279000383,0.06376140000065789,None,2.0678671000059694,,,,,,,,,37,001,2019_Dec_25_1518,untitled,3.1.0,59.94998972162162,
423,_4,N,270,L,N,423_4N270LN,HLN,0,275,275,270,,,1.208,1037.901104699995,1038.2241422000225,1038.241112800024,1038.5237929000286,1038.5401860999991,None,down,1038.5401860999991,None,1038.5401860999991,1039.739161000005,0.08133720001205802,None,2.9480276000103913,,,,,,,,,37,001,2019_Dec_25_1518,untitled,3.1.0,59.94998972162162,
299,_2,M,90,L,N,299_2M090LN,HLN,0,276,276,154,,,0.715,1041.5605491999886,1041.9046241000178,1041.920896800002,1042.2037166000227,1042.2202678000322,None,down,1042.2202678000322,None,1042.2202678000322,1042.9210240000393,0.06583430001046509,None,1.4526550999726169,,,,,,,,,37,001,2019_Dec_25_1518,untitled,3.1.0,59.94998972162162,
141,F,M,180,R,N,141FM180RN,HRN,0,277,277,116,,,1.283,1043.7525976999896,1044.0857823000406,1044.1023414999945,1044.3852893000003,1044.4038277000072,None,down,1044.4038277000072,None,1044.4038277000072,1045.6680426000385,0.0712632000213489,None,2.315009200014174,,,,,,,,,37,001,2019_Dec_25_1518,untitled,3.1.0,59.94998972162162,
_,F,M,45,_,_,_FM045__,N,0,278,278,1,,,1.127,1046.7866848999984,1047.1327333000372,1047.14948870003,1047.432831300015,1047.4496780000045,None,down,1047.4496780000045,None,1047.4496780000045,1048.5651027000276,0.06103719997918233,None,2.0006082999752834,,,,,,,,,37,001,2019_Dec_25_1518,untitled,3.1.0,59.94998972162162,
492,_5,M,135,L,N,492_5M135LN,HLN,0,279,279,187,,,1.072,1049.5295822999906,1049.8644426999963,1049.881015699997,1050.1645153000136,1050.1811193000176,None,down,1050.1811193000176,None,1050.1811193000176,1051.2457925000344,0.07040189998224378,None,1.7330157000105828,,,,,,,,,37,001,2019_Dec_25_1518,untitled,3.1.0,59.94998972162162,
169,F,M,0,L,N,169FM000LN,HLN,0,280,280,120,,,1.346,1052.0210665999912,1052.3286282999907,1052.3463158000377,1052.6284284000285,1052.645051600004,None,up,1052.645051600004,None,1052.645051600004,1053.9765556000057,0.09602120000636205,None,2.116978599980939,,,,,,,,,37,001,2019_Dec_25_1518,untitled,3.1.0,59.94998972162162,
386,_4,N,45,R,N,386_4N045RN,HRN,0,281,281,257,,,0.992,1054.8428224000381,1055.1761177000008,1055.1928759000148,1055.4755526999943,1055.492521999986,None,down,1055.492521999986,None,1055.492521999986,1056.4752506000223,0.073756699974183,None,1.8987693000235595,,,,,,,,,37,001,2019_Dec_25_1518,untitled,3.1.0,59.94998972162162,
265,_2,M,0,R,N,265_2M000RN,HRN,0,282,282,144,,,0.769,1057.4672539000167,1057.807064499997,1057.8242492999998,1058.107421200024,1058.1242472000304,None,down,1058.1242472000304,None,1058.1242472000304,1058.8726526999963,0.06754050002200529,None,2.048110399977304,,,,,,,,,37,001,2019_Dec_25_1518,untitled,3.1.0,59.94998972162162,
398,_4,M,225,R,N,398_4M225RN,HRN,0,283,283,165,,,0.973,1060.2417172000278,1060.5887016000343,1060.605129600037,1060.8874241000158,1060.9044588000397,None,down,1060.9044588000397,None,1060.9044588000397,1061.8532572000404,0.06149690004531294,None,1.898966799955815,,,,,,,,,37,001,2019_Dec_25_1518,untitled,3.1.0,59.94998972162162,
_,F,N,225,_,_,_FN225__,N,0,284,284,53,,,1.343,1062.8901685000164,1063.2193957000272,1063.2358237000299,1063.5194167000009,1063.5350834000274,None,down,1063.5350834000274,None,1063.5350834000274,1064.8675562000135,0.07734999997774139,None,2.748927199980244,,,,,,,,,37,001,2019_Dec_25_1518,untitled,3.1.0,59.94998972162162,
419,_4,N,90,L,N,419_4N090LN,HLN,0,285,285,266,,,0.9540000000000001,1066.3563338000095,1066.6992150000297,1066.7158633000217,1066.9998087999993,1067.0158572000219,None,up,1067.0158572000219,None,1067.0158572000219,1067.9479382000281,0.0652233999571763,None,1.6155685000121593,,,,,,,,,37,001,2019_Dec_25_1518,untitled,3.1.0,59.94998972162162,
304,_2,M,315,L,N,304_2M315LN,HLN,0,286,286,159,,,1.201,1068.704782899993,1069.0473344000056,1069.0640172000276,1069.346886000014,1069.3643170000287,None,up,1069.3643170000287,None,1069.3643170000287,1070.5459284000099,0.06688410002971068,None,1.8143760000239126,,,,,,,,,37,001,2019_Dec_25_1518,untitled,3.1.0,59.94998972162162,
137,F,M,0,R,N,137FM000RN,HRN,0,287,287,112,,,1.331,1071.2487752999878,1071.5947919000173,1071.6115199000342,1071.8964329999872,1071.9114921999862,None,down,1071.9114921999862,None,1071.9114921999862,1073.2264074000414,0.06329469999764115,None,2.0479220999986865,,,,,,,,,37,001,2019_Dec_25_1518,untitled,3.1.0,59.94998972162162,
,,,,,,,,,,,,,,,,,,,,,,,,,,,,,1073.975763000024,None,1078.122903200041,None,1080.8365357000148,None,1082.6516772999894,None,,,,,,,
