Number,Letter,type,Orientation,human,face_type,image,picture,trials.thisRepN,trials.thisTrialN,trials.thisN,trials.thisIndex,text.started,text.stopped,stimulus_duration,CROSS.started,CROSS.stopped,BLANK.started,BLANK.stopped,TEST.started,TEST.stopped,key_JUDGE.keys,key_JUDGE.started,key_JUDGE.stopped,image_2.started,image_2.stopped,ISI.started,ISI.stopped,key_JUDGE.rt,q1.started,q1.stopped,q2.started,q2.stopped,q3.started,q3.stopped,text_2.started,text_2.stopped,participant,session,date,expName,psychopyVersion,frameRate,
489,_5,M,0,L,N,489_5M000LN,HLN,0,0,0,184,25.484421080094762,None,1.18,56.017105128990806,56.317043286071566,56.317043286071566,56.467034545959905,56.500393305075704,None,None,56.500393305075704,None,56.500393305075704,57.65030577152356,0.25125109416694613,None,,,,,,,,,,38,001,2019_Dec_25_1526,untitled,3.1.0,59.99201577755812,
422,_4,N,225,L,N,422_4N225LN,HLN,0,1,1,269,,,1.381,60.03363420509413,60.366917216568254,60.383582029269746,60.6669404573222,60.7002800146729,60.03363420509413,up,60.7002800146729,None,60.7002800146729,62.05022916310918,0.05783968249306781,None,2.633419807476457,,,,,,,,,38,001,2019_Dec_25_1526,untitled,3.1.0,59.99201577755812,
464,_5,M,315,R,N,464_5M315RN,HRN,0,2,2,183,,,0.977,63.400212411226676,63.75022181346867,63.766865106954356,64.05019208384329,64.08351045304516,None,up,64.08351045304516,None,64.08351045304516,65.03349548891129,0.056136684768716805,None,2.7334795315837255,,,,,,,,,38,001,2019_Dec_25_1526,untitled,3.1.0,59.99201577755812,
_,F,M,225,_,_,_FM225__,N,0,3,3,5,,,1.116,66.88347046040508,67.23345602597692,67.25012017655172,67.53338954815263,67.56674168596874,None,None,67.56674168596874,None,67.56674168596874,68.6500773367552,0.05710240101325326,None,,,,,,,,,,38,001,2019_Dec_25_1526,untitled,3.1.0,59.99201577755812,
005,R,N,180,R,N,005RN180RN,HRN,0,4,4,196,,,1.104,71.1000391980815,71.43335928882152,71.45002476365335,71.73334743669693,71.76666845442014,71.1000391980815,up,71.76666845442014,None,71.76666845442014,72.84997000552539,0.05810354120330885,None,2.166995745152235,,,,,,,,,38,001,2019_Dec_25_1526,untitled,3.1.0,59.99201577755812,
457,_5,M,0,R,N,457_5M000RN,HRN,0,5,5,176,,,1.264,73.99997450800583,74.34992597389646,74.36658979340427,74.64993795844202,74.68325996935891,None,down,74.68325996935891,None,74.68325996935891,75.93325500338688,0.05707359837106196,None,2.516801542496978,,,,,,,,,38,001,2019_Dec_25_1526,untitled,3.1.0,59.99201577755812,
137,F,M,0,R,N,137FM000RN,HRN,0,6,6,112,,,1.116,77.26654993319244,77.61655105881437,77.63321554045251,77.91654086201379,77.94987843297713,None,up,77.94987843297713,None,77.94987843297713,79.03318461899107,0.0548058039676107,None,2.8668006817279093,,,,,,,,,38,001,2019_Dec_25_1526,untitled,3.1.0,59.99201577755812,
202,G,M,45,R,N,202GM045RN,HRN,0,7,7,129,,,0.845,80.88314965854079,81.23313853476066,81.24982321135758,81.53312701370305,81.56645862550067,None,down,81.56645862550067,None,81.56645862550067,82.38310595797884,0.05791053037683014,None,2.5168127987017215,,,,,,,,,38,001,2019_Dec_25_1526,untitled,3.1.0,59.99201577755812,
033,R,N,0,L,N,033RN000LN,HLN,0,8,8,200,,,0.9,84.16636241804736,84.49969839989717,84.51636553005665,84.79968356819154,84.83303636814162,None,up,84.83303636814162,None,84.83303636814162,85.7163230875376,0.07078465024460456,None,1.8168247832509223,,,,,,,,,38,001,2019_Dec_25_1526,untitled,3.1.0,59.99201577755812,
_,_4,M,225,_,_,__4M225__,N,0,9,9,37,,,1.235,86.71634990379243,87.06631428121182,87.0829939918367,87.366324610437,87.39966284353068,None,None,87.39966284353068,None,87.39966284353068,88.61629547672783,0.0546227250888478,None,,,,,,,,,,38,001,2019_Dec_25_1526,untitled,3.1.0,59.99201577755812,
428,_4,M,135,L,N,428_4M135LN,HLN,0,10,10,171,,,0.917,90.91623893084761,91.26621224701739,91.28288500527924,91.5662305217993,91.59953101349674,90.91623893084761,up,91.59953101349674,None,91.59953101349674,92.48281938822038,0.05639822602097411,None,1.9835142933952739,,,,,,,,,38,001,2019_Dec_25_1526,untitled,3.1.0,59.99201577755812,
007,R,N,270,R,N,007RN270RN,HRN,0,11,11,198,,,1.389,93.64951386433677,93.99949016009123,94.01617285029715,94.29950015824943,94.33283441856474,None,up,94.33283441856474,None,94.33283441856474,95.68280144450546,0.058293903504818445,None,2.3334793329449894,,,,,,,,,38,001,2019_Dec_25_1526,untitled,3.1.0,59.99201577755812,
_,_5,M,270,_,_,__5M270__,N,0,12,12,46,,,0.803,96.73275913441103,97.08275761151526,97.09942772125578,97.38276330583176,97.4160988904041,None,down,97.4160988904041,None,97.4160988904041,98.19940666552793,0.05575629122540704,None,2.2501539451695862,,,,,,,,,38,001,2019_Dec_25_1526,untitled,3.1.0,59.99201577755812,
_,_4,M,90,_,_,__4M090__,N,0,13,13,34,,,0.971,99.74938355720224,100.08268577043418,100.09936117721372,100.38269510646569,100.41605221025748,None,None,100.41605221025748,None,100.41605221025748,101.36600546389673,0.05724409678441589,None,,,,,,,,,,38,001,2019_Dec_25_1526,untitled,3.1.0,59.99201577755812,
_,G,N,135,_,_,_GN135__,N,0,14,14,59,,,1.3900000000000001,103.9325792999698,104.28258042559173,104.2992720545517,104.58259108588027,104.61589654355339,103.9325792999698,up,104.61589654355339,None,104.61589654355339,105.9658751567622,0.05488095569307916,None,2.9668494806901435,,,,,,,,,38,001,2019_Dec_25_1526,untitled,3.1.0,59.99201577755812,
011,R,M,90,R,N,011RM090RN,HRN,0,15,15,98,,,1.32,107.6491791577464,107.99920478216882,108.01586396676794,108.29918498448751,108.33251527202447,None,down,108.33251527202447,None,108.33251527202447,109.61580715603486,0.05830184906517388,None,2.8834916485575377,,,,,,,,,38,001,2019_Dec_25_1526,untitled,3.1.0,59.99201577755812,
390,_4,N,225,R,N,390_4N225RN,HRN,0,16,16,261,,,0.965,111.29911744725177,111.63242363326572,111.64910698560197,111.93243263823024,111.96577087132391,None,up,111.96577087132391,None,111.96577087132391,112.9157112134344,0.05906627786316676,None,2.1501332867192104,,,,,,,,,38,001,2019_Dec_25_1526,untitled,3.1.0,59.99201577755812,
_,G,N,90,_,_,_GN090__,N,0,17,17,58,,,0.798,114.19902792730863,114.5323801313425,114.54904858575901,114.8323560298195,114.86567804073275,None,up,114.86567804073275,None,114.86567804073275,115.64900766613937,0.06497611698068795,None,2.083499858967116,,,,,,,,,38,001,2019_Dec_25_1526,untitled,3.1.0,59.99201577755812,
165,F,N,180,L,N,165FN180LN,HLN,0,18,18,220,,,0.924,117.01564778140164,117.36564460318186,117.38231140227435,117.66563771703295,117.69899184124006,None,up,117.69899184124006,None,117.69899184124006,118.58228286448139,0.056975603165483335,None,1.9001375905609166,,,,,,,,,38,001,2019_Dec_25_1526,untitled,3.1.0,59.99201577755812,
482,_5,N,45,L,N,482_5N045LN,HLN,0,19,19,281,,,1.195,119.71559606906885,120.01559116931094,120.03225664414276,120.31555183880118,120.34889139615552,None,up,120.34889139615552,None,120.34889139615552,121.5321901001007,0.09338280766678508,None,2.0668340530683054,,,,,,,,,38,001,2019_Dec_25_1526,untitled,3.1.0,59.99201577755812,
176,F,M,315,L,N,176FM315LN,HLN,0,20,20,127,,,1.062,122.49886577173311,122.83216897816237,122.84881955507808,123.13221208281175,123.1654933727441,None,down,123.1654933727441,None,123.1654933727441,124.21546331205536,0.05939469422082766,None,2.533475956079201,,,,,,,,,38,001,2019_Dec_25_1526,untitled,3.1.0,59.99201577755812,
263,_2,N,270,R,N,263_2N270RN,HRN,0,21,21,246,,,1.124,125.78212454925597,126.11542113438918,126.1321058109861,126.41542186273,126.44874288045321,None,up,126.44874288045321,None,126.44874288045321,127.53207190993999,0.05889511732311803,None,2.2835143596057605,,,,,,,,,38,001,2019_Dec_25_1526,untitled,3.1.0,59.99201577755812,
462,_5,M,225,R,N,462_5M225RN,HRN,0,22,22,181,,,0.9450000000000001,128.7986880561075,129.14871500479057,129.1653801485554,129.44870513905698,129.48203046061826,None,down,129.48203046061826,None,129.48203046061826,130.3986858710814,0.05784795911677065,None,2.800170895690826,,,,,,,,,38,001,2019_Dec_25_1526,untitled,3.1.0,59.99201577755812,
_,R,N,135,_,_,_RN135__,N,0,23,23,67,,,1.348,132.34864806347105,132.6986332979759,132.7152991038747,132.998628398218,133.03196464492066,None,up,133.03196464492066,None,133.03196464492066,134.3485924445704,0.05722853673432837,None,2.183519855283521,,,,,,,,,38,001,2019_Dec_25_1526,untitled,3.1.0,59.99201577755812,
225,G,N,0,L,N,225GN000LN,HLN,0,24,24,232,,,0.991,135.28190538430863,135.631866120013,135.64855344512762,135.9318645309031,135.9652524237281,None,up,135.9652524237281,None,135.9652524237281,136.91514343717063,0.05718682255974272,None,1.9667981656384654,,,,,,,,,38,001,2019_Dec_25_1526,untitled,3.1.0,59.99201577755812,
424,_4,N,315,L,N,424_4N315LN,HLN,0,25,25,271,,,0.771,137.99851682935332,138.34851166474255,138.36517680851102,138.64849881942428,138.6818320865459,None,up,138.6818320865459,None,138.6818320865459,139.43181222265048,0.057481801362882834,None,1.7168282925376843,,,,,,,,,38,001,2019_Dec_25_1526,untitled,3.1.0,59.99201577755812,
_,G,M,270,_,_,_GM270__,N,0,26,26,14,,,0.875,140.4651219841653,140.81511847487855,140.83176805859694,141.11511026446897,141.14842863367085,None,down,141.14842863367085,None,141.14842863367085,141.99842280692974,0.05610490254184697,None,2.033492178259621,,,,,,,,,38,001,2019_Dec_25_1526,untitled,3.1.0,59.99201577755812,
_,_2,N,315,_,_,__2N315__,N,0,27,27,79,,,1.161,143.24837480252245,143.5983865222188,143.61504537575456,143.89836043430478,143.93169072184173,None,up,143.93169072184173,None,143.93169072184173,145.08168661663876,0.056448878945957404,None,2.31684133649469,,,,,,,,,38,001,2019_Dec_25_1526,untitled,3.1.0,59.99201577755812,
130,F,N,45,R,N,130FN045RN,HRN,0,28,28,209,,,0.9470000000000001,146.31500558175685,146.6649537369958,146.68160894881657,146.96498260585213,146.99831256232574,None,up,146.99831256232574,None,146.99831256232574,147.9149365216217,0.057476504323858535,None,1.816827100705268,,,,,,,,,38,001,2019_Dec_25_1526,untitled,3.1.0,59.99201577755812,
172,F,M,135,L,N,172FM135LN,HLN,0,29,29,123,,,1.284,148.89826972252922,149.23159312391726,149.24825528810106,149.53158723096203,149.56492049808367,None,down,149.56492049808367,None,149.56492049808367,150.8148566025593,0.059242073315544985,None,2.2001691079385637,,,,,,,,,38,001,2019_Dec_25_1526,untitled,3.1.0,59.99201577755812,
164,F,N,135,L,N,164FN135LN,HLN,0,30,30,219,,,1.169,151.83152869869082,152.18152783792175,152.1982042378986,152.48152128283982,152.5148360103267,None,up,152.5148360103267,None,152.5148360103267,153.6648074063196,0.05605027683486696,None,2.7335096584865823,,,,,,,,,38,001,2019_Dec_25_1526,untitled,3.1.0,59.99201577755812,
_,R,M,180,_,_,_RM180__,N,0,31,31,20,,,1.062,155.31479767301425,155.66474814570756,155.68141130308504,155.96475748173543,155.99809240418108,None,up,155.99809240418108,None,155.99809240418108,157.04807558608445,0.05741956116617075,None,2.016956811923592,,,,,,,,,38,001,2019_Dec_25_1526,untitled,3.1.0,59.99201577755812,
290,_2,N,45,L,N,290_2N045LN,HLN,0,32,32,249,,,1.274,158.09807499016824,158.43135866376906,158.44804267823565,158.73136369595522,158.7646602148743,None,up,158.7646602148743,None,158.7646602148743,160.0146903417808,0.058775933968718164,None,2.1835347532069136,,,,,,,,,38,001,2019_Dec_25_1526,untitled,3.1.0,59.99201577755812,
385,_4,N,0,R,N,385_4N000RN,HRN,0,33,33,256,,,1.061,161.0313336352665,161.36465604345722,161.38129304671384,161.66464154281857,161.69797646526058,None,up,161.69797646526058,None,161.69797646526058,162.7479576607766,0.05791483422217425,None,1.983490125658136,,,,,,,,,38,001,2019_Dec_25_1526,untitled,3.1.0,59.99201577755812,
398,_4,M,225,R,N,398_4M225RN,HRN,0,34,34,165,,,0.775,163.74793018239143,164.09792236925932,164.11457824321405,164.39792773251247,164.43125239194706,None,down,164.43125239194706,None,164.43125239194706,165.18122623781892,0.0564591419606586,None,3.016798231848952,,,,,,,,,38,001,2019_Dec_25_1526,untitled,3.1.0,59.99201577755812,
_,_4,N,135,_,_,__4N135__,N,0,35,35,83,,,0.74,167.5311753862552,167.86450772639364,167.88117485654948,168.16450150237506,168.19783642481707,None,up,168.19783642481707,None,168.19783642481707,168.91445879500316,0.06401304925020668,None,3.0668006155174226,,,,,,,,,38,001,2019_Dec_25_1526,untitled,3.1.0,59.99201577755812,
389,_4,N,180,R,N,389_4N180RN,HRN,0,36,36,260,,,0.994,171.34778795692182,171.6810901701574,171.697772198233,171.98107268993044,172.01441853751749,None,up,172.01441853751749,None,172.01441853751749,172.99772723962087,0.058999402757763164,None,2.3501421592554834,,,,,,,,,38,001,2019_Dec_25_1526,untitled,3.1.0,59.99201577755812,
231,G,N,270,L,N,231GN270LN,HLN,0,37,37,238,,,0.926,174.43101634268896,174.78098601714373,174.79768923337542,175.08099336678424,175.11432696496922,None,up,175.11432696496922,None,175.11432696496922,175.99763851423631,0.05632737814084976,None,2.733511975940928,,,,,,,,,38,001,2019_Dec_25_1526,untitled,3.1.0,59.99201577755812,
045,R,M,180,L,N,045RM180LN,HLN,0,38,38,108,,,1.284,177.91425816969058,178.26426690980225,178.2809376816731,178.56425108490293,178.59760322271904,None,up,178.59760322271904,None,178.59760322271904,179.84757375794652,0.0562254101569124,None,2.3502421408520604,,,,,,,,,38,001,2019_Dec_25_1526,untitled,3.1.0,59.99201577755812,
136,F,N,315,R,N,136FN315RN,HRN,0,39,39,215,,,0.718,181.0141997036335,181.3641892419837,181.38083882570209,181.6642008954659,181.69750271142402,None,up,181.69750271142402,None,181.69750271142402,182.38084975084348,0.057981709327577846,None,2.433493039032328,,,,,,,,,38,001,2019_Dec_25_1526,untitled,3.1.0,59.99201577755812,
141,F,M,180,R,N,141FM180RN,HRN,0,40,40,116,,,1.098,184.21411918865488,184.54744225897593,184.56414084029893,184.84744563583808,184.88077956509005,None,up,184.88077956509005,None,184.88077956509005,185.96410197328078,0.0603991450589092,None,2.6001441456501198,,,,,,,,,38,001,2019_Dec_25_1526,untitled,3.1.0,59.99201577755812,
_,_4,N,0,_,_,__4N000__,N,0,41,41,80,,,1.07,187.5640514527804,187.89738577930984,187.91402609321085,188.19735307009978,188.23070090407418,None,up,188.23070090407418,None,188.23070090407418,189.28069600431263,0.05693355792755028,None,2.1501617582980543,,,,,,,,,38,001,2019_Dec_25_1526,untitled,3.1.0,59.99201577755812,
174,F,M,225,L,N,174FM225LN,HLN,0,42,42,125,,,0.9550000000000001,190.44734313815206,190.7973025495994,190.81399881346442,191.09730559539457,191.13065342936898,None,down,191.13065342936898,None,191.13065342936898,192.04727970612294,0.05655779929293203,None,3.0835399178176885,,,,,,,,,38,001,2019_Dec_25_1526,untitled,3.1.0,59.99201577755812,
296,_2,N,315,L,N,296_2N315LN,HLN,0,43,43,255,,,0.737,194.29723070852197,194.6305683456958,194.64722190219618,194.93056642551892,194.96389042282317,None,up,194.96389042282317,None,194.96389042282317,195.68055483825083,0.06921275420609163,None,3.4334937011590227,,,,,,,,,38,001,2019_Dec_25_1526,untitled,3.1.0,59.99201577755812,
_,_5,M,45,_,_,__5M045__,N,0,44,44,41,,,1.363,198.46383281753515,198.81381672778298,198.83050173544325,199.11380884844039,199.1471437708824,None,down,199.1471437708824,None,199.1471437708824,200.49711245214712,0.056849136384698795,None,2.8001510317990324,,,,,,,,,38,001,2019_Dec_25_1526,untitled,3.1.0,59.99201577755812,
393,_4,M,0,R,N,393_4M000RN,HRN,0,45,45,160,,,0.884,202.01376071160485,202.3637135017525,202.38036838250991,202.66374038422146,202.69706206407136,None,down,202.69706206407136,None,202.69706206407136,203.5470476296432,0.056575676793727325,None,3.2001293801549764,,,,,,,,,38,001,2019_Dec_25_1526,untitled,3.1.0,59.99201577755812,
294,_2,N,225,L,N,294_2N225LN,HLN,0,46,46,253,,,1.042,205.96365602889273,206.31364821576062,206.33031534591646,206.61361649974424,206.64696036094028,None,up,206.64696036094028,None,206.64696036094028,207.66361126891934,0.05536993851274019,None,2.916659714304842,,,,,,,,,38,001,2019_Dec_25_1526,untitled,3.1.0,59.99201577755812,
207,G,M,270,R,N,207GM270RN,HRN,0,47,47,134,,,0.914,209.64691202546965,209.9802334404667,209.9969118268309,210.28021496704605,210.31355022055868,None,down,210.31355022055868,None,210.31355022055868,211.19684256805704,0.058808378325920785,None,2.5167985629122995,,,,,,,,,38,001,2019_Dec_25_1526,untitled,3.1.0,59.99201577755812,
431,_4,M,270,L,N,431_4M270LN,HLN,0,48,48,174,,,1.288,212.91348314681454,213.24683170912976,213.26349254905654,213.54682118126584,213.5801769608006,None,down,213.5801769608006,None,213.5801769608006,214.8301028022688,0.05943806371942628,None,3.3167718128715933,,,,,,,,,38,001,2019_Dec_25_1526,untitled,3.1.0,59.99201577755812,
004,R,N,135,R,N,004RN135RN,HRN,0,49,49,195,,,1.358,216.9634087234299,217.31337806682131,217.33005943276657,217.6133953484059,217.64672927765787,None,up,217.64672927765787,None,217.64672927765787,218.9633723062907,0.056415441395074595,None,3.3001450726260373,,,,,,,,,38,001,2019_Dec_25_1526,untitled,3.1.0,59.99201577755812,
229,G,N,180,L,N,229GN180LN,HLN,0,50,50,236,,,1.099,221.01335615032804,221.3633039745,221.3799790502162,221.66331496585553,221.6966359835751,None,up,221.6966359835751,None,221.6966359835751,222.77994746662807,0.05692296385313966,None,3.4001620893614017,,,,,,,,,38,001,2019_Dec_25_1526,untitled,3.1.0,59.99201577755812,
388,_4,N,135,R,N,388_4N135RN,HRN,0,51,51,259,,,1.07,225.163225909404,225.51319425960173,225.52986801105726,225.81319432581586,225.84652792400084,None,None,225.84652792400084,None,225.84652792400084,226.8964876002974,0.058339921524748206,None,,,,,,,,,,38,001,2019_Dec_25_1526,untitled,3.1.0,59.99201577755812,
046,R,M,225,L,N,046RM225LN,HLN,0,52,52,109,,,0.907,229.37978868791106,229.71310348161205,229.7297636594085,230.0131095069919,230.04640403952362,229.37978868791106,up,230.04640403952362,None,230.04640403952362,230.92974670888725,0.058754414749273565,None,2.5168416013475507,,,,,,,,,38,001,2019_Dec_25_1526,untitled,3.1.0,59.99201577755812,
228,G,N,135,L,N,228GN135LN,HLN,0,53,53,235,,,1.018,232.64637437610872,232.97975405852412,232.99638742006573,233.279713072694,233.31306156879873,None,up,233.31306156879873,None,233.31306156879873,234.29634577210527,0.05765991426596884,None,2.816800284450437,,,,,,,,,38,001,2019_Dec_25_1526,untitled,3.1.0,59.99201577755812,
196,G,N,135,R,N,196GN135RN,HRN,0,54,54,227,,,0.969,236.19630955360844,236.54631233455075,236.56297383660785,236.84628723983406,236.87962878357575,None,up,236.87962878357575,None,236.87962878357575,237.82961083986083,0.05525406581000425,None,2.0167926037465804,,,,,,,,,38,001,2019_Dec_25_1526,untitled,3.1.0,59.99201577755812,
_,R,N,0,_,_,_RN000__,N,0,55,55,64,,,1.186,238.9629131193069,239.3128602813522,239.32956846355592,239.6129040481319,239.6462363220562,None,up,239.6462363220562,None,239.6462363220562,240.796189178418,0.05709213800582802,None,1.9675275015579246,,,,,,,,,38,001,2019_Dec_25_1526,untitled,3.1.0,59.99201577755812,
034,R,N,45,L,N,034RN045LN,HLN,0,56,56,201,,,0.979,241.6961731548763,242.02951642015614,242.04618487457265,242.3295108582679,242.36284280112886,None,up,242.36284280112886,None,242.36284280112886,243.3128222088926,0.05778803637440433,None,1.7834799288575596,,,,,,,,,38,001,2019_Dec_25_1526,untitled,3.1.0,59.99201577755812,
265,_2,M,0,R,N,265_2M000RN,HRN,0,57,57,144,,,0.975,244.22944020902287,244.56276791425262,244.57947907604103,244.86278618903452,244.89615653542205,None,down,244.89615653542205,None,244.89615653542205,245.84609919498325,0.05886697680762154,None,2.4001240169018274,,,,,,,,,38,001,2019_Dec_25_1526,untitled,3.1.0,59.99201577755812,
485,_5,N,180,L,N,485_5N180LN,HLN,0,58,58,284,,,0.771,247.36272560416182,247.7127244123294,247.72938856290057,248.01271520872615,248.04604913797448,None,up,248.04604913797448,None,248.04604913797448,248.79602165958931,0.05517957620759262,None,3.433439406519028,,,,,,,,,38,001,2019_Dec_25_1526,untitled,3.1.0,59.99201577755812,
_,_5,N,90,_,_,__5N090__,N,0,59,59,90,,,0.727,251.54595842619892,251.8959578964932,251.9126309858184,252.19595498312265,252.229298182192,None,up,252.229298182192,None,252.229298182192,252.91257768437572,0.057119616387353744,None,2.950117130752915,,,,,,,,,38,001,2019_Dec_25_1526,untitled,3.1.0,59.99201577755812,
299,_2,M,90,L,N,299_2M090LN,HLN,0,60,60,154,,,0.7000000000000001,255.24583685917605,255.59586844276419,255.61253292440233,255.89587479921101,255.92920243822664,None,down,255.92920243822664,None,255.92920243822664,256.612534248663,0.05722919886102318,None,2.266816440416733,,,,,,,,,38,001,2019_Dec_25_1526,untitled,3.1.0,59.99201577755812,
292,_2,N,135,L,N,292_2N135LN,HLN,0,61,61,251,,,0.86,258.2791575458323,258.6124710152726,258.62911199130394,258.9124773717158,258.9457973962417,None,up,258.9457973962417,None,258.9457973962417,259.7624271822824,0.05799859363833093,None,2.550126532994909,,,,,,,,,38,001,2019_Dec_25_1526,untitled,3.1.0,59.99201577755812,
270,_2,M,225,R,N,270_2M225RN,HRN,0,62,62,149,,,0.746,261.56237460918055,261.9124061927687,261.92905974926543,262.21240129300713,262.2457133719763,None,down,262.2457133719763,None,262.2457133719763,262.962382753376,0.057591052773204865,None,1.9000273459605523,,,,,,,,,38,001,2019_Dec_25_1526,untitled,3.1.0,59.99201577755812,
001,R,N,0,R,N,001RN000RN,HRN,0,63,63,192,,,1.174,264.2123529575365,264.5623083962055,264.5789550003392,264.86231938755736,264.89568576116653,None,up,264.89568576116653,None,264.89568576116653,266.04561378766084,0.05855047878503683,None,1.9334841002782923,,,,,,,,,38,001,2019_Dec_25_1526,untitled,3.1.0,59.99201577755812,
_,_4,N,225,_,_,__4N225__,N,0,64,64,85,,,0.804,266.9122985966824,267.2456219980704,267.26228581757823,267.54557207348626,267.57891096871026,None,up,267.57891096871026,None,267.57891096871026,268.36226178226934,0.0580399767459312,None,2.050176854856545,,,,,,,,,38,001,2019_Dec_25_1526,untitled,3.1.0,59.99201577755812,
238,G,M,225,L,N,238GM225LN,HLN,0,65,65,141,,,1.084,269.71223675376314,270.0455565134398,270.06222529891966,270.3455367157585,270.3788636926474,None,down,270.3788636926474,None,270.3788636926474,271.4288637588579,0.058714355902338866,None,2.7834931714569393,,,,,,,,,38,001,2019_Dec_25_1526,untitled,3.1.0,59.99201577755812,
_,_2,M,315,_,_,__2M315__,N,0,66,66,31,,,1.3860000000000001,273.2288138342774,273.578811980311,273.5954777862098,273.87882197847284,273.91215061068215,None,down,273.91215061068215,None,273.91215061068215,275.26212856176426,0.056147609910112806,None,2.950121434598259,,,,,,,,,38,001,2019_Dec_25_1526,untitled,3.1.0,59.99201577755812,
_,F,M,90,_,_,_FM090__,N,0,67,67,2,,,0.883,276.9287356367531,277.2787043180142,277.2953711171067,277.5787325247438,277.6120624812138,None,down,277.6120624812138,None,277.6120624812138,278.4620384459049,0.05773970090376679,None,2.033486219093902,,,,,,,,,38,001,2019_Dec_25_1526,untitled,3.1.0,59.99201577755812,
200,G,N,315,R,N,200GN315RN,HRN,0,68,68,231,,,1.3820000000000001,279.7286814083236,280.06201374846205,280.0786745883888,280.3619621685575,280.3953000705842,None,up,280.3953000705842,None,280.3953000705842,281.7452975544911,0.05950162817680393,None,2.5835005210938107,,,,,,,,,38,001,2019_Dec_25_1526,untitled,3.1.0,59.99201577755812,
134,F,N,225,R,N,134FN225RN,HRN,0,69,69,213,,,1.006,283.0619376035429,283.3952649777093,283.41192647976277,283.695243193637,283.72855030663413,None,up,283.72855030663413,None,283.72855030663413,284.7119093306028,0.05886730787460692,None,2.883614473626949,,,,,,,,,38,001,2019_Dec_25_1526,untitled,3.1.0,59.99201577755812,
300,_2,M,135,L,N,300_2M135LN,HLN,0,70,70,155,,,1.276,286.6785257416195,287.0284841598732,287.04515658706805,287.32854050711467,287.36183801922743,None,down,287.36183801922743,None,287.36183801922743,288.6117992846375,0.05689813398566912,None,2.4501495751101174,,,,,,,,,38,001,2019_Dec_25_1526,untitled,3.1.0,59.99201577755812,
037,R,N,180,L,N,037RN180LN,HLN,0,71,71,204,,,1.173,289.87844919941926,290.22841357683865,290.2450787206071,290.528400731524,290.5617313501243,None,up,290.5617313501243,None,290.5617313501243,291.7117447913588,0.058258810629922664,None,2.2672978087466618,,,,,,,,,38,001,2019_Dec_25_1526,untitled,3.1.0,59.99201577755812,
230,G,N,225,L,N,230GN225LN,HLN,0,72,72,237,,,1.158,292.9117311514856,293.2450151561534,293.26167963779153,293.545034093062,293.57836769124697,None,up,293.57836769124697,None,293.57836769124697,294.69498794261744,0.060058148235839326,None,3.016786313513876,,,,,,,,,38,001,2019_Dec_25_1526,untitled,3.1.0,59.99201577755812,
460,_5,M,135,R,N,460_5M135RN,HRN,0,73,73,179,,,1.284,296.6782999553725,297.01162335676054,297.02828883159236,297.31162905107703,297.34495073092694,None,None,297.34495073092694,None,297.34495073092694,298.5949239146721,0.058737199378811056,None,,,,,,,,,,38,001,2019_Dec_25_1526,untitled,3.1.0,59.99201577755812,
_,_2,N,0,_,_,__2N000__,N,0,74,74,72,,,1.08,300.86154602000533,301.21152099150277,301.2281861352676,301.51152205091057,301.54485531802857,300.86154602000533,up,301.54485531802857,None,301.54485531802857,302.5948308854422,0.05628665715630632,None,1.8835181337453832,,,,,,,,,38,001,2019_Dec_25_1526,untitled,3.1.0,59.99201577755812,
298,_2,M,45,L,N,298_2M045LN,HLN,0,75,75,153,,,1.36,303.5114677562706,303.84477725293254,303.8614460384124,304.14479718303846,304.1781579285416,None,None,304.1781579285416,None,304.1781579285416,305.4947340820727,0.058782886328117456,None,,,,,,,,,,38,001,2019_Dec_25_1526,untitled,3.1.0,59.99201577755812,
014,R,M,225,R,N,014RM225RN,HRN,0,76,76,101,,,1.311,307.7113749918899,308.04471825716973,308.06137479325116,308.3447285863949,308.37803801684277,307.7113749918899,down,308.37803801684277,None,308.37803801684277,309.6613179825181,0.06044814265987952,None,3.033461058163084,,,,,,,,,38,001,2019_Dec_25_1526,untitled,3.1.0,59.99201577755812,
170,F,M,45,L,N,170FM045LN,HLN,0,77,77,121,,,1.099,311.4946364179341,311.82793333413065,311.84458556636673,312.12795326423657,312.1612905041329,None,down,312.1612905041329,None,312.1612905041329,313.2445937105622,0.059108654168085195,None,2.1668610017477477,,,,,,,,,38,001,2019_Dec_25_1526,untitled,3.1.0,59.99201577755812,
396,_4,M,135,R,N,396_4M135RN,HRN,0,78,78,163,,,1.314,314.39457040359775,314.744562921529,314.76122640997346,315.0445414685273,315.07788632291704,None,down,315.07788632291704,None,315.07788632291704,316.3611914495232,0.05835647476851591,None,3.0167899552252493,,,,,,,,,38,001,2019_Dec_25_1526,untitled,3.1.0,59.99201577755812,
_,G,M,135,_,_,_GM135__,N,0,79,79,11,,,1.09,318.1611488083654,318.5111347050042,318.52779190321235,318.81112550140097,318.84445082296224,None,down,318.84445082296224,None,318.84445082296224,319.8944373155173,0.0578439863420499,None,3.383442982019915,,,,,,,,,38,001,2019_Dec_25_1526,untitled,3.1.0,59.99201577755812,
138,F,M,45,R,N,138FM045RN,HRN,0,80,80,113,,,0.876,322.3110602816196,322.644387324719,322.66105081316346,322.9443589193543,322.9777100639767,None,down,322.9777100639767,None,322.9777100639767,323.8277048993659,0.06006708698623697,None,3.1167841284841415,,,,,,,,,38,001,2019_Dec_25_1526,untitled,3.1.0,59.99201577755812,
_,_4,M,45,_,_,__4M045__,N,0,81,81,33,,,1.274,326.17762623835006,326.51090660130285,326.5276071690132,326.8109334837718,326.8442803245525,None,up,326.8442803245525,None,326.8442803245525,328.0942541704244,0.058187631682812935,None,3.233473903477716,,,,,,,,,38,001,2019_Dec_25_1526,untitled,3.1.0,59.99201577755812,
_,_2,N,225,_,_,__2N225__,N,0,82,82,77,,,0.916,330.1442108671399,330.4942093442405,330.5108807782417,330.79420179596127,330.82753539414625,None,down,330.82753539414625,None,330.82753539414625,331.7108505851247,0.05642173162777908,None,2.2169696572418616,,,,,,,,,38,001,2019_Dec_25_1526,untitled,3.1.0,59.99201577755812,
_,_5,M,225,_,_,__5M225__,N,0,83,83,45,,,0.799,333.1108163530189,333.46080423604144,333.4774750079123,333.7608033090619,333.7941292927535,None,up,333.7941292927535,None,333.7941292927535,334.5774519657971,0.05783438545768149,None,3.266803859951324,,,,,,,,,38,001,2019_Dec_25_1526,untitled,3.1.0,59.99201577755812,
_,_4,N,270,_,_,__4N270__,N,0,84,84,86,,,1.228,337.144061887946,337.4773531760402,337.4940385147638,337.77737906531183,337.8107163052118,None,up,337.8107163052118,None,337.8107163052118,339.02735291118734,0.05873753044215846,None,2.5334925093266065,,,,,,,,,38,001,2019_Dec_25_1526,untitled,3.1.0,59.99201577755812,
195,G,N,90,R,N,195GN090RN,HRN,0,85,85,226,,,1.008,340.4273024569011,340.76064737750494,340.77733768220423,341.0606196342669,341.09393568601445,None,up,341.09393568601445,None,341.09393568601445,342.0772619345589,0.05943673946239869,None,2.816838687976997,,,,,,,,,38,001,2019_Dec_25_1526,untitled,3.1.0,59.99201577755812,
304,_2,M,315,L,N,304_2M315LN,HLN,0,86,86,159,,,0.907,343.9772200879597,344.3272043292709,344.3438711283634,344.627202740161,344.66052144042624,None,up,344.66052144042624,None,344.66052144042624,345.5438472254791,0.05754304836591473,None,2.650162420428387,,,,,,,,,38,001,2019_Dec_25_1526,untitled,3.1.0,59.99201577755812,
_,G,M,0,_,_,_GM000__,N,0,87,87,8,,,0.97,347.3771557289474,347.72713202470186,347.74380312763606,348.027130104525,348.0604507911812,None,down,348.0604507911812,None,348.0604507911812,349.0104642986262,0.05760528856262681,None,2.4668597437012068,,,,,,,,,38,001,2019_Dec_25_1526,untitled,3.1.0,59.99201577755812,
193,G,N,0,R,N,193GN000RN,HRN,0,88,88,224,,,1.113,350.6104194062318,350.9437510842399,350.96041854546274,351.24371374012117,351.2770585945109,None,up,351.2770585945109,None,351.2770585945109,352.3603896103923,0.059883014913793886,None,2.116871198548324,,,,,,,,,38,001,2019_Dec_25_1526,untitled,3.1.0,59.99201577755812,
_,F,M,270,_,_,_FM270__,N,0,89,89,6,,,0.929,353.4770330363026,353.81032862824213,353.82697986728454,354.11034822728107,354.143680501209,None,down,354.143680501209,None,354.143680501209,355.06030214305065,0.057340436662343564,None,2.266803859951324,,,,,,,,,38,001,2019_Dec_25_1526,untitled,3.1.0,59.99201577755812,
491,_5,M,90,L,N,491_5M090LN,HLN,0,90,90,186,,,1.066,356.4769489458231,356.82694742292733,356.84361024924146,357.12694815126815,357.16026354088535,None,down,357.16026354088535,None,357.16026354088535,358.21023844616866,0.057918144870200194,None,3.1168142553906364,,,,,,,,,38,001,2019_Dec_25_1526,untitled,3.1.0,59.99201577755812,
201,G,M,0,R,N,201GM000RN,HRN,0,91,91,128,,,0.893,360.3435420498754,360.69350775155544,360.710183158335,360.9935607881489,361.02686293517036,None,down,361.02686293517036,None,361.02686293517036,361.8768004963349,0.05840348598212586,None,2.633476750637783,,,,,,,,,38,001,2019_Dec_25_1526,untitled,3.1.0,59.99201577755812,
042,R,M,45,L,N,042RM045LN,HLN,0,92,92,105,,,0.78,363.743462130813,364.0767928156274,364.0934616011109,364.37674520850123,364.4100890696973,None,down,364.4100890696973,None,364.4100890696973,365.1600731785802,0.05875507687960635,None,1.9668438525914098,,,,,,,,,38,001,2019_Dec_25_1526,untitled,3.1.0,59.99201577755812,
_,F,N,270,_,_,_FN270__,N,0,93,93,54,,,0.907,366.44341008741685,366.7933989636367,366.8100730461556,367.093368571881,367.1266829683045,None,up,367.1266829683045,None,367.1266829683045,368.0100431841056,0.056180054270953406,None,2.6001666580596066,,,,,,,,,38,001,2019_Dec_25_1526,untitled,3.1.0,59.99201577755812,
_,G,M,180,_,_,_GM180__,N,0,94,94,12,,,1.395,369.79330924505484,370.1433189783602,370.15999372301303,370.44333063184604,370.47665065637193,None,None,370.47665065637193,None,370.47665065637193,371.85995426007867,0.0569600431190338,None,,,,,,,,,,38,001,2019_Dec_25_1526,untitled,3.1.0,59.99201577755812,
397,_4,M,180,R,N,397_4M180RN,HRN,0,95,95,164,,,1.199,373.99324296586565,374.3432311799552,374.3598797704799,374.64319648435776,374.6765555745369,373.99324296586565,down,374.6765555745369,None,374.6765555745369,375.85986421043344,0.058416728577867616,None,2.6334628459117084,,,,,,,,,38,001,2019_Dec_25_1526,untitled,3.1.0,59.99201577755812,
143,F,M,270,R,N,143FM270RN,HRN,0,96,96,118,,,0.88,377.3931673506486,377.72647254346884,377.7431459638574,378.0264530768509,378.059812829164,None,down,378.059812829164,None,378.059812829164,378.9097960772815,0.05856968054649769,None,2.017307078564045,,,,,,,,,38,001,2019_Dec_25_1526,untitled,3.1.0,59.99201577755812,
237,G,M,180,L,N,237GM180LN,HLN,0,97,97,140,,,1.061,380.15976992315336,380.4930436648101,380.50970185621554,380.7930526697746,380.8264018280097,None,up,380.8264018280097,None,380.8264018280097,381.8763956039911,0.058957688583177514,None,2.916805713917711,,,,,,,,,38,001,2019_Dec_25_1526,untitled,3.1.0,59.99201577755812,
494,_5,M,225,L,N,494_5M225LN,HLN,0,98,98,189,,,1.322,383.8096691470055,384.15969079864954,384.17634534833996,384.45965014388275,384.49297811396536,None,down,384.49297811396536,None,384.49297811396536,385.77631005682633,0.05695209756231634,None,3.3167999533870898,,,,,,,,,38,001,2019_Dec_25_1526,untitled,3.1.0,59.99201577755812,
_,_2,N,90,_,_,__2N090__,N,0,99,99,74,,,1.375,387.8762168289577,388.2262275554567,388.24291421844464,388.5261865696266,388.55955857133813,None,up,388.55955857133813,None,388.55955857133813,389.90954976501234,0.057320241703564534,None,2.533529919659486,,,,,,,,,38,001,2019_Dec_25_1526,untitled,3.1.0,59.99201577755812,
269,_2,M,180,R,N,269_2M180RN,HRN,0,100,100,148,,,1.035,391.17618974785,391.50951480456206,391.5261822657849,391.8095082494765,391.8428110586283,None,down,391.8428110586283,None,391.8428110586283,392.859459649153,0.059597636991384206,None,3.1167950536255375,,,,,,,,,38,001,2019_Dec_25_1526,untitled,3.1.0,59.99201577755812,
289,_2,N,0,L,N,289_2N000LN,HLN,0,101,101,248,,,0.976,395.0261024791471,395.3760685118905,395.3927267032959,395.67608645560904,395.70942170911803,None,up,395.70942170911803,None,395.70942170911803,396.65937860446866,0.05647635733112111,None,1.716835575967707,,,,,,,,,38,001,2019_Dec_25_1526,untitled,3.1.0,59.99201577755812,
133,F,N,180,R,N,133FN180RN,HRN,0,102,102,212,,,1.096,397.49268181090156,397.84270677319,397.8593735722825,398.142687968706,398.17599475063616,None,None,398.17599475063616,None,398.17599475063616,399.25934066443733,0.056155555466830265,None,,,,,,,,,,38,001,2019_Dec_25_1526,untitled,3.1.0,59.99201577755812,
234,G,M,45,L,N,234GM045LN,HLN,0,103,103,137,,,1.206,401.69260725508866,402.04263122418706,402.0593125901323,402.34258825196594,402.3759019862591,401.69260725508866,up,402.3759019862591,None,402.3759019862591,403.5592397558612,0.05881135791059933,None,2.3835141609670245,,,,,,,,,38,001,2019_Dec_25_1526,untitled,3.1.0,59.99201577755812,
_,_5,N,135,_,_,__5N135__,N,0,104,104,91,,,1.031,404.825898609397,405.17587490515143,405.19254402169827,405.47583524357833,405.5091870503311,None,up,405.5091870503311,None,405.5091870503311,406.5258247157144,0.056414117134409025,None,2.50022942796204,,,,,,,,,38,001,2019_Dec_25_1526,untitled,3.1.0,59.99201577755812,
_,F,N,315,_,_,_FN315__,N,0,105,105,55,,,0.928,408.0758088908151,408.42580505046135,408.442443709042,408.72581802820423,408.7591099122146,None,up,408.7591099122146,None,408.7591099122146,409.6757749235585,0.05653363155579427,None,2.5335110489577346,,,,,,,,,38,001,2019_Dec_25_1526,untitled,3.1.0,59.99201577755812,
233,G,M,0,L,N,233GM000LN,HLN,0,106,106,136,,,1.139,411.3590653508836,411.70906184159685,411.72572665429834,412.00903575368284,412.04236537908946,None,down,412.04236537908946,None,412.04236537908946,413.15903164847987,0.056823313323548064,None,2.2668372975058446,,,,,,,,,38,001,2019_Dec_25_1526,untitled,3.1.0,59.99201577755812,
421,_4,N,180,L,N,421_4N180LN,HLN,0,107,107,268,,,0.723,414.3756371343552,414.72565348896023,414.7423424694025,415.02565653475904,415.0589974163704,None,up,415.0589974163704,None,415.0589974163704,415.74227758068446,0.05849121817300329,None,2.133474433183437,,,,,,,,,38,001,2019_Dec_25_1526,untitled,3.1.0,59.99201577755812,
140,F,M,135,R,N,140FM135RN,HRN,0,108,108,115,,,1.078,417.2756078682214,417.60892464830977,417.6255990618956,417.9089237213302,417.94222686154535,None,down,417.94222686154535,None,417.94222686154535,418.99223454225285,0.05852796637555002,None,3.2001204414045787,,,,,,,,,38,001,2019_Dec_25_1526,untitled,3.1.0,59.99201577755812,
_,_2,M,270,_,_,__2M270__,N,0,109,109,30,,,1.331,421.20886585118933,421.55884247800714,421.5755125877513,421.85884453061226,421.8921681968495,None,down,421.8921681968495,None,421.8921681968495,423.20881056335566,0.05665844301620382,None,2.61678611487514,,,,,,,,,38,001,2019_Dec_25_1526,untitled,3.1.0,59.99201577755812,
194,G,N,45,R,N,194GN045RN,HRN,0,110,110,225,,,1.179,424.5754357806982,424.92540181344157,424.9421209207867,425.2254280337802,425.25876096983484,None,up,425.25876096983484,None,425.25876096983484,426.4087340211554,0.055414963338989764,None,2.216802800543519,,,,,,,,,38,001,2019_Dec_25_1526,untitled,3.1.0,59.99201577755812,
295,_2,N,270,L,N,295_2N270LN,HLN,0,111,111,254,,,1.327,427.5586746281151,427.8920374262234,427.90867409841303,428.192007696598,428.22533533561364,None,up,428.22533533561364,None,428.22533533561364,429.5086441039348,0.0587911629518203,None,2.4501167996895674,,,,,,,,,38,001,2019_Dec_25_1526,untitled,3.1.0,59.99201577755812,
_,_4,M,180,_,_,__4M180__,N,0,112,112,36,,,0.9560000000000001,430.7419779669726,431.0919433375857,431.1086025221848,431.3919612813006,431.425306135694,None,down,431.425306135694,None,431.425306135694,432.341935392029,0.056505491040297784,None,2.833437618770404,,,,,,,,,38,001,2019_Dec_25_1526,untitled,3.1.0,59.99201577755812,
484,_5,N,135,L,N,484_5N135LN,HLN,0,113,113,283,,,1.3920000000000001,434.34189301572405,434.6752091336857,434.6918775881022,434.97521052415686,435.0085371699788,None,up,435.0085371699788,None,435.0085371699788,436.35848135244305,0.057553311376977945,None,2.4668084286458907,,,,,,,,,38,001,2019_Dec_25_1526,untitled,3.1.0,59.99201577755812,
_,F,N,90,_,_,_FN090__,N,0,114,114,50,,,0.879,437.5418065415797,437.8918132953004,437.9084969787036,438.19177528905493,438.22513735881876,None,up,438.22513735881876,None,438.22513735881876,439.07511795841856,0.05534411545158946,None,2.0168071705993498,,,,,,,,,38,001,2019_Dec_25_1526,untitled,3.1.0,59.99201577755812,
_,_2,M,135,_,_,__2M135__,N,0,115,115,27,,,1.122,440.30843129543064,440.65841785419616,440.6750644583335,440.95837488197867,440.9917213916924,None,down,440.9917213916924,None,440.9917213916924,442.07504942798914,0.05678391660330817,None,2.3501716240316455,,,,,,,,,38,001,2019_Dec_25_1526,untitled,3.1.0,59.99201577755812,
043,R,M,90,L,N,043RM090LN,HLN,0,116,116,106,,,0.977,443.42500585984817,443.7583266127185,443.77498116240895,444.05834025259173,444.09169073508383,None,down,444.09169073508383,None,444.09169073508383,445.04165259641013,0.05888948922074633,None,2.483459667691932,,,,,,,,,38,001,2019_Dec_25_1526,untitled,3.1.0,59.99201577755812,
_,R,M,45,_,_,_RM045__,N,0,117,117,17,,,1.073,446.6415934682227,446.9916101538947,447.00827463553287,447.2915913494071,447.3249123671303,None,down,447.3249123671303,None,447.3249123671303,448.37489455584,0.05624527404870605,None,2.0501652675848163,,,,,,,,,38,001,2019_Dec_25_1526,untitled,3.1.0,59.99201577755812,
496,_5,M,315,L,N,496_5M315LN,HLN,0,118,118,191,,,1.361,449.44154917174455,449.79151354916394,449.80817836186543,450.09154672186196,450.12484059226335,None,None,450.12484059226335,None,450.12484059226335,451.4748350965856,0.05731891744653694,None,,,,,,,,,,38,001,2019_Dec_25_1526,untitled,3.1.0,59.99201577755812,
240,G,M,315,L,N,240GM315LN,HLN,0,119,119,143,,,0.919,453.64145011713117,453.99145157381645,454.0081134069369,454.2914450187345,454.3247776237222,453.64145011713117,down,454.3247776237222,None,454.3247776237222,455.20812128628313,0.05858391633955762,None,2.450154210018809,,,,,,,,,38,001,2019_Dec_25_1526,untitled,3.1.0,59.99201577755812,
302,_2,M,225,L,N,302_2M225LN,HLN,0,120,120,157,,,0.743,456.8414010533161,457.1913525192067,457.2080226289472,457.49134066708575,457.52467128568605,None,up,457.52467128568605,None,457.52467128568605,458.2413578824562,0.05758476254050038,None,2.1168460376138682,,,,,,,,,38,001,2019_Dec_25_1526,untitled,3.1.0,59.99201577755812,
129,F,N,0,R,N,129FN000RN,HRN,0,121,121,208,,,0.991,459.7246606253975,460.05796217650277,460.07462698920426,460.3579774717,460.39132464354407,None,up,460.39132464354407,None,460.39132464354407,461.34128286315536,0.05885903125090408,None,1.8668132621969562,,,,,,,,,38,001,2019_Dec_25_1526,untitled,3.1.0,59.99201577755812,
259,_2,N,90,R,N,259_2N090RN,HRN,0,122,122,242,,,0.869,462.3245932205864,462.6745294574939,462.69123730863066,462.97457686598136,463.0079180786597,None,up,463.0079180786597,None,463.0079180786597,463.8578966918685,0.05612244897929486,None,2.233472579220688,,,,,,,,,38,001,2019_Dec_25_1526,untitled,3.1.0,59.99201577755812,
264,_2,N,315,R,N,264_2N315RN,HRN,0,123,123,247,,,0.838,465.30787444430825,465.6578239238079,465.674490391837,465.9578210104373,465.99116785121805,None,up,465.99116785121805,None,465.99116785121805,466.8078052517485,0.057780752948019654,None,2.150130307134532,,,,,,,,,38,001,2019_Dec_25_1526,untitled,3.1.0,59.99201577755812,
009,R,M,0,R,N,009RM000RN,HRN,0,124,124,96,,,1.065,468.2244739048074,468.5578026032308,468.5744750304257,468.8577864472645,468.89111971438615,None,down,468.89111971438615,None,468.89111971438615,469.94107310045,0.058622650929464726,None,2.000157255817612,,,,,,,,,38,001,2019_Dec_25_1526,untitled,3.1.0,59.99201577755812,
_,_2,M,225,_,_,__2M225__,N,0,125,125,29,,,1.3880000000000001,470.9744020637263,471.3077059322859,471.3243972301789,471.6077341390155,471.6410564809921,None,down,471.6410564809921,None,471.6410564809921,472.9910046362347,0.057131865789415315,None,2.700097266857483,,,,,,,,,38,001,2019_Dec_25_1526,untitled,3.1.0,59.99201577755812,
_,_4,N,315,_,_,__4N315__,N,0,126,126,87,,,0.9520000000000001,474.4076395206721,474.7576552131468,474.7742869193644,475.0576473338042,475.09098026985885,None,up,475.09098026985885,None,475.09098026985885,476.00763336286764,0.05596717954904307,None,2.9500992532484815,,,,,,,,,38,001,2019_Dec_25_1526,untitled,3.1.0,59.99201577755812,
_,G,N,225,_,_,_GN225__,N,0,127,127,61,,,1.252,478.1075609920845,478.4575723807138,478.4742385176796,478.75756615669525,478.79087558714673,None,None,478.79087558714673,None,478.79087558714673,480.00753801617975,0.05675809354215744,None,,,,,,,,,,38,001,2019_Dec_25_1526,untitled,3.1.0,59.99201577755812,
227,G,N,90,L,N,227GN090LN,HLN,0,128,128,234,,,1.191,482.3241356889266,482.6574776299494,482.67414409797493,482.95744558286606,482.990774546146,482.3241356889266,up,482.990774546146,None,482.990774546146,484.1407601779283,0.05946620423492277,None,2.6335134988366917,,,,,,,,,38,001,2019_Dec_25_1526,untitled,3.1.0,59.99201577755812,
_,G,M,315,_,_,_GM315__,N,0,129,129,15,,,0.984,485.69072846191557,486.0407375330906,486.0574023457957,486.3407233635153,486.37402915225175,None,down,486.37402915225175,None,486.37402915225175,487.32403471414,0.057433796959230676,None,1.916850407673337,,,,,,,,,38,001,2019_Dec_25_1526,untitled,3.1.0,59.99201577755812,
208,G,M,315,R,N,208GM315RN,HRN,0,130,130,135,,,1.321,488.3573534144052,488.70734460807944,488.72400942078457,489.0073271278561,489.04066999585484,None,None,489.04066999585484,None,489.04066999585484,491.12401756498,0.057742018358112546,None,,,,,,,,,,38,001,2019_Dec_25_1526,untitled,3.1.0,59.99201577755812,
232,G,N,315,L,N,232GN315LN,HLN,0,131,131,239,,,0.978,492.7239024868286,493.0405455154614,493.05723681335803,493.34054723699956,493.37386726152545,492.7239024868286,up,493.37386726152545,None,493.37386726152545,494.323873816611,0.08541473821242107,None,1.9837212089441891,,,,,,,,,38,001,2019_Dec_25_1526,untitled,3.1.0,59.99201577755812,
144,F,M,315,R,N,144FM315RN,HRN,0,132,132,119,,,0.987,495.44050797270756,495.7738502447901,495.7905160506889,496.0738450139652,496.1071901994219,None,down,496.1071901994219,None,496.1071901994219,497.05713418324376,0.059756548133009346,None,1.9002676990603504,,,,,,,,,38,001,2019_Dec_25_1526,untitled,3.1.0,59.99201577755812,
_,R,M,225,_,_,_RM225__,N,0,133,133,21,,,1.234,498.09046678823506,498.42377694702736,498.4404490431589,498.72376542596976,498.75709902415474,None,up,498.75709902415474,None,498.75709902415474,499.97375714934606,0.05764832699787803,None,3.3668026681189076,,,,,,,,,38,001,2019_Dec_25_1526,untitled,3.1.0,59.99201577755812,
430,_4,M,225,L,N,430_4M225LN,HLN,0,134,134,173,,,1.342,502.2070267857998,502.5403657472343,502.5570355259115,502.84036217173343,502.87364942083514,None,down,502.87364942083514,None,502.87364942083514,504.19031165123306,0.0647331153631967,None,2.4501581827971677,,,,,,,,,38,001,2019_Dec_25_1526,untitled,3.1.0,59.99201577755812,
452,_5,N,135,R,N,452_5N135RN,HRN,0,135,135,275,,,0.933,505.3903009909445,505.7402683479486,505.75693448491074,506.04028695379384,506.07361293748545,None,up,506.07361293748545,None,506.07361293748545,506.9902683479486,0.05821643432500423,None,2.016640313904645,,,,,,,,,38,001,2019_Dec_25_1526,untitled,3.1.0,59.99201577755812,
_,G,M,45,_,_,_GM045__,N,0,136,136,9,,,1.3900000000000001,508.17353957351224,508.5068659544813,508.5235185177844,508.8068693313435,508.8402145168002,None,down,508.8402145168002,None,508.8402145168002,510.1901855155156,0.05875275942889857,None,2.6834725130065635,,,,,,,,,38,001,2019_Dec_25_1526,untitled,3.1.0,59.99201577755812,
495,_5,M,270,L,N,495_5M270LN,HLN,0,137,137,190,,,1.315,511.60682470379834,511.94013453152365,511.9568254983533,512.2400935456935,512.2734691891164,None,down,512.2734691891164,None,512.2734691891164,513.5567660391025,0.058498501599387964,None,2.600209034364525,,,,,,,,,38,001,2019_Dec_25_1526,untitled,3.1.0,59.99201577755812,
_,F,N,135,_,_,_FN135__,N,0,138,138,51,,,1.3940000000000001,514.9401143365685,515.2900863284776,515.3067488237284,515.59008209085,515.6234176754224,None,up,515.6234176754224,None,515.6234176754224,517.0066911522263,0.05390928027918562,None,3.0167674428157625,,,,,,,,,38,001,2019_Dec_25_1526,untitled,3.1.0,59.99201577755812,
012,R,M,135,R,N,012RM135RN,HRN,0,139,139,99,,,1.27,518.7066702289267,519.0566177220353,519.0732977637235,519.3566369900109,519.3899765473652,None,down,519.3899765473652,None,519.3899765473652,520.6399411234233,0.05856504564144416,None,3.400092565738305,,,,,,,,,38,001,2019_Dec_25_1526,untitled,3.1.0,59.99201577755812,
297,_2,M,0,L,N,297_2M000LN,HLN,0,140,140,152,,,0.992,522.8565552169894,523.2065752133058,523.2232383706869,523.5065305857606,523.5398747780237,None,down,523.5398747780237,None,523.5398747780237,524.48983663935,0.05749338863461162,None,2.4837619299250946,,,,,,,,,38,001,2019_Dec_25_1526,untitled,3.1.0,59.99201577755812,
235,G,M,90,L,N,235GM090LN,HLN,0,141,141,138,,,1.3960000000000001,526.1065052261911,526.4398110811417,526.4564725831951,526.7398260452719,526.7731599745239,None,down,526.7731599745239,None,526.7731599745239,528.156476158696,0.056700819317484275,None,3.1003245760075515,,,,,,,,,38,001,2019_Dec_25_1526,untitled,3.1.0,59.99201577755812,
_,_2,N,270,_,_,__2N270__,N,0,142,142,78,,,1.181,529.939746854554,530.2897297716081,530.3064151103317,530.5897401008297,530.6230740300816,None,up,530.6230740300816,None,530.6230740300816,531.7730205962107,0.05516931320016738,None,2.2167521476185357,,,,,,,,,38,001,2019_Dec_25_1526,untitled,3.1.0,59.99201577755812,
454,_5,N,225,R,N,454_5N225RN,HRN,0,143,143,277,,,1.056,532.9063390978372,533.2563481690158,533.273013974911,533.5563157908691,533.5896732257243,None,up,533.5896732257243,None,533.5896732257243,534.6062810952717,0.05790920611980255,None,2.766793928003608,,,,,,,,,38,001,2019_Dec_25_1526,untitled,3.1.0,59.99201577755812,
_,_5,M,90,_,_,__5M090__,N,0,144,144,42,,,1.105,536.4229251170982,536.7729361746678,536.789603635887,537.0729090935602,537.1062416985515,None,down,537.1062416985515,None,537.1062416985515,538.1895644378055,0.055482169507740764,None,2.2668379596325394,,,,,,,,,38,001,2019_Dec_25_1526,untitled,3.1.0,59.99201577755812,
003,R,N,90,R,N,003RN090RN,HRN,0,145,145,194,,,1.334,539.4561925023081,539.7895013368397,539.8061671427386,540.0895179562976,540.122853871937,None,up,540.122853871937,None,540.122853871937,541.4394472408421,0.059456272290844936,None,2.433469533425523,,,,,,,,,38,001,2019_Dec_25_1526,untitled,3.1.0,59.99201577755812,
386,_4,N,45,R,N,386_4N045RN,HRN,0,146,146,257,,,1.335,542.6227916317403,542.9727715692097,542.9894377061719,543.2727699800962,543.3061247664336,None,up,543.3061247664336,None,543.3061247664336,544.6227548835413,0.05571490811780677,None,2.50017380906138,,,,,,,,,38,001,2019_Dec_25_1526,untitled,3.1.0,59.99201577755812,
423,_4,N,270,L,N,423_4N270LN,HLN,0,147,147,270,,,0.783,545.8893816237833,546.2227358142009,546.2393930124126,546.5227189961079,546.5560502768385,None,up,546.5560502768385,None,546.5560502768385,547.3060330614644,0.05881533068532008,None,1.7501552694266138,,,,,,,,,38,001,2019_Dec_25_1526,untitled,3.1.0,59.99201577755812,
_,_4,M,135,_,_,__4M135__,N,0,148,148,35,,,0.769,548.3726654960228,548.7226355015446,548.7393185228175,549.0226332503044,549.0560052520159,None,down,549.0560052520159,None,549.0560052520159,549.8059781046941,0.05722257756497129,None,1.9001352731102088,,,,,,,,,38,001,2019_Dec_25_1526,untitled,3.1.0,59.99201577755812,
168,F,N,315,L,N,168FN315LN,HLN,0,149,149,223,,,0.965,551.0392990562032,551.3726098771222,551.3892631025556,551.6726029909732,551.7059389066126,None,up,551.7059389066126,None,551.7059389066126,552.655914341598,0.05825715530590969,None,2.200151561501116,,,,,,,,,38,001,2019_Dec_25_1526,untitled,3.1.0,59.99201577755812,
493,_5,M,180,L,N,493_5M180LN,HLN,0,150,150,188,,,0.864,553.9725547217167,554.322493276075,554.3391498121564,554.6225045984938,554.6558782555294,None,up,554.6558782555294,None,554.6558782555294,555.50583071461,0.05668956311274087,None,3.1833874293333793,,,,,,,,,38,001,2019_Dec_25_1526,untitled,3.1.0,59.99201577755812,
266,_2,M,45,R,N,266_2M045RN,HRN,0,151,151,145,,,1.189,557.9057862194932,558.255769798674,558.2724442122599,558.5557602640074,558.5890935311254,None,down,558.5890935311254,None,558.5890935311254,559.7390549951742,0.05827867452171631,None,2.400159109780361,,,,,,,,,38,001,2019_Dec_25_1526,untitled,3.1.0,59.99201577755812,
_,_4,M,0,_,_,__4M000__,N,0,152,152,32,,,0.771,561.0723989225844,561.4057110677641,561.4223881298676,561.7056909390194,561.7390179159083,None,down,561.7390179159083,None,561.7390179159083,562.4889930860445,0.05889412412943784,None,2.0501652675848163,,,,,,,,,38,001,2019_Dec_25_1526,untitled,3.1.0,59.99201577755812,
226,G,N,45,L,N,226GN045LN,HLN,0,153,153,233,,,1.046,563.8723122497977,564.2056406171578,564.2223239694977,564.5056439940199,564.5389732883632,None,up,564.5389732883632,None,564.5389732883632,565.5555636114696,0.058016471139126224,None,2.050168247169495,,,,,,,,,38,001,2019_Dec_25_1526,untitled,3.1.0,59.99201577755812,
455,_5,N,270,R,N,455_5N270RN,HRN,0,154,154,278,,,1.0210000000000001,566.6556047959384,567.0055936721583,567.0222538499547,567.305584799622,567.338923694846,None,up,567.338923694846,None,567.338923694846,568.3222131951879,0.055012719512888,None,2.1835076058850973,,,,,,,,,38,001,2019_Dec_25_1526,untitled,3.1.0,59.99201577755812,
_,G,M,225,_,_,_GM225__,N,0,155,155,13,,,1.087,569.5888776768261,569.9388635734613,569.9555280551031,570.2388719162991,570.27218829911,None,down,570.27218829911,None,570.27218829911,571.3221569141606,0.057939995152992196,None,2.133474433183437,,,,,,,,,38,001,2019_Dec_25_1526,untitled,3.1.0,59.99201577755812,
449,_5,N,0,R,N,449_5N000RN,HRN,0,156,156,272,,,0.879,572.4888033858697,572.8221294357754,572.8387949106072,573.1221248670772,573.1554568099382,None,up,573.1554568099382,None,573.1554568099382,574.0054105932832,0.05776419970425195,None,1.9001485157023126,,,,,,,,,38,001,2019_Dec_25_1526,untitled,3.1.0,59.99201577755812,
008,R,N,315,R,N,008RN315RN,HRN,0,157,157,199,,,0.713,575.122085801424,575.4720524962977,575.4887282341406,575.7720462722755,575.8053745734251,None,up,575.8053745734251,None,575.8053745734251,576.4886878442267,0.056677975841012085,None,1.8001612948100956,,,,,,,,,38,001,2019_Dec_25_1526,untitled,3.1.0,59.99201577755812,
303,_2,M,270,L,N,303_2M270LN,HLN,0,158,158,158,,,1.197,577.6720173372087,578.0220178006966,578.0386697018694,578.3219801255145,578.3553508029654,None,down,578.3553508029654,None,578.3553508029654,579.5386379196425,0.056022136323008453,None,2.7334123254149745,,,,,,,,,38,001,2019_Dec_25_1526,untitled,3.1.0,59.99201577755812,
_,R,M,90,_,_,_RM090__,N,0,159,159,18,,,0.96,581.1552747242567,581.5052526753352,581.5218827262288,581.8052583696517,581.8385966027454,None,down,581.8385966027454,None,581.8385966027454,582.7552278454714,0.05765329296991695,None,2.1168076340909465,,,,,,,,,38,001,2019_Dec_25_1526,untitled,3.1.0,59.99201577755812,
_,_4,N,45,_,_,__4N045__,N,0,160,160,81,,,1.237,584.0218605448827,584.3718709403183,584.3885552858483,584.6718756414411,584.7052099017565,None,up,584.7052099017565,None,584.7052099017565,585.9218269749035,0.058272384289011825,None,2.5834717184516194,,,,,,,,,38,001,2019_Dec_25_1526,untitled,3.1.0,59.99201577755812,
268,_2,M,135,R,N,268_2M135RN,HRN,0,161,161,147,,,0.966,587.3717938022019,587.705130777249,587.7217965831478,588.0051248842938,588.0384773531769,None,down,588.0384773531769,None,588.0384773531769,588.9884428562182,0.05681768522117636,None,1.9834722481537028,,,,,,,,,38,001,2019_Dec_25_1526,untitled,3.1.0,59.99201577755812,
261,_2,N,180,R,N,261_2N180RN,HRN,0,162,162,244,,,1.014,590.0884029297922,590.4384080281925,590.4550490042238,590.7383749879191,590.7717082550371,None,up,590.7717082550371,None,590.7717082550371,591.7550205988591,0.05799660724733258,None,2.4168080313684186,,,,,,,,,38,001,2019_Dec_25_1526,untitled,3.1.0,59.99201577755812,
_,_5,N,45,_,_,__5N045__,N,0,163,163,89,,,0.963,593.254994775798,593.6049982188742,593.6216848818585,593.9049714688299,593.9383050670149,None,up,593.9383050670149,None,593.9383050670149,594.8883013590894,0.05753212322451873,None,2.1001699687076325,,,,,,,,,38,001,2019_Dec_25_1526,untitled,3.1.0,59.99201577755812,
_,R,M,0,_,_,_RM000__,N,0,164,164,16,,,0.8250000000000001,596.1049343233499,596.454913598689,596.4716029101946,596.7549077057338,596.7882393175314,None,down,596.7882393175314,None,596.7882393175314,597.5715437820072,0.0568819118088868,None,2.1168337882154447,,,,,,,,,38,001,2019_Dec_25_1526,untitled,3.1.0,59.99201577755812,
_,_2,N,180,_,_,__2N180__,N,0,165,165,76,,,1.22,598.9715337176349,599.3215265666331,599.3381794610032,599.6214743245946,599.6548248070903,None,up,599.6548248070903,None,599.6548248070903,600.8381652252101,0.056408820099022705,None,2.3001334853615845,,,,,,,,,38,001,2019_Dec_25_1526,untitled,3.1.0,59.99201577755812,
166,F,N,225,L,N,166FN225LN,HLN,0,166,166,221,,,1.391,602.0214652534196,602.3714720071403,602.388120928732,602.6714366494125,602.704796401722,None,down,602.704796401722,None,602.704796401722,604.0547438948342,0.05613238092701067,None,2.6334529139676306,,,,,,,,,38,001,2019_Dec_25_1526,untitled,3.1.0,59.99201577755812,
_,G,N,0,_,_,_GN000__,N,0,167,167,56,,,0.912,605.4047350885085,605.7547299238977,605.7713682514113,606.0547200581641,606.0880715338499,None,up,606.0880715338499,None,606.0880715338499,606.9713082624548,0.05722257756860927,None,1.7501122309913626,,,,,,,,,38,001,2019_Dec_25_1526,untitled,3.1.0,59.99201577755812,
392,_4,N,315,R,N,392_4N315RN,HRN,0,168,168,263,,,1.37,607.9046847666468,608.2546875475928,608.2712795260231,608.5546303395822,608.5879705590633,None,up,608.5879705590633,None,608.5879705590633,609.9379147415275,0.05746226853807457,None,2.666821936094493,,,,,,,,,38,001,2019_Dec_25_1526,untitled,3.1.0,59.99201577755812,
_,_4,N,180,_,_,__4N180__,N,0,169,169,84,,,1.356,611.3212795922373,611.6712353619696,611.6879064649038,611.9712298000777,612.0045653846537,None,up,612.0045653846537,None,612.0045653846537,613.3212041094448,0.05718781575342291,None,3.050130505776906,,,,,,,,,38,001,2019_Dec_25_1526,untitled,3.1.0,59.99201577755812,
175,F,M,270,L,N,175FM270LN,HLN,0,170,170,126,,,1.0170000000000001,615.1211780215308,615.4711682220113,615.4878105223033,615.7711699435495,615.8044989068258,None,down,615.8044989068258,None,615.8044989068258,616.7877834411956,0.05523122232989408,None,2.483466620051331,,,,,,,,,38,001,2019_Dec_25_1526,untitled,3.1.0,59.99201577755812,
131,F,N,90,R,N,131FN090RN,HRN,0,171,171,210,,,0.771,618.3544496443719,618.7044454729548,618.7211159137587,619.0044210403648,619.0377456997994,None,up,619.0377456997994,None,619.0377456997994,619.7877483483171,0.058548492394038476,None,1.7168438525877718,,,,,,,,,38,001,2019_Dec_25_1526,untitled,3.1.0,59.99201577755812,
429,_4,M,180,L,N,429_4M180LN,HLN,0,172,172,172,,,0.765,620.8377255710548,621.1710489724428,621.187715440472,621.4710255330501,621.5043687321158,None,None,621.5043687321158,None,621.5043687321158,622.2543578069744,0.0603776258394646,None,,,,,,,,,,38,001,2019_Dec_25_1526,untitled,3.1.0,59.99201577755812,
420,_4,N,135,L,N,420_4N135LN,HLN,0,173,173,267,,,1.118,625.0376347930651,625.3709346888463,625.3876054607172,625.6709390589021,625.7042448476386,625.0376347930651,up,625.7042448476386,None,625.7042448476386,626.7875887750488,0.0571268998173764,None,2.2501340812741546,,,,,,,,,38,001,2019_Dec_25_1526,untitled,3.1.0,59.99201577755812,
_,_2,M,0,_,_,__2M000__,N,0,174,174,24,,,0.9430000000000001,628.0208875452081,628.3708558954058,628.3875505039468,628.6708827778748,628.7042057819817,None,down,628.7042057819817,None,628.7042057819817,629.6208492741098,0.0561145034225774,None,2.0001274599781027,,,,,,,,,38,001,2019_Dec_25_1526,untitled,3.1.0,59.99201577755812,
040,R,N,315,L,N,040RN315LN,HLN,0,175,175,207,,,0.752,630.7707988198199,631.120829079151,631.1374832977781,631.4207940524866,631.454140562204,None,up,631.454140562204,None,631.454140562204,632.1708344424005,0.05839156764341169,None,2.0668492820514075,,,,,,,,,38,001,2019_Dec_25_1526,untitled,3.1.0,59.99201577755812,
488,_5,N,315,L,N,488_5N315LN,HLN,0,176,176,287,,,1.32,633.604067926568,633.9374045705517,633.9540717007076,634.2374145687099,634.2707435319862,None,down,634.2707435319862,None,634.2707435319862,635.5540238287285,0.05936125666630687,None,2.700149906177103,,,,,,,,,38,001,2019_Dec_25_1526,untitled,3.1.0,59.99201577755812,
006,R,N,225,R,N,006RN225RN,HRN,0,177,177,197,,,1.085,637.0540311121549,637.3873617969693,637.4040372037489,637.6873363711857,637.7206603684899,None,up,637.7206603684899,None,637.7206603684899,638.7706283214102,0.059146395564312115,None,2.3668943730881438,,,,,,,,,38,001,2019_Dec_25_1526,untitled,3.1.0,59.99201577755812,
_,_5,M,135,_,_,__5M135__,N,0,178,178,43,,,0.842,640.1539663558651,640.503950266113,640.5206077953881,640.8039162326422,640.8372554589296,None,down,640.8372554589296,None,640.8372554589296,641.6538902109423,0.056750810115772765,None,2.800661533838138,,,,,,,,,38,001,2019_Dec_25_1526,untitled,3.1.0,59.99201577755812,
236,G,M,135,L,N,236GM135LN,HLN,0,179,179,139,,,0.787,643.7205478064316,644.053874849531,644.0705380069121,644.3538298909225,644.3871826908689,None,None,644.3871826908689,None,644.3871826908689,645.1371598473925,0.05870938992666197,None,,,,,,,,,,38,001,2019_Dec_25_1526,untitled,3.1.0,59.99201577755812,
039,R,N,270,L,N,039RN270LN,HLN,0,180,180,206,,,1.081,647.920425246215,648.253797314137,648.2704147845652,648.5537265324674,648.5871028380207,647.920425246215,up,648.5871028380207,None,648.5871028380207,649.6370525823731,0.0596261085702281,None,2.2335149555256066,,,,,,,,,38,001,2019_Dec_25_1526,untitled,3.1.0,59.99201577755812,
044,R,M,135,L,N,044RM135LN,HLN,0,181,181,107,,,1.304,650.903723354244,651.23704178966,651.2536986568048,651.5370196745243,651.5703641978507,None,down,651.5703641978507,None,651.5703641978507,652.8536809117286,0.058627947968489025,None,2.300168247169495,,,,,,,,,38,001,2019_Dec_25_1526,untitled,3.1.0,59.99201577755812,
_,F,M,180,_,_,_FM180__,N,0,182,182,4,,,1.328,653.9369549844487,654.2869435296052,654.3036242334201,654.586935650259,654.6202881191421,None,up,654.6202881191421,None,654.6202881191421,655.9369384312049,0.05636809911811724,None,2.2835017791403516,,,,,,,,,38,001,2019_Dec_25_1526,untitled,3.1.0,59.99201577755812,
_,_4,M,315,_,_,__4M315__,N,0,183,183,39,,,1.165,656.970232963733,657.320188402402,657.3368893011757,657.6202364730234,657.6535531868976,None,down,657.6535531868976,None,657.6535531868976,658.8035133266858,0.057192450662114425,None,2.3502050615825283,,,,,,,,,38,001,2019_Dec_25_1526,untitled,3.1.0,59.99201577755812,
_,_4,N,90,_,_,__4N090__,N,0,184,184,82,,,0.887,660.0868336822787,660.4201888658936,660.4368387806753,660.7201637711732,660.7534986936189,None,up,660.7534986936189,None,660.7534986936189,661.6034802864124,0.0588855164423876,None,1.8501487805551733,,,,,,,,,38,001,2019_Dec_25_1526,untitled,3.1.0,59.99201577755812,
_,_5,N,0,_,_,__5N000__,N,0,185,185,88,,,0.746,662.6867775336759,663.020102259321,663.0367796524879,663.3201046429895,663.3534213568637,None,up,663.3534213568637,None,663.3534213568637,664.070085110161,0.057864181293552974,None,1.633531376341125,,,,,,,,,38,001,2019_Dec_25_1526,untitled,3.1.0,59.99201577755812,
_,_5,N,180,_,_,__5N180__,N,0,186,186,92,,,1.067,665.0533971229161,665.403394606823,665.4200531292918,665.7033705053,665.7367067520026,None,up,665.7367067520026,None,665.7367067520026,666.786696886269,0.05647668839810649,None,2.41681266627711,,,,,,,,,38,001,2019_Dec_25_1526,untitled,3.1.0,59.99201577755812,
_,G,N,180,_,_,_GN180__,N,0,187,187,60,,,1.311,668.2199826786855,668.5699960537095,668.586662521735,668.8699822151975,668.9033121716675,None,None,668.9033121716675,None,668.9033121716675,670.1865683006727,0.056923294916487066,None,,,,,,,,,,38,001,2019_Dec_25_1526,untitled,3.1.0,59.99201577755812,
487,_5,N,270,L,N,487_5N270LN,HLN,0,188,188,286,,,1.306,672.4365547270136,672.7698969990961,672.7865621428646,673.0698920993382,673.1032402643759,672.4365547270136,up,673.1032402643759,None,673.1032402643759,674.3865258581536,0.05976118304170086,None,2.3834535760943254,,,,,,,,,38,001,2019_Dec_25_1526,untitled,3.1.0,59.99201577755812,
_,_5,M,315,_,_,__5M315__,N,0,189,189,47,,,0.988,675.5531468378686,675.9031085667702,675.919825025594,676.2030950593216,676.2364654057092,None,down,676.2364654057092,None,676.2364654057092,677.1864650084317,0.05734275411668932,None,2.733478207326698,,,,,,,,,38,001,2019_Dec_25_1526,untitled,3.1.0,59.99201577755812,
450,_5,N,45,R,N,450_5N045RN,HRN,0,190,190,273,,,0.875,679.0364413041862,679.3864295182757,679.4030810883851,679.6864219699964,679.7197320625746,None,up,679.7197320625746,None,679.7197320625746,680.5697126621744,0.057420223296503536,None,2.3834916485575377,,,,,,,,,38,001,2019_Dec_25_1526,untitled,3.1.0,59.99201577755812,
203,G,M,90,R,N,203GM090RN,HRN,0,191,191,130,,,1.3780000000000001,682.1696853162139,682.5196513489573,682.5363154995321,682.8196726033239,682.8530071947025,None,down,682.8530071947025,None,682.8530071947025,684.2029407830887,0.05842368093726691,None,2.7334063662456174,,,,,,,,,38,001,2019_Dec_25_1526,untitled,3.1.0,59.99201577755812,
199,G,N,270,R,N,199GN270RN,HRN,0,192,192,230,,,0.988,685.6696204274995,686.0029411803662,686.0196149318217,686.3029193962975,686.3362596157822,None,up,686.3362596157822,None,686.3362596157822,687.2862400167396,0.05946521104124258,None,2.3001341474882793,,,,,,,,,38,001,2019_Dec_25_1526,untitled,3.1.0,59.99201577755812,
453,_5,N,180,R,N,453_5N180RN,HRN,0,193,193,276,,,0.969,688.7195221674447,689.0528435824417,689.0695130300519,689.352860532963,689.3861934690176,None,up,689.3861934690176,None,689.3861934690176,690.3361553303439,0.059155665381695144,None,2.000246974399488,,,,,,,,,38,001,2019_Dec_25_1526,untitled,3.1.0,59.99201577755812,
483,_5,N,90,L,N,483_5N090LN,HLN,0,194,194,282,,,1.198,691.4528239171887,691.8028316641066,691.819474626529,692.1027704833177,692.1360971291397,None,up,692.1360971291397,None,692.1360971291397,693.3194044407719,0.05778307040236541,None,2.2668634516303428,,,,,,,,,38,001,2019_Dec_25_1526,untitled,3.1.0,59.99201577755812,
010,R,M,45,R,N,010RM045RN,HRN,0,195,195,97,,,1.1380000000000001,694.4694092743193,694.81937630026,694.836058990466,695.1193988788837,695.1527304906776,None,down,695.1527304906776,None,695.1527304906776,696.2693520663088,0.05857961249421351,None,2.1669742259364284,,,,,,,,,38,001,2019_Dec_25_1526,untitled,3.1.0,59.99201577755812,
258,_2,N,45,R,N,258_2N045RN,HRN,0,196,196,241,,,0.8290000000000001,697.4026533525648,697.7360131710884,697.7526723556875,698.0359476864542,698.0693104183483,None,up,698.0693104183483,None,698.0693104183483,698.8859686759679,0.059795282722916454,None,2.0001887069774966,,,,,,,,,38,001,2019_Dec_25_1526,untitled,3.1.0,59.99201577755812,
432,_4,M,315,L,N,432_4M315LN,HLN,0,197,197,175,,,0.864,700.1526275295037,700.4859449717223,700.5026081290998,700.7859056412162,700.8192342734255,None,down,700.8192342734255,None,700.8192342734255,701.6692449999282,0.059096735833009006,None,2.1334727778594242,,,,,,,,,38,001,2019_Dec_25_1526,untitled,3.1.0,59.99201577755812,
257,_2,N,0,R,N,257_2N000RN,HRN,0,198,198,240,,,0.875,703.0192163297106,703.3692191106566,703.3858835922947,703.669207589599,703.7025249656035,None,up,703.7025249656035,None,703.7025249656035,704.5525125175664,0.057675805383041734,None,1.7835007859466714,,,,,,,,,38,001,2019_Dec_25_1526,untitled,3.1.0,59.99201577755812,
_,R,N,180,_,_,_RN180__,N,0,199,199,68,,,0.797,705.5525062273337,705.9024888133208,705.9191559434767,706.2024749748089,706.2358175117442,None,down,706.2358175117442,None,706.2358175117442,707.0191011191346,0.05715007435719599,None,2.216926287743263,,,,,,,,,38,001,2019_Dec_25_1526,untitled,3.1.0,59.99201577755812,
038,R,N,225,L,N,038RN225LN,HLN,0,200,200,205,,,1.159,708.5358357865261,708.8690645033566,708.8857223636987,709.1690764879058,709.2024345848913,None,up,709.2024345848913,None,709.2024345848913,710.3190591401071,0.061331754815910244,None,2.6333032726433885,,,,,,,,,38,001,2019_Dec_25_1526,untitled,3.1.0,59.99201577755812,
_,F,M,135,_,_,_FM135__,N,0,201,201,3,,,1.3900000000000001,711.9190149098395,712.2523293724735,712.2689806115195,712.5523344046596,712.585673962014,None,down,712.585673962014,None,712.585673962014,713.9356399947574,0.058657412741013104,None,2.450158513860515,,,,,,,,,38,001,2019_Dec_25_1526,untitled,3.1.0,59.99201577755812,
463,_5,M,270,R,N,463_5M270RN,HRN,0,202,202,182,,,1.183,715.1022838179488,715.4522551477276,715.4689226089504,715.7522115133797,715.785591460648,None,down,715.785591460648,None,715.785591460648,716.9355562353448,0.05609066675242502,None,3.200102894963493,,,,,,,,,38,001,2019_Dec_25_1526,untitled,3.1.0,59.99201577755812,
492,_5,M,135,L,N,492_5M135LN,HLN,0,203,203,187,,,0.8210000000000001,719.0521943642198,719.4021779434006,719.4188358037427,719.7021872794285,719.7354986962673,None,up,719.7354986962673,None,719.7354986962673,720.5188183897299,0.058186307422147365,None,2.7834690037198015,,,,,,,,,38,001,2019_Dec_25_1526,untitled,3.1.0,59.99201577755812,
_,_5,N,225,_,_,__5N225__,N,0,204,204,93,,,0.783,722.5854422166012,722.9354019591119,722.9520657786197,723.2354189096332,723.2687538320788,None,up,723.2687538320788,None,723.2687538320788,724.0187253604963,0.05712458236303064,None,2.6167993574672437,,,,,,,,,38,001,2019_Dec_25_1526,untitled,3.1.0,59.99201577755812,
_,_5,M,180,_,_,__5M180__,N,0,205,205,44,,,0.836,725.9520591573237,726.302018237704,726.3186827193422,726.6020123447488,726.6353406458948,None,up,726.6353406458948,None,726.6353406458948,727.4520078422647,0.055950957372260746,None,2.9835838170183706,,,,,,,,,38,001,2019_Dec_25_1526,untitled,3.1.0,59.99201577755812,
198,G,N,225,R,N,198GN225RN,HRN,0,206,206,229,,,1.307,729.6852880727929,730.0352968129046,730.0519563285707,730.3352624483705,730.3685887631291,None,up,730.3685887631291,None,730.3685887631291,731.6518968693199,0.05586819115342223,None,3.0001559315569466,,,,,,,,,38,001,2019_Dec_25_1526,untitled,3.1.0,59.99201577755812,
139,F,M,90,R,N,139FM090RN,HRN,0,207,207,114,,,1.243,733.4351728622169,733.785197493442,733.8018745555455,734.0852210652629,734.1185285093234,None,down,734.1185285093234,None,734.1185285093234,735.3351326709417,0.05831906443563639,None,2.40014785357198,,,,,,,,,38,001,2019_Dec_25_1526,untitled,3.1.0,59.99201577755812,
458,_5,M,45,R,N,458_5M045RN,HRN,0,208,208,177,,,1.1280000000000001,736.5851005576478,736.9351126084075,736.9517668270346,737.2351156542063,737.2684350166019,None,down,737.2684350166019,None,737.2684350166019,738.3850771182551,0.05806050276805763,None,2.500177450772753,,,,,,,,,38,001,2019_Dec_25_1526,untitled,3.1.0,59.99201577755812,
_,_2,M,45,_,_,__2M045__,N,0,209,209,25,,,1.332,739.8517355745134,740.1850573205738,740.201723457536,740.485016665807,740.5183350350089,None,down,740.5183350350089,None,740.5183350350089,741.8349836917441,0.0568928369502828,None,2.9501144822315837,,,,,,,,,38,001,2019_Dec_25_1526,untitled,3.1.0,59.99201577755812,
161,F,N,0,L,N,161FN000LN,HLN,0,210,210,216,,,1.353,743.534978659558,743.8849549553161,743.9016177816302,744.1849679330589,744.2183121253183,None,up,744.2183121253183,None,744.2183121253183,745.5349137708436,0.055652005787123926,None,2.300124546607549,,,,,,,,,38,001,2019_Dec_25_1526,untitled,3.1.0,59.99201577755812,
400,_4,M,315,R,N,400_4M315RN,HRN,0,211,211,167,,,1.295,746.5849105264097,746.9348907949425,746.9515751404724,747.2348809292089,747.2682145273939,None,down,747.2682145273939,None,747.2682145273939,748.5515381936311,0.058260465953935636,None,3.400369998107635,,,,,,,,,38,001,2019_Dec_25_1526,untitled,3.1.0,59.99201577755812,
013,R,M,180,R,N,013RM180RN,HRN,0,212,212,100,,,1.204,750.751477542548,751.0848115380104,751.1014637702465,751.3847857811634,751.4181567896776,None,up,751.4181567896776,None,751.4181567896776,752.6014366229283,0.05915632751202793,None,2.2667979007819667,,,,,,,,,38,001,2019_Dec_25_1526,untitled,3.1.0,59.99201577755812,
293,_2,N,180,L,N,293_2N180LN,HLN,0,213,213,252,,,0.8310000000000001,753.7513964316531,754.1014121241278,754.1180792542837,754.4013794149178,754.4347457885269,None,up,754.4347457885269,None,754.4347457885269,755.2513547174785,0.05727256836325978,None,2.5501745374021993,,,,,,,,,38,001,2019_Dec_25_1526,untitled,3.1.0,59.99201577755812,
_,F,N,225,_,_,_FN225__,N,0,214,214,53,,,1.219,757.0513441896146,757.4013396871305,757.4180657468387,757.7013337941789,757.7346505080532,None,up,757.7346505080532,None,757.7346505080532,758.9179634477914,0.054030781087931246,None,2.583488271695387,,,,,,,,,38,001,2019_Dec_25_1526,untitled,3.1.0,59.99201577755812,
204,G,M,135,R,N,204GM135RN,HRN,0,215,215,131,,,0.897,760.4012635422114,760.7345839640147,760.7512438107442,761.0345747604115,761.0679007441031,None,None,761.0679007441031,None,761.0679007441031,761.9512053410035,0.05925730229864712,None,,,,,,,,,,38,001,2019_Dec_25_1526,untitled,3.1.0,59.99201577755812,
260,_2,N,135,R,N,260_2N135RN,HRN,0,216,216,243,,,0.854,764.5845119242949,764.9345060975538,764.9511735587766,765.2344800096434,765.2678119525044,764.5845119242949,up,765.2678119525044,None,765.2678119525044,766.084417239741,0.05745266765370616,None,2.350147787361493,,,,,,,,,38,001,2019_Dec_25_1526,untitled,3.1.0,59.99201577755812,
206,G,M,225,R,N,206GM225RN,HRN,0,217,217,133,,,1.114,767.701112973904,768.0344261122809,768.051068081506,768.3343953894582,768.3677379263972,None,up,768.3677379263972,None,768.3677379263972,769.451070597599,0.056935213251563255,None,2.8334793329413515,,,,,,,,,38,001,2019_Dec_25_1526,untitled,3.1.0,59.99201577755812,
_,F,N,0,_,_,_FN000__,N,0,218,218,48,,,0.708,771.2676944244704,771.6176882666659,771.6343597006671,771.9176870086194,771.9510282212977,None,up,771.9510282212977,None,771.9510282212977,772.6342928255617,0.05578211428655777,None,1.6501293139408517,,,,,,,,,38,001,2019_Dec_25_1526,untitled,3.1.0,59.99201577755812,
_,F,N,45,_,_,_FN045__,N,0,219,219,49,,,0.77,773.6676171539293,774.017636488119,774.0343155366099,774.3176180146984,774.3509602205704,None,up,774.3509602205704,None,774.3509602205704,775.1009463158443,0.057833392264001304,None,1.9168262399361993,,,,,,,,,38,001,2019_Dec_25_1526,untitled,3.1.0,59.99201577755812,
387,_4,N,90,R,N,387_4N090RN,HRN,0,220,220,258,,,1.03,776.3342186008158,776.6841839714289,776.7008914915023,776.9842168130635,777.0175441210195,None,up,777.0175441210195,None,777.0175441210195,778.0341966843189,0.05729276331840083,None,2.73348582181643,,,,,,,,,38,001,2019_Dec_25_1526,untitled,3.1.0,59.99201577755812,
262,_2,N,225,R,N,262_2N225RN,HRN,0,221,221,245,,,0.965,779.8341550363584,780.1674986327052,780.1841631143434,780.4674705584039,780.5007938935778,None,up,780.5007938935778,None,780.5007938935778,781.450785881807,0.05790390908077825,None,2.083525350961281,,,,,,,,,38,001,2019_Dec_25_1526,untitled,3.1.0,59.99201577755812,
_,G,N,45,_,_,_GN045__,N,0,222,222,57,,,0.9380000000000001,782.6507901194382,783.0007693947737,783.0174355317395,783.3007141731541,783.3340365151344,None,up,783.3340365151344,None,783.3340365151344,784.2507395989378,0.05406421864245203,None,2.3668907313731324,,,,,,,,,38,001,2019_Dec_25_1526,untitled,3.1.0,59.99201577755812,
_,R,N,315,_,_,_RN315__,N,0,223,223,71,,,1.35,785.7673693187644,786.117369451189,786.1340246630098,786.4173509777684,786.4506905351227,None,up,786.4506905351227,None,786.4506905351227,787.767293504905,0.05755397350367275,None,2.2001363325180137,,,,,,,,,38,001,2019_Dec_25_1526,untitled,3.1.0,59.99201577755812,
_,_5,N,270,_,_,__5N270__,N,0,224,224,94,,,0.853,788.7173070123536,789.0673011856125,789.0839666604443,789.3672750976984,789.4006053852354,None,up,789.4006053852354,None,789.4006053852354,790.2172768854507,0.0568550955504179,None,2.116810613675625,,,,,,,,,38,001,2019_Dec_25_1526,untitled,3.1.0,59.99201577755812,
142,F,M,225,R,N,142FM225RN,HRN,0,225,225,117,,,0.933,791.6005877725838,791.9338879994284,791.9505405627315,792.2338804511492,792.2672471558217,None,down,792.2672471558217,None,792.2672471558217,793.1838479405778,0.05845347677677637,None,1.8834006057149963,,,,,,,,,38,001,2019_Dec_25_1526,untitled,3.1.0,59.99201577755812,
036,R,N,135,L,N,036RN135LN,HLN,0,226,226,203,,,1.209,794.2171802145058,794.5671942516565,794.5838425111142,794.8671751161055,794.9005037483184,None,up,794.9005037483184,None,794.9005037483184,796.0838107288873,0.05627473882486811,None,2.116842395902495,,,,,,,,,38,001,2019_Dec_25_1526,untitled,3.1.0,59.99201577755812,
_,R,M,135,_,_,_RM135__,N,0,227,227,19,,,1.047,797.0837958309676,797.4337820586697,797.4504488577622,797.7337543154317,797.7670855961624,None,down,797.7670855961624,None,797.7670855961624,798.7837305449757,0.05706962559270323,None,1.9168169701188162,,,,,,,,,38,001,2019_Dec_25_1526,untitled,3.1.0,59.99201577755812,
167,F,N,270,L,N,167FN270LN,HLN,0,228,228,222,,,1.349,799.7670518275445,800.100408666487,800.1170463318704,800.4003961522321,800.4336973060599,None,up,800.4336973060599,None,800.4336973060599,801.7503499355771,0.059122227827174356,None,2.7334844975557644,,,,,,,,,38,001,2019_Dec_25_1526,untitled,3.1.0,59.99201577755812,
426,_4,M,45,L,N,426_4M045LN,HLN,0,229,229,169,,,0.8200000000000001,803.2336636036562,803.5836210287125,803.6002941180377,803.8836260608987,803.9169606522773,None,down,803.9169606522773,None,803.9169606522773,804.7002548537421,0.056454507048329106,None,2.1168397473848017,,,,,,,,,38,001,2019_Dec_25_1526,untitled,3.1.0,59.99201577755812,
041,R,M,0,L,N,041RM000LN,HLN,0,230,230,104,,,0.725,806.1002507485391,806.4502402868893,806.4669292673279,806.7502049291616,806.7835573980446,None,down,806.7835573980446,None,806.7835573980446,807.4668991404251,0.0555467271587986,None,1.6168294843737385,,,,,,,,,38,001,2019_Dec_25_1526,untitled,3.1.0,59.99201577755812,
291,_2,N,90,L,N,291_2N090LN,HLN,0,231,231,250,,,1.181,808.4668686824552,808.8168588829358,808.8335091287845,809.1168443822935,809.1501488467693,None,up,809.1501488467693,None,809.1501488467693,810.3001248776745,0.057572182075091405,None,2.116811275805958,,,,,,,,,38,001,2019_Dec_25_1526,untitled,3.1.0,59.99201577755812,
205,G,M,180,R,N,205GM180RN,HRN,0,232,232,132,,,0.881,811.3501388486111,811.6834523180514,811.7001071988088,811.9834431144482,812.0167839960595,None,down,812.0167839960595,None,812.0167839960595,812.866757312233,0.059260944010020467,None,3.1501577855233336,,,,,,,,,38,001,2019_Dec_25_1526,untitled,3.1.0,59.99201577755812,
419,_4,N,90,L,N,419_4N090LN,HLN,0,233,233,266,,,1.004,815.2500503218616,815.5833512108366,815.6000140371507,815.8833688234881,815.916694145053,None,up,815.916694145053,None,815.916694145053,816.9000045024841,0.056921639592474094,None,2.066782406946004,,,,,,,,,38,001,2019_Dec_25_1526,untitled,3.1.0,59.99201577755812,
162,F,N,45,L,N,162FN045LN,HLN,0,234,234,217,,,1.1,818.0499619937546,818.3999796726166,818.4166461406458,818.6999489497975,818.7332881760849,None,up,818.7332881760849,None,818.7332881760849,819.8166191919663,0.056035709982097615,None,2.4668382244854,,,,,,,,,38,001,2019_Dec_25_1526,untitled,3.1.0,59.99201577755812,
_,F,M,45,_,_,_FM045__,N,0,235,235,1,,,1.223,821.2665711213449,821.6165788682629,821.6332344111506,821.9165676782686,821.9498850542768,None,down,821.9498850542768,None,821.9498850542768,823.1331685292389,0.057099421432212694,None,2.350194798571465,,,,,,,,,38,001,2019_Dec_25_1526,untitled,3.1.0,59.99201577755812,
047,R,M,270,L,N,047RM270LN,HLN,0,236,236,110,,,1.377,824.3831850824827,824.7164700803442,824.7331418454087,825.0164734572063,825.0498298988678,None,down,825.0498298988678,None,825.0498298988678,826.399766797902,0.05850611609275802,None,2.2168140567519004,,,,,,,,,38,001,2019_Dec_25_1526,untitled,3.1.0,59.99201577755812,
395,_4,M,90,R,N,395_4M090RN,HRN,0,237,237,162,,,1.222,827.3497627589095,827.6831050309956,827.6997738164791,827.9830792741486,828.01642743919,None,down,828.01642743919,None,828.01642743919,829.1997367372132,0.05683589378895704,None,2.0668383569100115,,,,,,,,,38,001,2019_Dec_25_1526,untitled,3.1.0,59.99201577755812,
399,_4,M,270,R,N,399_4M270RN,HRN,0,238,238,166,,,1.288,830.1497115100683,830.4996970756401,830.5163552670456,830.7996829060612,830.833035043881,None,down,830.833035043881,None,830.833035043881,832.0830052480414,0.05642404908212484,None,3.3501060731869075,,,,,,,,,38,001,2019_Dec_25_1526,untitled,3.1.0,59.99201577755812,
418,_4,N,45,L,N,418_4N045LN,HLN,0,239,239,265,,,1.044,834.2496123230303,834.5995995439262,834.6162484655142,834.8996015965276,834.93294446453,None,up,834.93294446453,None,834.93294446453,835.9496106014922,0.05853326341457432,None,2.3668119379362906,,,,,,,,,38,001,2019_Dec_25_1526,untitled,3.1.0,59.99201577755812,
490,_5,M,45,L,N,490_5M045LN,HLN,0,240,240,185,,,1.184,837.3828950696516,837.7162141671943,837.7328812973537,838.0161907278016,838.049487577784,None,down,838.049487577784,None,838.049487577784,839.1994794998027,0.059481433218024904,None,2.383489331103192,,,,,,,,,38,001,2019_Dec_25_1526,untitled,3.1.0,59.99201577755812,
048,R,M,315,L,N,048RM315LN,HLN,0,241,241,111,,,1.006,840.5161357710313,840.8494535443169,840.8661445111429,841.1494486445554,841.1827789320923,None,down,841.1827789320923,None,841.1827789320923,842.1661157747149,0.05881698601297103,None,1.9501661283575231,,,,,,,,,38,001,2019_Dec_25_1526,untitled,3.1.0,59.99201577755812,
_,G,N,315,_,_,_GN315__,N,0,242,242,63,,,1.1440000000000001,843.199422556645,843.5493892515151,843.5660550574139,843.8493886555989,843.8827255644355,None,up,843.8827255644355,None,843.8827255644355,844.9993865367833,0.0560926531397854,None,2.200176060301601,,,,,,,,,38,001,2019_Dec_25_1526,untitled,3.1.0,59.99201577755812,
197,G,N,180,R,N,197GN180RN,HRN,0,243,243,228,,,1.131,846.1493754792173,846.4993338974709,846.5160361205053,846.7993137687263,846.8326582920527,None,up,846.8326582920527,None,846.8326582920527,847.9493000626389,0.057953568815719336,None,3.2501585800746398,,,,,,,,,38,001,2019_Dec_25_1526,untitled,3.1.0,59.99201577755812,
301,_2,M,180,L,N,301_2M180LN,HLN,0,244,244,156,,,1.154,850.1659469316255,850.4992620563899,850.5159503747018,850.7992293471798,850.8325460610577,None,down,850.8325460610577,None,850.8325460610577,851.9492312011462,0.059496662204765016,None,2.9503286812105216,,,,,,,,,38,001,2019_Dec_25_1526,untitled,3.1.0,59.99201577755812,
459,_5,M,90,R,N,459_5M090RN,HRN,0,245,245,178,,,0.971,853.8658468838221,854.1991977635917,854.2158470162467,854.4991554535009,854.5324625664944,None,down,854.5324625664944,None,854.5324625664944,855.4824754118126,0.06434841797090485,None,3.116842395902495,,,,,,,,,38,001,2019_Dec_25_1526,untitled,3.1.0,59.99201577755812,
_,G,N,270,_,_,_GN270__,N,0,246,246,62,,,1.355,857.7157361095124,858.0657388904583,858.0824123108468,858.3657197549073,858.3990652714274,None,up,858.3990652714274,None,858.3990652714274,859.7157026719615,0.056513767664000625,None,2.4168179633161344,,,,,,,,,38,001,2019_Dec_25_1526,untitled,3.1.0,59.99201577755812,
456,_5,N,315,R,N,456_5N315RN,HRN,0,247,247,279,,,1.206,860.8823789395065,861.2323400062778,861.2489876036088,861.5323404035553,861.5656716842859,None,up,861.5656716842859,None,861.5656716842859,862.7489786648584,0.05774698433015146,None,2.1834811206936138,,,,,,,,,38,001,2019_Dec_25_1526,untitled,3.1.0,59.99201577755812,
_,G,M,90,_,_,_GM090__,N,0,248,248,10,,,1.106,863.8156117615436,864.1656267918916,864.1822886250084,864.4655848128641,864.4989498622126,None,down,864.4989498622126,None,864.4989498622126,865.5822411503068,0.058011174100101925,None,2.450144940201426,,,,,,,,,38,001,2019_Dec_25_1526,untitled,3.1.0,59.99201577755812,
271,_2,M,270,R,N,271_2M270RN,HRN,0,249,249,150,,,0.7010000000000001,867.0322096329292,867.3655677961287,867.3822134070688,867.6655360801124,867.6988577599623,None,down,867.6988577599623,None,867.6988577599623,868.3822107585511,0.05897589715095819,None,2.083495886188757,,,,,,,,,38,001,2019_Dec_25_1526,untitled,3.1.0,59.99201577755812,
394,_4,M,45,R,N,394_4M045RN,HRN,0,250,250,161,,,0.869,869.8488155822997,870.1988233292177,870.2154884729862,870.4988280303369,870.5321606353282,None,down,870.5321606353282,None,870.5321606353282,871.3821296476563,0.05746624131279532,None,2.0002089019399136,,,,,,,,,38,001,2019_Dec_25_1526,untitled,3.1.0,59.99201577755812,
_,_2,M,180,_,_,__2M180__,N,0,251,251,28,,,0.9410000000000001,872.5987887660449,872.9487763180041,872.9654292123705,873.248736656431,873.282075551655,None,down,873.282075551655,None,873.282075551655,874.1987312931815,0.05742353394816746,None,2.1501604340410267,,,,,,,,,38,001,2019_Dec_25_1526,untitled,3.1.0,59.99201577755812,
_,R,N,270,_,_,_RN270__,N,0,252,252,70,,,1.154,875.5153531336618,875.848704013435,875.8653684950732,876.1486564063052,876.18200490241,None,up,876.18200490241,None,876.18200490241,877.2986430312849,0.05870508608495584,None,2.400160765104374,,,,,,,,,38,001,2019_Dec_25_1526,untitled,3.1.0,59.99201577755812,
239,G,M,270,L,N,239GM270LN,HLN,0,253,253,142,,,0.768,878.6653036725693,878.99862508757,879.0152932109195,879.2985870813209,879.3319425297886,None,down,879.3319425297886,None,879.3319425297886,880.0819349152953,0.05882327624203754,None,2.183498005000729,,,,,,,,,38,001,2019_Dec_25_1526,untitled,3.1.0,59.99201577755812,
427,_4,M,90,L,N,427_4M090LN,HLN,0,254,254,170,,,0.724,881.5818859176943,881.9318612202551,881.9485339785133,882.2318708873499,882.2652183902574,None,down,882.2652183902574,None,882.2652183902574,882.9485366270346,0.05550170233618701,None,2.0001526209089207,,,,,,,,,38,001,2019_Dec_25_1526,untitled,3.1.0,59.99201577755812,
_,F,M,315,_,_,_FM315__,N,0,255,255,7,,,1.155,884.3318302987936,884.6818234788589,884.6984998788321,884.9818291731754,885.0151465491799,None,down,885.0151465491799,None,885.0151465491799,886.131811825373,0.05719278172546183,None,2.3168165066308575,,,,,,,,,38,001,2019_Dec_25_1526,untitled,3.1.0,59.99201577755812,
_,_4,M,270,_,_,__4M270__,N,0,256,256,38,,,0.767,887.3984196949204,887.748406253686,887.7650879506982,888.0484145965202,888.081719060996,None,down,888.081719060996,None,888.081719060996,888.8317362763701,0.05611880726792151,None,2.6001934743144375,,,,,,,,,38,001,2019_Dec_25_1526,untitled,3.1.0,59.99201577755812,
417,_4,N,0,L,N,417_4N000LN,HLN,0,257,257,264,,,0.738,890.7650167717475,891.0983805630494,891.1150245186655,891.3983597721744,891.4316665541046,None,up,891.4316665541046,None,891.4316665541046,892.14833361805,0.057662562787299976,None,1.7501413647005393,,,,,,,,,38,001,2019_Dec_25_1526,untitled,3.1.0,59.99201577755812,
002,R,N,45,R,N,002RN045RN,HRN,0,258,258,193,,,0.782,893.248292367367,893.5982891891435,893.614949035873,893.8982717089202,893.9316483455368,None,up,893.9316483455368,None,893.9316483455368,894.6816029896509,0.05593539732581121,None,2.033443180662289,,,,,,,,,38,001,2019_Dec_25_1526,untitled,3.1.0,59.99201577755812,
173,F,M,180,L,N,173FM180LN,HLN,0,259,259,124,,,0.892,896.0315958386491,896.3815691548189,896.3982064891388,896.6816010032599,896.7148813000022,None,None,896.7148813000022,None,896.7148813000022,897.5648893779835,0.05891961612360319,None,,,,,,,,,,38,001,2019_Dec_25_1526,untitled,3.1.0,59.99201577755812,
_,R,M,270,_,_,_RM270__,N,0,260,260,22,,,1.367,900.2314779133376,900.5814816874772,900.5981445137913,900.8814506335948,900.9147805900648,900.2314779133376,down,900.9147805900648,None,900.9147805900648,902.2647502645232,0.05646907390473643,None,2.316821803666244,,,,,,,,,38,001,2019_Dec_25_1526,untitled,3.1.0,59.99201577755812,
_,_5,N,315,_,_,__5N315__,N,0,261,261,95,,,0.896,903.2980726065034,903.6480568478146,903.664720336259,903.9480694944905,903.9814050790665,None,up,903.9814050790665,None,903.9814050790665,904.8646874946207,0.05550567511090776,None,2.2834941646506195,,,,,,,,,38,001,2019_Dec_25_1526,untitled,3.1.0,59.99201577755812,
_,R,N,225,_,_,_RN225__,N,0,262,262,69,,,1.304,906.3313436334247,906.681343765853,906.697999639804,906.9813133740972,907.0146386956585,None,up,907.0146386956585,None,907.0146386956585,908.2979481261063,0.055041853218426695,None,2.5501596394824446,,,,,,,,,38,001,2019_Dec_25_1526,untitled,3.1.0,59.99201577755812,
015,R,M,270,R,N,015RM270RN,HRN,0,263,263,102,,,1.21,909.6479707709441,909.9812514649639,909.9979070078516,910.2812518622413,910.3145712246369,None,down,910.3145712246369,None,910.3145712246369,911.4978758877514,0.05924041799153201,None,2.1001891704690934,,,,,,,,,38,001,2019_Dec_25_1526,untitled,3.1.0,59.99201577755812,
_,R,M,315,_,_,_RM315__,N,0,264,264,23,,,0.767,912.4978838333082,912.8311483051475,912.8478111314616,913.1311732012255,913.1645124275165,None,down,913.1645124275165,None,913.1645124275165,913.9145461961307,0.0579221176521969,None,1.7836226178224024,,,,,,,,,38,001,2019_Dec_25_1526,untitled,3.1.0,59.99201577755812,
481,_5,N,0,L,N,481_5N000LN,HLN,0,265,265,280,,,0.757,915.0311594951418,915.3644636947647,915.3811400947379,915.664485942325,915.6977910689311,None,up,915.6977910689311,None,915.6977910689311,916.414433634076,0.05792741468758322,None,1.9335158825088001,,,,,,,,,38,001,2019_Dec_25_1526,untitled,3.1.0,59.99201577755812,
_,_2,N,135,_,_,__2N135__,N,0,266,266,75,,,1.262,917.6977328015128,918.0477213466693,918.0644070164599,918.3477283652428,918.3810652740758,None,down,918.3810652740758,None,918.3810652740758,919.631045741251,0.05563379721934325,None,2.8667781693184224,,,,,,,,,38,001,2019_Dec_25_1526,untitled,3.1.0,59.99201577755812,
_,_5,M,0,_,_,__5M000__,N,0,267,267,40,,,0.7010000000000001,921.3143474247809,921.6643257069227,921.6809915128215,921.9643148479954,921.9976560606738,None,down,921.9976560606738,None,921.9976560606738,922.6809640344363,0.05750696229370078,None,2.083503169615142,,,,,,,,,38,001,2019_Dec_25_1526,untitled,3.1.0,59.99201577755812,
425,_4,M,0,L,N,425_4M000LN,HLN,0,268,268,168,,,1.173,924.1642902829808,924.4976116979815,924.5142794902677,924.7975789887714,924.8309188771891,None,down,924.8309188771891,None,924.8309188771891,925.9808942459604,0.06048025595373474,None,2.5668141891765117,,,,,,,,,38,001,2019_Dec_25_1526,untitled,3.1.0,59.99201577755812,
016,R,M,315,R,N,016RM315RN,HRN,0,269,269,103,,,0.969,927.4641913607957,927.814200100911,927.8308721970425,928.1141885798534,928.1475086043793,None,down,928.1475086043793,None,928.1475086043793,929.0975088692285,0.057798630452452926,None,2.0502324737572053,,,,,,,,,38,001,2019_Dec_25_1526,untitled,3.1.0,59.99201577755812,
486,_5,N,225,L,N,486_5N225LN,HLN,0,270,270,285,,,0.933,930.2641490507049,930.6141438860941,930.6308100230563,930.9141138254017,930.9474358363186,None,up,930.9474358363186,None,930.9474358363186,931.8640935642325,0.05708518563915277,None,2.483516941912967,,,,,,,,,38,001,2019_Dec_25_1526,untitled,3.1.0,59.99201577755812,
272,_2,M,315,R,N,272_2M315RN,HRN,0,271,271,151,,,0.837,933.4974094173413,933.8473790917997,933.8640362900078,934.1473983597753,934.1807286473086,None,down,934.1807286473086,None,934.1807286473086,934.9973524741836,0.058478306644246913,None,2.733461654079292,,,,,,,,,38,001,2019_Dec_25_1526,untitled,3.1.0,59.99201577755812,
132,F,N,135,R,N,132FN135RN,HRN,0,272,272,211,,,0.902,936.9806823644394,937.330625222643,937.3473075817856,937.630653429369,937.6639919935296,None,up,937.6639919935296,None,937.6639919935296,938.5472995700147,0.05770030417988892,None,2.3334154374242644,,,,,,,,,38,001,2019_Dec_25_1526,untitled,3.1.0,59.99201577755812,
461,_5,M,180,R,N,461_5M180RN,HRN,0,273,273,180,,,1.327,940.0806020480995,940.4139224699029,940.4305902621927,940.7139076381973,940.7472286559168,None,up,940.7472286559168,None,940.7472286559168,942.0305367621077,0.05785292508880957,None,3.0501268640618946,,,,,,,,,38,001,2019_Dec_25_1526,untitled,3.1.0,59.99201577755812,
169,F,M,0,L,N,169FM000LN,HLN,0,274,274,120,,,0.8160000000000001,943.8638402996003,944.2138394388348,944.2305065689907,944.5138318905556,944.547130726929,None,down,944.547130726929,None,944.547130726929,945.3304815404845,0.05658329128709738,None,1.8335627612941607,,,,,,,,,38,001,2019_Dec_25_1526,untitled,3.1.0,59.99201577755812,
_,F,M,0,_,_,_FM000__,N,0,275,275,0,,,0.9430000000000001,946.4471127169963,946.7970890127544,946.81375548078,947.0971069564694,947.1304047996491,None,down,947.1304047996491,None,947.1304047996491,948.0470681556653,0.05748378775388119,None,2.366876826650696,,,,,,,,,38,001,2019_Dec_25_1526,untitled,3.1.0,59.99201577755812,
135,F,N,270,R,N,135FN270RN,HRN,0,276,276,214,,,0.717,949.580357391158,949.9136999943075,949.930370104048,950.2136778791719,950.2470382936153,None,up,950.2470382936153,None,950.2470382936153,950.9303101813057,0.059332454027753556,None,1.71679783457148,,,,,,,,,38,001,2019_Dec_25_1526,untitled,3.1.0,59.99201577755812,
_,F,N,180,_,_,_FN180__,N,0,277,277,52,,,0.7020000000000001,952.0303232252627,952.380327992596,952.3969908189101,952.6803081949183,952.7136133215208,None,up,952.7136133215208,None,952.7136133215208,953.3969474494115,0.05653628007348743,None,1.6501551370020024,,,,,,,,,38,001,2019_Dec_25_1526,untitled,3.1.0,59.99201577755812,
267,_2,M,90,R,N,267_2M090RN,HRN,0,278,278,146,,,0.8190000000000001,954.4302558866657,954.7802517152486,954.796901630034,955.0802646929915,955.1135896834894,None,down,955.1135896834894,None,955.1135896834894,955.896911032276,0.057149412226863205,None,2.1335022426355863,,,,,,,,,38,001,2019_Dec_25_1526,untitled,3.1.0,59.99201577755812,
_,R,N,45,_,_,_RN045__,N,0,279,279,65,,,1.18,957.313546909907,957.6635189018198,957.6801880183666,957.9635057254382,957.9968436274648,None,up,957.9968436274648,None,957.9968436274648,959.1468130370704,0.05738976532666129,None,2.166878217121848,,,,,,,,,38,001,2019_Dec_25_1526,untitled,3.1.0,59.99201577755812,
035,R,N,90,L,N,035RN090LN,HLN,0,280,280,202,,,1.035,960.24680853459,960.5800898907364,960.5967825128901,960.8801346507098,960.9134695731518,None,up,960.9134695731518,None,960.9134695731518,961.9300764495019,0.05965689760341775,None,1.8501656648622884,,,,,,,,,38,001,2019_Dec_25_1526,untitled,3.1.0,59.99201577755812,
_,_2,N,45,_,_,__2N045__,N,0,281,281,73,,,0.971,962.8300902218034,963.1800843950587,963.1967478835031,963.4800798263641,963.5134197147818,None,up,963.5134197147818,None,963.5134197147818,964.4633878663408,0.05636313314244035,None,2.133485358324833,,,,,,,,,38,001,2019_Dec_25_1526,untitled,3.1.0,59.99201577755812,
_,R,N,90,_,_,_RN090__,N,0,282,282,66,,,0.791,965.7133560841139,966.0633512505665,966.0800137458136,966.3633470129353,966.3966680306548,None,up,966.3966680306548,None,966.3966680306548,967.1466600850981,0.05471244366708561,None,2.1001640095382754,,,,,,,,,38,001,2019_Dec_25_1526,untitled,3.1.0,59.99201577755812,
391,_4,N,270,R,N,391_4N270RN,HRN,0,283,283,262,,,1.071,968.5632847065244,968.9132874874704,968.9299923590224,969.2132822566455,969.2466006258473,None,up,969.2466006258473,None,969.2466006258473,970.2965900979834,0.05801978179079015,None,2.4335085990787775,,,,,,,,,38,001,2019_Dec_25_1526,untitled,3.1.0,59.99201577755812,
451,_5,N,90,R,N,451_5N090RN,HRN,0,284,284,274,,,0.9520000000000001,971.7465479865314,972.0965491121533,972.1132231946722,972.3965548064662,972.4298695339567,None,up,972.4298695339567,None,972.4298695339567,973.3465166677925,0.05811380421437207,None,2.1668222671614785,,,,,,,,,38,001,2019_Dec_25_1526,untitled,3.1.0,59.99201577755812,
171,F,M,90,L,N,171FM090LN,HLN,0,285,285,122,,,1.335,974.6798288129758,975.0131545318145,975.0298186823893,975.3131446660846,975.3464809127872,None,down,975.3464809127872,None,975.3464809127872,976.6631179822543,0.05867164853043505,None,2.1501511642236437,,,,,,,,,38,001,2019_Dec_25_1526,untitled,3.1.0,59.99201577755812,
163,F,N,90,L,N,163FN090LN,HLN,0,286,286,218,,,0.708,977.5630936820926,977.9130785855341,977.9297271760588,978.2130630916981,978.2463629212652,None,up,978.2463629212652,None,978.2463629212652,978.9297069811,0.05535073675127933,None,1.5668443160793686,,,,,,,,,38,001,2019_Dec_25_1526,untitled,3.1.0,59.99201577755812,
_,_2,M,90,_,_,__2M090__,N,0,287,287,26,,,1.36,979.8797002935898,980.2296961221728,980.2463665629803,980.5296965194502,980.5630278001809,None,down,980.5630278001809,None,980.5630278001809,981.8796658628416,0.057604626432294026,None,2.5334733075615077,,,,,,,,,38,001,2019_Dec_25_1526,untitled,3.1.0,59.99201577755812,
,,,,,,,,,,,,,,,,,,,,,,,,,,,,,983.1129662883286,None,1028.2120295071509,None,1031.328637509123,None,1033.1119327037813,None,,,,,,,
