Number,Letter,type,Orientation,human,face_type,image,picture,trials.thisRepN,trials.thisTrialN,trials.thisN,trials.thisIndex,text.started,text.stopped,stimulus_duration,CROSS.started,CROSS.stopped,BLANK.started,BLANK.stopped,TEST.started,TEST.stopped,key_JUDGE.keys,key_JUDGE.rt,key_JUDGE.started,key_JUDGE.stopped,image_2.started,image_2.stopped,ISI.started,ISI.stopped,q1.started,q1.stopped,q2.started,q2.stopped,q3.started,q3.stopped,text_2.started,text_2.stopped,participant,session,date,expName,psychopyVersion,frameRate,
176,F,M,315,L,N,176FM315LN,HLN,0,0,0,127,255.99726699991152,None,1.235,295.81469199992716,296.10735659999773,296.10735659999773,296.34054070001,296.3572453999659,None,down,3.048566000070423,296.3572453999659,None,296.3572453999659,297.57289549999405,0.18028049997519702,None,,,,,,,,,39,001,2020_Jan_03_1652,untitled,3.1.0,60.08315511833204,
137,F,M,0,R,N,137FM000RN,HRN,0,1,1,112,,,1.091,299.704369999934,300.00405849993695,300.00405849993695,300.2043466999894,300.22063619992696,None,down,2.5847706999629736,300.22063619992696,None,300.22063619992696,301.3036127999658,0.20297550002578646,None,,,,,,,,,39,001,2020_Jan_03_1652,untitled,3.1.0,60.08315511833204,
296,_2,N,315,L,N,296_2N315LN,HLN,0,2,2,255,,,1.371,303.0500362999737,303.35147849994246,303.35147849994246,303.5180202999618,303.5347593999468,None,up,2.619080899981782,303.5347593999468,None,303.5347593999468,304.8998852999648,0.22914299997501075,None,,,,,,,,,39,001,2020_Jan_03_1652,untitled,3.1.0,60.08315511833204,
492,_5,M,135,L,N,492_5M135LN,HLN,0,3,3,187,,,0.842,306.48038690001704,306.7798698999686,306.7798698999686,306.88148169999477,306.88148169999477,None,down,2.1501231000293046,306.88148169999477,None,306.88148169999477,307.7143753999844,0.3084405999397859,None,,,,,,,,,39,001,2020_Jan_03_1652,untitled,3.1.0,60.08315511833204,
_,_2,M,45,_,_,__2M045__,N,0,4,4,25,,,1.0070000000000001,309.2472908999771,309.54570359992795,309.54570359992795,309.74557489994913,309.76223939994816,None,up,3.099059500033036,309.76223939994816,None,309.76223939994816,310.7614070000127,0.20139399997424334,None,,,,,,,,,39,001,2020_Jan_03_1652,untitled,3.1.0,60.08315511833204,
452,_5,N,135,R,N,452_5N135RN,HRN,0,5,5,275,,,0.722,313.06848519993946,313.3590649999678,313.3590649999678,313.5757389999926,313.5939305999782,None,up,2.2832533000037074,313.5939305999782,None,313.5939305999782,314.3082601999631,0.19421740004327148,None,,,,,,,,,39,001,2020_Jan_03_1652,untitled,3.1.0,60.08315511833204,
_,R,N,225,_,_,_RN225__,N,0,6,6,69,,,1.155,316.09680980001576,316.38977159990463,316.38977159990463,316.5901896000141,316.6075755999191,None,up,2.4331770000280812,316.6075755999191,None,316.6075755999191,317.7561961999163,0.20494580001104623,None,,,,,,,,,39,001,2020_Jan_03_1652,untitled,3.1.0,60.08315511833204,
198,G,N,225,R,N,198GN225RN,HRN,0,7,7,229,,,0.9430000000000001,319.27216829999816,319.5705052999547,319.5705052999547,319.75398449995555,319.77102059999015,None,up,2.167297299951315,319.77102059999015,None,319.77102059999015,320.7027637999272,0.2144013000652194,None,,,,,,,,,39,001,2020_Jan_03_1652,untitled,3.1.0,60.08315511833204,
419,_4,N,90,L,N,419_4N090LN,HLN,0,8,8,266,,,1.2,322.26227949990425,322.55112700001337,322.55112700001337,322.65099999995437,322.66786819999106,None,up,2.2827393000479788,322.66786819999106,None,322.66786819999106,323.8668585999403,0.30587999999988824,None,,,,,,,,,39,001,2020_Jan_03_1652,untitled,3.1.0,60.08315511833204,
453,_5,N,180,R,N,453_5N180RN,HRN,0,9,9,276,,,0.901,325.19641530001536,325.48412129993085,325.48412129993085,325.66589750000276,325.6852150999475,None,up,2.0969256000826135,325.6852150999475,None,325.6852150999475,326.5656136999605,0.23210509994532913,None,,,,,,,,,39,001,2020_Jan_03_1652,untitled,3.1.0,60.08315511833204,
395,_4,M,90,R,N,395_4M090RN,HRN,0,10,10,162,,,0.978,328.04601869999897,328.346613099915,328.346613099915,328.4968408999266,328.51582789991517,None,down,3.4469010999891907,328.51582789991517,None,328.51582789991517,329.4785256999312,0.24509680003393441,None,,,,,,,,,39,001,2020_Jan_03_1652,untitled,3.1.0,60.08315511833204,
_,R,M,45,_,_,_RM045__,N,0,11,11,17,,,1.359,332.19107649999205,332.49253899999894,332.49253899999894,332.6950400999049,332.6950400999049,None,down,2.9466264999937266,332.6950400999049,None,332.6950400999049,334.04171299992595,0.21000339998863637,None,,,,,,,,,39,001,2020_Jan_03_1652,untitled,3.1.0,60.08315511833204,
047,R,M,270,L,N,047RM270LN,HLN,0,12,12,110,,,1.35,335.876211799914,336.1724640999455,336.1724640999455,336.3569995999569,336.3723872000119,None,down,2.8651528999907896,336.3723872000119,None,336.3723872000119,337.70487509993836,0.2191795000107959,None,,,,,,,,,39,001,2020_Jan_03_1652,untitled,3.1.0,60.08315511833204,
_,_2,M,315,_,_,__2M315__,N,0,13,13,31,,,0.979,339.4151270999573,339.7041823999025,339.7041823999025,339.95384360000025,339.9692260000156,None,None,,339.9692260000156,None,339.9692260000156,340.93488259997685,0.16628210002090782,None,,,,,,,,,39,001,2020_Jan_03_1652,untitled,3.1.0,60.08315511833204,
002,R,N,45,R,N,002RN045RN,HRN,0,14,14,193,,,0.761,343.6303597999504,343.93240709998645,343.93240709998645,344.14910049992613,344.1655206999276,343.6303597999504,up,1.666234500007704,344.1655206999276,None,344.1655206999276,344.914949900005,0.1857231999747455,None,,,,,,,,,39,001,2020_Jan_03_1652,untitled,3.1.0,60.08315511833204,
_,_5,N,315,_,_,__5N315__,N,0,15,15,95,,,1.127,346.03171449992806,346.330295199994,346.330295199994,346.548161799903,346.56338389997836,None,up,2.017192200059071,346.56338389997836,None,346.56338389997836,347.6796108999988,0.18563520000316203,None,,,,,,,,,39,001,2020_Jan_03_1652,untitled,3.1.0,60.08315511833204,
231,G,N,270,L,N,231GN270LN,HLN,0,16,16,238,,,0.988,348.7686641999753,349.06131389993243,349.06131389993243,349.29533899994567,349.31377349991817,None,up,1.8151365000521764,349.31377349991817,None,349.31377349991817,350.27733589999843,0.1760734999552369,None,,,,,,,,,39,001,2020_Jan_03_1652,untitled,3.1.0,60.08315511833204,
037,R,N,180,L,N,037RN180LN,HLN,0,17,17,204,,,0.712,351.3868061999092,351.6762182000093,351.6762182000093,351.84289679990616,351.8588258000091,None,down,2.5158151000505313,351.8588258000091,None,351.8588258000091,352.5584456999786,0.24102519999723881,None,,,,,,,,,39,001,2020_Jan_03_1652,untitled,3.1.0,60.08315511833204,
297,_2,M,0,L,N,297_2M000LN,HLN,0,18,18,152,,,0.761,354.5665291999467,354.85663880000357,354.85663880000357,355.0892002999317,355.10600829997566,None,down,2.4177707000635564,355.10600829997566,None,355.10600829997566,355.85525899997447,0.17975530005060136,None,,,,,,,,,39,001,2020_Jan_03_1652,untitled,3.1.0,60.08315511833204,
_,F,M,270,_,_,_FM270__,N,0,19,19,6,,,1.165,357.7107257999014,358.0034190999577,358.0034190999577,358.23644989996683,358.2532734000124,None,down,2.1992629000451416,358.2532734000124,None,358.2532734000124,359.4021615999518,0.17531369999051094,None,,,,,,,,,39,001,2020_Jan_03_1652,untitled,3.1.0,60.08315511833204,
_,_2,N,315,_,_,__2N315__,N,0,20,20,79,,,0.929,360.6578424999025,360.95070399995893,360.95070399995893,361.16769509995356,361.18394309992436,None,up,2.168996199965477,361.18394309992436,None,361.18394309992436,362.0997324999189,0.19161029998213053,None,,,,,,,,,39,001,2020_Jan_03_1652,untitled,3.1.0,60.08315511833204,
139,F,M,90,R,N,139FM090RN,HRN,0,21,21,114,,,1.043,363.5704022999853,363.86485289991833,363.86485289991833,364.0646549999947,364.0815655000042,None,down,2.267370800022036,364.0815655000042,None,364.0815655000042,365.1142087999033,0.20405410008970648,None,,,,,,,,,39,001,2020_Jan_03_1652,untitled,3.1.0,60.08315511833204,
_,G,N,90,_,_,_GN090__,N,0,22,22,58,,,1.216,366.59984779998194,366.8959029999096,366.8959029999096,367.06230839993805,367.07890719990246,None,up,2.2336887000128627,367.07890719990246,None,367.07890719990246,368.27767169999424,0.235524500021711,None,,,,,,,,,39,001,2020_Jan_03_1652,untitled,3.1.0,60.08315511833204,
_,F,N,90,_,_,_FN090__,N,0,23,23,50,,,1.391,369.57546279998496,369.8746250999393,369.8746250999393,370.0262158999685,370.0428258999018,None,up,3.2341841999441385,370.0428258999018,None,370.0428258999018,371.4250255000079,0.24455800000578165,None,,,,,,,,,39,001,2020_Jan_03_1652,untitled,3.1.0,60.08315511833204,
_,F,N,225,_,_,_FN225__,N,0,24,24,53,,,0.981,373.4813645000104,373.77437220001593,373.77437220001593,373.98958980001044,374.0064546999056,None,up,2.2839480999391526,374.0064546999056,None,374.0064546999056,374.9724148999667,0.19064929999876767,None,,,,,,,,,39,001,2020_Jan_03_1652,untitled,3.1.0,60.08315511833204,
_,_2,M,0,_,_,__2M000__,N,0,25,25,24,,,1.114,376.49082800000906,376.78708519996144,376.78708519996144,377.00348309997935,377.02035569993313,None,down,2.4499927000142634,377.02035569993313,None,377.02035569993313,378.1191881999839,0.1869371000211686,None,,,,,,,,,39,001,2020_Jan_03_1652,untitled,3.1.0,60.08315511833204,
_,R,M,90,_,_,_RM090__,N,0,26,26,18,,,0.979,379.6532655999763,379.95126249990426,379.95126249990426,380.1841559999157,380.2011555999052,None,down,2.049443900003098,380.2011555999052,None,380.2011555999052,381.1667762999423,0.1698259999975562,None,,,,,,,,,39,001,2020_Jan_03_1652,untitled,3.1.0,60.08315511833204,
397,_4,M,180,R,N,397_4M180RN,HRN,0,27,27,164,,,1.22,382.47485809994396,382.765049599926,382.765049599926,382.96492749999743,382.9821415999904,None,up,1.9338084999471903,382.9821415999904,None,382.9821415999904,384.18110159994103,0.20936159999109805,None,,,,,,,,,39,001,2020_Jan_03_1652,untitled,3.1.0,60.08315511833204,
239,G,M,270,L,N,239GM270LN,HLN,0,28,28,142,,,0.8290000000000001,385.14977909997106,385.4463300999487,385.4463300999487,385.6293017999269,385.64604099991266,None,down,2.050346300005913,385.64604099991266,None,385.64604099991266,386.46179430000484,0.22015559999272227,None,,,,,,,,,39,001,2020_Jan_03_1652,untitled,3.1.0,60.08315511833204,
400,_4,M,315,R,N,400_4M315RN,HRN,0,29,29,167,,,1.177,387.91443469992373,388.21014179999474,388.21014179999474,388.4100710999919,388.4266626999015,None,up,2.165909899980761,388.4266626999015,None,388.4266626999015,389.59237699990626,0.20564880000893027,None,,,,,,,,,39,001,2020_Jan_03_1652,untitled,3.1.0,60.08315511833204,
259,_2,N,90,R,N,259_2N090RN,HRN,0,30,30,242,,,1.3760000000000001,390.8029994999524,391.0913763999706,391.0913763999706,391.30751760001294,391.3243496000068,None,up,2.950450300006196,391.3243496000068,None,391.3243496000068,392.69028609991074,0.19843980006407946,None,,,,,,,,,39,001,2020_Jan_03_1652,untitled,3.1.0,60.08315511833204,
034,R,N,45,L,N,034RN045LN,HLN,0,31,31,201,,,1.31,394.48989630001597,394.7876557999989,394.7876557999989,394.9876465999987,395.0045111000072,None,down,2.1671506999991834,395.0045111000072,None,395.0045111000072,396.303855999955,0.20255980000365525,None,,,,,,,,,39,001,2020_Jan_03_1652,untitled,3.1.0,60.08315511833204,
301,_2,M,180,L,N,301_2M180LN,HLN,0,32,32,156,,,0.974,397.4399294999894,397.73563739995006,397.73563739995006,397.8854477999266,397.9024497999344,None,up,2.816442299983464,397.9024497999344,None,397.9024497999344,398.8674541999353,0.2519873999990523,None,,,,,,,,,39,001,2020_Jan_03_1652,untitled,3.1.0,60.08315511833204,
393,_4,M,0,R,N,393_4M000RN,HRN,0,33,33,160,,,0.806,400.96262989996467,401.25087799993344,401.25087799993344,401.43212479993235,401.4487315999577,None,up,1.669023200054653,401.4487315999577,None,401.4487315999577,402.2480203999439,0.22919669991824776,None,,,,,,,,,39,001,2020_Jan_03_1652,untitled,3.1.0,60.08315511833204,
289,_2,N,0,L,N,289_2N000LN,HLN,0,34,34,248,,,1.01,403.31166569993366,403.5984233999625,403.5984233999625,403.82992589997593,403.8465429999633,None,up,2.0684965000255033,403.8465429999633,None,403.8465429999633,404.8460308999056,0.1815175999654457,None,,,,,,,,,39,001,2020_Jan_03_1652,untitled,3.1.0,60.08315511833204,
_,_4,N,225,_,_,__4N225__,N,0,35,35,85,,,1.157,406.0926386999199,406.394596499973,406.394596499973,406.62732299999334,406.64420899993274,None,up,2.668043699930422,406.64420899993274,None,406.64420899993274,407.79349969991017,0.1654795000795275,None,,,,,,,,,39,001,2020_Jan_03_1652,untitled,3.1.0,60.08315511833204,
450,_5,N,45,R,N,450_5N045RN,HRN,0,36,36,273,,,0.774,409.5469603999518,409.84154679998755,409.84154679998755,410.0246642999118,410.0415003999369,None,up,1.6852858000202104,410.0415003999369,None,410.0415003999369,410.80767169990577,0.2185027999803424,None,,,,,,,,,39,001,2020_Jan_03_1652,untitled,3.1.0,60.08315511833204,
040,R,N,315,L,N,040RN315LN,HLN,0,37,37,207,,,1.0070000000000001,411.98412749997806,412.27389869990293,412.27389869990293,412.4564629999222,412.4564629999222,None,up,2.033388499985449,412.4564629999222,None,412.4564629999222,413.4553773999214,0.23934089997783303,None,,,,,,,,,39,001,2020_Jan_03_1652,untitled,3.1.0,60.08315511833204,
425,_4,M,0,L,N,425_4M000LN,HLN,0,38,38,168,,,1.328,414.6729284999892,414.97034160001203,414.97034160001203,415.203485099948,415.2206805999158,None,up,1.9828188000246882,415.2206805999158,None,415.2206805999158,416.5362104999367,0.170200000051409,None,,,,,,,,,39,001,2020_Jan_03_1652,untitled,3.1.0,60.08315511833204,
_,_2,N,45,_,_,__2N045__,N,0,39,39,73,,,0.9510000000000001,417.4275644000154,417.7177886000136,417.7177886000136,417.9175705999369,417.93472859996837,None,up,2.316592499963008,417.93472859996837,None,417.93472859996837,418.8671035999432,0.21109509991947562,None,,,,,,,,,39,001,2020_Jan_03_1652,untitled,3.1.0,60.08315511833204,
_,F,M,135,_,_,_FM135__,N,0,40,40,3,,,0.839,420.47504799999297,420.7660353999818,420.7660353999818,420.9654542999342,420.98181029991247,None,down,2.333600400015712,420.98181029991247,None,420.98181029991247,421.8152989000082,0.21119739999994636,None,,,,,,,,,39,001,2020_Jan_03_1652,untitled,3.1.0,60.08315511833204,
263,_2,N,270,R,N,263_2N270RN,HRN,0,41,41,246,,,1.197,423.54315589996986,423.83104329998605,423.83104329998605,424.0298064999515,424.0460425999481,None,up,2.634355999995023,424.0460425999481,None,424.0460425999481,425.228099299944,0.21326619992032647,None,,,,,,,,,39,001,2020_Jan_03_1652,untitled,3.1.0,60.08315511833204,
449,_5,N,0,R,N,449_5N000RN,HRN,0,42,42,272,,,1.0170000000000001,426.8802683999529,427.17675489990506,427.17675489990506,427.3952680999646,427.4115870000096,None,up,1.9979659999953583,427.4115870000096,None,427.4115870000096,428.4097908999538,0.18803690001368523,None,,,,,,,,,39,001,2020_Jan_03_1652,untitled,3.1.0,60.08315511833204,
_,G,N,315,_,_,_GN315__,N,0,43,43,63,,,0.735,429.66684630000964,429.95771260000765,429.95771260000765,430.12373469991144,430.1404879000038,None,up,1.9344217999605462,430.1404879000038,None,430.1404879000038,430.858260900015,0.24132009991444647,None,,,,,,,,,39,001,2020_Jan_03_1652,untitled,3.1.0,60.08315511833204,
264,_2,N,315,R,N,264_2N315RN,HRN,0,44,44,247,,,0.921,432.320970700006,432.62184029992204,432.62184029992204,432.78803109994624,432.804772799951,None,up,1.6022688000230119,432.804772799951,None,432.804772799951,433.72082229994703,0.23046719992998987,None,,,,,,,,,39,001,2020_Jan_03_1652,untitled,3.1.0,60.08315511833204,
_,G,N,270,_,_,_GN270__,N,0,45,45,62,,,1.121,434.61877910001203,434.91973699990194,434.91973699990194,435.11933499993756,435.136061499943,None,up,1.7830031000776216,435.136061499943,None,435.136061499943,436.2517973999493,0.19901300000492483,None,,,,,,,,,39,001,2020_Jan_03_1652,untitled,3.1.0,60.08315511833204,
207,G,M,270,R,N,207GM270RN,HRN,0,46,46,134,,,1.194,437.1298019000096,437.4182000999572,437.4182000999572,437.63395359995775,437.6509006000124,None,down,2.5488615999929607,437.6509006000124,None,437.6509006000124,438.83294669992756,0.1959483000682667,None,,,,,,,,,39,001,2020_Jan_03_1652,untitled,3.1.0,60.08315511833204,
201,G,M,0,R,N,201GM000RN,HRN,0,47,47,128,,,1.086,440.4349008999998,440.7313607999822,440.7313607999822,440.9156254999107,440.9312142999843,None,None,,440.9312142999843,None,440.9312142999843,441.9970355000114,0.22120560007169843,None,,,,,,,,,39,001,2020_Jan_03_1652,untitled,3.1.0,60.08315511833204,
_,_2,N,225,_,_,__2N225__,N,0,48,48,77,,,0.834,444.6113526999252,444.911252199905,444.911252199905,445.11170649994165,445.12815579993185,444.6113526999252,up,1.6191972000524402,445.12815579993185,None,445.12815579993185,445.94332720001694,0.20120149990543723,None,,,,,,,,,39,001,2020_Jan_03_1652,untitled,3.1.0,60.08315511833204,
046,R,M,225,L,N,046RM225LN,HLN,0,49,49,109,,,0.8180000000000001,447.0083505999064,447.30893179995473,447.30893179995473,447.47537239990197,447.47537239990197,None,down,2.5510839999187738,447.47537239990197,None,447.47537239990197,448.2921580999391,0.24253649997990578,None,,,,,,,,,39,001,2020_Jan_03_1652,untitled,3.1.0,60.08315511833204,
426,_4,M,45,L,N,426_4M045LN,HLN,0,50,50,169,,,1.114,450.23597149993293,450.5225740999449,450.5225740999449,450.739043999929,450.7557971999049,None,down,2.8654956999234855,450.7557971999049,None,450.7557971999049,451.8556583999889,0.19524709996767342,None,,,,,,,,,39,001,2020_Jan_03_1652,untitled,3.1.0,60.08315511833204,
489,_5,M,0,L,N,489_5M000LN,HLN,0,51,51,184,,,1.168,453.8091095999116,454.1032600000035,454.1032600000035,454.3360141000012,454.3534638999263,None,down,3.197999499971047,454.3534638999263,None,454.3534638999263,455.50165160000324,0.17495719995349646,None,,,,,,,,,39,001,2020_Jan_03_1652,untitled,3.1.0,60.08315511833204,
174,F,M,225,L,N,174FM225LN,HLN,0,52,52,125,,,1.3980000000000001,457.76951139990706,458.0659626999404,458.0659626999404,458.26594099996146,458.2829658999108,None,down,3.297287800000049,458.2829658999108,None,458.2829658999108,459.6650870000012,0.20238150004297495,None,,,,,,,,,39,001,2020_Jan_03_1652,untitled,3.1.0,60.08315511833204,
295,_2,N,270,L,N,295_2N270LN,HLN,0,53,53,254,,,0.9470000000000001,461.8823572999099,462.1796713999938,462.1796713999938,462.29683209990617,462.3139154999517,None,up,2.4009537999518216,462.3139154999517,None,462.3139154999517,463.2448380999267,0.2880066999932751,None,,,,,,,,,39,001,2020_Jan_03_1652,untitled,3.1.0,60.08315511833204,
_,F,N,270,_,_,_FN270__,N,0,54,54,54,,,0.731,464.9215792999603,465.211360199959,465.211360199959,465.42632859991863,465.443072999944,None,up,1.7515516000567004,465.443072999944,None,465.443072999944,466.1589683999773,0.19466130004730076,None,,,,,,,,,39,001,2020_Jan_03_1652,untitled,3.1.0,60.08315511833204,
045,R,M,180,L,N,045RM180LN,HLN,0,55,55,108,,,1.367,467.4232694999082,467.72436029999517,467.72436029999517,467.90750829991885,467.92430299997795,None,None,,467.92430299997795,None,467.92430299997795,469.273068599985,0.21364520001225173,None,,,,,,,,,39,001,2020_Jan_03_1652,untitled,3.1.0,60.08315511833204,
035,R,N,90,L,N,035RN090LN,HLN,0,56,56,202,,,1.303,471.65833309991285,471.95395019999705,471.95395019999705,472.1203983000014,472.13710069993977,471.65833309991285,up,1.951591599965468,472.13710069993977,None,472.13710069993977,473.41946949996054,0.22714720002841204,None,,,,,,,,,39,001,2020_Jan_03_1652,untitled,3.1.0,60.08315511833204,
132,F,N,135,R,N,132FN135RN,HRN,0,57,57,211,,,0.749,474.3494864999084,474.65172480000183,474.65172480000183,474.80225559999235,474.819008499966,None,up,1.8998543000780046,474.819008499966,None,474.819008499966,475.55077019997407,0.24638070003129542,None,,,,,,,,,39,001,2020_Jan_03_1652,untitled,3.1.0,60.08315511833204,
261,_2,N,180,R,N,261_2N180RN,HRN,0,58,58,244,,,1.141,476.932238599984,477.2338708000025,477.2338708000025,477.4336888999678,477.45173339999747,None,up,2.5309945000335574,477.45173339999747,None,477.45173339999747,478.5816381999757,0.19995680009014904,None,,,,,,,,,39,001,2020_Jan_03_1652,untitled,3.1.0,60.08315511833204,
138,F,M,45,R,N,138FM045RN,HRN,0,59,59,113,,,0.7000000000000001,480.20387829991523,480.49705739994533,480.49705739994533,480.69671129994094,480.71325059991796,None,down,1.701493899920024,480.71325059991796,None,480.71325059991796,481.39581779995933,0.2072596000507474,None,,,,,,,,,39,001,2020_Jan_03_1652,untitled,3.1.0,60.08315511833204,
_,_2,M,270,_,_,__2M270__,N,0,60,60,30,,,1.032,482.6062027999433,482.8945454999339,482.8945454999339,483.12735510000493,483.1441472999286,None,up,2.333049100008793,483.1441472999286,None,483.1441472999286,484.1602374999784,0.17786579998210073,None,,,,,,,,,39,001,2020_Jan_03_1652,untitled,3.1.0,60.08315511833204,
_,_4,M,270,_,_,__4M270__,N,0,61,61,38,,,1.01,485.7033182999585,485.9921693999786,485.9921693999786,486.1915021999739,486.20834209991153,None,down,2.3665188999148086,486.20834209991153,None,486.20834209991153,487.2073000000091,0.21141470002476126,None,,,,,,,,,39,001,2020_Jan_03_1652,untitled,3.1.0,60.08315511833204,
_,_5,N,90,_,_,__5N090__,N,0,62,62,90,,,1.008,488.7903275999706,489.08920970000327,489.08920970000327,489.28954489994794,489.30608969996683,None,up,2.0986062000738457,489.30608969996683,None,489.30608969996683,490.30546329997014,0.20223070005886257,None,,,,,,,,,39,001,2020_Jan_03_1652,untitled,3.1.0,60.08315511833204,
038,R,N,225,L,N,038RN225LN,HLN,0,63,63,205,,,0.8210000000000001,491.5952348000137,491.88669939991087,491.88669939991087,492.1197335999459,492.1363324999111,None,up,2.0159052999224514,492.1363324999111,None,492.1363324999111,492.9384613999864,0.17641349998302758,None,,,,,,,,,39,001,2020_Jan_03_1652,untitled,3.1.0,60.08315511833204,
_,_2,N,0,_,_,__2N000__,N,0,64,64,72,,,1.022,494.3369464999996,494.63396759994794,494.63396759994794,494.8672754999716,494.88408499991056,None,up,1.6328810999402776,494.88408499991056,None,494.88408499991056,495.88313889992423,0.1722105999942869,None,,,,,,,,,39,001,2020_Jan_03_1652,untitled,3.1.0,60.08315511833204,
012,R,M,135,R,N,012RM135RN,HRN,0,65,65,99,,,1.03,496.73127170000225,497.03032749996055,497.03032749996055,497.2318616999546,497.2487623000052,None,up,2.249970700009726,497.2487623000052,None,497.2487623000052,498.2643696999876,0.20065859996248037,None,,,,,,,,,39,001,2020_Jan_03_1652,untitled,3.1.0,60.08315511833204,
396,_4,M,135,R,N,396_4M135RN,HRN,0,66,66,163,,,0.862,499.70999659993686,499.997687999974,499.997687999974,500.21275800000876,500.22953229991253,None,down,2.4032046999782324,500.22953229991253,None,500.22953229991253,501.0792542999843,0.19883550005033612,None,,,,,,,,,39,001,2020_Jan_03_1652,untitled,3.1.0,60.08315511833204,
_,_5,M,0,_,_,__5M000__,N,0,67,67,40,,,1.339,502.8453525999794,503.1443037999561,503.1443037999561,503.3431587999221,503.3611854999326,None,up,2.331123200012371,503.3611854999326,None,503.3611854999326,504.6924301999388,0.19824300007894635,None,,,,,,,,,39,001,2020_Jan_03_1652,untitled,3.1.0,60.08315511833204,
270,_2,M,225,R,N,270_2M225RN,HRN,0,68,68,149,,,0.805,505.95011849992443,506.24047769990284,506.24047769990284,506.40709689992946,506.42384870001115,None,down,2.748816099949181,506.42384870001115,None,506.42384870001115,507.22317089990247,0.24258660001214594,None,,,,,,,,,39,001,2020_Jan_03_1652,untitled,3.1.0,60.08315511833204,
234,G,M,45,L,N,234GM045LN,HLN,0,69,69,137,,,1.034,509.39424880000297,509.68765589990653,509.68765589990653,509.88745909999125,509.9042404999491,None,down,2.401921500102617,509.9042404999491,None,509.9042404999491,510.9198248999892,0.20872430002782494,None,,,,,,,,,39,001,2020_Jan_03_1652,untitled,3.1.0,60.08315511833204,
036,R,N,135,L,N,036RN135LN,HLN,0,70,70,203,,,0.782,512.4923603999196,512.7850851999829,512.7850851999829,513.018357599969,513.0346387999598,None,up,1.4506971000228077,513.0346387999598,None,513.0346387999598,513.8006711999187,0.17383999994490296,None,,,,,,,,,39,001,2020_Jan_03_1652,untitled,3.1.0,60.08315511833204,
163,F,N,90,L,N,163FN090LN,HLN,0,71,71,218,,,1.097,514.6918993999716,514.9831367000006,514.9831367000006,515.1995035000145,515.2161991000175,None,up,1.6677591999759898,515.2161991000175,None,515.2161991000175,516.2986957000103,0.19382459996268153,None,,,,,,,,,39,001,2020_Jan_03_1652,untitled,3.1.0,60.08315511833204,
_,G,M,315,_,_,_GM315__,N,0,72,72,15,,,1.049,517.0889413999394,517.3810318999458,517.3810318999458,517.597403199994,517.6141078999499,None,down,2.6002715000649914,517.6141078999499,None,517.6141078999499,518.6464860999258,0.19123659993056208,None,,,,,,,,,39,001,2020_Jan_03_1652,untitled,3.1.0,60.08315511833204,
_,G,M,45,_,_,_GM045__,N,0,73,73,9,,,1.0070000000000001,520.4264168000082,520.7283768999623,520.7283768999623,520.9285027999431,520.9463718999177,None,down,2.181238300050609,520.9463718999177,None,520.9463718999177,521.9444640999427,0.19816859997808933,None,,,,,,,,,39,001,2020_Jan_03_1652,untitled,3.1.0,60.08315511833204,
232,G,N,315,L,N,232GN315LN,HLN,0,74,74,239,,,1.3820000000000001,523.3975531999022,523.6948313999455,523.6948313999455,523.8436690999661,523.8617146000033,None,up,2.1962173000210896,523.8617146000033,None,523.8617146000033,525.2237674999051,0.2534097000025213,None,,,,,,,,,39,001,2020_Jan_03_1652,untitled,3.1.0,60.08315511833204,
461,_5,M,180,R,N,461_5M180RN,HRN,0,75,75,180,,,1.049,526.2517625999171,526.5396270999918,526.5396270999918,526.7726623999188,526.7894280999899,None,down,2.7170979999937117,526.7894280999899,None,526.7894280999899,527.8218665999593,0.18014359998051077,None,,,,,,,,,39,001,2020_Jan_03_1652,untitled,3.1.0,60.08315511833204,
298,_2,M,45,L,N,298_2M045LN,HLN,0,76,76,153,,,0.708,529.712061499944,530.0033398999367,530.0033398999367,530.2198236999102,530.2364690999966,None,up,2.0839827000163496,530.2364690999966,None,530.2364690999966,530.9364173999056,0.19353639998007566,None,,,,,,,,,39,001,2020_Jan_03_1652,untitled,3.1.0,60.08315511833204,
_,_2,N,270,_,_,__2N270__,N,0,77,77,78,,,1.332,532.5221066999948,532.8176024999702,532.8176024999702,533.0339943999425,533.0505534999538,None,up,2.0356057001044974,533.0505534999538,None,533.0505534999538,534.3662035999587,0.18949869996868074,None,,,,,,,,,39,001,2020_Jan_03_1652,untitled,3.1.0,60.08315511833204,
451,_5,N,90,R,N,451_5N090RN,HRN,0,78,78,274,,,1.109,535.2782359999837,535.5671197999036,535.5671197999036,535.7985669999616,535.8156846999191,None,up,1.9990757999476045,535.8156846999191,None,535.8156846999191,536.9143845000071,0.17894930008333176,None,,,,,,,,,39,001,2020_Jan_03_1652,untitled,3.1.0,60.08315511833204,
_,G,N,225,_,_,_GN225__,N,0,79,79,61,,,1.175,538.0037340999115,538.2959984999616,538.2959984999616,538.5292973999167,538.5459039999405,None,up,2.032853100099601,538.5459039999405,None,538.5459039999405,539.7114823999582,0.176341800019145,None,,,,,,,,,39,001,2020_Jan_03_1652,untitled,3.1.0,60.08315511833204,
459,_5,M,90,R,N,459_5M090RN,HRN,0,80,80,178,,,1.289,540.7557928999886,541.0450803999556,541.0450803999556,541.2935540999752,541.3101919000037,None,up,2.184413000009954,541.3101919000037,None,541.3101919000037,542.5924113999354,0.1649871999397874,None,,,,,,,,,39,001,2020_Jan_03_1652,untitled,3.1.0,60.08315511833204,
266,_2,M,45,R,N,266_2M045RN,HRN,0,81,81,145,,,1.173,543.7063435999444,543.9916722999187,543.9916722999187,544.2074421999278,544.224362900015,None,down,2.4655816999729723,544.224362900015,None,544.224362900015,545.3901264999295,0.1958584999665618,None,,,,,,,,,39,001,2020_Jan_03_1652,untitled,3.1.0,60.08315511833204,
171,F,M,90,L,N,171FM090LN,HLN,0,82,82,122,,,1.249,546.8926621999126,547.1882387999212,547.1882387999212,547.4046250999672,547.4214041999076,None,up,2.4489485999802127,547.4214041999076,None,547.4214041999076,548.6537180999294,0.19059959996957332,None,,,,,,,,,39,001,2020_Jan_03_1652,untitled,3.1.0,60.08315511833204,
_,F,M,315,_,_,_FM315__,N,0,83,83,7,,,1.366,550.0507866999833,550.3373680999503,550.3373680999503,550.5857516999822,550.6026608999819,None,up,2.1831985000753775,550.6026608999819,None,550.6026608999819,551.9510892999824,0.16578040004242212,None,,,,,,,,,39,001,2020_Jan_03_1652,untitled,3.1.0,60.08315511833204,
430,_4,M,225,L,N,430_4M225LN,HLN,0,84,84,173,,,0.924,552.9987164000049,553.3000529999845,553.3000529999845,553.500212199986,553.516111999983,None,down,2.1525231999112293,553.516111999983,None,553.516111999983,554.4319567999337,0.19550739997066557,None,,,,,,,,,39,001,2020_Jan_03_1652,untitled,3.1.0,60.08315511833204,
_,R,N,0,_,_,_RN000__,N,0,85,85,64,,,1.288,555.8816378999036,556.1804788999725,556.1804788999725,556.3803314999677,556.3969632999506,None,up,2.0186694000149146,556.3969632999506,None,556.3969632999506,557.6790604999987,0.199779300019145,None,,,,,,,,,39,001,2020_Jan_03_1652,untitled,3.1.0,60.08315511833204,
_,_4,N,90,_,_,__4N090__,N,0,86,86,82,,,1.108,558.6120819000062,558.9113492999459,558.9113492999459,559.127888499992,559.1446734999772,None,up,2.068239500047639,559.1446734999772,None,559.1446734999772,560.243782699923,0.182671400019899,None,,,,,,,,,39,001,2020_Jan_03_1652,untitled,3.1.0,60.08315511833204,
033,R,N,0,L,N,033RN000LN,HLN,0,87,87,200,,,0.749,561.4271072999109,561.7261013999814,561.7261013999814,561.9253044999205,561.9421235999325,None,up,1.3184120000805706,561.9421235999325,None,561.9421235999325,562.6748546999879,0.19932979997247458,None,,,,,,,,,39,001,2020_Jan_03_1652,untitled,3.1.0,60.08315511833204,
386,_4,N,45,R,N,386_4N045RN,HRN,0,88,88,257,,,0.76,563.486122299917,563.7751756999642,563.7751756999642,563.9735222000163,563.990256799967,None,up,1.716673000017181,563.990256799967,None,563.990256799967,564.7402978999307,0.2131938999518752,None,,,,,,,,,39,001,2020_Jan_03_1652,untitled,3.1.0,60.08315511833204,
041,R,M,0,L,N,041RM000LN,HLN,0,89,89,104,,,0.99,565.9014548999257,566.1901572999777,566.1901572999777,566.4221250999253,566.4390842999564,None,down,1.8996486000251025,566.4390842999564,None,566.4390842999564,567.4206393999048,0.18065360002219677,None,,,,,,,,,39,001,2020_Jan_03_1652,untitled,3.1.0,60.08315511833204,
_,_4,M,135,_,_,__4M135__,N,0,90,90,35,,,1.2550000000000001,568.5731890999014,568.8691959999269,568.8691959999269,569.0524294999195,569.0690828999504,None,down,3.165242400020361,569.0690828999504,None,569.0690828999504,570.3050958999665,0.22100769996177405,None,,,,,,,,,39,001,2020_Jan_03_1652,untitled,3.1.0,60.08315511833204,
_,_5,N,0,_,_,__5N000__,N,0,91,91,88,,,1.157,572.432503299904,572.7327407000121,572.7327407000121,572.9488862999715,572.9666452999227,None,up,1.8486165999202058,572.9666452999227,None,572.9666452999227,574.114771499997,0.18504959996789694,None,,,,,,,,,39,001,2020_Jan_03_1652,untitled,3.1.0,60.08315511833204,
_,G,N,180,_,_,_GN180__,N,0,92,92,60,,,1.229,574.997566999984,575.2969484999776,575.2969484999776,575.5303379999241,575.5474417000078,None,down,3.198129800031893,575.5474417000078,None,575.5474417000078,576.7625517999986,0.16882030002307147,None,,,,,,,,,39,001,2020_Jan_03_1652,untitled,3.1.0,60.08315511833204,
455,_5,N,270,R,N,455_5N270RN,HRN,0,93,93,278,,,1.075,578.9437422999181,579.2434800999472,579.2434800999472,579.4599654999329,579.4765994999325,None,up,1.7533829999156296,579.4765994999325,None,579.4765994999325,580.5422952999361,0.1856332999886945,None,,,,,,,,,39,001,2020_Jan_03_1652,untitled,3.1.0,60.08315511833204,
495,_5,M,270,L,N,495_5M270LN,HLN,0,94,94,190,,,1.278,581.4366259999806,581.7259159999667,581.7259159999667,581.9413422999205,581.9578347000061,None,down,3.2317652000347152,581.9578347000061,None,581.9578347000061,583.223975699977,0.19261330005247146,None,,,,,,,,,39,001,2020_Jan_03_1652,untitled,3.1.0,60.08315511833204,
_,R,N,45,_,_,_RN045__,N,0,95,95,65,,,0.912,585.3919816999696,585.6904391999124,585.6904391999124,585.904603999923,585.9212818999076,None,up,1.7336931999307126,585.9212818999076,None,585.9212818999076,586.8204304999672,0.18975729995872825,None,,,,,,,,,39,001,2020_Jan_03_1652,untitled,3.1.0,60.08315511833204,
204,G,M,135,R,N,204GM135RN,HRN,0,96,96,131,,,1.108,587.84342499997,588.1358568000142,588.1358568000142,588.3688610999379,588.3855122999521,None,down,2.768097700085491,588.3855122999521,None,588.3855122999521,589.4852874999633,0.1744745000032708,None,,,,,,,,,39,001,2020_Jan_03_1652,untitled,3.1.0,60.08315511833204,
302,_2,M,225,L,N,302_2M225LN,HLN,0,97,97,157,,,1.042,591.359953599982,591.6521914999466,591.6521914999466,591.8665777000133,591.8825510999886,None,up,2.449561299989,591.8825510999886,None,591.8825510999886,592.915297199972,0.1944577000103891,None,,,,,,,,,39,001,2020_Jan_03_1652,untitled,3.1.0,60.08315511833204,
_,_5,M,90,_,_,__5M090__,N,0,98,98,42,,,1.368,594.5144031000091,594.8132223999128,594.8132223999128,595.0464200999122,595.0631984999636,None,None,,595.0631984999636,None,595.0631984999636,596.4119911999442,0.1696172000374645,None,,,,,,,,,39,001,2020_Jan_03_1652,untitled,3.1.0,60.08315511833204,
271,_2,M,270,R,N,271_2M270RN,HRN,0,99,99,150,,,0.806,598.7739070999669,599.0765272999415,599.0765272999415,599.2429788999725,599.2601209999993,598.7739070999669,down,2.316788199939765,599.2601209999993,None,599.2601209999993,600.058879399905,0.23392409994266927,None,,,,,,,,,39,001,2020_Jan_03_1652,untitled,3.1.0,60.08315511833204,
004,R,N,135,R,N,004RN135RN,HRN,0,100,100,195,,,1.206,601.851485399995,602.140116799972,602.140116799972,602.2902765999315,602.3067209000001,None,up,2.1663349999580532,602.3067209000001,None,602.3067209000001,603.5057987999171,0.2604134000139311,None,,,,,,,,,39,001,2020_Jan_03_1652,untitled,3.1.0,60.08315511833204,
290,_2,N,45,L,N,290_2N045LN,HLN,0,101,101,249,,,0.91,604.6748789999401,604.9710816999432,604.9710816999432,605.1876000999473,605.2042374999728,None,up,1.6017139999894425,605.2042374999728,None,605.2042374999728,606.1037848999258,0.18957209994550794,None,,,,,,,,,39,001,2020_Jan_03_1652,untitled,3.1.0,60.08315511833204,
_,_4,M,180,_,_,__4M180__,N,0,102,102,36,,,0.762,606.9874054999091,607.285715200007,607.285715200007,607.5191685999744,607.5358545999043,None,up,1.5345943999709561,607.5358545999043,None,607.5358545999043,608.2849007999757,0.16784539993386716,None,,,,,,,,,39,001,2020_Jan_03_1652,untitled,3.1.0,60.08315511833204,
_,_5,N,135,_,_,__5N135__,N,0,103,103,91,,,1.2610000000000001,609.2801866999362,609.5689523000037,609.5689523000037,609.7834682000102,609.8000878000166,None,up,2.851028500008397,609.8000878000166,None,609.8000878000166,611.0492395999609,0.1969006999861449,None,,,,,,,,,39,001,2020_Jan_03_1652,untitled,3.1.0,60.08315511833204,
_,_5,M,180,_,_,__5M180__,N,0,104,104,44,,,0.9570000000000001,612.8512213999638,613.147810399998,613.147810399998,613.3639820999233,613.380716899992,None,down,2.084706100053154,613.380716899992,None,613.380716899992,614.3297883999767,0.18843290000222623,None,,,,,,,,,39,001,2020_Jan_03_1652,untitled,3.1.0,60.08315511833204,
206,G,M,225,R,N,206GM225RN,HRN,0,105,105,133,,,1.368,615.6584589999402,615.946663599927,615.946663599927,616.1780546999071,616.194664599956,None,up,2.5661492000799626,616.194664599956,None,616.194664599956,617.5437032999471,0.18084440007805824,None,,,,,,,,,39,001,2020_Jan_03_1652,untitled,3.1.0,60.08315511833204,
236,G,M,135,L,N,236GM135LN,HLN,0,106,106,139,,,0.747,618.9728250999469,619.2752746999031,619.2752746999031,619.4751446999144,619.4918259999249,None,up,2.0186000999528915,619.4918259999249,None,619.4918259999249,620.2246231999015,0.19870920001994818,None,,,,,,,,,39,001,2020_Jan_03_1652,untitled,3.1.0,60.08315511833204,
165,F,N,180,L,N,165FN180LN,HLN,0,107,107,220,,,1.114,621.7523990999907,622.0394650999224,622.0394650999224,622.2228520999197,622.2395503999433,None,up,2.1992392000975087,622.2395503999433,None,622.2395503999433,623.3393421999644,0.227971600019373,None,,,,,,,,,39,001,2020_Jan_03_1652,untitled,3.1.0,60.08315511833204,
_,G,N,135,_,_,_GN135__,N,0,108,108,59,,,1.374,624.6641459999373,624.9536660999293,624.9536660999293,625.1533973999321,625.1703115999699,None,up,2.5323904000688344,625.1703115999699,None,625.1703115999699,626.5311259999871,0.21220050007104874,None,,,,,,,,,39,001,2020_Jan_03_1652,untitled,3.1.0,60.08315511833204,
016,R,M,315,R,N,016RM315RN,HRN,0,109,109,103,,,1.0010000000000001,627.8951750999549,628.1865932999644,628.1865932999644,628.4173209000146,628.4339899999322,None,down,2.3329793999437243,628.4339899999322,None,628.4339899999322,629.4169946999755,0.18039049999788404,None,,,,,,,,,39,001,2020_Jan_03_1652,untitled,3.1.0,60.08315511833204,
481,_5,N,0,L,N,481_5N000LN,HLN,0,110,110,280,,,1.387,631.0044565999415,631.2981729999883,631.2981729999883,631.4814869000111,631.4979805999901,None,up,2.1041666000382975,631.4979805999901,None,631.4979805999901,632.8638433999149,0.2211762999650091,None,,,,,,,,,39,001,2020_Jan_03_1652,untitled,3.1.0,60.08315511833204,
130,F,N,45,R,N,130FN045RN,HRN,0,111,111,209,,,1.374,633.8193792999955,634.1123432000168,634.1123432000168,634.3123719999567,634.3297627000138,None,up,2.466533900005743,634.3297627000138,None,634.3297627000138,635.6944188999478,0.20483669999521226,None,,,,,,,,,39,001,2020_Jan_03_1652,untitled,3.1.0,60.08315511833204,
294,_2,N,225,L,N,294_2N225LN,HLN,0,112,112,253,,,1.287,636.9713559999363,637.2604110999964,637.2604110999964,637.5097749999259,637.5262122999411,None,up,2.0173662999877706,637.5262122999411,None,637.5262122999411,638.7975509999087,0.16357820003759116,None,,,,,,,,,39,001,2020_Jan_03_1652,untitled,3.1.0,60.08315511833204,
048,R,M,315,L,N,048RM315LN,HLN,0,113,113,111,,,1.164,639.7516932999715,640.0408356999978,640.0408356999978,640.2571178999497,640.2737673999509,None,down,2.1163119000848383,640.2737673999509,None,640.2737673999509,641.4228193999734,0.19560029997956008,None,,,,,,,,,39,001,2020_Jan_03_1652,untitled,3.1.0,60.08315511833204,
141,F,M,180,R,N,141FM180RN,HRN,0,114,114,116,,,1.084,642.6149239999941,642.9046527999453,642.9046527999453,643.1045584999956,643.1211852999404,None,up,2.3331437999149784,643.1211852999404,None,643.1211852999404,644.1873212999199,0.21148659999016672,None,,,,,,,,,39,001,2020_Jan_03_1652,untitled,3.1.0,60.08315511833204,
136,F,N,315,R,N,136FN315RN,HRN,0,115,115,215,,,1.206,645.6975154000102,645.9857415999286,645.9857415999286,646.1685749000171,646.1852435999317,None,up,1.9189480999484658,646.1852435999317,None,646.1852435999317,647.3846575999632,0.22905040008481592,None,,,,,,,,,39,001,2020_Jan_03_1652,untitled,3.1.0,60.08315511833204,
015,R,M,270,R,N,015RM270RN,HRN,0,116,116,102,,,0.747,648.36473999999,648.6663255000021,648.6663255000021,648.8328386999201,648.8328386999201,None,down,1.866230700048618,648.8328386999201,None,648.8328386999201,649.5820407000137,0.24097980000078678,None,,,,,,,,,39,001,2020_Jan_03_1652,untitled,3.1.0,60.08315511833204,
_,G,M,225,_,_,_GM225__,N,0,117,117,13,,,1.3860000000000001,650.8867042999482,651.1810550999362,651.1810550999362,651.4140829999233,651.4306785999797,None,up,2.784627899993211,651.4306785999797,None,651.4306785999797,652.7963527999818,0.17497749999165535,None,,,,,,,,,39,001,2020_Jan_03_1652,untitled,3.1.0,60.08315511833204,
228,G,N,135,L,N,228GN135LN,HLN,0,118,118,235,,,1.081,654.4211767999223,654.7113203000044,654.7113203000044,654.9277059999295,654.945070699905,None,up,1.7160043999319896,654.945070699905,None,654.945070699905,656.0104233999737,0.1929538999684155,None,,,,,,,,,39,001,2020_Jan_03_1652,untitled,3.1.0,60.08315511833204,
_,_4,N,180,_,_,__4N180__,N,0,119,119,84,,,1.3880000000000001,656.8722510999069,657.1605382999405,657.1605382999405,657.3757650000043,657.392222299939,None,up,2.6992244999855757,657.392222299939,None,657.392222299939,658.7743362999754,0.19535819999873638,None,,,,,,,,,39,001,2020_Jan_03_1652,untitled,3.1.0,60.08315511833204,
490,_5,M,45,L,N,490_5M045LN,HLN,0,120,120,185,,,1.078,660.3251814999385,660.6228319999063,660.6228319999063,660.807441300014,660.8246016999474,None,up,2.065439899917692,660.8246016999474,None,660.8246016999474,661.8889729999937,0.21829640003852546,None,,,,,,,,,39,001,2020_Jan_03_1652,untitled,3.1.0,60.08315511833204,
_,_2,M,135,_,_,__2M135__,N,0,121,121,27,,,0.9470000000000001,663.0814689999679,663.3745674999664,663.3745674999664,663.6036499999464,663.6200957999099,None,up,2.467748900060542,663.6200957999099,None,663.6200957999099,664.5525061999215,0.1772668999619782,None,,,,,,,,,39,001,2020_Jan_03_1652,untitled,3.1.0,60.08315511833204,
_,R,M,315,_,_,_RM315__,N,0,122,122,23,,,0.718,666.2745340999682,666.5673893999774,666.5673893999774,666.8003769000061,666.8170984999742,None,up,2.149533100076951,666.8170984999742,None,666.8170984999742,667.5170652999077,0.1748822999652475,None,,,,,,,,,39,001,2020_Jan_03_1652,untitled,3.1.0,60.08315511833204,
_,R,N,180,_,_,_RN180__,N,0,123,123,68,,,0.908,669.1621988000115,669.4649033999303,669.4649033999303,669.6812874999596,669.6982421999564,None,down,1.8827750000637025,669.6982421999564,None,669.6982421999564,670.5971883999882,0.18342380004469305,None,,,,,,,,,39,001,2020_Jan_03_1652,untitled,3.1.0,60.08315511833204,
_,_2,N,135,_,_,__2N135__,N,0,124,124,75,,,0.784,671.841442200006,672.1292005999712,672.1292005999712,672.2958686999045,672.3128989000106,None,up,1.5659131999127567,672.3128989000106,None,672.3128989000106,673.0800336999819,0.24612030002754182,None,,,,,,,,,39,001,2020_Jan_03_1652,untitled,3.1.0,60.08315511833204,
134,F,N,225,R,N,134FN225RN,HRN,0,125,125,213,,,1.063,674.0723066999344,674.3615250999574,674.3615250999574,674.5941554999445,674.6139349999139,None,up,1.6327546000247821,674.6139349999139,None,674.6139349999139,675.660144399968,0.1806392000289634,None,,,,,,,,,39,001,2020_Jan_03_1652,untitled,3.1.0,60.08315511833204,
_,_5,N,225,_,_,__5N225__,N,0,126,126,93,,,0.9550000000000001,676.5192713999422,676.8083738000132,676.8083738000132,676.9586054999381,676.9753830999834,None,up,2.0339896000223234,676.9753830999834,None,676.9753830999834,677.9239368999843,0.25615649996325374,None,,,,,,,,,39,001,2020_Jan_03_1652,untitled,3.1.0,60.08315511833204,
462,_5,M,225,R,N,462_5M225RN,HRN,0,127,127,181,,,1.22,679.2671221999917,679.5560545999324,679.5560545999324,679.7225320999278,679.739471299923,None,down,2.6822614999255165,679.739471299923,None,679.739471299923,680.9552454999648,0.24130230001173913,None,,,,,,,,,39,001,2020_Jan_03_1652,untitled,3.1.0,60.08315511833204,
496,_5,M,315,L,N,496_5M315LN,HLN,0,128,128,191,,,1.354,682.6221211999655,682.9196096999804,682.9196096999804,683.1360527999932,683.154568900005,None,None,,683.154568900005,None,683.154568900005,684.4850366999162,0.18723050004336983,None,,,,,,,,,39,001,2020_Jan_03_1652,untitled,3.1.0,60.08315511833204,
464,_5,M,315,R,N,464_5M315RN,HRN,0,129,129,183,,,0.799,686.8306318999967,687.1327764999587,687.1327764999587,687.3346281999256,687.3497252999805,686.8306318999967,down,2.115906700026244,687.3497252999805,None,687.3497252999805,688.1319942999398,0.20318750001024455,None,,,,,,,,,39,001,2020_Jan_03_1652,untitled,3.1.0,60.08315511833204,
291,_2,N,90,L,N,291_2N090LN,HLN,0,130,130,250,,,1.133,689.6555984999286,689.947055800003,689.947055800003,690.1801145999925,690.1967730999459,None,up,1.9166364000411704,690.1967730999459,None,690.1967730999459,691.3137177999597,0.17635690001770854,None,,,,,,,,,39,001,2020_Jan_03_1652,untitled,3.1.0,60.08315511833204,
235,G,M,90,L,N,235GM090LN,HLN,0,131,131,138,,,1.352,692.3432968999259,692.6451995999087,692.6451995999087,692.8282773999963,692.8452458999818,None,down,2.731385200051591,692.8452458999818,None,692.8452458999818,694.176975499955,0.21419169998262078,None,,,,,,,,,39,001,2020_Jan_03_1652,untitled,3.1.0,60.08315511833204,
_,F,N,315,_,_,_FN315__,N,0,132,132,55,,,0.805,695.7668540999293,696.0585778999375,696.0585778999375,696.291617800016,696.3081769999117,None,up,1.651464099995792,696.3081769999117,None,696.3081769999117,697.1089982999256,0.17761459993198514,None,,,,,,,,,39,001,2020_Jan_03_1652,untitled,3.1.0,60.08315511833204,
_,F,N,45,_,_,_FN045__,N,0,133,133,49,,,1.274,698.1530311999377,698.4400002999464,698.4400002999464,698.6727151999949,698.6894071999704,None,up,1.951029899995774,698.6894071999704,None,698.6894071999704,699.9549490999198,0.17852970003150403,None,,,,,,,,,39,001,2020_Jan_03_1652,untitled,3.1.0,60.08315511833204,
175,F,M,270,L,N,175FM270LN,HLN,0,134,134,126,,,1.127,700.8486339999363,701.1371771999402,701.1371771999402,701.3536832999671,701.3704320999095,None,up,2.8495255999732763,701.3704320999095,None,701.3704320999095,702.4857849999098,0.1958203000249341,None,,,,,,,,,39,001,2020_Jan_03_1652,untitled,3.1.0,60.08315511833204,
_,F,M,45,_,_,_FM045__,N,0,135,135,1,,,0.76,704.4151925999904,704.7172369000036,704.7172369000036,704.9344910999062,704.950538199977,None,up,1.5669635999947786,704.950538199977,None,704.950538199977,705.6997500999132,0.1832177999895066,None,,,,,,,,,39,001,2020_Jan_03_1652,untitled,3.1.0,60.08315511833204,
429,_4,M,180,L,N,429_4M180LN,HLN,0,136,136,172,,,1.344,706.747164899949,707.0467958999798,707.0467958999798,707.2323602999095,707.2487487999024,None,up,2.016360400011763,707.2487487999024,None,707.2487487999024,708.5806587999687,0.21247859997674823,None,,,,,,,,,39,001,2020_Jan_03_1652,untitled,3.1.0,60.08315511833204,
488,_5,N,315,L,N,488_5N315LN,HLN,0,137,137,287,,,1.088,709.4806082999567,709.7913898999104,709.7913898999104,709.9805478999624,710.0006315999199,None,up,1.6977122999960557,710.0006315999199,None,710.0006315999199,711.0619123999495,0.20193690003361553,None,,,,,,,,,39,001,2020_Jan_03_1652,untitled,3.1.0,60.08315511833204,
161,F,N,0,L,N,161FN000LN,HLN,0,138,138,216,,,1.102,711.9437065999955,712.2442386999028,712.2442386999028,712.4277060999302,712.4277060999302,None,up,1.64947880001273,712.4277060999302,None,712.4277060999302,713.5266721999506,0.22821850003674626,None,,,,,,,,,39,001,2020_Jan_03_1652,untitled,3.1.0,60.08315511833204,
303,_2,M,270,L,N,303_2M270LN,HLN,0,139,139,158,,,0.789,714.2859990999568,714.5754588999553,714.5754588999553,714.7919947999762,714.808604199905,None,up,2.435453600017354,714.808604199905,None,714.808604199905,715.5924231999088,0.19519960007164627,None,,,,,,,,,39,001,2020_Jan_03_1652,untitled,3.1.0,60.08315511833204,
_,_2,N,90,_,_,__2N090__,N,0,140,140,74,,,1.085,717.4533776999451,717.7561027999036,717.7561027999036,717.956267099944,717.9725747999037,None,up,2.1662395000457764,717.9725747999037,None,717.9725747999037,719.0548191999551,0.1964171000290662,None,,,,,,,,,39,001,2020_Jan_03_1652,untitled,3.1.0,60.08315511833204,
144,F,M,315,R,N,144FM315RN,HRN,0,141,141,119,,,1.364,720.3497094999766,720.6367117000045,720.6367117000045,720.8542860000161,720.8717338999268,None,down,2.733223200077191,720.8717338999268,None,720.8717338999268,722.2193461999996,0.1952698000241071,None,,,,,,,,,39,001,2020_Jan_03_1652,untitled,3.1.0,60.08315511833204,
458,_5,M,45,R,N,458_5M045RN,HRN,0,142,142,177,,,1.367,723.8324725999264,724.1338966999901,724.1338966999901,724.3170569000067,724.3335608999478,None,None,,724.3335608999478,None,724.3335608999478,725.6891682000132,0.21376840001903474,None,,,,,,,,,39,001,2020_Jan_03_1652,untitled,3.1.0,60.08315511833204,
_,G,M,180,_,_,_GM180__,N,0,143,143,12,,,1.359,727.9925219999859,728.2952140999259,728.2952140999259,728.5298755000113,728.5466160000069,727.9925219999859,up,3.032769799930975,728.5466160000069,None,728.5466160000069,729.8953708999325,0.1670849999645725,None,,,,,,,,,39,001,2020_Jan_03_1652,untitled,3.1.0,60.08315511833204,
_,_5,N,45,_,_,__5N045__,N,0,144,144,89,,,1.197,731.852274899953,732.143504699925,732.143504699925,732.2933763999026,732.3099681999302,None,up,1.9187751999124885,732.3099681999302,None,732.3099681999302,733.4922463999828,0.2590500999940559,None,,,,,,,,,39,001,2020_Jan_03_1652,untitled,3.1.0,60.08315511833204,
387,_4,N,90,R,N,387_4N090RN,HRN,0,145,145,258,,,0.748,734.4434113999596,734.7418186999857,734.7418186999857,734.9409958999604,734.957723999978,None,up,1.7846129999961704,734.957723999978,None,734.957723999978,735.6904565999284,0.201487599988468,None,,,,,,,,,39,001,2020_Jan_03_1652,untitled,3.1.0,60.08315511833204,
203,G,M,90,R,N,203GM090RN,HRN,0,146,146,130,,,1.2550000000000001,736.9460081999423,737.2395994999679,737.2395994999679,737.4558642999036,737.4737912999699,None,down,2.3330539000453427,737.4737912999699,None,737.4737912999699,738.7213761999737,0.19165279995650053,None,,,,,,,,,39,001,2020_Jan_03_1652,untitled,3.1.0,60.08315511833204,
_,G,M,0,_,_,_GM000__,N,0,147,147,8,,,0.737,739.9774593999609,740.269740199903,740.269740199903,740.5194370999234,740.5366217999253,None,up,1.8999724000459537,740.5366217999253,None,740.5366217999253,741.2546867999481,0.15861549996770918,None,,,,,,,,,39,001,2020_Jan_03_1652,untitled,3.1.0,60.08315511833204,
_,G,M,270,_,_,_GM270__,N,0,148,148,14,,,1.0190000000000001,742.6141247999622,742.9021664999891,742.9021664999891,743.1515748999082,743.1680435999297,None,down,2.4847335000522435,743.1680435999297,None,743.1680435999297,744.1662170999916,0.1634788999799639,None,,,,,,,,,39,001,2020_Jan_03_1652,untitled,3.1.0,60.08315511833204,
043,R,M,90,L,N,043RM090LN,HLN,0,149,149,106,,,1.326,745.8560105999932,746.1487903000088,746.1487903000088,746.3643214999465,746.381091499934,None,up,2.333852900075726,746.381091499934,None,746.381091499934,747.697090899921,0.18948289996478707,None,,,,,,,,,39,001,2020_Jan_03_1652,untitled,3.1.0,60.08315511833204,
494,_5,M,225,L,N,494_5M225LN,HLN,0,150,150,189,,,1.076,748.9237967999652,749.2118059999775,749.2118059999775,749.428458499955,749.4451211999403,None,up,2.7681813000235707,749.4451211999403,None,749.4451211999403,750.5113006999018,0.19601400010287762,None,,,,,,,,,39,001,2020_Jan_03_1652,untitled,3.1.0,60.08315511833204,
010,R,M,45,R,N,010RM045RN,HRN,0,151,151,97,,,0.907,752.3962411999237,752.6922938999487,752.6922938999487,752.9254883999238,752.9426893999334,None,down,1.8999139999505132,752.9426893999334,None,752.9426893999334,753.8416181999492,0.17090849997475743,None,,,,,,,,,39,001,2020_Jan_03_1652,untitled,3.1.0,60.08315511833204,
007,R,N,270,R,N,007RN270RN,HRN,0,152,152,198,,,1.195,755.067219599965,755.3570964999963,755.3570964999963,755.5563296999317,755.5729319999227,None,up,1.9689137999666855,755.5729319999227,None,755.5729319999227,756.7583443999756,0.21032289997674525,None,,,,,,,,,39,001,2020_Jan_03_1652,untitled,3.1.0,60.08315511833204,
391,_4,N,270,R,N,391_4N270RN,HRN,0,153,153,262,,,1.087,757.7648920000065,758.054672600003,758.054672600003,758.2540158999618,758.2707239999436,None,up,2.4164859999436885,758.2707239999436,None,758.2707239999436,759.3530250999611,0.2097568999743089,None,,,,,,,,,39,001,2020_Jan_03_1652,untitled,3.1.0,60.08315511833204,
_,_5,N,270,_,_,__5N270__,N,0,154,154,94,,,1.09,760.8800716999685,761.1685782999266,761.1685782999266,761.4018609999912,761.4179732999764,None,up,1.833001199993305,761.4179732999764,None,761.4179732999764,762.5002879999811,0.17923510004766285,None,,,,,,,,,39,001,2020_Jan_03_1652,untitled,3.1.0,60.08315511833204,
200,G,N,315,R,N,200GN315RN,HRN,0,155,155,231,,,1.147,763.4688609999139,763.7657984999241,763.7657984999241,763.965654199943,763.9824175999966,None,up,1.899690999998711,763.9824175999966,None,763.9824175999966,765.1146826999029,0.2044188000727445,None,,,,,,,,,39,001,2020_Jan_03_1652,untitled,3.1.0,60.08315511833204,
417,_4,N,0,L,N,417_4N000LN,HLN,0,156,156,264,,,1.2650000000000001,766.1098794999998,766.3986650999868,766.3986650999868,766.5966949999565,766.6134188999422,None,up,2.017530499957502,766.6134188999422,None,766.6134188999422,767.8624335000059,0.21522380004171282,None,,,,,,,,,39,001,2020_Jan_03_1652,untitled,3.1.0,60.08315511833204,
_,_2,M,180,_,_,__2M180__,N,0,157,157,28,,,1.173,768.8835583999753,769.1781562999822,769.1781562999822,769.3446105999174,769.3616289999336,None,down,3.000327199930325,769.3616289999336,None,769.3616289999336,770.5265319999307,0.23721950000617653,None,,,,,,,,,39,001,2020_Jan_03_1652,untitled,3.1.0,60.08315511833204,
_,R,M,225,_,_,_RM225__,N,0,158,158,21,,,0.972,772.666386500001,772.9588606999023,772.9588606999023,773.0916155999294,773.0916155999294,None,up,2.385382300009951,773.0916155999294,None,773.0916155999294,774.0569664000068,0.2849621999775991,None,,,,,,,,,39,001,2020_Jan_03_1652,untitled,3.1.0,60.08315511833204,
003,R,N,90,R,N,003RN090RN,HRN,0,159,159,194,,,1.087,775.6861286999192,775.9870027999859,775.9870027999859,776.1882051000139,776.20492249995,None,up,1.9834370000753552,776.20492249995,None,776.20492249995,777.2875082999235,0.1962347999215126,None,,,,,,,,,39,001,2020_Jan_03_1652,untitled,3.1.0,60.08315511833204,
299,_2,M,90,L,N,299_2M090LN,HLN,0,160,160,154,,,0.793,778.3959195999196,778.686102299951,778.686102299951,778.903016999946,778.9193546999013,None,up,2.16807809995953,778.9193546999013,None,778.9193546999013,779.7031896999106,0.19509340007789433,None,,,,,,,,,39,001,2020_Jan_03_1652,untitled,3.1.0,60.08315511833204,
044,R,M,135,L,N,044RM135LN,HLN,0,161,161,107,,,1.145,781.3036870999495,781.6003490999574,781.6003490999574,781.8012499999022,781.8194900999079,None,down,2.064644300029613,781.8194900999079,None,781.8194900999079,782.9489019999746,0.20275880000554025,None,,,,,,,,,39,001,2020_Jan_03_1652,untitled,3.1.0,60.08315511833204,
169,F,M,0,L,N,169FM000LN,HLN,0,162,162,120,,,0.7000000000000001,784.0941380999284,784.383406399982,784.383406399982,784.5981139999349,784.615066899918,None,up,2.5506879000458866,784.615066899918,None,784.615066899918,785.297536799917,0.1962440999923274,None,,,,,,,,,39,001,2020_Jan_03_1652,untitled,3.1.0,60.08315511833204,
428,_4,M,135,L,N,428_4M135LN,HLN,0,163,163,171,,,1.215,787.3717229999602,787.6631064999383,787.6631064999383,787.8788792999694,787.8978822999634,None,down,2.729141699965112,787.8978822999634,None,787.8978822999634,789.0936712999828,0.19223049993161112,None,,,,,,,,,39,001,2020_Jan_03_1652,untitled,3.1.0,60.08315511833204,
427,_4,M,90,L,N,427_4M090LN,HLN,0,164,164,170,,,1.352,790.8035037999507,791.0934835999506,791.0934835999506,791.3423651999328,791.3584198999451,None,down,2.8320581999141723,791.3584198999451,None,791.3584198999451,792.6906886999495,0.1650132000213489,None,,,,,,,,,39,001,2020_Jan_03_1652,untitled,3.1.0,60.08315511833204,
487,_5,N,270,L,N,487_5N270LN,HLN,0,165,165,286,,,1.24,794.4065147999208,794.7058600999881,794.7058600999881,794.9055860999506,794.9222029999364,None,up,2.299161500064656,794.9222029999364,None,794.9222029999364,796.1541776999366,0.20096769998781383,None,,,,,,,,,39,001,2020_Jan_03_1652,untitled,3.1.0,60.08315511833204,
_,_4,N,315,_,_,__4N315__,N,0,166,166,87,,,1.317,797.4554180999985,797.7529097999213,797.7529097999213,797.9363391000079,797.953132799943,None,up,2.199428000021726,797.953132799943,None,797.953132799943,799.2516847999068,0.2197120999917388,None,,,,,,,,,39,001,2020_Jan_03_1652,untitled,3.1.0,60.08315511833204,
_,G,N,45,_,_,_GN045__,N,0,167,167,57,,,1.133,800.3863180999178,800.6836534999311,800.6836534999311,800.8671098999912,800.8841403999832,None,up,1.9669497000286356,800.8841403999832,None,800.8841403999832,801.9996326999972,0.21745970007032156,None,,,,,,,,,39,001,2020_Jan_03_1652,untitled,3.1.0,60.08315511833204,
009,R,M,0,R,N,009RM000RN,HRN,0,168,168,96,,,0.712,803.0676141999429,803.3653708999045,803.3653708999045,803.6107177999802,803.6107177999802,None,down,1.755508300033398,803.6107177999802,None,803.6107177999802,804.2817060999805,0.20368519995827228,None,,,,,,,,,39,001,2020_Jan_03_1652,untitled,3.1.0,60.08315511833204,
001,R,N,0,R,N,001RN000RN,HRN,0,169,169,192,,,1.07,805.5514371999307,805.8456154000014,805.8456154000014,806.0787673000013,806.09549899993,None,up,2.0854193998966366,806.09549899993,None,806.09549899993,807.1614274999592,0.1723653000080958,None,,,,,,,,,39,001,2020_Jan_03_1652,untitled,3.1.0,60.08315511833204,
484,_5,N,135,L,N,484_5N135LN,HLN,0,170,170,283,,,1.256,808.3855809000088,808.6767709999112,808.6767709999112,808.8957401999505,808.9153377999319,None,up,3.2434233999811113,808.9153377999319,None,808.9153377999319,810.1442012999905,0.19159159995615482,None,,,,,,,,,39,001,2020_Jan_03_1652,untitled,3.1.0,60.08315511833204,
_,R,M,0,_,_,_RM000__,N,0,171,171,16,,,1.161,812.3660007999279,812.6567846999969,812.6567846999969,812.8729722999269,812.8897320999531,None,down,1.9503099999856204,812.8897320999531,None,812.8897320999531,814.0388205999043,0.1942632000427693,None,,,,,,,,,39,001,2020_Jan_03_1652,untitled,3.1.0,60.08315511833204,
_,_2,N,180,_,_,__2N180__,N,0,172,172,76,,,1.36,815.0639437999343,815.3541641999036,815.3541641999036,815.5548243999947,815.5721718999557,None,up,2.631845899973996,815.5721718999557,None,815.5721718999557,816.9200080999872,0.20722049998585135,None,,,,,,,,,39,001,2020_Jan_03_1652,untitled,3.1.0,60.08315511833204,
_,_4,M,315,_,_,__4M315__,N,0,173,173,39,,,0.79,818.4420489999466,818.735154199996,818.735154199996,818.9189117999049,818.938015999971,None,up,1.631736999959685,818.938015999971,None,818.938015999971,819.7193498999113,0.2235641999868676,None,,,,,,,,,39,001,2020_Jan_03_1652,untitled,3.1.0,60.08315511833204,
432,_4,M,315,L,N,432_4M315LN,HLN,0,174,174,175,,,0.786,820.7850249999901,821.0828570999438,821.0828570999438,821.2822830999503,821.2993697999045,None,up,1.4507449999218807,821.2993697999045,None,821.2993697999045,822.0814801999368,0.20060079998802394,None,,,,,,,,,39,001,2020_Jan_03_1652,untitled,3.1.0,60.08315511833204,
394,_4,M,45,R,N,394_4M045RN,HRN,0,175,175,161,,,1.046,822.9633278999245,823.2644668999128,823.2644668999128,823.4637440999504,823.4803790999576,None,down,2.3170965999597684,823.4803790999576,None,823.4803790999576,824.5127450999571,0.19855830003507435,None,,,,,,,,,39,001,2020_Jan_03_1652,untitled,3.1.0,60.08315511833204,
225,G,N,0,L,N,225GN000LN,HLN,0,176,176,232,,,0.999,826.0117104999954,826.3114148000022,826.3114148000022,826.5111677999375,826.5278272000141,None,up,1.8332187000196427,826.5278272000141,None,826.5278272000141,827.5103386999108,0.20112950005568564,None,,,,,,,,,39,001,2020_Jan_03_1652,untitled,3.1.0,60.08315511833204,
485,_5,N,180,L,N,485_5N180LN,HLN,0,177,177,284,,,1.303,828.5874144999543,828.8763482999057,828.8763482999057,829.0755636999384,829.0922105999198,None,up,2.417353800032288,829.0922105999198,None,829.0922105999198,830.3748475000029,0.21257309999782592,None,,,,,,,,,39,001,2020_Jan_03_1652,untitled,3.1.0,60.08315511833204,
257,_2,N,0,R,N,257_2N000RN,HRN,0,178,178,240,,,0.916,831.7896412999835,832.0898539999034,832.0898539999034,832.2227589999093,832.239644599962,None,up,1.8347390000708401,832.239644599962,None,832.239644599962,833.1396803999087,0.2649247000226751,None,,,,,,,,,39,001,2020_Jan_03_1652,untitled,3.1.0,60.08315511833204,
_,_5,N,180,_,_,__5N180__,N,0,179,179,92,,,0.8290000000000001,834.2899513000157,834.5883861999027,834.5883861999027,834.8291134999599,834.8291134999599,None,up,1.9928687000647187,834.8291134999599,None,834.8291134999599,835.6201023999602,0.20066750003024936,None,,,,,,,,,39,001,2020_Jan_03_1652,untitled,3.1.0,60.08315511833204,
131,F,N,90,R,N,131FN090RN,HRN,0,180,180,210,,,1.393,837.0311581999995,837.3191176999826,837.3191176999826,837.5347232999047,837.5514889999758,None,up,3.130989999976009,837.5514889999758,None,837.5514889999758,838.9346116000088,0.19534390000626445,None,,,,,,,,,39,001,2020_Jan_03_1652,untitled,3.1.0,60.08315511833204,
164,F,N,135,L,N,164FN135LN,HLN,0,181,181,219,,,0.867,840.8901377000147,841.1818144000135,841.1818144000135,841.3983176999027,841.4152026999509,None,up,2.068118300056085,841.4152026999509,None,841.4152026999509,842.2641032999381,0.19460669998079538,None,,,,,,,,,39,001,2020_Jan_03_1652,untitled,3.1.0,60.08315511833204,
392,_4,N,315,R,N,392_4N315RN,HRN,0,182,182,263,,,1.1480000000000001,843.6917620999739,843.9792545000091,843.9792545000091,844.1956608999753,844.2123308000155,None,up,2.6328546999720857,844.2123308000155,None,844.2123308000155,845.3449050999479,0.19294410001020879,None,,,,,,,,,39,001,2020_Jan_03_1652,untitled,3.1.0,60.08315511833204,
267,_2,M,90,R,N,267_2M090RN,HRN,0,183,183,146,,,0.79,847.0895320000127,847.3780590000097,847.3780590000097,847.5594017999247,847.5761599999387,None,up,2.9832746000029147,847.5761599999387,None,847.5761599999387,848.3594866999192,0.22799509996548295,None,,,,,,,,,39,001,2020_Jan_03_1652,untitled,3.1.0,60.08315511833204,
_,_5,M,315,_,_,__5M315__,N,0,184,184,47,,,0.748,850.7895775999641,851.0895592999877,851.0895592999877,851.2731262999587,851.2895487999776,None,down,2.432344200089574,851.2895487999776,None,851.2895487999776,852.0217951999512,0.2142614999320358,None,,,,,,,,,39,001,2020_Jan_03_1652,untitled,3.1.0,60.08315511833204,
229,G,N,180,L,N,229GN180LN,HLN,0,185,185,236,,,0.962,853.9267751999432,854.2200822000159,854.2200822000159,854.4377340999199,854.4538334999233,None,up,1.8998310000170022,854.4538334999233,None,854.4538334999233,855.4031270999694,0.19231850001960993,None,,,,,,,,,39,001,2020_Jan_03_1652,untitled,3.1.0,60.08315511833204,
418,_4,N,45,L,N,418_4N045LN,HLN,0,186,186,265,,,0.924,856.5696059999755,856.8681236999109,856.8681236999109,857.0677387999604,857.0844539999962,None,up,1.733151699998416,857.0844539999962,None,857.0844539999962,858.0002351999283,0.20323829993139952,None,,,,,,,,,39,001,2020_Jan_03_1652,untitled,3.1.0,60.08315511833204,
039,R,N,270,L,N,039RN270LN,HLN,0,187,187,206,,,1.348,859.0294583999785,859.3177699999651,859.3177699999651,859.5324626999209,859.5496345999418,None,up,2.448521300102584,859.5496345999418,None,859.5496345999418,860.8812492999714,0.19541849999222904,None,,,,,,,,,39,001,2020_Jan_03_1652,untitled,3.1.0,60.08315511833204,
133,F,N,180,R,N,133FN180RN,HRN,0,188,188,212,,,1.242,862.2411684999242,862.5318313000025,862.5318313000025,862.7134972999338,862.731252299971,None,up,2.8857075999258086,862.731252299971,None,862.731252299971,863.9629190999549,0.22925920004490763,None,,,,,,,,,39,001,2020_Jan_03_1652,untitled,3.1.0,60.08315511833204,
_,R,N,315,_,_,_RN315__,N,0,189,189,71,,,1.141,865.9318212999497,866.226548000006,866.226548000006,866.3439569999464,866.3603603999363,None,up,2.901128900004551,866.3603603999363,None,866.3603603999363,867.4752710999455,0.29170820000581443,None,,,,,,,,,39,001,2020_Jan_03_1652,untitled,3.1.0,60.08315511833204,
258,_2,N,45,R,N,258_2N045RN,HRN,0,190,190,241,,,0.926,869.4688393999822,869.7566679000156,869.7566679000156,869.9730938000139,869.9899081999902,None,up,1.8352131000719965,869.9899081999902,None,869.9899081999902,870.905746000004,0.19246349995955825,None,,,,,,,,,39,001,2020_Jan_03_1652,untitled,3.1.0,60.08315511833204,
227,G,N,90,L,N,227GN090LN,HLN,0,191,191,234,,,1.371,872.0642901000101,872.3543085999554,872.3543085999554,872.5375357000157,872.5543333999813,None,up,2.132044699974358,872.5543333999813,None,872.5543333999813,873.9197449999629,0.2261165000963956,None,,,,,,,,,39,001,2020_Jan_03_1652,untitled,3.1.0,60.08315511833204,
_,_5,M,270,_,_,__5M270__,N,0,192,192,46,,,1.078,874.9045209999895,875.2019153999863,875.2019153999863,875.4017193999607,875.418490299955,None,down,2.8493767000036314,875.418490299955,None,875.418490299955,876.4844548999099,0.2049107999773696,None,,,,,,,,,39,001,2020_Jan_03_1652,untitled,3.1.0,60.08315511833204,
196,G,N,135,R,N,196GN135RN,HRN,0,193,193,227,,,1.182,878.492897399934,878.7824442000128,878.7824442000128,878.981975200004,878.998814099934,None,up,2.136452999897301,878.998814099934,None,878.998814099934,880.1642283999827,0.2099699000827968,None,,,,,,,,,39,001,2020_Jan_03_1652,untitled,3.1.0,60.08315511833204,
008,R,N,315,R,N,008RN315RN,HRN,0,194,194,199,,,1.22,881.4820533000166,881.7801583999535,881.7801583999535,881.8635661000153,881.8823080000002,None,up,1.8807293000863865,881.8823080000002,None,881.8823080000002,883.0781687999843,0.32346600003074855,None,,,,,,,,,39,001,2020_Jan_03_1652,untitled,3.1.0,60.08315511833204,
167,F,N,270,L,N,167FN270LN,HLN,0,195,195,222,,,1.2750000000000001,883.951783199911,884.2441845999565,884.2441845999565,884.477180399932,884.4938605999341,None,up,1.95183390006423,884.4938605999341,None,884.4938605999341,885.7598609999986,0.1749464999884367,None,,,,,,,,,39,001,2020_Jan_03_1652,untitled,3.1.0,60.08315511833204,
238,G,M,225,L,N,238GM225LN,HLN,0,196,196,141,,,1.329,886.6672136000125,886.9582612999948,886.9582612999948,887.1583063999424,887.1751112999627,None,down,2.749329900019802,887.1751112999627,None,887.1751112999627,888.4902279999806,0.2078227000311017,None,,,,,,,,,39,001,2020_Jan_03_1652,untitled,3.1.0,60.08315511833204,
493,_5,M,180,L,N,493_5M180LN,HLN,0,197,197,188,,,0.87,890.0971694999607,890.3886222000001,890.3886222000001,890.6393283999059,890.6583573999815,None,down,2.9146935999160632,890.6583573999815,None,890.6583573999815,891.5042956999969,0.16073460003826767,None,,,,,,,,,39,001,2020_Jan_03_1652,untitled,3.1.0,60.08315511833204,
292,_2,N,135,L,N,292_2N135LN,HLN,0,198,198,251,,,1.181,893.813439099933,894.102155999979,894.102155999979,894.2855667999247,894.30303979991,None,up,2.8498909999616444,894.30303979991,None,894.30303979991,895.4677870000014,0.22447430004831403,None,,,,,,,,,39,001,2020_Jan_03_1652,untitled,3.1.0,60.08315511833204,
_,R,N,135,_,_,_RN135__,N,0,199,199,67,,,0.847,897.4286070999224,897.7177395999897,897.7177395999897,897.8821873000124,897.8821873000124,None,up,1.4830395999597386,897.8821873000124,None,897.8821873000124,898.7145525999367,0.2561942000174895,None,,,,,,,,,39,001,2020_Jan_03_1652,untitled,3.1.0,60.08315511833204,
483,_5,N,90,L,N,483_5N090LN,HLN,0,200,200,282,,,1.02,899.5543747999473,899.8468356999801,899.8468356999801,900.080217699986,900.09701519995,None,up,1.882705399999395,900.09701519995,None,900.09701519995,901.0957793999696,0.17702760000247508,None,,,,,,,,,39,001,2020_Jan_03_1652,untitled,3.1.0,60.08315511833204,
173,F,M,180,L,N,173FM180LN,HLN,0,201,201,124,,,1.109,902.1802627999568,902.4780783000169,902.4780783000169,902.6945987999206,902.7115341000026,None,up,3.114899200038053,902.7115341000026,None,902.7115341000026,903.8102999000112,0.1877510000485927,None,,,,,,,,,39,001,2020_Jan_03_1652,untitled,3.1.0,60.08315511833204,
385,_4,N,0,R,N,385_4N000RN,HRN,0,202,202,256,,,1.125,906.0287947999313,906.325277499971,906.325277499971,906.5411617999198,906.5578694000142,None,up,1.7180272999685258,906.5578694000142,None,906.5578694000142,907.6735739000142,0.18757340009324253,None,,,,,,,,,39,001,2020_Jan_03_1652,untitled,3.1.0,60.08315511833204,
195,G,N,90,R,N,195GN090RN,HRN,0,203,203,226,,,0.797,908.5012047999771,908.7900178999407,908.7900178999407,908.9895439000102,909.0063966999296,None,up,1.6179041999857873,909.0063966999296,None,909.0063966999296,909.7889549999963,0.21041559998411685,None,,,,,,,,,39,001,2020_Jan_03_1652,untitled,3.1.0,60.08315511833204,
300,_2,M,135,L,N,300_2M135LN,HLN,0,204,204,155,,,0.785,910.8695587000111,911.1705467000138,911.1705467000138,911.3371793999104,911.3542163999518,None,up,2.0484978000167757,911.3542163999518,None,911.3542163999518,912.1361810999224,0.22970320004969835,None,,,,,,,,,39,001,2020_Jan_03_1652,untitled,3.1.0,60.08315511833204,
262,_2,N,225,R,N,262_2N225RN,HRN,0,205,205,245,,,1.049,913.6458036999684,913.9345228999155,913.9345228999155,914.1180440000026,914.1346577999648,None,up,2.0183206000365317,914.1346577999648,None,914.1346577999648,915.1668134999927,0.22662790003232658,None,,,,,,,,,39,001,2020_Jan_03_1652,untitled,3.1.0,60.08315511833204,
_,_4,N,0,_,_,__4N000__,N,0,206,206,80,,,0.9380000000000001,916.3332806999097,916.6325778999599,916.6325778999599,916.8653657999821,916.8822010000004,None,up,1.56837190000806,916.8822010000004,None,916.8822010000004,917.8149818999227,0.1683987999567762,None,,,,,,,,,39,001,2020_Jan_03_1652,untitled,3.1.0,60.08315511833204,
_,F,N,0,_,_,_FN000__,N,0,207,207,48,,,1.088,918.6365917999065,918.9316380999517,918.9316380999517,919.1633838999551,919.1801517999265,None,up,1.7512151999399066,919.1801517999265,None,919.1801517999265,920.263040699996,0.1724600000306964,None,,,,,,,,,39,001,2020_Jan_03_1652,untitled,3.1.0,60.08315511833204,
135,F,N,270,R,N,135FN270RN,HRN,0,208,208,214,,,1.364,921.1968363999622,921.4952033999143,921.4952033999143,921.6640551999444,921.6640551999444,None,up,2.065171799971722,921.6640551999444,None,921.6640551999444,923.0104765999131,0.2482257999945432,None,,,,,,,,,39,001,2020_Jan_03_1652,untitled,3.1.0,60.08315511833204,
042,R,M,45,L,N,042RM045LN,HLN,0,209,209,105,,,0.741,923.9327428999823,924.226322399918,924.226322399918,924.4422384999925,924.4588537999662,None,down,1.9837938999990001,924.4588537999662,None,924.4588537999662,925.1916959999362,0.18905579997226596,None,,,,,,,,,39,001,2020_Jan_03_1652,untitled,3.1.0,60.08315511833204,
233,G,M,0,L,N,233GM000LN,HLN,0,210,210,136,,,1.385,926.6690892999759,926.958155100001,926.958155100001,927.1568502999144,927.174794999999,None,up,3.2299840999767184,927.174794999999,None,927.174794999999,928.5716796999332,0.21035160007886589,None,,,,,,,,,39,001,2020_Jan_03_1652,untitled,3.1.0,60.08315511833204,
_,_2,M,225,_,_,__2M225__,N,0,211,211,29,,,0.794,930.5832701999461,930.8717949999264,930.8717949999264,931.1203484999714,931.1368072999176,None,up,2.9488197000464424,931.1368072999176,None,931.1368072999176,931.9198374999687,0.1652872998965904,None,,,,,,,,,39,001,2020_Jan_03_1652,untitled,3.1.0,60.08315511833204,
_,F,N,180,_,_,_FN180__,N,0,212,212,52,,,1.24,934.2608788999496,934.5497647000011,934.5497647000011,934.7996247999836,934.8161131999223,None,up,2.9162813000148162,934.8161131999223,None,934.8161131999223,936.0486273999559,0.16347060003317893,None,,,,,,,,,39,001,2020_Jan_03_1652,untitled,3.1.0,60.08315511833204,
424,_4,N,315,L,N,424_4N315LN,HLN,0,213,213,271,,,1.104,937.9334260999458,938.2302005999954,938.2302005999954,938.4466168999206,938.4631500999676,None,up,1.8001514000352472,938.4631500999676,None,938.4631500999676,939.5457108999835,0.18755219993181527,None,,,,,,,,,39,001,2020_Jan_03_1652,untitled,3.1.0,60.08315511833204,
_,R,M,180,_,_,_RM180__,N,0,214,214,20,,,1.065,940.4919824999524,940.7949217999121,940.7949217999121,940.9780327999033,940.9945186999394,None,up,3.0199943999759853,940.9945186999394,None,940.9945186999394,942.0443449999439,0.2138797000516206,None,,,,,,,,,39,001,2020_Jan_03_1652,untitled,3.1.0,60.08315511833204,
170,F,M,45,L,N,170FM045LN,HLN,0,215,215,121,,,0.853,944.3043000999605,944.592106499942,944.592106499942,944.7416943999706,944.7588363999967,None,up,2.7489326000213623,944.7588363999967,None,944.7588363999967,945.5903452999191,0.26845269999466836,None,,,,,,,,,39,001,2020_Jan_03_1652,untitled,3.1.0,60.08315511833204,
240,G,M,315,L,N,240GM315LN,HLN,0,216,216,143,,,0.801,947.7301637999481,948.0214375999058,948.0214375999058,948.2212323999265,948.2378505999222,None,None,,948.2378505999222,None,948.2378505999222,949.0205777999945,0.2077651999425143,None,,,,,,,,,39,001,2020_Jan_03_1652,untitled,3.1.0,60.08315511833204,
304,_2,M,315,L,N,304_2M315LN,HLN,0,217,217,159,,,0.804,951.9159422999946,952.2158436999889,952.2158436999889,952.4178306999383,952.434723699931,951.9159422999946,up,2.2006959000136703,952.434723699931,None,952.434723699931,953.2338376999833,0.19773540005553514,None,,,,,,,,,39,001,2020_Jan_03_1652,untitled,3.1.0,60.08315511833204,
293,_2,N,180,L,N,293_2N180LN,HLN,0,218,218,252,,,0.763,954.82628379995,955.1153374999994,955.1153374999994,955.3486308999127,955.365369200008,None,up,1.8029264999786392,955.365369200008,None,955.365369200008,956.1151531999931,0.1784381999168545,None,,,,,,,,,39,001,2020_Jan_03_1652,untitled,3.1.0,60.08315511833204,
491,_5,M,90,L,N,491_5M090LN,HLN,0,219,219,186,,,0.902,957.3939947999315,957.6967619999778,957.6967619999778,957.8804761999054,957.8974332999205,None,up,2.423850900027901,957.8974332999205,None,957.8974332999205,958.795200399938,0.21157879999373108,None,,,,,,,,,39,001,2020_Jan_03_1652,untitled,3.1.0,60.08315511833204,
226,G,N,45,L,N,226GN045LN,HLN,0,220,220,233,,,1.151,960.5849102999782,960.8772231999319,960.8772231999319,961.0435587000102,961.0604885999346,None,up,1.9829012000700459,961.0604885999346,None,961.0604885999346,962.1925493999152,0.24634599999990314,None,,,,,,,,,39,001,2020_Jan_03_1652,untitled,3.1.0,60.08315511833204,
006,R,N,225,R,N,006RN225RN,HRN,0,221,221,197,,,1.198,963.2608174999477,963.5581790999277,963.5581790999277,963.7578918999061,963.7744925000006,None,up,1.8996861999621615,963.7744925000006,None,963.7744925000006,964.9567778999917,0.20321920001879334,None,,,,,,,,,39,001,2020_Jan_03_1652,untitled,3.1.0,60.08315511833204,
398,_4,M,225,R,N,398_4M225RN,HRN,0,222,222,165,,,1.2590000000000001,965.8772955000168,966.1726277999114,966.1726277999114,966.3888196999906,966.405668499996,None,down,2.7516380000161007,966.405668499996,None,966.405668499996,967.6547687000129,0.19113299995660782,None,,,,,,,,,39,001,2020_Jan_03_1652,untitled,3.1.0,60.08315511833204,
208,G,M,315,R,N,208GM315RN,HRN,0,223,223,135,,,0.871,969.4037873999914,969.7028411999345,969.7028411999345,969.8692442999454,969.8859376999317,None,down,2.7846861000871286,969.8859376999317,None,969.8859376999317,970.7522960999049,0.23138689994812012,None,,,,,,,,,39,001,2020_Jan_03_1652,untitled,3.1.0,60.08315511833204,
420,_4,N,135,L,N,420_4N135LN,HLN,0,224,224,267,,,1.033,972.901536899968,973.1996422999073,973.1996422999073,973.383213999914,973.3999445999507,None,up,2.067948800045997,973.3999445999507,None,973.3999445999507,974.4157436999958,0.21539010002743453,None,,,,,,,,,39,001,2020_Jan_03_1652,untitled,3.1.0,60.08315511833204,
_,_5,M,45,_,_,__5M045__,N,0,225,225,41,,,0.722,975.7877114999574,976.0804452999728,976.0804452999728,976.1971657999093,976.1971657999093,None,up,2.13281320000533,976.1971657999093,None,976.1971657999093,976.913154299953,0.30086950003169477,None,,,,,,,,,39,001,2020_Jan_03_1652,untitled,3.1.0,60.08315511833204,
197,G,N,180,R,N,197GN180RN,HRN,0,226,226,228,,,1.037,978.5266540999291,978.8281424000161,978.8281424000161,979.0443750999402,979.061970199924,None,up,2.2003744000103325,979.061970199924,None,979.061970199924,980.0771147999913,0.18351390003226697,None,,,,,,,,,39,001,2020_Jan_03_1652,untitled,3.1.0,60.08315511833204,
399,_4,M,270,R,N,399_4M270RN,HRN,0,227,227,166,,,0.779,981.4680053999182,981.7594167999923,981.7594167999923,981.9751942999428,981.9921551999869,None,down,2.449753800057806,981.9921551999869,None,981.9921551999869,982.7581080999225,0.19230590004008263,None,,,,,,,,,39,001,2020_Jan_03_1652,untitled,3.1.0,60.08315511833204,
172,F,M,135,L,N,172FM135LN,HLN,0,228,228,123,,,1.113,984.657504200004,984.9560850999551,984.9560850999551,985.1557835999411,985.1726866000099,None,down,2.716020799940452,985.1726866000099,None,985.1726866000099,986.2716997999232,0.19989559997338802,None,,,,,,,,,39,001,2020_Jan_03_1652,untitled,3.1.0,60.08315511833204,
260,_2,N,135,R,N,260_2N135RN,HRN,0,229,229,243,,,1.328,988.1151773999445,988.4031055999221,988.4031055999221,988.603192599956,988.6201126999222,None,up,2.466801399947144,988.6201126999222,None,988.6201126999222,989.935381499934,0.2112549999728799,None,,,,,,,,,39,001,2020_Jan_03_1652,untitled,3.1.0,60.08315511833204,
_,_4,N,270,_,_,__4N270__,N,0,230,230,86,,,1.178,991.403904399951,991.7008318000007,991.7008318000007,991.8192459999118,991.8192459999118,None,up,2.2146717999130487,991.8192459999118,None,991.8192459999118,992.983214900014,0.29434719996061176,None,,,,,,,,,39,001,2020_Jan_03_1652,untitled,3.1.0,60.08315511833204,
162,F,N,45,L,N,162FN045LN,HLN,0,231,231,217,,,1.186,994.2533962000161,994.5478828999912,994.5478828999912,994.7491825999459,994.7643508999608,None,up,2.1338807999854907,994.7643508999608,None,994.7643508999608,995.9297892999602,0.20627150009386241,None,,,,,,,,,39,001,2020_Jan_03_1652,untitled,3.1.0,60.08315511833204,
390,_4,N,225,R,N,390_4N225RN,HRN,0,232,232,261,,,1.159,997.0866491999477,997.3787164000096,997.3787164000096,997.6117368999403,997.6283393999329,None,up,2.166322599980049,997.6283393999329,None,997.6283393999329,998.7781109999632,0.17574630002491176,None,,,,,,,,,39,001,2020_Jan_03_1652,untitled,3.1.0,60.08315511833204,
_,_5,M,135,_,_,__5M135__,N,0,233,233,43,,,1.304,999.9820354999974,1000.2764965000097,1000.2764965000097,1000.5092962000053,1000.5258286999306,None,None,,1000.5258286999306,None,1000.5258286999306,1001.8091692000162,0.1740126000950113,None,,,,,,,,,39,001,2020_Jan_03_1652,untitled,3.1.0,60.08315511833204,
463,_5,M,270,R,N,463_5M270RN,HRN,0,234,234,182,,,1.293,1004.2486983999843,1004.5396123999963,1004.5396123999963,1004.7062457000138,1004.7238858999917,1004.2486983999843,up,3.0186703000217676,1004.7238858999917,None,1004.7238858999917,1006.0047238999978,0.24108300008811057,None,,,,,,,,,39,001,2020_Jan_03_1652,untitled,3.1.0,60.08315511833204,
456,_5,N,315,R,N,456_5N315RN,HRN,0,235,235,279,,,1.2530000000000001,1007.9810251999879,1008.2690155999735,1008.2690155999735,1008.4689767999807,1008.4861066999147,None,up,2.215587900020182,1008.4861066999147,None,1008.4861066999147,1009.7185188999865,0.2171632000245154,None,,,,,,,,,39,001,2020_Jan_03_1652,untitled,3.1.0,60.08315511833204,
482,_5,N,45,L,N,482_5N045LN,HLN,0,236,236,281,,,1.299,1010.9116787000094,1011.2010951999109,1011.2010951999109,1011.4162750999676,1011.4331195999403,None,up,2.002162600052543,1011.4331195999403,None,1011.4331195999403,1012.7152925999835,0.19825599994510412,None,,,,,,,,,39,001,2020_Jan_03_1652,untitled,3.1.0,60.08315511833204,
_,_4,N,135,_,_,__4N135__,N,0,237,237,83,,,1.26,1013.6346659999108,1013.9305880999891,1013.9305880999891,1014.1472253999673,1014.1639307999285,None,up,2.1829003000166267,1014.1639307999285,None,1014.1639307999285,1015.4139617999317,0.1855130000039935,None,,,,,,,,,39,001,2020_Jan_03_1652,untitled,3.1.0,60.08315511833204,
_,G,M,135,_,_,_GM135__,N,0,238,238,11,,,1.197,1016.5397873999318,1016.8287344999844,1016.8287344999844,1017.0613516999874,1017.0780191000085,None,down,2.3156398000428453,1017.0780191000085,None,1017.0780191000085,1018.2605935999891,0.179942199960351,None,,,,,,,,,39,001,2020_Jan_03_1652,untitled,3.1.0,60.08315511833204,
_,F,N,135,_,_,_FN135__,N,0,239,239,51,,,0.747,1019.61525849998,1019.9090205999091,1019.9090205999091,1020.1093748999992,1020.1258481999394,None,up,1.4512046000454575,1020.1258481999394,None,1020.1258481999394,1020.8584721999941,0.20579329994507134,None,,,,,,,,,39,001,2020_Jan_03_1652,untitled,3.1.0,60.08315511833204,
269,_2,M,180,R,N,269_2M180RN,HRN,0,240,240,148,,,1.0190000000000001,1021.8399613999063,1022.1406338999514,1022.1406338999514,1022.2922069999622,1022.3116200999357,None,up,3.393173999967985,1022.3116200999357,None,1022.3116200999357,1023.3073971999111,0.24962749995756894,None,,,,,,,,,39,001,2020_Jan_03_1652,untitled,3.1.0,60.08315511833204,
_,_4,M,45,_,_,__4M045__,N,0,241,241,33,,,1.071,1025.8815479999175,1026.1711335999426,1026.1711335999426,1026.4196847999701,1026.4365450999467,None,down,2.1184375000884756,1026.4365450999467,None,1026.4365450999467,1027.48565399996,0.16455230000428855,None,,,,,,,,,39,001,2020_Jan_03_1652,untitled,3.1.0,60.08315511833204,
265,_2,M,0,R,N,265_2M000RN,HRN,0,242,242,144,,,1.297,1028.753217499936,1029.0508461999707,1029.0508461999707,1029.2672241999535,1029.283911000006,None,down,2.4347771999891847,1029.283911000006,None,1029.283911000006,1030.566780699999,0.18502640002407134,None,,,,,,,,,39,001,2020_Jan_03_1652,untitled,3.1.0,60.08315511833204,
421,_4,N,180,L,N,421_4N180LN,HLN,0,243,243,268,,,1.079,1031.999704799964,1032.2981443000026,1032.2981443000026,1032.4479635999305,1032.4479635999305,None,down,1.83326860005036,1032.4479635999305,None,1032.4479635999305,1033.5135939999018,0.261878399993293,None,,,,,,,,,39,001,2020_Jan_03_1652,untitled,3.1.0,60.08315511833204,
_,R,M,270,_,_,_RM270__,N,0,244,244,22,,,0.785,1034.525662799948,1034.829343499965,1034.829343499965,1034.9958387999795,1035.0134269999107,None,down,2.2335119999479502,1035.0134269999107,None,1035.0134269999107,1035.7785340999253,0.23048030002973974,None,,,,,,,,,39,001,2020_Jan_03_1652,untitled,3.1.0,60.08315511833204,
230,G,N,225,L,N,230GN225LN,HLN,0,245,245,237,,,0.93,1037.4571895999834,1037.7610761999385,1037.7610761999385,1037.9606090999441,1037.9800972999074,None,up,2.1796598999062553,1037.9800972999074,None,1037.9800972999074,1038.892751700012,0.19655500003136694,None,,,,,,,,,39,001,2020_Jan_03_1652,untitled,3.1.0,60.08315511833204,
431,_4,M,270,L,N,431_4M270LN,HLN,0,246,246,174,,,1.231,1040.380001100013,1040.6740456999978,1040.6740456999978,1040.8736807999667,1040.890705299913,None,down,2.6848039999604225,1040.890705299913,None,1040.890705299913,1042.107548699947,0.20734389999415725,None,,,,,,,,,39,001,2020_Jan_03_1652,untitled,3.1.0,60.08315511833204,
268,_2,M,135,R,N,268_2M135RN,HRN,0,247,247,147,,,1.361,1043.785500500002,1044.0712707999628,1044.0712707999628,1044.2875904999673,1044.3043654999929,None,up,2.4156796999741346,1044.3043654999929,None,1044.3043654999929,1045.6531671999255,0.19342519994825125,None,,,,,,,,,39,001,2020_Jan_03_1652,untitled,3.1.0,60.08315511833204,
_,F,M,0,_,_,_FM000__,N,0,248,248,0,,,0.7030000000000001,1046.9244139000075,1047.2185444999486,1047.2185444999486,1047.4348606999265,1047.451451299945,None,down,1.837010100018233,1047.451451299945,None,1047.451451299945,1048.134736499982,0.19185609999112785,None,,,,,,,,,39,001,2020_Jan_03_1652,untitled,3.1.0,60.08315511833204,
423,_4,N,270,L,N,423_4N270LN,HLN,0,249,249,270,,,0.758,1049.5357196999248,1049.833160399925,1049.833160399925,1050.0168319999939,1050.0168319999939,None,up,1.5680748999584466,1050.0168319999939,None,1050.0168319999939,1050.7659635000164,0.22750989999622107,None,,,,,,,,,39,001,2020_Jan_03_1652,untitled,3.1.0,60.08315511833204,
_,R,N,270,_,_,_RN270__,N,0,250,250,70,,,0.9390000000000001,1051.8588845999911,1052.1490743999602,1052.1490743999602,1052.2982057000045,1052.3154006999684,None,up,2.067994400043972,1052.3154006999684,None,1052.3154006999684,1053.2476517999312,0.25949859991669655,None,,,,,,,,,39,001,2020_Jan_03_1652,untitled,3.1.0,60.08315511833204,
_,F,M,225,_,_,_FM225__,N,0,251,251,5,,,0.706,1054.68426359992,1054.9783569999272,1054.9783569999272,1055.111582799931,1055.111582799931,None,up,1.6181192001095042,1055.111582799931,None,1055.111582799931,1055.8109772999305,0.2826861999928951,None,,,,,,,,,39,001,2020_Jan_03_1652,untitled,3.1.0,60.08315511833204,
_,G,M,90,_,_,_GM090__,N,0,252,252,10,,,0.8210000000000001,1056.91205179994,1057.2095823999261,1057.2095823999261,1057.4423713999568,1057.4591033000033,None,down,2.9153241999447346,1057.4591033000033,None,1057.4591033000033,1058.2751986999065,0.16978440003003925,None,,,,,,,,,39,001,2020_Jan_03_1652,untitled,3.1.0,60.08315511833204,
237,G,M,180,L,N,237GM180LN,HLN,0,253,253,140,,,1.196,1060.5405050999252,1060.8395878999727,1060.8395878999727,1061.0892762999283,1061.1060803999426,None,up,3.2331558000296354,1061.1060803999426,None,1061.1060803999426,1062.2889398999978,0.15385040000546724,None,,,,,,,,,39,001,2020_Jan_03_1652,untitled,3.1.0,60.08315511833204,
_,F,M,90,_,_,_FM090__,N,0,254,254,2,,,1.111,1064.531832800014,1064.8196353999665,1064.8196353999665,1065.0529632999096,1065.0698818999808,None,down,3.0508884000591934,1065.0698818999808,None,1065.0698818999808,1066.1684055000078,0.17897430004086345,None,,,,,,,,,39,001,2020_Jan_03_1652,untitled,3.1.0,60.08315511833204,
389,_4,N,180,R,N,389_4N180RN,HRN,0,255,255,260,,,1.008,1068.3470705999061,1068.6499458999606,1068.6499458999606,1068.833192699938,1068.8500056999037,None,up,2.3652036000275984,1068.8500056999037,None,1068.8500056999037,1069.849531200016,0.21293989999685436,None,,,,,,,,,39,001,2020_Jan_03_1652,untitled,3.1.0,60.08315511833204,
_,_5,M,225,_,_,__5M225__,N,0,256,256,45,,,1.103,1071.3971352999797,1071.6974790999666,1071.6974790999666,1071.9301224999363,1071.9476564999204,None,up,2.1148588000796735,1071.9476564999204,None,1071.9476564999204,1073.0289742000168,0.16963629995007068,None,,,,,,,,,39,001,2020_Jan_03_1652,untitled,3.1.0,60.08315511833204,
_,G,N,0,_,_,_GN000__,N,0,257,257,56,,,0.9490000000000001,1074.2348019999918,1074.5278384999838,1074.5278384999838,1074.7775426999433,1074.794182499987,None,up,1.719899500021711,1074.794182499987,None,1074.794182499987,1075.7266049999744,0.1606724999146536,None,,,,,,,,,39,001,2020_Jan_03_1652,untitled,3.1.0,60.08315511833204,
422,_4,N,225,L,N,422_4N225LN,HLN,0,258,258,269,,,1.119,1076.7091511999024,1077.0091887000017,1077.0091887000017,1077.225311899907,1077.242203300004,None,up,1.8497244999743998,1077.242203300004,None,1077.242203300004,1078.3587310999865,0.18145919998642057,None,,,,,,,,,39,001,2020_Jan_03_1652,untitled,3.1.0,60.08315511833204,
388,_4,N,135,R,N,388_4N135RN,HRN,0,259,259,259,,,0.716,1079.3011151999235,1079.591171799926,1079.591171799926,1079.806555799907,1079.8233278999105,None,up,1.8839770999038592,1079.8233278999105,None,1079.8233278999105,1080.523133300012,0.1953308000229299,None,,,,,,,,,39,001,2020_Jan_03_1652,untitled,3.1.0,60.08315511833204,
166,F,N,225,L,N,166FN225LN,HLN,0,260,260,221,,,0.9590000000000001,1081.9619460999966,1082.2547037999611,1082.2547037999611,1082.421141400002,1082.4379821999464,None,up,1.866111799958162,1082.4379821999464,None,1082.4379821999464,1083.3867975999601,0.23717870004475117,None,,,,,,,,,39,001,2020_Jan_03_1652,untitled,3.1.0,60.08315511833204,
_,F,M,180,_,_,_FM180__,N,0,261,261,4,,,0.786,1084.5475299999816,1084.8359484999673,1084.8359484999673,1085.0208381999983,1085.0388042000122,None,up,1.9299172000028193,1085.0388042000122,None,1085.0388042000122,1085.8028745999327,0.22577060002367944,None,,,,,,,,,39,001,2020_Jan_03_1652,untitled,3.1.0,60.08315511833204,
142,F,M,225,R,N,142FM225RN,HRN,0,262,262,117,,,1.088,1087.1507412999636,1087.4499687999487,1087.4499687999487,1087.6831304999068,1087.6995720999548,None,up,2.219738000072539,1087.6995720999548,None,1087.6995720999548,1088.7820627999026,0.16898210009094328,None,,,,,,,,,39,001,2020_Jan_03_1652,untitled,3.1.0,60.08315511833204,
013,R,M,180,R,N,013RM180RN,HRN,0,263,263,100,,,1.246,1090.1277652999852,1090.4147733999416,1090.4147733999416,1090.6305054000113,1090.6471194999758,None,down,3.3650332000106573,1090.6471194999758,None,1090.6471194999758,1091.8793755999068,0.19326800003182143,None,,,,,,,,,39,001,2020_Jan_03_1652,untitled,3.1.0,60.08315511833204,
011,R,M,90,R,N,011RM090RN,HRN,0,264,264,98,,,1.365,1094.2085477999644,1094.5106905999128,1094.5106905999128,1094.7281621999573,1094.7439523999346,None,up,3.0836444000015035,1094.7439523999346,None,1094.7439523999346,1096.0927055999637,0.18346269999165088,None,,,,,,,,,39,001,2020_Jan_03_1652,untitled,3.1.0,60.08315511833204,
194,G,N,45,R,N,194GN045RN,HRN,0,265,265,225,,,0.755,1098.0538519999245,1098.3572897999547,1098.3572897999547,1098.5406058999943,1098.5573766999878,None,up,1.8659147000871599,1098.5573766999878,None,1098.5573766999878,1099.3065549000166,0.21080939995590597,None,,,,,,,,,39,001,2020_Jan_03_1652,untitled,3.1.0,60.08315511833204,
457,_5,M,0,R,N,457_5M000RN,HRN,0,266,266,176,,,1.028,1100.6868361999514,1101.0063063999405,1101.0063063999405,1101.1379563999362,1101.1548515999457,None,up,2.7151989999692887,1101.1548515999457,None,1101.1548515999457,1102.1700706999982,0.24543350003659725,None,,,,,,,,,39,001,2020_Jan_03_1652,untitled,3.1.0,60.08315511833204,
_,_4,M,0,_,_,__4M000__,N,0,267,267,32,,,1.2730000000000001,1104.0593629999785,1104.3521172999172,1104.3521172999172,1104.5851287000114,1104.601748899906,None,up,2.0668070000829175,1104.601748899906,None,1104.601748899906,1105.8675913999323,0.17466440005227923,None,,,,,,,,,39,001,2020_Jan_03_1652,untitled,3.1.0,60.08315511833204,
168,F,N,315,L,N,168FN315LN,HLN,0,268,268,223,,,0.716,1106.8781878999434,1107.1668975999346,1107.1668975999346,1107.3825357999885,1107.3991509999614,None,up,1.4369591000722721,1107.3991509999614,None,1107.3991509999614,1108.0984492999269,0.19682940002530813,None,,,,,,,,,39,001,2020_Jan_03_1652,untitled,3.1.0,60.08315511833204,
202,G,M,45,R,N,202GM045RN,HRN,0,269,269,129,,,0.889,1109.0467754999408,1109.3474790999899,1109.3474790999899,1109.5472038999433,1109.5639573999215,None,down,2.416730899945833,1109.5639573999215,None,1109.5639573999215,1110.446465099929,0.19635019998531789,None,,,,,,,,,39,001,2020_Jan_03_1652,untitled,3.1.0,60.08315511833204,
014,R,M,225,R,N,014RM225RN,HRN,0,270,270,101,,,0.934,1112.1796472999267,1112.4782132999972,1112.4782132999972,1112.695063299965,1112.7121661999263,None,up,2.515985199948773,1112.7121661999263,None,1112.7121661999263,1113.6279521000106,0.18352949991822243,None,,,,,,,,,39,001,2020_Jan_03_1652,untitled,3.1.0,60.08315511833204,
_,_2,M,90,_,_,__2M090__,N,0,271,271,26,,,0.925,1115.4484357999172,1115.7424684999278,1115.7424684999278,1115.9421089999378,1115.9588092999766,None,up,1.9991197999333963,1115.9588092999766,None,1115.9588092999766,1116.8756877999986,0.20569819991942495,None,,,,,,,,,39,001,2020_Jan_03_1652,untitled,3.1.0,60.08315511833204,
143,F,M,270,R,N,143FM270RN,HRN,0,272,272,118,,,0.749,1118.145930300001,1118.4394718999974,1118.4394718999974,1118.6726376999868,1118.6892185999313,None,down,2.2664602999575436,1118.6892185999313,None,1118.6892185999313,1119.421750599984,0.17471449996810406,None,,,,,,,,,39,001,2020_Jan_03_1652,untitled,3.1.0,60.08315511833204,
_,R,N,90,_,_,_RN090__,N,0,273,273,66,,,1.368,1121.1394638000056,1121.436625399976,1121.436625399976,1121.6708956999937,1121.6878407999175,None,up,2.26521420001518,1121.6878407999175,None,1121.6878407999175,1123.0357789999107,0.1703445001039654,None,,,,,,,,,39,001,2020_Jan_03_1652,untitled,3.1.0,60.08315511833204,
193,G,N,0,R,N,193GN000RN,HRN,0,274,274,224,,,1.3780000000000001,1124.152149499976,1124.4508576999651,1124.4508576999651,1124.6673095999286,1124.6841716999188,None,up,2.1338869999162853,1124.6841716999188,None,1124.6841716999188,1126.0495485999854,0.18595299997832626,None,,,,,,,,,39,001,2020_Jan_03_1652,untitled,3.1.0,60.08315511833204,
199,G,N,270,R,N,199GN270RN,HRN,0,275,275,230,,,0.77,1127.0467968999874,1127.3466269999044,1127.3466269999044,1127.5315158999292,1127.5482467999682,None,up,1.6180030000396073,1127.5482467999682,None,1127.5482467999682,1128.3149290999863,0.21358510002028197,None,,,,,,,,,39,001,2020_Jan_03_1652,untitled,3.1.0,60.08315511833204,
_,R,M,135,_,_,_RM135__,N,0,276,276,19,,,1.081,1129.4281611999031,1129.7151019999292,1129.7151019999292,1129.880373999942,1129.8965440000175,None,down,2.784517200081609,1129.8965440000175,None,1129.8965440000175,1130.9617851999355,0.24597649998031557,None,,,,,,,,,39,001,2020_Jan_03_1652,untitled,3.1.0,60.08315511833204,
_,_4,N,45,_,_,__4N045__,N,0,277,277,81,,,0.8280000000000001,1132.9691107999533,1133.2604593000142,1133.2604593000142,1133.411063699983,1133.411063699983,None,up,2.014767099986784,1133.411063699983,None,1133.411063699983,1134.2255892999237,0.26924680010415614,None,,,,,,,,,39,001,2020_Jan_03_1652,untitled,3.1.0,60.08315511833204,
454,_5,N,225,R,N,454_5N225RN,HRN,0,278,278,277,,,1.1420000000000001,1135.6060177999316,1135.9073530000169,1135.9073530000169,1136.1412085999036,1136.1574632999254,None,up,2.1834351000143215,1136.1574632999254,None,1136.1574632999254,1137.2900146999164,0.16844600008334965,None,,,,,,,,,39,001,2020_Jan_03_1652,untitled,3.1.0,60.08315511833204,
129,F,N,0,R,N,129FN000RN,HRN,0,279,279,208,,,1.229,1138.5465156999417,1138.8384119999828,1138.8384119999828,1139.0548118000152,1139.0716364999535,None,up,1.8341987000312656,1139.0716364999535,None,1139.0716364999535,1140.2872066999553,0.19228900002781302,None,,,,,,,,,39,001,2020_Jan_03_1652,untitled,3.1.0,60.08315511833204,
460,_5,M,135,R,N,460_5M135RN,HRN,0,280,280,179,,,1.36,1141.1119766999036,1141.4040793000022,1141.4040793000022,1141.6191768000135,1141.6369468999328,None,down,2.4160061000147834,1141.6369468999328,None,1141.6369468999328,1142.985205899924,0.1934578000800684,None,,,,,,,,,39,001,2020_Jan_03_1652,untitled,3.1.0,60.08315511833204,
272,_2,M,315,R,N,272_2M315RN,HRN,0,281,281,151,,,1.244,1144.2843591999263,1144.5837364000035,1144.5837364000035,1144.7670351999113,1144.7837345999433,None,down,3.099562600022182,1144.7837345999433,None,1144.7837345999433,1146.0163271999918,0.2161789999809116,None,,,,,,,,,39,001,2020_Jan_03_1652,untitled,3.1.0,60.08315511833204,
205,G,M,180,R,N,205GM180RN,HRN,0,282,282,132,,,1.202,1148.0845910999924,1148.3808065999765,1148.3808065999765,1148.6290331999771,1148.6290331999771,None,down,2.3523520999588072,1148.6290331999771,None,1148.6290331999771,1149.7960048000095,0.18729739997070283,None,,,,,,,,,39,001,2020_Jan_03_1652,untitled,3.1.0,60.08315511833204,
005,R,N,180,R,N,005RN180RN,HRN,0,283,283,196,,,1.339,1151.1906000999734,1151.4774150999729,1151.4774150999729,1151.6944587999023,1151.7116321999347,None,up,3.3806904999073595,1151.7116321999347,None,1151.7116321999347,1153.042654399993,0.19468219997361302,None,,,,,,,,,39,001,2020_Jan_03_1652,untitled,3.1.0,60.08315511833204,
_,_4,M,225,_,_,__4M225__,N,0,284,284,37,,,0.78,1155.3047797000036,1155.6069968999363,1155.6069968999363,1155.8068489999278,1155.8236684999429,None,up,1.8843065000837669,1155.8236684999429,None,1155.8236684999429,1156.5894593999255,0.1990938000380993,None,,,,,,,,,39,001,2020_Jan_03_1652,untitled,3.1.0,60.08315511833204,
486,_5,N,225,L,N,486_5N225LN,HLN,0,285,285,285,,,0.8220000000000001,1157.9170137000037,1158.2067967999028,1158.2067967999028,1158.422496199957,1158.4384950000094,None,up,2.5479431999847293,1158.4384950000094,None,1158.4384950000094,1159.253813899937,0.19385390006937087,None,,,,,,,,,39,001,2020_Jan_03_1652,untitled,3.1.0,60.08315511833204,
140,F,M,135,R,N,140FM135RN,HRN,0,286,286,115,,,0.866,1161.207193500013,1161.5024359999225,1161.5024359999225,1161.7026843999047,1161.7207623999566,None,up,2.3494617000687867,1161.7207623999566,None,1161.7207623999566,1162.5683376999805,0.20736360002774745,None,,,,,,,,,39,001,2020_Jan_03_1652,untitled,3.1.0,60.08315511833204,
_,_4,M,90,_,_,__4M090__,N,0,287,287,34,,,0.874,1164.3612919999287,1164.6495491999667,1164.6495491999667,1164.7991030999692,1164.7991030999692,None,down,2.8162366000469774,1164.7991030999692,None,1164.7991030999692,1165.6664067999227,0.271594800055027,None,,,,,,,,,39,001,2020_Jan_03_1652,untitled,3.1.0,60.08315511833204,
,,,,,,,,,,,,,,,,,,,,,,,,,,,,,1167.6309919999912,None,1174.4741531999316,None,1176.7555451999651,None,1180.5353178000078,None,,,,,,,
