Number,Letter,type,Orientation,human,face_type,image,picture,trials.thisRepN,trials.thisTrialN,trials.thisN,trials.thisIndex,text.started,text.stopped,stimulus_duration,CROSS.started,CROSS.stopped,BLANK.started,BLANK.stopped,TEST.started,TEST.stopped,key_JUDGE.keys,key_JUDGE.rt,key_JUDGE.started,key_JUDGE.stopped,image_2.started,image_2.stopped,ISI.started,ISI.stopped,q1.started,q1.stopped,q2.started,q2.stopped,q3.started,q3.stopped,text_2.started,text_2.stopped,participant,session,date,expName,psychopyVersion,frameRate
230,G,N,225,L,N,230GN225LN,HLN,0,0,0,237,788.4951493,None,1.131,798.4444049,798.7866425,798.8027702,799.0856947,799.1022783,None,None,,799.1022783,None,799.1022783,800.2183302,0.0616825,None,,,,,,,,,3,1,2019_Dec_20_1701,untitled,3.1.0,59.90545721
424,_4,N,315,L,N,424_4N315LN,HLN,0,1,1,271,,,1.207,802.7079882,803.0490524,803.0655651,803.3493564,803.3666266,802.7079882,up,2.1301838,803.3666266,None,803.3666266,804.5479688,0.0665754,None,,,,,,,,,3,1,2019_Dec_20_1701,untitled,3.1.0,59.90545721
_,_2,M,90,_,_,__2M090__,N,0,2,2,26,,,1.321,805.5675486,805.9128362,805.9293634,806.2126291,806.2289118,None,up,2.7997935,806.2289118,None,806.2289118,807.5278377,0.063871,None,,,,,,,,,3,1,2019_Dec_20_1701,untitled,3.1.0,59.90545721
259,_2,N,90,R,N,259_2N090RN,HRN,0,3,3,242,,,1.165,809.1539534,809.4437738,809.4437738,809.7432812,809.7596694,None,up,2.4984733,809.7596694,None,809.7596694,810.9084058,0.1136821,None,,,,,,,,,3,1,2019_Dec_20_1701,untitled,3.1.0,59.90545721
_,G,N,90,_,_,_GN090__,N,0,4,4,58,,,1.211,812.3249365,812.6735237,812.6907854,812.9739296,812.991837,None,up,2.7634516,812.991837,None,812.991837,814.1913763,0.05917,None,,,,,,,,,3,1,2019_Dec_20_1701,untitled,3.1.0,59.90545721
397,_4,M,180,R,N,397_4M180RN,HRN,0,5,5,164,,,0.918,815.8535287,816.1708149,816.1875398,816.4707477,816.4876905,None,up,1.5832835,816.4876905,None,816.4876905,817.3868585,0.089329,None,,,,,,,,,3,1,2019_Dec_20_1701,untitled,3.1.0,59.90545721
461,_5,M,180,R,N,461_5M180RN,HRN,0,6,6,180,,,0.787,818.1702526,818.4852175,818.5022315,818.7860953,818.8023916,None,down,1.8819755,818.8023916,None,818.8023916,819.5694228,0.0883295,None,,,,,,,,,3,1,2019_Dec_20_1701,untitled,3.1.0,59.90545721
_,_4,M,90,_,_,__4M090__,N,0,7,7,34,,,0.739,820.774148,821.0999998,821.1166155,821.4001152,821.4167927,None,down,1.4507157,821.4167927,None,821.4167927,822.132733,0.0811085,None,,,,,,,,,3,1,2019_Dec_20_1701,untitled,3.1.0,59.90545721
_,F,M,45,_,_,_FM045__,N,0,8,8,1,,,0.729,822.9880955,823.2814681,823.2980253,823.5812721,823.5981874,None,down,1.866376,823.5981874,None,823.5981874,824.314691,0.1097604,None,,,,,,,,,3,1,2019_Dec_20_1701,untitled,3.1.0,59.90545721
_,G,N,180,_,_,_GN180__,N,0,9,9,60,,,1.263,825.5897573,825.8793689,825.8793689,826.1784701,826.1951372,None,down,2.7489279,826.1951372,None,826.1951372,827.4446503,0.1144922,None,,,,,,,,,3,1,2019_Dec_20_1701,untitled,3.1.0,59.90545721
_,F,M,225,_,_,_FM225__,N,0,10,10,5,,,1.252,829.0335404,829.3594851,829.3760022,829.6595503,829.6776015,None,down,2.9798838,829.6776015,None,829.6776015,830.9084629,0.0801836,None,,,,,,,,,3,1,2019_Dec_20_1701,untitled,3.1.0,59.90545721
423,_4,N,270,L,N,423_4N270LN,HLN,0,11,11,270,,,0.869,832.7498936,833.0726994,833.0894359,833.3732942,833.389639,None,up,2.6991429,833.389639,None,833.389639,834.2391544,0.0829947,None,,,,,,,,,3,1,2019_Dec_20_1701,untitled,3.1.0,59.90545721
46,R,M,225,L,N,046RM225LN,HLN,0,12,12,109,,,0.741,836.2127986,836.5034879,836.5034879,836.8028432,836.8193363,None,down,3.2506645,836.8193363,None,836.8193363,837.5528999,0.113435,None,,,,,,,,,3,1,2019_Dec_20_1701,untitled,3.1.0,59.90545721
_,F,M,0,_,_,_FM000__,N,0,13,13,0,,,1.057,840.1774783,840.482962,840.49953,840.7831799,840.7998943,None,None,,840.7998943,None,840.7998943,841.8489122,0.0963217,None,,,,,,,,,3,1,2019_Dec_20_1701,untitled,3.1.0,59.90545721
_,G,N,0,_,_,_GN000__,N,0,14,14,56,,,1.353,844.3778986,844.6643358,844.6965022,844.9797791,844.9967335,844.3778986,up,2.298497,844.9967335,None,844.9967335,846.3285566,0.102278,None,,,,,,,,,3,1,2019_Dec_20_1701,untitled,3.1.0,59.90545721
238,G,M,225,L,N,238GM225LN,HLN,0,15,15,141,,,1.221,847.4116849,847.7099934,847.7262026,848.0114296,848.0269621,None,down,2.8507557,848.0269621,None,848.0269621,849.2258504,0.1056557,None,,,,,,,,,3,1,2019_Dec_20_1701,untitled,3.1.0,59.90545721
228,G,N,135,L,N,228GN135LN,HLN,0,16,16,235,,,1.011,851.0033626,851.3067079,851.3067079,851.5904134,851.6071263,None,down,1.9670822,851.6071263,None,851.6071263,852.6068734,0.1148045,None,,,,,,,,,3,1,2019_Dec_20_1701,untitled,3.1.0,59.90545721
174,F,M,225,L,N,174FM225LN,HLN,0,17,17,125,,,0.86,853.7016294,854.0050868,854.0050868,854.2883507,854.3047456,None,up,2.4343484,854.3047456,None,854.3047456,855.1539025,0.1167919,None,,,,,,,,,3,1,2019_Dec_20_1701,untitled,3.1.0,59.90545721
202,G,M,45,R,N,202GM045RN,HRN,0,18,18,129,,,1.111,856.8584122,857.1517552,857.1684021,857.4521897,857.4688179,None,down,2.5000604,857.4688179,None,857.4688179,858.5679587,0.108747,None,,,,,,,,,3,1,2019_Dec_20_1701,untitled,3.1.0,59.90545721
175,F,M,270,L,N,175FM270LN,HLN,0,19,19,126,,,0.706,860.0925875,860.382366,860.382366,860.6825265,860.6996041,None,down,2.4493715,860.6996041,None,860.6996041,861.3981003,0.1126339,None,,,,,,,,,3,1,2019_Dec_20_1701,untitled,3.1.0,59.90545721
_,_5,N,45,_,_,__5N045__,N,0,20,20,89,,,1.246,863.2717918,863.5624865,863.5624865,863.863512,863.8796166,None,up,2.4477231,863.8796166,None,863.8796166,865.1117703,0.1117902,None,,,,,,,,,3,1,2019_Dec_20_1701,untitled,3.1.0,59.90545721
132,F,N,135,R,N,132FN135RN,HRN,0,21,21,211,,,0.813,866.4060728,866.7433791,866.760103,867.0430005,867.059713,None,up,2.4324057,867.059713,None,867.059713,867.85893,0.0712678,None,,,,,,,,,3,1,2019_Dec_20_1701,untitled,3.1.0,59.90545721
176,F,M,315,L,N,176FM315LN,HLN,0,22,22,127,,,1.284,869.5624418,869.9071846,869.923871,870.2067127,870.2233552,None,down,2.3656706,870.2233552,None,870.2233552,871.4889457,0.0635697,None,,,,,,,,,3,1,2019_Dec_20_1701,untitled,3.1.0,59.90545721
_,_4,N,270,_,_,__4N270__,N,0,23,23,86,,,1.352,872.6607809,873.0044418,873.0214839,873.3050462,873.321599,None,up,2.2181771,873.321599,None,873.321599,874.653756,0.0647261,None,,,,,,,,,3,1,2019_Dec_20_1701,untitled,3.1.0,59.90545721
290,_2,N,45,L,N,290_2N045LN,HLN,0,24,24,249,,,0.937,875.6664924,875.9685161,875.9685161,876.2521505,876.2689265,None,up,2.3344384,876.2689265,None,876.2689265,877.2016594,0.1160999,None,,,,,,,,,3,1,2019_Dec_20_1701,untitled,3.1.0,59.90545721
398,_4,M,225,R,N,398_4M225RN,HRN,0,25,25,165,,,0.913,878.7240241,879.0161472,879.0324984,879.316162,879.3328505,None,up,2.0163324,879.3328505,None,879.3328505,880.232003,0.109804,None,,,,,,,,,3,1,2019_Dec_20_1701,untitled,3.1.0,59.90545721
_,_2,M,315,_,_,__2M315__,N,0,26,26,31,,,0.821,881.4617948,881.7636409,881.7803783,882.0640595,882.0804442,None,down,1.8332166,882.0804442,None,882.0804442,882.8963797,0.1009954,None,,,,,,,,,3,1,2019_Dec_20_1701,untitled,3.1.0,59.90545721
_,_4,M,45,_,_,__4M045__,N,0,27,27,33,,,0.763,883.9991655,884.3280308,884.3450132,884.6297389,884.6450754,None,down,1.4522813,884.6450754,None,884.6450754,885.394877,0.076664,None,,,,,,,,,3,1,2019_Dec_20_1701,untitled,3.1.0,59.90545721
_,_5,N,315,_,_,__5N315__,N,0,28,28,95,,,0.871,886.2222446,886.5117474,886.5117474,886.8094521,886.826304,None,up,1.7194077,886.826304,None,886.826304,887.6919951,0.1135594,None,,,,,,,,,3,1,2019_Dec_20_1701,untitled,3.1.0,59.90545721
143,F,M,270,R,N,143FM270RN,HRN,0,29,29,118,,,1.339,888.6627868,888.9577049,888.9741299,889.2579524,889.2741913,None,down,2.2174355,889.2741913,None,889.2741913,890.6063025,0.1050195,None,,,,,,,,,3,1,2019_Dec_20_1701,untitled,3.1.0,59.90545721
200,G,N,315,R,N,200GN315RN,HRN,0,30,30,231,,,1.381,891.6051579,891.9049826,891.9218747,892.2051296,892.2218646,None,down,2.3320816,892.2218646,None,892.2218646,893.587036,0.1020383,None,,,,,,,,,3,1,2019_Dec_20_1701,untitled,3.1.0,59.90545721
_,G,M,315,_,_,_GM315__,N,0,31,31,15,,,0.824,894.6638686,894.9536586,894.9851861,895.2693274,895.2857092,None,down,2.2554818,895.2857092,None,895.2857092,896.1020179,0.0992523,None,,,,,,,,,3,1,2019_Dec_20_1701,untitled,3.1.0,59.90545721
_,_4,M,0,_,_,__4M000__,N,0,32,32,32,,,1.218,897.6564659,897.9494455,897.9661438,898.2657042,898.2657042,None,down,2.6672497,898.2657042,None,898.2657042,899.4816349,0.1047909,None,,,,,,,,,3,1,2019_Dec_20_1701,untitled,3.1.0,59.90545721
_,_5,N,180,_,_,__5N180__,N,0,33,33,92,,,0.951,901.0469063,901.3464365,901.3631731,901.6476422,901.6636523,None,up,2.6821803,901.6636523,None,901.6636523,902.5954391,0.1026345,None,,,,,,,,,3,1,2019_Dec_20_1701,untitled,3.1.0,59.90545721
450,_5,N,45,R,N,450_5N045RN,HRN,0,34,34,273,,,1.363,904.4859523,904.7768212,904.7768212,905.060094,905.0771536,None,up,2.1152971,905.0771536,None,905.0771536,906.4261701,0.1310291,None,,,,,,,,,3,1,2019_Dec_20_1701,untitled,3.1.0,59.90545721
_,_2,M,180,_,_,__2M180__,N,0,35,35,28,,,1.272,907.3147011,907.6079986,907.6079986,907.9080227,907.924872,None,down,2.54904,907.924872,None,907.924872,909.1731998,0.1109516,None,,,,,,,,,3,1,2019_Dec_20_1701,untitled,3.1.0,59.90545721
_,G,N,315,_,_,_GN315__,N,0,36,36,63,,,0.752,910.5844259,910.8739795,910.9046588,911.1885277,911.2051059,None,up,1.8663894,911.2051059,None,911.2051059,911.9379207,0.1026577,None,,,,,,,,,3,1,2019_Dec_20_1701,untitled,3.1.0,59.90545721
162,F,N,45,L,N,162FN045LN,HLN,0,37,37,217,,,1.091,913.1942647,913.4858407,913.4858407,913.7863363,913.8033464,None,up,2.0174121,913.8033464,None,913.8033464,914.884925,0.1114924,None,,,,,,,,,3,1,2019_Dec_20_1701,untitled,3.1.0,59.90545721
464,_5,M,315,R,N,464_5M315RN,HRN,0,38,38,183,,,1.161,915.9512938,916.2502822,916.2502822,916.5331431,916.5498415,None,down,1.9522406,916.5498415,None,916.5498415,917.6992652,0.1192224,None,,,,,,,,,3,1,2019_Dec_20_1701,untitled,3.1.0,59.90545721
208,G,M,315,R,N,208GM315RN,HRN,0,39,39,135,,,1.313,918.6239319,918.9148415,918.9314141,919.2158712,919.2314832,None,down,2.3502561,919.2314832,None,919.2314832,920.5302829,0.1113559,None,,,,,,,,,3,1,2019_Dec_20_1701,untitled,3.1.0,59.90545721
489,_5,M,0,L,N,489_5M000LN,HLN,0,40,40,184,,,0.98,921.6940461,921.9953998,922.0121918,922.2952215,922.312138,None,down,2.0506567,922.312138,None,922.312138,923.2782689,0.1015049,None,,,,,,,,,3,1,2019_Dec_20_1701,untitled,3.1.0,59.90545721
_,R,N,0,_,_,_RN000__,N,0,41,41,64,,,0.909,924.4766352,924.776178,924.7927707,925.0762676,925.0929609,None,up,1.8161375,925.0929609,None,925.0929609,925.9922682,0.1031351,None,,,,,,,,,3,1,2019_Dec_20_1701,untitled,3.1.0,59.90545721
205,G,M,180,R,N,205GM180RN,HRN,0,42,42,132,,,1.113,926.9786002,927.3239454,927.3402922,927.623298,927.640031,None,down,2.1161297,927.640031,None,927.640031,928.7390895,0.0627566,None,,,,,,,,,3,1,2019_Dec_20_1701,untitled,3.1.0,59.90545721
262,_2,N,225,R,N,262_2N225RN,HRN,0,43,43,245,,,0.734,929.8290535,930.1712762,930.1878085,930.4709101,930.4880887,None,up,2.2658417,930.4880887,None,930.4880887,931.2033354,0.0661609,None,,,,,,,,,3,1,2019_Dec_20_1701,untitled,3.1.0,59.90545721
207,G,M,270,R,N,207GM270RN,HRN,0,44,44,134,,,1.218,932.8270482,933.1686235,933.1852065,933.4690205,933.4856188,None,down,2.2677192,933.4856188,None,933.4856188,934.6839886,0.0660563,None,,,,,,,,,3,1,2019_Dec_20_1701,untitled,3.1.0,59.90545721
_,G,M,135,_,_,_GM135__,N,0,45,45,11,,,0.743,935.8739262,936.1657816,936.1824809,936.4664885,936.4829827,None,up,2.3159998,936.4829827,None,936.4829827,937.2158364,0.1096176,None,,,,,,,,,3,1,2019_Dec_20_1701,untitled,3.1.0,59.90545721
135,F,N,270,R,N,135FN270RN,HRN,0,46,46,214,,,1.274,938.8884545,939.2135601,939.2304794,939.5140479,939.530519,None,up,2.149467,939.530519,None,939.530519,940.7962298,0.0807515,None,,,,,,,,,3,1,2019_Dec_20_1701,untitled,3.1.0,59.90545721
_,R,M,90,_,_,_RM090__,N,0,47,47,18,,,1.014,941.7878246,942.0943453,942.1109561,942.3944766,942.4105908,None,down,2.5500254,942.4105908,None,942.4105908,943.4102424,0.09679,None,,,,,,,,,3,1,2019_Dec_20_1701,untitled,3.1.0,59.90545721
167,F,N,270,L,N,167FN270LN,HLN,0,48,48,222,,,1.208,945.0844782,945.3747654,945.3747654,945.6747475,945.6911826,None,up,2.5483137,945.6911826,None,945.6911826,946.8903541,0.1119653,None,,,,,,,,,3,1,2019_Dec_20_1701,untitled,3.1.0,59.90545721
_,_2,N,225,_,_,__2N225__,N,0,49,49,77,,,0.789,948.3193866,948.6555366,948.671807,948.9554299,948.9723681,None,up,1.916325,948.9723681,None,948.9723681,949.7382742,0.0714228,None,,,,,,,,,3,1,2019_Dec_20_1701,untitled,3.1.0,59.90545721
419,_4,N,90,L,N,419_4N090LN,HLN,0,50,50,266,,,1.049,951.0050308,951.3026291,951.3195769,951.6031607,951.6205157,None,up,2.9190455,951.6205157,None,951.6205157,952.6515396,0.1055791,None,,,,,,,,,3,1,2019_Dec_20_1701,untitled,3.1.0,59.90545721
488,_5,N,315,L,N,488_5N315LN,HLN,0,51,51,287,,,0.794,954.6563155,954.9497532,954.9662927,955.2498724,955.2667085,None,up,1.6665064,955.2667085,None,955.2667085,956.0519202,0.1065262,None,,,,,,,,,3,1,2019_Dec_20_1701,untitled,3.1.0,59.90545721
492,_5,M,135,L,N,492_5M135LN,HLN,0,52,52,187,,,1.08,957.0543639,957.3479274,957.3639352,957.6480626,957.6646482,None,down,2.0014337,957.6646482,None,957.6646482,958.7304498,0.1091628,None,,,,,,,,,3,1,2019_Dec_20_1701,untitled,3.1.0,59.90545721
455,_5,N,270,R,N,455_5N270RN,HRN,0,53,53,278,,,1.357,959.7845391,960.0787306,960.0964113,960.3789219,960.3956336,None,down,2.3312365,960.3956336,None,960.3956336,961.7441625,0.1076668,None,,,,,,,,,3,1,2019_Dec_20_1701,untitled,3.1.0,59.90545721
48,R,M,315,L,N,048RM315LN,HLN,0,54,54,111,,,1.299,962.8183534,963.1426151,963.1603074,963.4428893,963.4597473,None,down,2.1674871,963.4597473,None,963.4597473,964.7426497,0.0833898,None,,,,,,,,,3,1,2019_Dec_20_1701,untitled,3.1.0,59.90545721
289,_2,N,0,L,N,289_2N000LN,HLN,0,55,55,248,,,0.99,965.7528056,966.0567868,966.0567868,966.3404933,966.3567664,None,up,2.0529595,966.3567664,None,966.3567664,967.3398668,0.1145183,None,,,,,,,,,3,1,2019_Dec_20_1701,untitled,3.1.0,59.90545721
35,R,N,90,L,N,035RN090LN,HLN,0,56,56,202,,,0.915,968.5221881,968.8208304,968.838193,969.1214196,969.1380296,None,up,1.9494508,969.1380296,None,969.1380296,970.0370435,0.1014129,None,,,,,,,,,3,1,2019_Dec_20_1701,untitled,3.1.0,59.90545721
_,G,N,270,_,_,_GN270__,N,0,57,57,62,,,0.966,971.2149143,971.504358,971.504358,971.8026618,971.8190719,None,up,2.5659853,971.8190719,None,971.8190719,972.7677803,0.115775,None,,,,,,,,,3,1,2019_Dec_20_1701,untitled,3.1.0,59.90545721
9,R,M,0,R,N,009RM000RN,HRN,0,58,58,96,,,1.383,974.4954996,974.7848959,974.8158781,975.0997782,975.1161356,None,down,2.5660281,975.1161356,None,975.1161356,976.4818999,0.0993115,None,,,,,,,,,3,1,2019_Dec_20_1701,untitled,3.1.0,59.90545721
_,_2,N,180,_,_,__2N180__,N,0,59,59,76,,,1.385,977.8105342,978.1132602,978.1132602,978.3965482,978.4162278,None,None,,978.4162278,None,978.4162278,979.7787726,0.1168901,None,,,,,,,,,3,1,2019_Dec_20_1701,untitled,3.1.0,59.90545721
129,F,N,0,R,N,129FN000RN,HRN,0,60,60,208,,,1.222,981.9891828,982.278084,982.3093844,982.5930114,982.609053,981.9891828,up,2.3497254,982.609053,None,982.609053,983.8099266,0.1021225,None,,,,,,,,,3,1,2019_Dec_20_1701,untitled,3.1.0,59.90545721
457,_5,M,0,R,N,457_5M000RN,HRN,0,61,61,176,,,0.994,985.0635572,985.3731357,985.3901484,985.6739627,985.6902911,None,down,2.8820163,985.6902911,None,985.6902911,986.6732,0.0954546,None,,,,,,,,,3,1,2019_Dec_20_1701,untitled,3.1.0,59.90545721
391,_4,N,270,R,N,391_4N270RN,HRN,0,62,62,262,,,1.234,988.7016859,989.003497,989.003497,989.2863864,989.3050344,None,up,2.4325871,989.3050344,None,989.3050344,990.5195843,0.118238,None,,,,,,,,,3,1,2019_Dec_20_1701,untitled,3.1.0,59.90545721
428,_4,M,135,L,N,428_4M135LN,HLN,0,63,63,171,,,0.787,991.8558339,992.1512471,992.1671971,992.4508472,992.4676917,None,down,2.4494443,992.4676917,None,992.4676917,993.2502845,0.1077492,None,,,,,,,,,3,1,2019_Dec_20_1701,untitled,3.1.0,59.90545721
_,_4,N,225,_,_,__4N225__,N,0,64,64,85,,,1.309,995.0340979,995.3311752,995.3480994,995.6311265,995.6474494,None,up,2.79984,995.6474494,None,995.6474494,996.9469976,0.1068274,None,,,,,,,,,3,1,2019_Dec_20_1701,untitled,3.1.0,59.90545721
432,_4,M,315,L,N,432_4M315LN,HLN,0,65,65,175,,,0.881,998.5743073,998.8630079,998.8630079,999.1638109,999.1787793,None,down,2.4333275,999.1787793,None,999.1787793,1000.045171,0.1155599,None,,,,,,,,,3,1,2019_Dec_20_1701,untitled,3.1.0,59.90545721
141,F,M,180,R,N,141FM180RN,HRN,0,66,66,116,,,1.001,1001.727014,1002.025638,1002.041539,1002.3252,1002.341793,None,up,2.5492499,1002.341793,None,1002.341793,1003.324923,0.104235,None,,,,,,,,,3,1,2019_Dec_20_1701,untitled,3.1.0,59.90545721
_,R,M,315,_,_,_RM315__,N,0,67,67,23,,,1.133,1004.976777,1005.30604,1005.323248,1005.606161,1005.62294,None,down,2.2836234,1005.62294,None,1005.62294,1006.738688,0.0784909,None,,,,,,,,,3,1,2019_Dec_20_1701,untitled,3.1.0,59.90545721
233,G,M,0,L,N,233GM000LN,HLN,0,68,68,136,,,1.377,1008.025247,1008.320147,1008.336767,1008.620669,1008.637375,None,down,2.7486487,1008.637375,None,1008.637375,1010.001527,0.1077888,None,,,,,,,,,3,1,2019_Dec_20_1701,untitled,3.1.0,59.90545721
163,F,N,90,L,N,163FN090LN,HLN,0,69,69,218,,,0.814,1011.506823,1011.800423,1011.816722,1012.100468,1012.11755,None,up,2.1834848,1012.11755,None,1012.11755,1012.916542,0.1092931,None,,,,,,,,,3,1,2019_Dec_20_1701,untitled,3.1.0,59.90545721
37,R,N,180,L,N,037RN180LN,HLN,0,70,70,204,,,0.746,1014.417262,1014.714644,1014.730899,1015.014802,1015.031218,None,down,1.5680632,1015.031218,None,1015.031218,1015.763928,0.1055445,None,,,,,,,,,3,1,2019_Dec_20_1701,untitled,3.1.0,59.90545721
260,_2,N,135,R,N,260_2N135RN,HRN,0,71,71,243,,,0.879,1016.707173,1017.012415,1017.029278,1017.312691,1017.329437,None,up,2.4659594,1017.329437,None,1017.329437,1018.195471,0.0972099,None,,,,,,,,,3,1,2019_Dec_20_1701,untitled,3.1.0,59.90545721
_,_5,N,90,_,_,__5N090__,N,0,72,72,90,,,0.853,1019.907529,1020.20957,1020.226078,1020.509796,1020.526632,None,up,1.5860005,1020.526632,None,1020.526632,1021.358206,0.1013828,None,,,,,,,,,3,1,2019_Dec_20_1701,untitled,3.1.0,59.90545721
_,_2,N,270,_,_,__2N270__,N,0,73,73,78,,,0.95,1022.221308,1022.52488,1022.541905,1022.823505,1022.839929,None,up,1.8005726,1022.839929,None,1022.839929,1023.773047,0.0968666,None,,,,,,,,,3,1,2019_Dec_20_1701,untitled,3.1.0,59.90545721
_,_5,N,270,_,_,__5N270__,N,0,74,74,94,,,0.893,1024.74142,1025.055683,1025.071862,1025.355826,1025.374226,None,up,1.7813195,1025.374226,None,1025.374226,1026.25518,0.0913107,None,,,,,,,,,3,1,2019_Dec_20_1701,untitled,3.1.0,59.90545721
_,_5,M,135,_,_,__5M135__,N,0,75,75,43,,,1.034,1027.280144,1027.569843,1027.569843,1027.87024,1027.88685,None,down,1.9666052,1027.88685,None,1027.88685,1028.90247,0.1134487,None,,,,,,,,,3,1,2019_Dec_20_1701,untitled,3.1.0,59.90545721
166,F,N,225,L,N,166FN225LN,HLN,0,76,76,221,,,0.962,1029.964724,1030.267568,1030.284346,1030.567524,1030.586269,None,up,2.897417,1030.586269,None,1030.586269,1031.533517,0.1004163,None,,,,,,,,,3,1,2019_Dec_20_1701,untitled,3.1.0,59.90545721
400,_4,M,315,R,N,400_4M315RN,HRN,0,77,77,167,,,1.246,1033.609194,1033.8985,1033.8985,1034.1982,1034.214458,None,down,2.1500522,1034.214458,None,1034.214458,1035.447659,0.1126691,None,,,,,,,,,3,1,2019_Dec_20_1701,untitled,3.1.0,59.90545721
34,R,N,45,L,N,034RN045LN,HLN,0,78,78,201,,,0.854,1036.49072,1036.780717,1036.780717,1037.078839,1037.095411,None,up,1.9165836,1037.095411,None,1037.095411,1037.94447,0.1152032,None,,,,,,,,,3,1,2019_Dec_20_1701,untitled,3.1.0,59.90545721
_,_4,N,180,_,_,__4N180__,N,0,79,79,84,,,1.046,1039.133653,1039.426142,1039.44268,1039.72623,1039.743181,None,up,2.5324963,1039.743181,None,1039.743181,1040.775615,0.1108149,None,,,,,,,,,3,1,2019_Dec_20_1701,untitled,3.1.0,59.90545721
496,_5,M,315,L,N,496_5M315LN,HLN,0,80,80,191,,,0.864,1042.423172,1042.723259,1042.723259,1042.990365,1043.007018,None,down,1.6174938,1043.007018,None,1043.007018,1043.856163,0.1359305,None,,,,,,,,,3,1,2019_Dec_20_1701,untitled,3.1.0,59.90545721
7,R,N,270,R,N,007RN270RN,HRN,0,81,81,198,,,0.76,1044.746341,1045.038292,1045.054916,1045.337245,1045.354261,None,up,1.6879684,1045.354261,None,1045.354261,1046.104502,0.1083189,None,,,,,,,,,3,1,2019_Dec_20_1701,untitled,3.1.0,59.90545721
_,_2,N,0,_,_,__2N000__,N,0,82,82,72,,,1.23,1047.152492,1047.452664,1047.469802,1047.752451,1047.769179,None,up,2.0671963,1047.769179,None,1047.769179,1048.984987,0.0990676,None,,,,,,,,,3,1,2019_Dec_20_1701,untitled,3.1.0,59.90545721
_,_5,M,90,_,_,__5M090__,N,0,83,83,42,,,0.88,1049.960886,1050.250416,1050.250416,1050.552191,1050.567067,None,down,2.5169822,1050.567067,None,1050.567067,1051.432917,0.1127486,None,,,,,,,,,3,1,2019_Dec_20_1701,untitled,3.1.0,59.90545721
_,_2,M,270,_,_,__2M270__,N,0,84,84,30,,,1.201,1053.203878,1053.497377,1053.513677,1053.797838,1053.81424,None,down,2.3821237,1053.81424,None,1053.81424,1054.996448,0.1086794,None,,,,,,,,,3,1,2019_Dec_20_1701,untitled,3.1.0,59.90545721
_,_5,N,135,_,_,__5N135__,N,0,85,85,91,,,0.857,1056.32209,1056.611548,1056.611548,1056.911416,1056.928154,None,up,2.5156773,1056.928154,None,1056.928154,1057.777728,0.114161,None,,,,,,,,,3,1,2019_Dec_20_1701,untitled,3.1.0,59.90545721
201,G,M,0,R,N,201GM000RN,HRN,0,86,86,128,,,1.075,1059.563054,1059.858743,1059.875114,1060.15998,1060.175499,None,down,2.1494413,1060.175499,None,1060.175499,1061.24018,0.1084181,None,,,,,,,,,3,1,2019_Dec_20_1701,untitled,3.1.0,59.90545721
265,_2,M,0,R,N,265_2M000RN,HRN,0,87,87,144,,,0.751,1062.443653,1062.739314,1062.755881,1063.043073,1063.057724,None,down,2.0648348,1063.057724,None,1063.057724,1063.789165,0.1068105,None,,,,,,,,,3,1,2019_Dec_20_1701,untitled,3.1.0,59.90545721
134,F,N,225,R,N,134FN225RN,HRN,0,88,88,213,,,0.967,1065.241662,1065.537228,1065.553343,1065.837183,1065.855709,None,up,2.9814494,1065.855709,None,1065.855709,1066.802959,0.1074258,None,,,,,,,,,3,1,2019_Dec_20_1701,untitled,3.1.0,59.90545721
_,_5,N,225,_,_,__5N225__,N,0,89,89,93,,,1.266,1068.954213,1069.25049,1069.266619,1069.550621,1069.567203,None,up,2.8009769,1069.567203,None,1069.567203,1070.815989,0.1061192,None,,,,,,,,,3,1,2019_Dec_20_1701,untitled,3.1.0,59.90545721
_,R,N,45,_,_,_RN045__,N,0,90,90,65,,,0.743,1072.491496,1072.781457,1072.781457,1073.080777,1073.097526,None,up,1.6839287,1073.097526,None,1073.097526,1073.830376,0.1123771,None,,,,,,,,,3,1,2019_Dec_20_1701,untitled,3.1.0,59.90545721
_,F,M,270,_,_,_FM270__,N,0,91,91,6,,,1.331,1074.895464,1075.195016,1075.2116,1075.495387,1075.511974,None,down,3.3999822,1075.511974,None,1075.511974,1076.827629,0.1028346,None,,,,,,,,,3,1,2019_Dec_20_1701,untitled,3.1.0,59.90545721
204,G,M,135,R,N,204GM135RN,HRN,0,92,92,131,,,1.348,1079.035863,1079.324727,1079.324727,1079.624794,1079.64187,None,down,2.4491248,1079.64187,None,1079.64187,1080.973796,0.1118886,None,,,,,,,,,3,1,2019_Dec_20_1701,untitled,3.1.0,59.90545721
425,_4,M,0,L,N,425_4M000LN,HLN,0,93,93,168,,,1.214,1082.213056,1082.505156,1082.521883,1082.805158,1082.821643,None,up,2.0176377,1082.821643,None,1082.821643,1084.020648,0.1106221,None,,,,,,,,,3,1,2019_Dec_20_1701,untitled,3.1.0,59.90545721
_,_5,M,180,_,_,__5M180__,N,0,94,94,44,,,1.255,1084.947447,1085.253036,1085.269478,1085.553155,1085.569906,None,down,2.4353957,1085.569906,None,1085.569906,1086.818887,0.0971343,None,,,,,,,,,3,1,2019_Dec_20_1701,untitled,3.1.0,59.90545721
454,_5,N,225,R,N,454_5N225RN,HRN,0,95,95,277,,,0.826,1088.124698,1088.417036,1088.43333,1088.717187,1088.733847,None,up,1.8832027,1088.733847,None,1088.733847,1089.550373,0.1094087,None,,,,,,,,,3,1,2019_Dec_20_1701,untitled,3.1.0,59.90545721
_,R,M,180,_,_,_RM180__,N,0,96,96,20,,,0.759,1090.733582,1091.031134,1091.047637,1091.331151,1091.347705,None,down,1.8341231,1091.347705,None,1091.347705,1092.097858,0.1055181,None,,,,,,,,,3,1,2019_Dec_20_1701,untitled,3.1.0,59.90545721
_,R,M,0,_,_,_RM000__,N,0,97,97,16,,,0.824,1093.291291,1093.595706,1093.61244,1093.895342,1093.911839,None,down,1.8340556,1093.911839,None,1093.911839,1094.729052,0.0981857,None,,,,,,,,,3,1,2019_Dec_20_1701,untitled,3.1.0,59.90545721
_,G,M,225,_,_,_GM225__,N,0,98,98,13,,,1.231,1095.865687,1096.160647,1096.176306,1096.459873,1096.476559,None,down,2.1674893,1096.476559,None,1096.476559,1097.69256,0.1083403,None,,,,,,,,,3,1,2019_Dec_20_1701,untitled,3.1.0,59.90545721
231,G,N,270,L,N,231GN270LN,HLN,0,99,99,238,,,1.125,1098.751486,1099.057631,1099.074104,1099.357799,1099.374488,None,up,2.09938,1099.374488,None,1099.374488,1100.490095,0.0974407,None,,,,,,,,,3,1,2019_Dec_20_1701,untitled,3.1.0,59.90545721
_,F,N,180,_,_,_FN180__,N,0,100,100,52,,,1.31,1101.591658,1101.8884,1101.905066,1102.188376,1102.204907,None,None,,1102.204907,None,1102.204907,1103.50422,0.1069085,None,,,,,,,,,3,1,2019_Dec_20_1701,untitled,3.1.0,59.90545721
390,_4,N,225,R,N,390_4N225RN,HRN,0,101,101,261,,,1.062,1105.793617,1106.085249,1106.085249,1106.385334,1106.401745,1105.793617,up,1.8341828,1106.401745,None,1106.401745,1107.450886,0.1141518,None,,,,,,,,,3,1,2019_Dec_20_1701,untitled,3.1.0,59.90545721
_,R,N,270,_,_,_RN270__,N,0,102,102,70,,,1.302,1108.354786,1108.649546,1108.665503,1108.949556,1108.966114,None,up,2.2332379,1108.966114,None,1108.966114,1110.248765,0.10776,None,,,,,,,,,3,1,2019_Dec_20_1701,untitled,3.1.0,59.90545721
292,_2,N,135,L,N,292_2N135LN,HLN,0,103,103,251,,,0.765,1111.315259,1111.613621,1111.629755,1111.913673,1111.930098,None,up,1.967649,1111.930098,None,1111.930098,1112.679262,0.1053095,None,,,,,,,,,3,1,2019_Dec_20_1701,untitled,3.1.0,59.90545721
237,G,M,180,L,N,237GM180LN,HLN,0,104,104,140,,,0.923,1114.015993,1114.311354,1114.327719,1114.611012,1114.628939,None,up,2.1005686,1114.628939,None,1114.628939,1115.546726,0.1074142,None,,,,,,,,,3,1,2019_Dec_20_1701,untitled,3.1.0,59.90545721
_,F,N,0,_,_,_FN000__,N,0,105,105,48,,,1.229,1116.843949,1117.14189,1117.158284,1117.441972,1117.459097,None,up,1.9171724,1117.459097,None,1117.459097,1118.674385,0.1035391,None,,,,,,,,,3,1,2019_Dec_20_1701,untitled,3.1.0,59.90545721
170,F,M,45,L,N,170FM045LN,HLN,0,106,106,121,,,1.3,1119.503541,1119.806526,1119.806526,1120.089874,1120.106578,None,down,2.6001933,1120.106578,None,1120.106578,1121.388619,0.1153439,None,,,,,,,,,3,1,2019_Dec_20_1701,untitled,3.1.0,59.90545721
203,G,M,90,R,N,203GM090RN,HRN,0,107,107,130,,,0.982,1122.833748,1123.136867,1123.136867,1123.420621,1123.436937,None,down,2.0845008,1123.436937,None,1123.436937,1124.405353,0.1163676,None,,,,,,,,,3,1,2019_Dec_20_1701,untitled,3.1.0,59.90545721
452,_5,N,135,R,N,452_5N135RN,HRN,0,108,108,275,,,0.87,1125.655812,1125.95104,1125.95104,1126.234173,1126.250979,None,up,1.9831868,1126.250979,None,1126.250979,1127.100276,0.1238736,None,,,,,,,,,3,1,2019_Dec_20_1701,untitled,3.1.0,59.90545721
421,_4,N,180,L,N,421_4N180LN,HLN,0,109,109,268,,,0.957,1128.3543,1128.648684,1128.665478,1128.948681,1128.96534,None,up,2.7495535,1128.96534,None,1128.96534,1129.916146,0.1094433,None,,,,,,,,,3,1,2019_Dec_20_1701,untitled,3.1.0,59.90545721
299,_2,M,90,L,N,299_2M090LN,HLN,0,110,110,154,,,0.869,1131.835009,1132.129179,1132.145741,1132.429377,1132.44566,None,down,2.5317311,1132.44566,None,1132.44566,1133.29499,0.1088328,None,,,,,,,,,3,1,2019_Dec_20_1701,untitled,3.1.0,59.90545721
16,R,M,315,R,N,016RM315RN,HRN,0,111,111,103,,,0.714,1135.085217,1135.392438,1135.409463,1135.692698,1135.709636,None,down,1.7338591,1135.709636,None,1135.709636,1136.409714,0.0987976,None,,,,,,,,,3,1,2019_Dec_20_1701,untitled,3.1.0,59.90545721
236,G,M,135,L,N,236GM135LN,HLN,0,112,112,139,,,1.041,1137.567086,1137.857737,1137.857737,1138.157729,1138.17408,None,up,2.3824495,1138.17408,None,1138.17408,1139.206366,0.1124223,None,,,,,,,,,3,1,2019_Dec_20_1701,untitled,3.1.0,59.90545721
_,F,N,315,_,_,_FN315__,N,0,113,113,55,,,1.236,1140.682886,1140.973319,1140.973319,1141.271979,1141.288053,None,up,2.0668831,1141.288053,None,1141.288053,1142.50366,0.1151941,None,,,,,,,,,3,1,2019_Dec_20_1701,untitled,3.1.0,59.90545721
_,_4,M,180,_,_,__4M180__,N,0,114,114,36,,,1.083,1143.474838,1143.769137,1143.785368,1144.068846,1144.086606,None,up,2.1997134,1144.086606,None,1144.086606,1145.151409,0.1092515,None,,,,,,,,,3,1,2019_Dec_20_1701,untitled,3.1.0,59.90545721
_,_4,M,315,_,_,__4M315__,N,0,115,115,39,,,1.303,1146.410364,1146.69943,1146.69943,1146.999866,1147.01647,None,down,2.5346333,1147.01647,None,1147.01647,1148.298825,0.1132639,None,,,,,,,,,3,1,2019_Dec_20_1701,untitled,3.1.0,59.90545721
386,_4,N,45,R,N,386_4N045RN,HRN,0,116,116,257,,,0.735,1149.663921,1149.964079,1149.979806,1150.263,1150.279662,None,up,1.6997136,1150.279662,None,1150.279662,1150.996481,0.1019484,None,,,,,,,,,3,1,2019_Dec_20_1701,untitled,3.1.0,59.90545721
13,R,M,180,R,N,013RM180RN,HRN,0,117,117,100,,,1.398,1152.088603,1152.394559,1152.410958,1152.69452,1152.711494,None,down,3.0486859,1152.711494,None,1152.711494,1154.093441,0.0981555,None,,,,,,,,,3,1,2019_Dec_20_1701,untitled,3.1.0,59.90545721
296,_2,N,315,L,N,296_2N315LN,HLN,0,118,118,255,,,1.102,1155.870593,1156.159958,1156.191209,1156.474545,1156.491641,None,up,2.3833785,1156.491641,None,1156.491641,1157.574218,0.1001239,None,,,,,,,,,3,1,2019_Dec_20_1701,untitled,3.1.0,59.90545721
486,_5,N,225,L,N,486_5N225LN,HLN,0,119,119,285,,,1.122,1158.985643,1159.288875,1159.30506,1159.588518,1159.605425,None,up,2.6324773,1159.605425,None,1159.605425,1160.720998,0.0993547,None,,,,,,,,,3,1,2019_Dec_20_1701,untitled,3.1.0,59.90545721
197,G,N,180,R,N,197GN180RN,HRN,0,120,120,228,,,0.79,1162.347959,1162.637508,1162.669662,1162.952555,1162.969209,None,down,2.4658464,1162.969209,None,1162.969209,1163.751907,0.0986546,None,,,,,,,,,3,1,2019_Dec_20_1701,untitled,3.1.0,59.90545721
_,_5,M,225,_,_,__5M225__,N,0,121,121,45,,,0.935,1165.55683,1165.849856,1165.866111,1166.150025,1166.166392,None,up,2.4337682,1166.166392,None,1166.166392,1167.082527,0.1104858,None,,,,,,,,,3,1,2019_Dec_20_1701,untitled,3.1.0,59.90545721
_,R,M,225,_,_,_RM225__,N,0,122,122,21,,,1.177,1168.711048,1169.030175,1169.030175,1169.313833,1169.3309,None,down,3.0813235,1169.3309,None,1169.3309,1170.496221,0.099086,None,,,,,,,,,3,1,2019_Dec_20_1701,untitled,3.1.0,59.90545721
15,R,M,270,R,N,015RM270RN,HRN,0,123,123,102,,,0.727,1172.505441,1172.826605,1172.843913,1173.126902,1173.143734,None,up,2.5669999,1173.143734,None,1173.143734,1173.859855,0.0841597,None,,,,,,,,,3,1,2019_Dec_20_1701,untitled,3.1.0,59.90545721
131,F,N,90,R,N,131FN090RN,HRN,0,124,124,210,,,1.299,1175.822356,1176.123891,1176.14031,1176.424214,1176.440882,None,up,2.4160557,1176.440882,None,1176.440882,1177.723855,0.1003966,None,,,,,,,,,3,1,2019_Dec_20_1701,untitled,3.1.0,59.90545721
137,F,M,0,R,N,137FM000RN,HRN,0,125,125,112,,,0.849,1178.967344,1179.256767,1179.287543,1179.571427,1179.587723,None,down,2.2672674,1179.587723,None,1179.587723,1180.420514,0.0995627,None,,,,,,,,,3,1,2019_Dec_20_1701,untitled,3.1.0,59.90545721
484,_5,N,135,L,N,484_5N135LN,HLN,0,126,126,283,,,1.102,1181.967214,1182.268554,1182.285135,1182.56882,1182.584701,None,up,2.1705029,1182.584701,None,1182.584701,1183.667615,0.1007043,None,,,,,,,,,3,1,2019_Dec_20_1701,untitled,3.1.0,59.90545721
171,F,M,90,L,N,171FM090LN,HLN,0,127,127,122,,,1.123,1184.875956,1185.16625,1185.182616,1185.466435,1185.482767,None,down,2.1338993,1185.482767,None,1185.482767,1186.598853,0.1098846,None,,,,,,,,,3,1,2019_Dec_20_1701,untitled,3.1.0,59.90545721
298,_2,M,45,L,N,298_2M045LN,HLN,0,128,128,153,,,1.329,1187.726233,1188.030505,1188.046307,1188.330862,1188.346983,None,down,2.9485807,1188.346983,None,1188.346983,1189.662692,0.0988231,None,,,,,,,,,3,1,2019_Dec_20_1701,untitled,3.1.0,59.90545721
387,_4,N,90,R,N,387_4N090RN,HRN,0,129,129,258,,,0.827,1191.415264,1191.710411,1191.7267,1192.010467,1192.027227,None,up,1.5165343,1192.027227,None,1192.027227,1192.842281,0.1087659,None,,,,,,,,,3,1,2019_Dec_20_1701,untitled,3.1.0,59.90545721
261,_2,N,180,R,N,261_2N180RN,HRN,0,130,130,244,,,1.05,1193.66581,1193.958499,1193.975497,1194.258373,1194.27521,None,up,2.4992711,1194.27521,None,1194.27521,1195.310227,0.1108901,None,,,,,,,,,3,1,2019_Dec_20_1701,untitled,3.1.0,59.90545721
_,_2,M,225,_,_,__2M225__,N,0,131,131,29,,,1.116,1196.888867,1197.188727,1197.205394,1197.489077,1197.505599,None,down,1.9507675,1197.505599,None,1197.505599,1198.604883,0.1030906,None,,,,,,,,,3,1,2019_Dec_20_1701,untitled,3.1.0,59.90545721
418,_4,N,45,L,N,418_4N045LN,HLN,0,132,132,265,,,0.704,1199.574571,1199.86967,1199.88632,1200.169404,1200.185996,None,up,1.5700433,1200.185996,None,1200.185996,1200.886301,0.107703,None,,,,,,,,,3,1,2019_Dec_20_1701,untitled,3.1.0,59.90545721
388,_4,N,135,R,N,388_4N135RN,HRN,0,133,133,259,,,0.787,1201.882109,1202.184414,1202.184414,1202.467243,1202.483965,None,up,2.4649327,1202.483965,None,1202.483965,1203.267672,0.1157977,None,,,,,,,,,3,1,2019_Dec_20_1701,untitled,3.1.0,59.90545721
451,_5,N,90,R,N,451_5N090RN,HRN,0,134,134,274,,,1.307,1205.017259,1205.365404,1205.382574,1205.665238,1205.682042,None,up,2.0492922,1205.682042,None,1205.682042,1206.964351,0.0607319,None,,,,,,,,,3,1,2019_Dec_20_1701,untitled,3.1.0,59.90545721
5,R,N,180,R,N,005RN180RN,HRN,0,135,135,196,,,1.003,1207.855917,1208.146194,1208.163376,1208.446087,1208.463925,None,down,1.8496316,1208.463925,None,1208.463925,1209.445471,0.1110105,None,,,,,,,,,3,1,2019_Dec_20_1701,untitled,3.1.0,59.90545721
_,_4,N,90,_,_,__4N090__,N,0,136,136,82,,,0.905,1210.434505,1210.726957,1210.743605,1211.027307,1211.043936,None,up,1.6522673,1211.043936,None,1211.043936,1211.942971,0.1102295,None,,,,,,,,,3,1,2019_Dec_20_1701,untitled,3.1.0,59.90545721
33,R,N,0,L,N,033RN000LN,HLN,0,137,137,200,,,0.707,1212.806813,1213.108157,1213.124922,1213.408738,1213.425271,None,up,1.767842,1213.425271,None,1213.425271,1214.123506,0.099784,None,,,,,,,,,3,1,2019_Dec_20_1701,untitled,3.1.0,59.90545721
491,_5,M,90,L,N,491_5M090LN,HLN,0,138,138,186,,,0.807,1215.308037,1215.60629,1215.622686,1215.906576,1215.923214,None,down,1.9833792,1215.923214,None,1215.923214,1216.723035,0.1038573,None,,,,,,,,,3,1,2019_Dec_20_1701,untitled,3.1.0,59.90545721
297,_2,M,0,L,N,297_2M000LN,HLN,0,139,139,152,,,0.738,1218.026156,1218.321007,1218.336601,1218.620597,1218.637899,None,down,2.2164928,1218.637899,None,1218.637899,1219.370385,0.1080687,None,,,,,,,,,3,1,2019_Dec_20_1701,untitled,3.1.0,59.90545721
291,_2,N,90,L,N,291_2N090LN,HLN,0,140,140,250,,,1.004,1220.965963,1221.267938,1221.284475,1221.567833,1221.584841,None,up,1.7840857,1221.584841,None,1221.584841,1222.570333,0.1015548,None,,,,,,,,,3,1,2019_Dec_20_1701,untitled,3.1.0,59.90545721
392,_4,N,315,R,N,392_4N315RN,HRN,0,141,141,263,,,0.835,1223.487133,1223.78238,1223.79901,1224.082856,1224.099222,None,up,1.9355178,1224.099222,None,1224.099222,1224.914623,0.1060871,None,,,,,,,,,3,1,2019_Dec_20_1701,untitled,3.1.0,59.90545721
426,_4,M,45,L,N,426_4M045LN,HLN,0,142,142,169,,,1,1226.149021,1226.446801,1226.463195,1226.746729,1226.763604,None,down,2.0687898,1226.763604,None,1226.763604,1227.745947,0.103548,None,,,,,,,,,3,1,2019_Dec_20_1701,untitled,3.1.0,59.90545721
_,R,N,315,_,_,_RN315__,N,0,143,143,71,,,1.134,1228.945694,1229.244344,1229.260562,1229.544436,1229.561265,None,down,2.1168637,1229.561265,None,1229.561265,1230.676697,0.1016684,None,,,,,,,,,3,1,2019_Dec_20_1701,untitled,3.1.0,59.90545721
482,_5,N,45,L,N,482_5N045LN,HLN,0,144,144,281,,,1.195,1231.795245,1232.091814,1232.108512,1232.39187,1232.408668,None,up,1.9161723,1232.408668,None,1232.408668,1233.591064,0.105147,None,,,,,,,,,3,1,2019_Dec_20_1701,untitled,3.1.0,59.90545721
39,R,N,270,L,N,039RN270LN,HLN,0,145,145,206,,,1.034,1234.439707,1234.739897,1234.756115,1235.042647,1235.05746,None,up,1.7318942,1235.05746,None,1235.05746,1236.07205,0.1041712,None,,,,,,,,,3,1,2019_Dec_20_1701,untitled,3.1.0,59.90545721
_,G,M,90,_,_,_GM090__,N,0,146,146,10,,,1.125,1236.882436,1237.203938,1237.220661,1237.504275,1237.521001,None,down,2.0665601,1237.521001,None,1237.521001,1238.636502,0.0835614,None,,,,,,,,,3,1,2019_Dec_20_1701,untitled,3.1.0,59.90545721
240,G,M,315,L,N,240GM315LN,HLN,0,147,147,143,,,0.899,1239.710351,1240.0017,1240.0017,1240.301808,1240.318626,None,down,2.0327489,1240.318626,None,1240.318626,1241.201389,0.1118126,None,,,,,,,,,3,1,2019_Dec_20_1701,untitled,3.1.0,59.90545721
36,R,N,135,L,N,036RN135LN,HLN,0,148,148,203,,,0.732,1242.47461,1242.766027,1242.766027,1243.066062,1243.082595,None,up,1.719251,1243.082595,None,1243.082595,1243.79901,0.1130347,None,,,,,,,,,3,1,2019_Dec_20_1701,untitled,3.1.0,59.90545721
_,_5,M,0,_,_,__5M000__,N,0,149,149,40,,,0.977,1244.909471,1245.213994,1245.230213,1245.514094,1245.530592,None,down,1.8498455,1245.530592,None,1245.530592,1246.496505,0.0966566,None,,,,,,,,,3,1,2019_Dec_20_1701,untitled,3.1.0,59.90545721
_,R,M,45,_,_,_RM045__,N,0,150,150,17,,,0.707,1247.496063,1247.794538,1247.811343,1248.094872,1248.11171,None,down,1.5997384,1248.11171,None,1248.11171,1248.811031,0.104535,None,,,,,,,,,3,1,2019_Dec_20_1701,untitled,3.1.0,59.90545721
393,_4,M,0,R,N,393_4M000RN,HRN,0,151,151,160,,,0.847,1249.829586,1250.126135,1250.142378,1250.426392,1250.442984,None,down,1.6875101,1250.442984,None,1250.442984,1251.276042,0.1071909,None,,,,,,,,,3,1,2019_Dec_20_1701,untitled,3.1.0,59.90545721
40,R,N,315,L,N,040RN315LN,HLN,0,152,152,207,,,1.115,1252.255594,1252.557504,1252.557504,1252.840881,1252.857419,None,up,2.1670789,1252.857419,None,1252.857419,1253.956678,0.1140718,None,,,,,,,,,3,1,2019_Dec_20_1701,untitled,3.1.0,59.90545721
485,_5,N,180,L,N,485_5N180LN,HLN,0,153,153,284,,,1.121,1255.136744,1255.438503,1255.454916,1255.738672,1255.754988,None,down,2.6813331,1255.754988,None,1255.754988,1256.870715,0.100265,None,,,,,,,,,3,1,2019_Dec_20_1701,untitled,3.1.0,59.90545721
227,G,N,90,L,N,227GN090LN,HLN,0,154,154,234,,,1.123,1258.554161,1258.852346,1258.868355,1259.151862,1259.168769,None,up,2.1342245,1259.168769,None,1259.168769,1260.284471,0.1079383,None,,,,,,,,,3,1,2019_Dec_20_1701,untitled,3.1.0,59.90545721
235,G,M,90,L,N,235GM090LN,HLN,0,155,155,138,,,1.147,1261.414232,1261.715728,1261.732774,1262.015495,1262.032094,None,down,2.1505991,1262.032094,None,1262.032094,1263.165208,0.100214,None,,,,,,,,,3,1,2019_Dec_20_1701,untitled,3.1.0,59.90545721
199,G,N,270,R,N,199GN270RN,HRN,0,156,156,230,,,0.924,1264.292882,1264.596868,1264.613454,1264.896877,1264.913709,None,up,1.84898,1264.913709,None,1264.913709,1265.829305,0.0993541,None,,,,,,,,,3,1,2019_Dec_20_1701,untitled,3.1.0,59.90545721
303,_2,M,270,L,N,303_2M270LN,HLN,0,157,157,158,,,1.022,1266.871596,1267.177709,1267.195081,1267.477825,1267.49482,None,down,2.2494538,1267.49482,None,1267.49482,1268.510539,0.0970183,None,,,,,,,,,3,1,2019_Dec_20_1701,untitled,3.1.0,59.90545721
_,_4,M,225,_,_,__4M225__,N,0,158,158,37,,,0.816,1269.863708,1270.158476,1270.175308,1270.458278,1270.474904,None,up,1.7502677,1270.474904,None,1270.474904,1271.275402,0.1091152,None,,,,,,,,,3,1,2019_Dec_20_1701,untitled,3.1.0,59.90545721
495,_5,M,270,L,N,495_5M270LN,HLN,0,159,159,190,,,1.301,1272.351301,1272.640551,1272.640551,1272.939747,1272.956585,None,down,2.1164682,1272.956585,None,1272.956585,1274.238818,0.1153837,None,,,,,,,,,3,1,2019_Dec_20_1701,untitled,3.1.0,59.90545721
_,_2,M,135,_,_,__2M135__,N,0,160,160,27,,,0.702,1275.163229,1275.487585,1275.504368,1275.786982,1275.803938,None,down,1.6651738,1275.803938,None,1275.803938,1276.487191,0.0813838,None,,,,,,,,,3,1,2019_Dec_20_1701,untitled,3.1.0,59.90545721
234,G,M,45,L,N,234GM045LN,HLN,0,161,161,137,,,0.847,1277.562039,1277.885399,1277.902222,1278.185399,1278.202127,None,down,2.2160904,1278.202127,None,1278.202127,1279.037724,0.0839341,None,,,,,,,,,3,1,2019_Dec_20_1701,untitled,3.1.0,59.90545721
_,G,N,135,_,_,_GN135__,N,0,162,162,59,,,1.326,1280.541737,1280.832678,1280.832678,1281.132833,1281.149541,None,up,2.5158345,1281.149541,None,1281.149541,1282.464794,0.1122507,None,,,,,,,,,3,1,2019_Dec_20_1701,untitled,3.1.0,59.90545721
_,F,M,135,_,_,_FM135__,N,0,163,163,3,,,1.034,1283.783988,1284.079491,1284.096496,1284.380329,1284.396722,None,down,2.2827399,1284.396722,None,1284.396722,1285.412316,0.1077041,None,,,,,,,,,3,1,2019_Dec_20_1701,untitled,3.1.0,59.90545721
10,R,M,45,R,N,010RM045RN,HRN,0,164,164,97,,,0.9,1286.792766,1287.094053,1287.110591,1287.393881,1287.410738,None,down,1.7364847,1287.410738,None,1287.410738,1288.293952,0.101746,None,,,,,,,,,3,1,2019_Dec_20_1701,untitled,3.1.0,59.90545721
_,_5,N,0,_,_,__5N000__,N,0,165,165,88,,,0.994,1289.271744,1289.560405,1289.560405,1289.858428,1289.875193,None,up,1.8337939,1289.875193,None,1289.875193,1290.857622,0.1141662,None,,,,,,,,,3,1,2019_Dec_20_1701,untitled,3.1.0,59.90545721
133,F,N,180,R,N,133FN180RN,HRN,0,166,166,212,,,0.744,1291.827614,1292.122956,1292.139643,1292.423139,1292.439718,None,down,1.9330964,1292.439718,None,1292.439718,1293.172277,0.1063377,None,,,,,,,,,3,1,2019_Dec_20_1701,untitled,3.1.0,59.90545721
269,_2,M,180,R,N,269_2M180RN,HRN,0,167,167,148,,,0.967,1294.494555,1294.787784,1294.803368,1295.087766,1295.104028,None,down,1.7323766,1295.104028,None,1295.104028,1296.054824,0.1105163,None,,,,,,,,,3,1,2019_Dec_20_1701,untitled,3.1.0,59.90545721
429,_4,M,180,L,N,429_4M180LN,HLN,0,168,168,172,,,1.046,1296.936934,1297.251691,1297.268567,1297.551944,1297.569058,None,up,1.864923,1297.569058,None,1297.569058,1298.601108,0.0915449,None,,,,,,,,,3,1,2019_Dec_20_1701,untitled,3.1.0,59.90545721
196,G,N,135,R,N,196GN135RN,HRN,0,169,169,227,,,1.329,1299.560829,1299.850379,1299.850379,1300.149403,1300.166139,None,up,2.715292,1300.166139,None,1300.166139,1301.482179,0.1164255,None,,,,,,,,,3,1,2019_Dec_20_1701,untitled,3.1.0,59.90545721
_,F,N,90,_,_,_FN090__,N,0,170,170,50,,,1.075,1302.988994,1303.29658,1303.313205,1303.596403,1303.613047,None,up,1.736298,1303.613047,None,1303.613047,1304.678879,0.0968282,None,,,,,,,,,3,1,2019_Dec_20_1701,untitled,3.1.0,59.90545721
193,G,N,0,R,N,193GN000RN,HRN,0,171,171,224,,,0.905,1305.454372,1305.761656,1305.777893,1306.061084,1306.077858,None,up,1.6321692,1306.077858,None,1306.077858,1306.976921,0.0936718,None,,,,,,,,,3,1,2019_Dec_20_1701,untitled,3.1.0,59.90545721
_,F,M,315,_,_,_FM315__,N,0,172,172,7,,,1.242,1307.80131,1308.125876,1308.142186,1308.425982,1308.442365,None,down,2.1660359,1308.442365,None,1308.442365,1309.67507,0.0823774,None,,,,,,,,,3,1,2019_Dec_20_1701,untitled,3.1.0,59.90545721
268,_2,M,135,R,N,268_2M135RN,HRN,0,173,173,147,,,1.017,1310.726101,1311.02319,1311.040382,1311.32264,1311.339333,None,down,2.0832737,1311.339333,None,1311.339333,1312.338628,0.1047098,None,,,,,,,,,3,1,2019_Dec_20_1701,untitled,3.1.0,59.90545721
422,_4,N,225,L,N,422_4N225LN,HLN,0,174,174,269,,,0.766,1313.566785,1313.856034,1313.856034,1314.137524,1314.154047,None,up,1.6332723,1314.154047,None,1314.154047,1314.902907,0.1330819,None,,,,,,,,,3,1,2019_Dec_20_1701,untitled,3.1.0,59.90545721
389,_4,N,180,R,N,389_4N180RN,HRN,0,175,175,260,,,1.079,1315.911259,1316.201876,1316.201876,1316.501767,1316.518833,None,up,2.1662503,1316.518833,None,1316.518833,1317.58467,0.1129331,None,,,,,,,,,3,1,2019_Dec_20_1701,untitled,3.1.0,59.90545721
38,R,N,225,L,N,038RN225LN,HLN,0,176,176,205,,,0.763,1318.798211,1319.099069,1319.115577,1319.39929,1319.416223,None,up,1.7672998,1319.416223,None,1319.416223,1320.165415,0.1008438,None,,,,,,,,,3,1,2019_Dec_20_1701,untitled,3.1.0,59.90545721
44,R,M,135,L,N,044RM135LN,HLN,0,177,177,107,,,1.34,1321.312158,1321.614048,1321.614048,1321.897083,1321.913838,None,up,2.2812662,1321.913838,None,1321.913838,1323.246635,0.1175086,None,,,,,,,,,3,1,2019_Dec_20_1701,untitled,3.1.0,59.90545721
396,_4,M,135,R,N,396_4M135RN,HRN,0,178,178,163,,,1.191,1324.267134,1324.611332,1324.627844,1324.911201,1324.928953,None,down,2.3316091,1324.928953,None,1324.928953,1326.093836,0.0646236,None,,,,,,,,,3,1,2019_Dec_20_1701,untitled,3.1.0,59.90545721
206,G,M,225,R,N,206GM225RN,HRN,0,179,179,133,,,0.931,1327.397004,1327.692482,1327.692482,1327.975947,1327.992156,None,down,1.7331765,1327.992156,None,1327.992156,1328.907833,0.1247943,None,,,,,,,,,3,1,2019_Dec_20_1701,untitled,3.1.0,59.90545721
_,_4,N,135,_,_,__4N135__,N,0,180,180,83,,,1.354,1329.837479,1330.139434,1330.156144,1330.44051,1330.456593,None,down,2.5491063,1330.456593,None,1330.456593,1331.80474,0.1005614,None,,,,,,,,,3,1,2019_Dec_20_1701,untitled,3.1.0,59.90545721
449,_5,N,0,R,N,449_5N000RN,HRN,0,181,181,272,,,0.803,1333.113628,1333.403808,1333.436543,1333.720406,1333.737166,None,up,1.9841214,1333.737166,None,1333.737166,1334.519819,0.0990691,None,,,,,,,,,3,1,2019_Dec_20_1701,untitled,3.1.0,59.90545721
_,_2,M,0,_,_,__2M000__,N,0,182,182,24,,,1.102,1335.833297,1336.134496,1336.151355,1336.435014,1336.451259,None,down,2.2334421,1336.451259,None,1336.451259,1337.533888,0.1014769,None,,,,,,,,,3,1,2019_Dec_20_1701,untitled,3.1.0,59.90545721
47,R,M,270,L,N,047RM270LN,HLN,0,183,183,110,,,1.354,1338.804371,1339.098326,1339.114868,1339.398757,1339.415566,None,down,2.2832072,1339.415566,None,1339.415566,1340.764274,0.1082982,None,,,,,,,,,3,1,2019_Dec_20_1701,untitled,3.1.0,59.90545721
138,F,M,45,R,N,138FM045RN,HRN,0,184,184,113,,,0.756,1341.812234,1342.112588,1342.129215,1342.412661,1342.431246,None,down,2.1144345,1342.431246,None,1342.431246,1343.178941,0.1020413,None,,,,,,,,,3,1,2019_Dec_20_1701,untitled,3.1.0,59.90545721
225,G,N,0,L,N,225GN000LN,HLN,0,185,185,232,,,1.283,1344.661278,1344.960128,1344.976741,1345.260256,1345.277006,None,up,2.3346165,1345.277006,None,1345.277006,1346.542441,0.101066,None,,,,,,,,,3,1,2019_Dec_20_1701,untitled,3.1.0,59.90545721
_,_2,N,45,_,_,__2N045__,N,0,186,186,73,,,0.995,1347.723128,1348.024212,1348.041799,1348.324612,1348.341058,None,up,1.833652,1348.341058,None,1348.341058,1349.323457,0.0996269,None,,,,,,,,,3,1,2019_Dec_20_1701,untitled,3.1.0,59.90545721
394,_4,M,45,R,N,394_4M045RN,HRN,0,187,187,161,,,1.141,1350.29646,1350.588588,1350.605258,1350.888889,1350.905493,None,down,2.3002598,1350.905493,None,1350.905493,1352.041155,0.1097619,None,,,,,,,,,3,1,2019_Dec_20_1701,untitled,3.1.0,59.90545721
_,_5,M,45,_,_,__5M045__,N,0,188,188,41,,,1.075,1353.321699,1353.619063,1353.636103,1353.919402,1353.936003,None,down,2.2501746,1353.936003,None,1353.936003,1355.001987,0.1053888,None,,,,,,,,,3,1,2019_Dec_20_1701,untitled,3.1.0,59.90545721
_,R,N,90,_,_,_RN090__,N,0,189,189,66,,,1.252,1356.296639,1356.599695,1356.617057,1356.900033,1356.916867,None,up,1.9173909,1356.916867,None,1356.916867,1358.148993,0.0991038,None,,,,,,,,,3,1,2019_Dec_20_1701,untitled,3.1.0,59.90545721
173,F,M,180,L,N,173FM180LN,HLN,0,190,190,124,,,1.209,1358.962384,1359.264285,1359.264285,1359.547339,1359.563869,None,up,1.9002129,1359.563869,None,1359.563869,1360.76334,0.1162461,None,,,,,,,,,3,1,2019_Dec_20_1701,untitled,3.1.0,59.90545721
164,F,N,135,L,N,164FN135LN,HLN,0,191,191,219,,,1.295,1361.576605,1361.878762,1361.895211,1362.179221,1362.195631,None,up,2.2825639,1362.195631,None,1362.195631,1363.478274,0.1011941,None,,,,,,,,,3,1,2019_Dec_20_1701,untitled,3.1.0,59.90545721
271,_2,M,270,R,N,271_2M270RN,HRN,0,192,192,150,,,1.236,1364.602414,1364.892931,1364.892931,1365.192983,1365.209542,None,down,2.0328171,1365.209542,None,1365.209542,1366.425387,0.1119056,None,,,,,,,,,3,1,2019_Dec_20_1701,untitled,3.1.0,59.90545721
142,F,M,225,R,N,142FM225RN,HRN,0,193,193,117,,,0.745,1367.364265,1367.657102,1367.673827,1367.958323,1367.97429,None,down,2.531483,1367.97429,None,1367.97429,1368.706575,0.1115513,None,,,,,,,,,3,1,2019_Dec_20_1701,untitled,3.1.0,59.90545721
300,_2,M,135,L,N,300_2M135LN,HLN,0,194,194,155,,,0.972,1370.643422,1370.937782,1370.937782,1371.221455,1371.239627,None,up,2.0488676,1371.239627,None,1371.239627,1372.186943,0.1277706,None,,,,,,,,,3,1,2019_Dec_20_1701,untitled,3.1.0,59.90545721
304,_2,M,315,L,N,304_2M315LN,HLN,0,195,195,159,,,0.733,1373.398375,1373.701598,1373.717949,1374.00182,1374.018762,None,down,1.9672854,1374.018762,None,1374.018762,1374.734595,0.0986515,None,,,,,,,,,3,1,2019_Dec_20_1701,untitled,3.1.0,59.90545721
494,_5,M,225,L,N,494_5M225LN,HLN,0,196,196,189,,,1.169,1376.099317,1376.39954,1376.416188,1376.698983,1376.716078,None,up,2.1172493,1376.716078,None,1376.716078,1377.865436,0.1005939,None,,,,,,,,,3,1,2019_Dec_20_1701,untitled,3.1.0,59.90545721
226,G,N,45,L,N,226GN045LN,HLN,0,197,197,233,,,0.808,1378.945717,1379.246969,1379.263529,1379.547169,1379.563677,None,up,1.7182652,1379.563677,None,1379.563677,1380.362974,0.1016166,None,,,,,,,,,3,1,2019_Dec_20_1701,untitled,3.1.0,59.90545721
6,R,N,225,R,N,006RN225RN,HRN,0,198,198,197,,,1.307,1381.426975,1381.728473,1381.728473,1381.99474,1382.01169,None,up,2.184064,1382.01169,None,1382.01169,1383.310418,0.1336107,None,,,,,,,,,3,1,2019_Dec_20_1701,untitled,3.1.0,59.90545721
458,_5,M,45,R,N,458_5M045RN,HRN,0,199,199,177,,,0.993,1384.315509,1384.608896,1384.625684,1384.910259,1384.926058,None,up,2.6650545,1384.926058,None,1384.926058,1385.908926,0.1094081,None,,,,,,,,,3,1,2019_Dec_20_1701,untitled,3.1.0,59.90545721
267,_2,M,90,R,N,267_2M090RN,HRN,0,200,200,146,,,0.729,1387.705349,1388.0061,1388.02297,1388.306376,1388.322767,None,down,1.7664868,1388.322767,None,1388.322767,1389.039235,0.1033361,None,,,,,,,,,3,1,2019_Dec_20_1701,untitled,3.1.0,59.90545721
430,_4,M,225,L,N,430_4M225LN,HLN,0,201,201,173,,,0.766,1390.200805,1390.504103,1390.52048,1390.804122,1390.822582,None,up,2.3153116,1390.822582,None,1390.822582,1391.572289,0.1000469,None,,,,,,,,,3,1,2019_Dec_20_1701,untitled,3.1.0,59.90545721
165,F,N,180,L,N,165FN180LN,HLN,0,202,202,220,,,1.147,1393.256034,1393.551234,1393.567259,1393.851441,1393.86803,None,None,,1393.86803,None,1393.86803,1394.99957,0.1068431,None,,,,,,,,,3,1,2019_Dec_20_1701,untitled,3.1.0,59.90545721
_,_5,M,270,_,_,__5M270__,N,0,203,203,46,,,1.129,1397.451905,1397.74755,1397.764283,1398.047548,1398.064333,1397.451905,up,2.5852604,1398.064333,None,1398.064333,1399.180053,0.1101311,None,,,,,,,,,3,1,2019_Dec_20_1701,untitled,3.1.0,59.90545721
263,_2,N,270,R,N,263_2N270RN,HRN,0,204,204,246,,,1.204,1400.764095,1401.061403,1401.077853,1401.361177,1401.37773,None,up,1.9843861,1401.37773,None,1401.37773,1402.577077,0.1032439,None,,,,,,,,,3,1,2019_Dec_20_1701,untitled,3.1.0,59.90545721
_,F,N,270,_,_,_FN270__,N,0,205,205,54,,,0.977,1403.484608,1403.775634,1403.775634,1404.075704,1404.092451,None,up,1.8837415,1404.092451,None,1404.092451,1405.057094,0.1108525,None,,,,,,,,,3,1,2019_Dec_20_1701,untitled,3.1.0,59.90545721
161,F,N,0,L,N,161FN000LN,HLN,0,206,206,216,,,1.329,1406.116866,1406.407123,1406.407123,1406.689852,1406.706474,None,up,2.1833568,1406.706474,None,1406.706474,1408.022245,0.1285999,None,,,,,,,,,3,1,2019_Dec_20_1701,untitled,3.1.0,59.90545721
453,_5,N,180,R,N,453_5N180RN,HRN,0,207,207,276,,,1.139,1409.007567,1409.304302,1409.320672,1409.604509,1409.62088,None,up,2.2496281,1409.62088,None,1409.62088,1410.753447,0.1062015,None,,,,,,,,,3,1,2019_Dec_20_1701,untitled,3.1.0,59.90545721
272,_2,M,315,R,N,272_2M315RN,HRN,0,208,208,151,,,1.167,1412.001034,1412.301987,1412.301987,1412.584713,1412.600618,None,down,2.5019454,1412.600618,None,1412.600618,1413.750546,0.119458,None,,,,,,,,,3,1,2019_Dec_20_1701,untitled,3.1.0,59.90545721
385,_4,N,0,R,N,385_4N000RN,HRN,0,209,209,256,,,1.265,1415.217936,1415.515212,1415.531674,1415.815269,1415.83211,None,up,2.2161954,1415.83211,None,1415.83211,1417.081078,0.1044382,None,,,,,,,,,3,1,2019_Dec_20_1701,untitled,3.1.0,59.90545721
_,F,N,135,_,_,_FN135__,N,0,210,210,51,,,1.036,1418.158643,1418.448092,1418.479256,1418.763099,1418.779556,None,up,2.0996001,1418.779556,None,1418.779556,1419.795004,0.0998133,None,,,,,,,,,3,1,2019_Dec_20_1701,untitled,3.1.0,59.90545721
_,R,M,135,_,_,_RM135__,N,0,211,211,19,,,0.701,1421.00508,1421.293587,1421.293587,1421.594063,1421.610538,None,down,1.6331775,1421.610538,None,1421.610538,1422.293135,0.1139833,None,,,,,,,,,3,1,2019_Dec_20_1701,untitled,3.1.0,59.90545721
_,_2,N,135,_,_,__2N135__,N,0,212,212,75,,,0.756,1423.373105,1423.674952,1423.674952,1423.959002,1423.975016,None,up,2.0831452,1423.975016,None,1423.975016,1424.726563,0.1172118,None,,,,,,,,,3,1,2019_Dec_20_1701,untitled,3.1.0,59.90545721
229,G,N,180,L,N,229GN180LN,HLN,0,213,213,236,,,0.967,1426.166804,1426.473694,1426.488975,1426.772582,1426.789087,None,down,2.8848451,1426.789087,None,1426.789087,1427.738974,0.0985164,None,,,,,,,,,3,1,2019_Dec_20_1701,untitled,3.1.0,59.90545721
_,G,M,45,_,_,_GM045__,N,0,214,214,9,,,0.992,1429.792739,1430.085503,1430.103164,1430.386444,1430.402857,None,down,2.1025717,1430.402857,None,1430.402857,1431.385344,0.1081131,None,,,,,,,,,3,1,2019_Dec_20_1701,untitled,3.1.0,59.90545721
_,_2,M,45,_,_,__2M045__,N,0,215,215,25,,,0.811,1432.623242,1432.916792,1432.93322,1433.216884,1433.233631,None,down,2.5499245,1433.233631,None,1433.233631,1434.033025,0.105213,None,,,,,,,,,3,1,2019_Dec_20_1701,untitled,3.1.0,59.90545721
_,G,N,225,_,_,_GN225__,N,0,216,216,61,,,0.74,1435.908997,1436.199361,1436.199361,1436.497629,1436.514304,None,up,1.7000592,1436.514304,None,1436.514304,1437.247004,0.1144884,None,,,,,,,,,3,1,2019_Dec_20_1701,untitled,3.1.0,59.90545721
420,_4,N,135,L,N,420_4N135LN,HLN,0,217,217,267,,,0.936,1438.339717,1438.629683,1438.629683,1438.929099,1438.945588,None,down,2.1324963,1438.945588,None,1438.945588,1439.861553,0.1141537,None,,,,,,,,,3,1,2019_Dec_20_1701,untitled,3.1.0,59.90545721
239,G,M,270,L,N,239GM270LN,HLN,0,218,218,142,,,1.267,1441.194843,1441.492599,1441.508857,1441.792636,1441.809439,None,down,2.4825232,1441.809439,None,1441.809439,1443.058422,0.1057819,None,,,,,,,,,3,1,2019_Dec_20_1701,untitled,3.1.0,59.90545721
169,F,M,0,L,N,169FM000LN,HLN,0,219,219,120,,,1.262,1444.408278,1444.706134,1444.723276,1445.006154,1445.02289,None,down,2.5827061,1445.02289,None,1445.02289,1446.27188,0.1053184,None,,,,,,,,,3,1,2019_Dec_20_1701,untitled,3.1.0,59.90545721
_,_4,M,135,_,_,__4M135__,N,0,220,220,35,,,0.948,1447.729221,1448.021182,1448.021182,1448.320471,1448.337277,None,up,2.3491765,1448.337277,None,1448.337277,1449.271287,0.1127701,None,,,,,,,,,3,1,2019_Dec_20_1701,untitled,3.1.0,59.90545721
460,_5,M,135,R,N,460_5M135RN,HRN,0,221,221,179,,,0.791,1450.801275,1451.100887,1451.117617,1451.401154,1451.417931,None,down,2.1665453,1451.417931,None,1451.417931,1452.199562,0.1012387,None,,,,,,,,,3,1,2019_Dec_20_1701,untitled,3.1.0,59.90545721
_,G,M,270,_,_,_GM270__,N,0,222,222,14,,,0.825,1453.704276,1453.998489,1454.015104,1454.298803,1454.31539,None,down,2.2840239,1454.31539,None,1454.31539,1455.131809,0.1087664,None,,,,,,,,,3,1,2019_Dec_20_1701,untitled,3.1.0,59.90545721
258,_2,N,45,R,N,258_2N045RN,HRN,0,223,223,241,,,1.236,1456.71043,1457.012256,1457.029128,1457.312938,1457.329489,None,up,2.2511955,1457.329489,None,1457.329489,1458.54712,0.0996866,None,,,,,,,,,3,1,2019_Dec_20_1701,untitled,3.1.0,59.90545721
459,_5,M,90,R,N,459_5M090RN,HRN,0,224,224,178,,,0.874,1459.703364,1459.993598,1460.010231,1460.293724,1460.310236,None,down,2.2648563,1460.310236,None,1460.310236,1461.176142,0.1116708,None,,,,,,,,,3,1,2019_Dec_20_1701,untitled,3.1.0,59.90545721
295,_2,N,270,L,N,295_2N270LN,HLN,0,225,225,254,,,1.284,1462.66587,1462.990631,1463.00712,1463.290862,1463.307464,None,up,2.5156875,1463.307464,None,1463.307464,1464.572999,0.0814309,None,,,,,,,,,3,1,2019_Dec_20_1701,untitled,3.1.0,59.90545721
144,F,M,315,R,N,144FM315RN,HRN,0,226,226,119,,,0.906,1465.944567,1466.237998,1466.254986,1466.537502,1466.554019,None,down,1.7837666,1466.554019,None,1466.554019,1467.453745,0.1102149,None,,,,,,,,,3,1,2019_Dec_20_1701,untitled,3.1.0,59.90545721
139,F,M,90,R,N,139FM090RN,HRN,0,227,227,114,,,0.977,1468.464335,1468.752521,1468.752521,1469.052284,1469.068352,None,down,2.2841434,1469.068352,None,1469.068352,1470.035506,0.1137359,None,,,,,,,,,3,1,2019_Dec_20_1701,untitled,3.1.0,59.90545721
194,G,N,45,R,N,194GN045RN,HRN,0,228,228,225,,,0.973,1471.451774,1471.766056,1471.783121,1472.066273,1472.083067,None,up,2.1496044,1472.083067,None,1472.083067,1473.049314,0.0879238,None,,,,,,,,,3,1,2019_Dec_20_1701,untitled,3.1.0,59.90545721
462,_5,M,225,R,N,462_5M225RN,HRN,0,229,229,181,,,1.399,1474.345209,1474.647044,1474.663801,1474.946848,1474.963473,None,down,2.585261,1474.963473,None,1474.963473,1476.348901,0.1010108,None,,,,,,,,,3,1,2019_Dec_20_1701,untitled,3.1.0,59.90545721
3,R,N,90,R,N,003RN090RN,HRN,0,230,230,194,,,1.069,1477.672656,1477.962809,1477.962809,1478.261312,1478.277824,None,up,1.9477097,1478.277824,None,1478.277824,1479.344151,0.1119648,None,,,,,,,,,3,1,2019_Dec_20_1701,untitled,3.1.0,59.90545721
_,_4,M,270,_,_,__4M270__,N,0,231,231,38,,,1.152,1480.292389,1480.641815,1480.658313,1480.941521,1480.957804,None,down,2.035483,1480.957804,None,1480.957804,1482.090183,0.059774,None,,,,,,,,,3,1,2019_Dec_20_1701,untitled,3.1.0,59.90545721
_,_5,M,315,_,_,__5M315__,N,0,232,232,47,,,1.191,1483.106865,1483.40639,1483.422532,1483.706625,1483.723154,None,down,2.0018281,1483.723154,None,1483.723154,1484.905367,0.1028019,None,,,,,,,,,3,1,2019_Dec_20_1701,untitled,3.1.0,59.90545721
_,_4,N,315,_,_,__4N315__,N,0,233,233,87,,,1.224,1485.836951,1486.137006,1486.15361,1486.437129,1486.45411,None,up,2.0654354,1486.45411,None,1486.45411,1487.669503,0.1012266,None,,,,,,,,,3,1,2019_Dec_20_1701,untitled,3.1.0,59.90545721
463,_5,M,270,R,N,463_5M270RN,HRN,0,234,234,182,,,1.245,1488.589137,1488.934422,1488.951395,1489.235019,1489.251785,None,down,2.6320645,1489.251785,None,1489.251785,1490.483854,0.0623706,None,,,,,,,,,3,1,2019_Dec_20_1701,untitled,3.1.0,59.90545721
_,F,N,45,_,_,_FN045__,N,0,235,235,49,,,0.77,1492.011285,1492.300404,1492.300404,1492.59817,1492.614298,None,up,1.5503528,1492.614298,None,1492.614298,1493.364555,0.1157762,None,,,,,,,,,3,1,2019_Dec_20_1701,untitled,3.1.0,59.90545721
_,_2,N,90,_,_,__2N090__,N,0,236,236,74,,,0.86,1494.27116,1494.57961,1494.596462,1494.878995,1494.896442,None,down,2.2342155,1494.896442,None,1494.896442,1495.746145,0.0971729,None,,,,,,,,,3,1,2019_Dec_20_1701,untitled,3.1.0,59.90545721
_,_4,N,45,_,_,__4N045__,N,0,237,237,81,,,1.26,1497.240618,1497.529397,1497.560658,1497.843478,1497.860511,None,up,2.0682164,1497.860511,None,1497.860511,1499.109535,0.0989101,None,,,,,,,,,3,1,2019_Dec_20_1701,untitled,3.1.0,59.90545721
168,F,N,315,L,N,168FN315LN,HLN,0,238,238,223,,,0.881,1500.053727,1500.342954,1500.342954,1500.641887,1500.658297,None,up,1.7512547,1500.658297,None,1500.658297,1501.524109,0.1139599,None,,,,,,,,,3,1,2019_Dec_20_1701,untitled,3.1.0,59.90545721
4,R,N,135,R,N,004RN135RN,HRN,0,239,239,195,,,0.953,1502.521269,1502.822845,1502.838866,1503.122925,1503.139478,None,up,1.9318244,1503.139478,None,1503.139478,1504.073591,0.100939,None,,,,,,,,,3,1,2019_Dec_20_1701,untitled,3.1.0,59.90545721
_,R,N,180,_,_,_RN180__,N,0,240,240,68,,,1.004,1505.169454,1505.487423,1505.50431,1505.786966,1505.803883,None,up,1.5829883,1505.803883,None,1505.803883,1506.786585,0.0907429,None,,,,,,,,,3,1,2019_Dec_20_1701,untitled,3.1.0,59.90545721
294,_2,N,225,L,N,294_2N225LN,HLN,0,241,241,253,,,0.974,1507.498772,1507.801601,1507.818087,1508.101651,1508.118369,None,up,1.7333031,1508.118369,None,1508.118369,1509.084416,0.1016752,None,,,,,,,,,3,1,2019_Dec_20_1701,untitled,3.1.0,59.90545721
42,R,M,45,L,N,042RM045LN,HLN,0,242,242,105,,,0.945,1509.980906,1510.282723,1510.282723,1510.566169,1510.583704,None,down,1.8824705,1510.583704,None,1510.583704,1511.515552,0.1181826,None,,,,,,,,,3,1,2019_Dec_20_1701,untitled,3.1.0,59.90545721
43,R,M,90,L,N,043RM090LN,HLN,0,243,243,106,,,1.09,1512.59117,1512.880831,1512.880831,1513.181017,1513.197405,None,down,2.0330508,1513.197405,None,1513.197405,1514.279829,0.1136187,None,,,,,,,,,3,1,2019_Dec_20_1701,untitled,3.1.0,59.90545721
45,R,M,180,L,N,045RM180LN,HLN,0,244,244,108,,,1.029,1515.354053,1515.644848,1515.644848,1515.944885,1515.961554,None,down,1.6354715,1515.961554,None,1515.961554,1516.977294,0.1123699,None,,,,,,,,,3,1,2019_Dec_20_1701,untitled,3.1.0,59.90545721
_,F,M,180,_,_,_FM180__,N,0,245,245,4,,,1.337,1517.72025,1518.009603,1518.009603,1518.309603,1518.326044,None,down,2.117029,1518.326044,None,1518.326044,1519.6587,0.1127364,None,,,,,,,,,3,1,2019_Dec_20_1701,untitled,3.1.0,59.90545721
293,_2,N,180,L,N,293_2N180LN,HLN,0,246,246,252,,,0.979,1520.572175,1520.87322,1520.87322,1521.157348,1521.175331,None,up,2.5498873,1521.175331,None,1521.175331,1522.139584,0.1161995,None,,,,,,,,,3,1,2019_Dec_20_1701,untitled,3.1.0,59.90545721
_,_4,N,0,_,_,__4N000__,N,0,247,247,80,,,1.239,1523.844556,1524.137251,1524.153962,1524.437789,1524.454469,None,up,2.0999589,1524.454469,None,1524.454469,1525.686519,0.1083581,None,,,,,,,,,3,1,2019_Dec_20_1701,untitled,3.1.0,59.90545721
_,G,N,45,_,_,_GN045__,N,0,248,248,57,,,0.973,1526.670983,1526.96781,1526.984826,1527.268656,1527.285127,None,up,2.6821445,1527.285127,None,1527.285127,1528.250954,0.1070076,None,,,,,,,,,3,1,2019_Dec_20_1701,untitled,3.1.0,59.90545721
417,_4,N,0,L,N,417_4N000LN,HLN,0,249,249,264,,,1.394,1530.085224,1530.382036,1530.398935,1530.68243,1530.698802,None,up,1.9477463,1530.698802,None,1530.698802,1532.080874,0.1069931,None,,,,,,,,,3,1,2019_Dec_20_1701,untitled,3.1.0,59.90545721
490,_5,M,45,L,N,490_5M045LN,HLN,0,250,250,185,,,0.879,1532.721384,1533.062829,1533.079284,1533.363027,1533.379874,None,up,1.9151763,1533.379874,None,1533.379874,1534.246289,0.0669977,None,,,,,,,,,3,1,2019_Dec_20_1701,untitled,3.1.0,59.90545721
399,_4,M,270,R,N,399_4M270RN,HRN,0,251,251,166,,,1.055,1535.386721,1535.710562,1535.727664,1536.010986,1536.027415,None,up,0.0526134,1536.027415,None,1536.027415,None,0.0821632,None,,,,,,,,,3,1,2019_Dec_20_1701,untitled,3.1.0,59.90545721
_,R,N,135,_,_,_RN135__,N,0,252,252,67,,,1.006,1536.200879,1536.493261,1536.509604,1536.793613,1536.810187,None,up,1.8005924,1536.810187,None,1536.810187,1537.809763,0.1092923,None,,,,,,,,,3,1,2019_Dec_20_1701,untitled,3.1.0,59.90545721
11,R,M,90,R,N,011RM090RN,HRN,0,253,253,98,,,0.891,1538.729743,1539.02505,1539.040793,1539.324902,1539.341243,None,down,1.8148441,1539.341243,None,1539.341243,1540.223875,0.108051,None,,,,,,,,,3,1,2019_Dec_20_1701,untitled,3.1.0,59.90545721
12,R,M,135,R,N,012RM135RN,HRN,0,254,254,99,,,1.167,1541.228114,1541.57365,1541.589131,1541.871625,1541.888046,None,down,2.2667108,1541.888046,None,1541.888046,1543.037831,0.0644546,None,,,,,,,,,3,1,2019_Dec_20_1701,untitled,3.1.0,59.90545721
172,F,M,135,L,N,172FM135LN,HLN,0,255,255,123,,,1.003,1544.274285,1544.569505,1544.586405,1544.869612,1544.886423,None,down,2.2168327,1544.886423,None,1544.886423,1545.868577,0.1079718,None,,,,,,,,,3,1,2019_Dec_20_1701,untitled,3.1.0,59.90545721
130,F,N,45,R,N,130FN045RN,HRN,0,256,256,209,,,0.845,1547.198856,1547.517012,1547.533321,1547.817091,1547.834073,None,down,1.4344941,1547.834073,None,1547.834073,1548.666769,0.0853009,None,,,,,,,,,3,1,2019_Dec_20_1701,untitled,3.1.0,59.90545721
395,_4,M,90,R,N,395_4M090RN,HRN,0,257,257,162,,,1.328,1549.381264,1549.681546,1549.698148,1549.981888,1549.999153,None,down,2.21605,1549.999153,None,1549.999153,1551.314096,0.1007973,None,,,,,,,,,3,1,2019_Dec_20_1701,untitled,3.1.0,59.90545721
_,G,M,180,_,_,_GM180__,N,0,258,258,12,,,1.34,1552.339084,1552.629612,1552.629612,1552.929623,1552.945968,None,down,2.4523937,1552.945968,None,1552.945968,1554.278249,0.1138415,None,,,,,,,,,3,1,2019_Dec_20_1701,untitled,3.1.0,59.90545721
431,_4,M,270,L,N,431_4M270LN,HLN,0,259,259,174,,,1.217,1555.52367,1555.812141,1555.812141,1556.109714,1556.126522,None,down,2.1999389,1556.126522,None,1556.126522,1557.325672,0.113669,None,,,,,,,,,3,1,2019_Dec_20_1701,untitled,3.1.0,59.90545721
301,_2,M,180,L,N,301_2M180LN,HLN,0,260,260,156,,,1.339,1558.440241,1558.740735,1558.756887,1559.042959,1559.058374,None,down,2.2483843,1559.058374,None,1559.058374,1560.388616,0.1017823,None,,,,,,,,,3,1,2019_Dec_20_1701,untitled,3.1.0,59.90545721
427,_4,M,90,L,N,427_4M090LN,HLN,0,261,261,170,,,1.319,1561.435271,1561.723909,1561.723909,1562.02154,1562.038202,None,down,2.1169802,1562.038202,None,1562.038202,1563.337326,0.1164413,None,,,,,,,,,3,1,2019_Dec_20_1701,untitled,3.1.0,59.90545721
493,_5,M,180,L,N,493_5M180LN,HLN,0,262,262,188,,,1.253,1564.279666,1564.569544,1564.569544,1564.869096,1564.885878,None,down,1.9497193,1564.885878,None,1564.885878,1566.117968,0.112749,None,,,,,,,,,3,1,2019_Dec_20_1701,untitled,3.1.0,59.90545721
302,_2,M,225,L,N,302_2M225LN,HLN,0,263,263,157,,,1.113,1566.956218,1567.249752,1567.266547,1567.549931,1567.567562,None,down,1.9153824,1567.567562,None,1567.567562,1568.665513,0.1093857,None,,,,,,,,,3,1,2019_Dec_20_1701,untitled,3.1.0,59.90545721
_,R,M,270,_,_,_RM270__,N,0,264,264,22,,,0.869,1569.595917,1569.897564,1569.913992,1570.197895,1570.21483,None,down,1.6495669,1570.21483,None,1570.21483,1571.064275,0.1015332,None,,,,,,,,,3,1,2019_Dec_20_1701,untitled,3.1.0,59.90545721
198,G,N,225,R,N,198GN225RN,HRN,0,265,265,229,,,1.114,1571.990062,1572.278604,1572.278604,1572.578887,1572.59499,None,up,2.0857104,1572.59499,None,1572.59499,1573.69451,0.1140255,None,,,,,,,,,3,1,2019_Dec_20_1701,untitled,3.1.0,59.90545721
232,G,N,315,L,N,232GN315LN,HLN,0,266,266,239,,,0.808,1574.793412,1575.093037,1575.109744,1575.393325,1575.409893,None,down,1.9162112,1575.409893,None,1575.409893,1576.209988,0.1005311,None,,,,,,,,,3,1,2019_Dec_20_1701,untitled,3.1.0,59.90545721
_,_2,N,315,_,_,__2N315__,N,0,267,267,79,,,0.926,1577.450261,1577.7418,1577.7418,1578.04071,1578.057422,None,down,1.8518547,1578.057422,None,1578.057422,1578.973426,0.1125731,None,,,,,,,,,3,1,2019_Dec_20_1701,untitled,3.1.0,59.90545721
1,R,N,0,R,N,001RN000RN,HRN,0,268,268,192,,,1.294,1580.032457,1580.322156,1580.322156,1580.621866,1580.638673,None,up,2.0839574,1580.638673,None,1580.638673,1581.920238,0.1129711,None,,,,,,,,,3,1,2019_Dec_20_1701,untitled,3.1.0,59.90545721
266,_2,M,45,R,N,266_2M045RN,HRN,0,269,269,145,,,0.839,1582.834043,1583.135718,1583.153283,1583.435913,1583.452749,None,down,1.7165367,1583.452749,None,1583.452749,1584.285297,0.1005733,None,,,,,,,,,3,1,2019_Dec_20_1701,untitled,3.1.0,59.90545721
270,_2,M,225,R,N,270_2M225RN,HRN,0,270,270,149,,,1.359,1585.27214,1585.584219,1585.601273,1585.883788,1585.90064,None,down,2.0818129,1585.90064,None,1585.90064,1587.248604,0.0902121,None,,,,,,,,,3,1,2019_Dec_20_1701,untitled,3.1.0,59.90545721
_,G,M,0,_,_,_GM000__,N,0,271,271,8,,,1.088,1588.102139,1588.398187,1588.415077,1588.698566,1588.714752,None,down,1.8353664,1588.714752,None,1588.714752,1589.780565,0.1079984,None,,,,,,,,,3,1,2019_Dec_20_1701,untitled,3.1.0,59.90545721
140,F,M,135,R,N,140FM135RN,HRN,0,272,272,115,,,1.129,1590.659606,1590.962539,1590.978701,1591.262745,1591.279216,None,up,2.1168284,1591.279216,None,1591.279216,1592.397622,0.0987813,None,,,,,,,,,3,1,2019_Dec_20_1701,untitled,3.1.0,59.90545721
483,_5,N,90,L,N,483_5N090LN,HLN,0,273,273,282,,,1.393,1593.508923,1593.809925,1593.826509,1594.110416,1594.126736,None,up,2.816981,1594.126736,None,1594.126736,1595.508521,0.1018322,None,,,,,,,,,3,1,2019_Dec_20_1701,untitled,3.1.0,59.90545721
481,_5,N,0,L,N,481_5N000LN,HLN,0,274,274,280,,,1.27,1597.054872,1597.357196,1597.373623,1597.657065,1597.675021,None,up,1.8822626,1597.675021,None,1597.675021,1598.939377,0.0993939,None,,,,,,,,,3,1,2019_Dec_20_1701,untitled,3.1.0,59.90545721
456,_5,N,315,R,N,456_5N315RN,HRN,0,275,275,279,,,1.306,1599.683085,1599.972234,1599.972234,1600.272323,1600.288444,None,up,1.8851378,1600.288444,None,1600.288444,1601.587293,0.1148561,None,,,,,,,,,3,1,2019_Dec_20_1701,untitled,3.1.0,59.90545721
_,F,M,90,_,_,_FM090__,N,0,276,276,2,,,0.808,1602.296927,1602.587157,1602.587157,1602.885935,1602.902594,None,down,1.8820673,1602.902594,None,1602.902594,1603.702008,0.1111194,None,,,,,,,,,3,1,2019_Dec_20_1701,untitled,3.1.0,59.90545721
136,F,N,315,R,N,136FN315RN,HRN,0,277,277,215,,,0.853,1604.888788,1605.199933,1605.216542,1605.500179,1605.517022,None,up,1.8845357,1605.517022,None,1605.517022,1606.349406,0.0953756,None,,,,,,,,,3,1,2019_Dec_20_1701,untitled,3.1.0,59.90545721
_,R,N,225,_,_,_RN225__,N,0,278,278,69,,,0.949,1607.515686,1607.814402,1607.831075,1608.114709,1608.131328,None,up,2.1498853,1608.131328,None,1608.131328,1609.063775,0.1032032,None,,,,,,,,,3,1,2019_Dec_20_1701,untitled,3.1.0,59.90545721
264,_2,N,315,R,N,264_2N315RN,HRN,0,279,279,247,,,0.963,1610.396173,1610.695127,1610.711596,1610.995381,1611.012359,None,down,1.9168367,1611.012359,None,1611.012359,1611.961919,0.1026178,None,,,,,,,,,3,1,2019_Dec_20_1701,untitled,3.1.0,59.90545721
41,R,M,0,L,N,041RM000LN,HLN,0,280,280,104,,,1.308,1613.043909,1613.343406,1613.359743,1613.644476,1613.660297,None,down,2.1489114,1613.660297,None,1613.660297,1614.958913,0.1031091,None,,,,,,,,,3,1,2019_Dec_20_1701,untitled,3.1.0,59.90545721
487,_5,N,270,L,N,487_5N270LN,HLN,0,281,281,286,,,1.136,1615.91811,1616.224074,1616.24035,1616.523734,1616.545055,None,up,2.112824,1616.545055,None,1616.545055,1617.656258,0.0986545,None,,,,,,,,,3,1,2019_Dec_20_1701,untitled,3.1.0,59.90545721
14,R,M,225,R,N,014RM225RN,HRN,0,282,282,101,,,0.93,1618.767794,1619.071419,1619.087848,1619.371439,1619.388047,None,down,2.4343311,1619.388047,None,1619.388047,1620.304097,0.0987903,None,,,,,,,,,3,1,2019_Dec_20_1701,untitled,3.1.0,59.90545721
_,F,N,225,_,_,_FN225__,N,0,283,283,53,,,0.753,1621.909461,1622.235481,1622.252111,1622.535563,1622.559403,None,up,1.5750179,1622.559403,None,1622.559403,1623.285694,0.0774022,None,,,,,,,,,3,1,2019_Dec_20_1701,untitled,3.1.0,59.90545721
257,_2,N,0,R,N,257_2N000RN,HRN,0,284,284,240,,,1.305,1624.217531,1624.550275,1624.56594,1624.850362,1624.866684,None,up,2.3834883,1624.866684,None,1624.866684,1626.149175,0.0745695,None,,,,,,,,,3,1,2019_Dec_20_1701,untitled,3.1.0,59.90545721
195,G,N,90,R,N,195GN090RN,HRN,0,285,285,226,,,0.951,1627.37239,1627.663404,1627.680328,1627.963919,1627.980725,None,down,1.8344239,1627.980725,None,1627.980725,1628.913224,0.1115246,None,,,,,,,,,3,1,2019_Dec_20_1701,untitled,3.1.0,59.90545721
8,R,N,315,R,N,008RN315RN,HRN,0,286,286,199,,,1.397,1629.930053,1630.228752,1630.244497,1630.528613,1630.545038,None,up,2.7832948,1630.545038,None,1630.545038,1631.927876,0.1036194,None,,,,,,,,,3,1,2019_Dec_20_1701,untitled,3.1.0,59.90545721
2,R,N,45,R,N,002RN045RN,HRN,0,287,287,193,,,1.246,1633.436999,1633.743066,1633.758778,1634.042022,1634.058766,None,up,2.0000876,1634.058766,None,1634.058766,1635.291653,0.097784,None,,,,,,,,,3,1,2019_Dec_20_1701,untitled,3.1.0,59.90545721
,,,,,,,,,,,,,,,,,,,,,,,,,,,,,1636.075132,None,1644.55104,None,1648.679578,None,1652.209989,None,,,,,,
