Number,Letter,type,Orientation,human,face_type,image,picture,trials.thisRepN,trials.thisTrialN,trials.thisN,trials.thisIndex,text.started,text.stopped,stimulus_duration,CROSS.started,CROSS.stopped,BLANK.started,BLANK.stopped,TEST.started,TEST.stopped,key_JUDGE.keys,key_JUDGE.started,key_JUDGE.stopped,image_2.started,image_2.stopped,ISI.started,ISI.stopped,key_JUDGE.rt,q1.started,q1.stopped,q2.started,q2.stopped,q3.started,q3.stopped,text_2.started,text_2.stopped,participant,session,date,expName,psychopyVersion,frameRate,
171,F,M,90,L,N,171FM090LN,HLN,0,0,0,122,800.7572444000398,None,1.2650000000000001,856.6171425000066,856.9608548000106,856.9608548000106,857.2605127000134,857.2605127000134,None,None,857.2605127000134,None,857.2605127000134,858.5259894000483,0.06730629998492077,None,,,,,,,,,,40,001,2019_Dec_25_1548,untitled,3.1.0,59.92994191560801,
_,_2,N,90,_,_,__2N090__,N,0,1,1,74,,,1.252,860.8594457000145,861.2071725000278,861.224252700049,861.5067572000553,861.5236443000031,860.8594457000145,up,861.5236443000031,None,861.5236443000031,862.7555927000358,0.06250860000727698,None,2.4659172000247054,,,,,,,,,40,001,2019_Dec_25_1548,untitled,3.1.0,59.92994191560801,
260,_2,N,135,R,N,260_2N135RN,HRN,0,2,2,243,,,1.083,864.0653070000117,864.4042801000178,864.4209241000353,864.7040450000204,864.720718800032,None,down,864.720718800032,None,864.720718800032,865.7860750000109,0.06864379998296499,None,2.149548799963668,,,,,,,,,40,001,2019_Dec_25_1548,untitled,3.1.0,59.92994191560801,
203,G,M,90,R,N,203GM090RN,HRN,0,3,3,130,,,0.843,866.9411969000357,867.2851644000039,867.3025233000517,867.5852394000394,867.6013217000291,None,down,867.6013217000291,None,867.6013217000291,868.4342580000521,0.0640144000062719,None,2.2029143000254408,,,,,,,,,40,001,2019_Dec_25_1548,untitled,3.1.0,59.92994191560801,
_,_5,M,225,_,_,__5M225__,N,0,4,4,45,,,1.206,869.8925166000263,870.2154407000053,870.232255400042,870.5159822000423,870.5322998000192,None,up,870.5322998000192,None,870.5322998000192,871.7312747000251,0.0796940999571234,None,3.067291000043042,,,,,,,,,40,001,2019_Dec_25_1548,untitled,3.1.0,59.92994191560801,
298,_2,M,45,L,N,298_2M045LN,HLN,0,5,5,153,,,0.925,873.68278870004,874.0128541000304,874.0294076999999,874.3125588000403,874.3293676000321,None,down,874.3293676000321,None,874.3293676000321,875.2445252000471,0.07399200001964346,None,1.965233700000681,,,,,,,,,40,001,2019_Dec_25_1548,untitled,3.1.0,59.92994191560801,
492,_5,M,135,L,N,492_5M135LN,HLN,0,6,6,187,,,1.212,876.3798357000342,876.7099245000281,876.7268961000373,877.0099405000219,877.0266550000524,None,down,877.0266550000524,None,877.0266550000524,878.2261540000327,0.07525560003705323,None,2.635354800033383,,,,,,,,,40,001,2019_Dec_25_1548,untitled,3.1.0,59.92994191560801,
042,R,M,45,L,N,042RM045LN,HLN,0,7,7,105,,,0.929,879.7380828000023,880.0746220000437,880.0910623000236,880.3733340000035,880.3900181000354,None,down,880.3900181000354,None,880.3900181000354,881.3060647000093,0.06863629998406395,None,2.517625799984671,,,,,,,,,40,001,2019_Dec_25_1548,untitled,3.1.0,59.92994191560801,
385,_4,N,0,R,N,385_4N000RN,HRN,0,8,8,256,,,0.802,883.0007573000039,883.3207555999979,883.3376226000255,883.620642599999,883.6375606000074,None,up,883.6375606000074,None,883.6375606000074,884.4201236000517,0.082661000022199,None,3.1499258000403643,,,,,,,,,40,001,2019_Dec_25_1548,untitled,3.1.0,59.92994191560801,
294,_2,N,225,L,N,294_2N225LN,HLN,0,9,9,253,,,1.159,886.8718272999977,887.201417000033,887.2180523000425,887.5009646000108,887.5173328000237,None,up,887.5173328000237,None,887.5173328000237,888.6670316000236,0.07563119998667389,None,3.4140970000298694,,,,,,,,,40,001,2019_Dec_25_1548,untitled,3.1.0,59.92994191560801,
205,G,M,180,R,N,205GM180RN,HRN,0,10,10,132,,,0.77,890.9986366000376,891.346915800008,891.3642761000083,891.6476368000149,891.664371300023,None,down,891.664371300023,None,891.664371300023,892.4132996000117,0.060324100020807236,None,2.9326015999540687,,,,,,,,,40,001,2019_Dec_25_1548,untitled,3.1.0,59.92994191560801,
196,G,N,135,R,N,196GN135RN,HRN,0,11,11,227,,,1.189,894.6755067000049,895.0109156000544,895.0272886000457,895.3105689000222,895.3287902000011,None,down,895.3287902000011,None,895.3287902000011,896.5094087000471,0.06930570001713932,None,2.800688599993009,,,,,,,,,40,001,2019_Dec_25_1548,untitled,3.1.0,59.92994191560801,
_,_5,N,135,_,_,__5N135__,N,0,12,12,91,,,1.026,898.227012700052,898.5410801000544,898.5577980000526,898.8409078000113,898.8576515000314,None,None,898.8576515000314,None,898.8576515000314,899.8729170000297,0.08678069995949045,None,,,,,,,,,,40,001,2019_Dec_25_1548,untitled,3.1.0,59.92994191560801,
207,G,M,270,R,N,207GM270RN,HRN,0,13,13,134,,,1.2770000000000001,902.4043921999983,902.7541898000054,902.7706347000203,903.0538629000075,903.0703719000448,902.4043921999983,down,903.0703719000448,None,903.0703719000448,904.3363925000303,0.059033700032159686,None,2.7002514000050724,,,,,,,,,40,001,2019_Dec_25_1548,untitled,3.1.0,59.92994191560801,
_,F,N,90,_,_,_FN090__,N,0,14,14,50,,,0.733,905.8711858000024,906.1850134000415,906.2013642000384,906.4843031000346,906.501372800034,None,down,906.501372800034,None,906.501372800034,907.2163302000263,0.09026709996396676,None,2.3320646000211127,,,,,,,,,40,001,2019_Dec_25_1548,untitled,3.1.0,59.92994191560801,
432,_4,M,315,L,N,432_4M315LN,HLN,0,15,15,175,,,0.896,908.9186660000123,909.248219400004,909.265389600012,909.5484352000058,909.5645845000399,None,down,909.5645845000399,None,909.5645845000399,910.447062500054,0.07631640002364293,None,3.430724200035911,,,,,,,,,40,001,2019_Dec_25_1548,untitled,3.1.0,59.92994191560801,
430,_4,M,225,L,N,430_4M225LN,HLN,0,16,16,173,,,1.391,913.0746091000037,913.4114755000337,913.4281742000021,913.7113128000055,913.7278452000464,None,down,913.7278452000464,None,913.7278452000464,915.0935000000172,0.07081930001731962,None,3.1310673999832943,,,,,,,,,40,001,2019_Dec_25_1548,untitled,3.1.0,59.92994191560801,
396,_4,M,135,R,N,396_4M135RN,HRN,0,17,17,163,,,1.393,916.9393461000291,917.2755119000212,917.2915351000265,917.5753270999994,917.5914155000355,None,down,917.5914155000355,None,917.5914155000355,918.9735703000333,0.07251450000330806,None,2.964810200035572,,,,,,,,,40,001,2019_Dec_25_1548,untitled,3.1.0,59.92994191560801,
165,F,N,180,L,N,165FN180LN,HLN,0,18,18,220,,,1.397,920.6307055000216,920.9721580000478,920.9883891000063,921.2721731000347,921.2880314000067,None,down,921.2880314000067,None,921.2880314000067,922.6701622000546,0.06640009995317087,None,2.864717299991753,,,,,,,,,40,001,2019_Dec_25_1548,untitled,3.1.0,59.92994191560801,
423,_4,N,270,L,N,423_4N270LN,HLN,0,19,19,270,,,1.08,924.2208171000239,924.5685316000017,924.5850987000158,924.868351400015,924.8847822000389,None,None,924.8847822000389,None,924.8847822000389,925.9501009000232,0.06064189999597147,None,,,,,,,,,,40,001,2019_Dec_25_1548,untitled,3.1.0,59.92994191560801,
048,R,M,315,L,N,048RM315LN,HLN,0,20,20,111,,,0.8200000000000001,928.4142847000039,928.7648194000358,928.781621400034,929.0662082000053,929.0813239000272,928.4142847000039,down,929.0813239000272,None,929.0813239000272,929.8806124000112,0.05775759997777641,None,2.815865800017491,,,,,,,,,40,001,2019_Dec_25_1548,untitled,3.1.0,59.92994191560801,
387,_4,N,90,R,N,387_4N090RN,HRN,0,21,21,258,,,1.325,931.9757934000227,932.3113476000144,932.328358400031,932.6115056000417,932.6286622000043,None,down,932.6286622000043,None,932.6286622000043,933.9433518000296,0.0701334000332281,None,2.7138754000188783,,,,,,,,,40,001,2019_Dec_25_1548,untitled,3.1.0,59.92994191560801,
_,G,M,270,_,_,_GM270__,N,0,22,22,14,,,1.1400000000000001,935.4352210000507,935.7587168000173,935.7751953999978,936.0586441000341,936.0751807000488,None,down,936.0751807000488,None,936.0751807000488,937.1917199000018,0.08570729999337345,None,2.4483179000089876,,,,,,,,,40,001,2019_Dec_25_1548,untitled,3.1.0,59.92994191560801,
200,G,N,315,R,N,200GN315RN,HRN,0,23,23,231,,,1.164,938.5966253000079,938.9396630999981,938.9567711999989,939.238845200045,939.2553769000224,None,up,939.2553769000224,None,939.2553769000224,940.4044028000208,0.06449349998729303,None,2.566296000033617,,,,,,,,,40,001,2019_Dec_25_1548,untitled,3.1.0,59.92994191560801,
_,R,N,270,_,_,_RN270__,N,0,24,24,70,,,1.0070000000000001,941.8977246000431,942.2367363000521,942.2529941000394,942.5357935000211,942.552923100011,None,down,942.552923100011,None,942.552923100011,943.5351213000249,0.06923210003878921,None,2.2342893999884836,,,,,,,,,40,001,2019_Dec_25_1548,untitled,3.1.0,59.92994191560801,
486,_5,N,225,L,N,486_5N225LN,HLN,0,25,25,285,,,1.026,944.872221800033,945.2006315000472,945.2172715000343,945.5010258000111,945.5197683000006,None,up,945.5197683000006,None,945.5197683000006,946.5320224000025,0.0760943999630399,None,2.8122972000273876,,,,,,,,,40,001,2019_Dec_25_1548,untitled,3.1.0,59.92994191560801,
_,_2,M,315,_,_,__2M315__,N,0,26,26,31,,,0.774,948.3990325000486,948.7468894000049,948.7642655000091,949.0475637000054,949.0640508000506,None,down,949.0640508000506,None,949.0640508000506,949.813268500031,0.059614499972667545,None,2.416271499998402,,,,,,,,,40,001,2019_Dec_25_1548,untitled,3.1.0,59.92994191560801,
300,_2,M,135,L,N,300_2M135LN,HLN,0,27,27,155,,,1.034,951.5745017000008,951.8958463000017,951.9122206000029,952.1951447000029,952.2109086000128,None,down,952.2109086000128,None,952.2109086000128,953.2264587000245,0.0824987999512814,None,2.166527099965606,,,,,,,,,40,001,2019_Dec_25_1548,untitled,3.1.0,59.92994191560801,
173,F,M,180,L,N,173FM180LN,HLN,0,28,28,124,,,1.286,954.4491453000228,954.7925632999977,954.8086464000517,955.0930946000153,955.108732200053,None,down,955.108732200053,None,955.108732200053,956.3740078000119,0.06466530001489446,None,2.834169899986591,,,,,,,,,40,001,2019_Dec_25_1548,untitled,3.1.0,59.92994191560801,
047,R,M,270,L,N,047RM270LN,HLN,0,29,29,110,,,0.843,958.037754900055,958.3554944000207,958.3724346000236,958.6551576000056,958.672487200005,None,down,958.672487200005,None,958.672487200005,959.5044567000004,0.08474269998259842,None,2.930838100030087,,,,,,,,,40,001,2019_Dec_25_1548,untitled,3.1.0,59.92994191560801,
175,F,M,270,L,N,175FM270LN,HLN,0,30,30,126,,,1.2630000000000001,961.6736367000267,962.0190720000537,962.0357184000313,962.3185518000391,962.3353176000528,None,down,962.3353176000528,None,962.3353176000528,963.5844373000436,0.06365699996240437,None,3.0985190999927,,,,,,,,,40,001,2019_Dec_25_1548,untitled,3.1.0,59.92994191560801,
400,_4,M,315,R,N,400_4M315RN,HRN,0,31,31,167,,,0.987,965.5139096000348,965.8489899000269,965.866481700039,966.1488741000067,966.1654230999993,None,down,966.1654230999993,None,966.1654230999993,967.1311089000083,0.07098000001860783,None,2.2008496999624185,,,,,,,,,40,001,2019_Dec_25_1548,untitled,3.1.0,59.92994191560801,
202,G,M,45,R,N,202GM045RN,HRN,0,32,32,129,,,1.326,968.4441171000362,968.7801515000174,968.7971077000257,969.0798634000239,969.0969325000187,None,down,969.0969325000187,None,969.0969325000187,970.4117591000395,0.06958190002478659,None,3.349261600000318,,,,,,,,,40,001,2019_Dec_25_1548,untitled,3.1.0,59.92994191560801,
198,G,N,225,R,N,198GN225RN,HRN,0,33,33,229,,,0.9510000000000001,972.514715199999,972.8595572000486,972.8764888000442,973.1594424000359,973.1766655000392,None,up,973.1766655000392,None,973.1766655000392,974.1085244000424,0.06056220002938062,None,1.8814578999881633,,,,,,,,,40,001,2019_Dec_25_1548,untitled,3.1.0,59.92994191560801,
427,_4,M,90,L,N,427_4M090LN,HLN,0,34,34,170,,,0.875,975.1258172000526,975.4744262000313,975.4914079000009,975.7741391000454,975.7910625000368,None,down,975.7910625000368,None,975.7910625000368,976.6389487000415,0.060596700001042336,None,2.081865799962543,,,,,,,,,40,001,2019_Dec_25_1548,untitled,3.1.0,59.92994191560801,
_,R,M,180,_,_,_RM180__,N,0,35,35,20,,,1.225,977.9441262000473,978.2885213000118,978.3045800000546,978.5880006000516,978.6055017000181,None,down,978.6055017000181,None,978.6055017000181,979.8200097000226,0.06414830003632233,None,3.2466297000064515,,,,,,,,,40,001,2019_Dec_25_1548,untitled,3.1.0,59.92994191560801,
169,F,M,0,L,N,169FM000LN,HLN,0,36,36,120,,,1.395,981.9223223000299,982.2682303000474,982.2868645000271,982.5684310000506,982.5844385000528,None,down,982.5844385000528,None,982.5844385000528,983.9664561000536,0.06318679999094456,None,2.531426300003659,,,,,,,,,40,001,2019_Dec_25_1548,untitled,3.1.0,59.92994191560801,
_,R,N,0,_,_,_RN000__,N,0,37,37,64,,,1.054,985.1895506000146,985.5322458000155,985.5489089000039,985.8320211000391,985.8485223000171,None,up,985.8485223000171,None,985.8485223000171,986.8814988000086,0.0666458000196144,None,2.0987942999927327,,,,,,,,,40,001,2019_Dec_25_1548,untitled,3.1.0,59.92994191560801,
_,_5,M,90,_,_,__5M090__,N,0,38,38,42,,,1.103,988.0329429000267,988.3631430000532,988.3801929000183,988.6623263000511,988.6791719000321,None,down,988.6791719000321,None,988.6791719000321,989.7615600000136,0.07705879997229204,None,3.0977557000005618,,,,,,,,,40,001,2019_Dec_25_1548,untitled,3.1.0,59.92994191560801,
290,_2,N,45,L,N,290_2N045LN,HLN,0,39,39,249,,,1.052,991.8638829000411,992.192655300023,992.2091295000282,992.4929428000469,992.5096272000228,None,up,992.5096272000228,None,992.5096272000228,993.5420028000372,0.07993550004903227,None,2.331049299973529,,,,,,,,,40,001,2019_Dec_25_1548,untitled,3.1.0,59.92994191560801,
_,F,N,270,_,_,_FN270__,N,0,40,40,54,,,1.057,994.9137099000509,995.2563162000151,995.2740847000387,995.5563895000378,995.5731610000366,None,down,995.5731610000366,None,995.5731610000366,996.6056115000392,0.06643319997237995,None,2.4662785999826156,,,,,,,,,40,001,2019_Dec_25_1548,untitled,3.1.0,59.92994191560801,
236,G,M,135,L,N,236GM135LN,HLN,0,41,41,139,,,0.806,998.1117303000065,998.4541083000368,998.4706725000287,998.7535591000342,998.7705123000196,None,down,998.7705123000196,None,998.7705123000196,999.5527096000151,0.06530270003713667,None,3.231076700030826,,,,,,,,,40,001,2019_Dec_25_1548,untitled,3.1.0,59.92994191560801,
454,_5,N,225,R,N,454_5N225RN,HRN,0,42,42,277,,,1.387,1002.0866808000137,1002.4172887000022,1002.4340140999993,1002.7177885000128,1002.7350729000173,None,up,1002.7350729000173,None,1002.7350729000173,1004.0989166000509,0.0776847000233829,None,2.331226099980995,,,,,,,,,40,001,2019_Dec_25_1548,untitled,3.1.0,59.92994191560801,
388,_4,N,135,R,N,388_4N135RN,HRN,0,43,43,259,,,1.1480000000000001,1005.1407435000292,1005.480722200009,1005.4977710000239,1005.7805560000124,1005.7978760999977,None,None,1005.7978760999977,None,1005.7978760999977,1006.9290907000541,0.06638660002499819,None,,,,,,,,,,40,001,2019_Dec_25_1548,untitled,3.1.0,59.92994191560801,
_,G,M,0,_,_,_GM000__,N,0,44,44,8,,,1.372,1009.3408426000387,1009.6776834000484,1009.6961572000291,1009.9780485000229,1009.9946849000407,1009.3408426000387,down,1009.9946849000407,None,1009.9946849000407,1011.3428266000119,0.07109670003410429,None,2.7664875999907963,,,,,,,,,40,001,2019_Dec_25_1548,untitled,3.1.0,59.92994191560801,
_,G,N,270,_,_,_GN270__,N,0,45,45,62,,,0.965,1012.8350504000555,1013.174922300037,1013.1918793000514,1013.4746432000538,1013.4929828000022,None,up,1013.4929828000022,None,1013.4929828000022,1014.4399341000244,0.06710789998760447,None,1.9483798999572173,,,,,,,,,40,001,2019_Dec_25_1548,untitled,3.1.0,59.92994191560801,
429,_4,M,180,L,N,429_4M180LN,HLN,0,46,46,172,,,0.8290000000000001,1015.5211792000337,1015.8554539000033,1015.8724245000049,1016.1553243000526,1016.172189600009,None,None,1016.172189600009,None,1016.172189600009,1016.9875742000295,0.07057500001974404,None,,,,,,,,,,40,001,2019_Dec_25_1548,untitled,3.1.0,59.92994191560801,
139,F,M,90,R,N,139FM090RN,HRN,0,47,47,114,,,1.05,1019.733856900013,1020.051842600049,1020.0693105000537,1020.352106300008,1020.3683774000383,1019.733856900013,down,1020.3683774000383,None,1020.3683774000383,1021.400907400006,0.08572580001782626,None,2.331659200019203,,,,,,,,,40,001,2019_Dec_25_1548,untitled,3.1.0,59.92994191560801,
_,_5,N,315,_,_,__5N315__,N,0,48,48,95,,,0.9580000000000001,1022.775320500019,1023.1165897000465,1023.1333541000495,1023.4159789000405,1023.432138800039,None,up,1023.432138800039,None,1023.432138800039,1024.3824745000456,0.06681280001066625,None,3.0816829000250436,,,,,,,,,40,001,2019_Dec_25_1548,untitled,3.1.0,59.92994191560801,
041,R,M,0,L,N,041RM000LN,HLN,0,49,49,104,,,0.743,1026.5958974000532,1026.9294964,1026.9464104000363,1027.2296389000257,1027.2463118000305,None,down,1027.2463118000305,None,1027.2463118000305,1027.9781014000182,0.074233399995137,None,1.715061200025957,,,,,,,,,40,001,2019_Dec_25_1548,untitled,3.1.0,59.92994191560801,
_,_4,M,225,_,_,__4M225__,N,0,50,50,37,,,0.971,1029.0470774000278,1029.3775377999991,1029.3941266000038,1029.677370600053,1029.694203799998,None,down,1029.694203799998,None,1029.694203799998,1030.642827100004,0.07726130000082776,None,2.2488542000064626,,,,,,,,,40,001,2019_Dec_25_1548,untitled,3.1.0,59.92994191560801,
389,_4,N,180,R,N,389_4N180RN,HRN,0,51,51,260,,,1.1460000000000001,1032.0191356000141,1032.35778760002,1032.3743201000034,1032.6582398000173,1032.6743401000276,None,down,1032.6743401000276,None,1032.6743401000276,1033.8063685000525,0.06892739998875186,None,2.5830655000172555,,,,,,,,,40,001,2019_Dec_25_1548,untitled,3.1.0,59.92994191560801,
237,G,M,180,L,N,237GM180LN,HLN,0,52,52,140,,,0.896,1035.330671100004,1035.6718407000299,1035.6887786000152,1035.9718124000356,1035.988358100003,None,down,1035.988358100003,None,1035.988358100003,1036.8715700000175,0.06604879995575175,None,2.7849467000341974,,,,,,,,,40,001,2019_Dec_25_1548,untitled,3.1.0,59.92994191560801,
451,_5,N,90,R,N,451_5N090RN,HRN,0,53,53,274,,,1.035,1038.868104000052,1039.1854762000148,1039.202279500023,1039.485098300036,1039.5014127000468,None,down,1039.5014127000468,None,1039.5014127000468,1040.5180028000032,0.08376149996183813,None,3.051789999997709,,,,,,,,,40,001,2019_Dec_25_1548,untitled,3.1.0,59.92994191560801,
_,_2,N,315,_,_,__2N315__,N,0,54,54,79,,,0.756,1042.6590243000537,1042.9652624000446,1042.9817500000354,1043.2647560000187,1043.281507000036,None,None,1043.281507000036,None,1043.281507000036,1044.031223900034,0.09332720004022121,None,,,,,,,,,,40,001,2019_Dec_25_1548,untitled,3.1.0,59.92994191560801,
130,F,N,45,R,N,130FN045RN,HRN,0,55,55,209,,,0.9540000000000001,1046.8359629000188,1047.1780717000365,1047.194976400002,1047.4779608000536,1047.4945303000277,1046.8359629000188,up,1047.4945303000277,None,1047.4945303000277,1048.4273723000078,0.06732510001165792,None,2.9667160999961197,,,,,,,,,40,001,2019_Dec_25_1548,untitled,3.1.0,59.92994191560801,
483,_5,N,90,L,N,483_5N090LN,HLN,0,56,56,282,,,0.81,1050.5490214000456,1050.8751347000361,1050.8916528000263,1051.1751981000416,1051.191800700035,None,up,1051.191800700035,None,1051.191800700035,1051.9920725000557,0.07951160002266988,None,2.000570299976971,,,,,,,,,40,001,2019_Dec_25_1548,untitled,3.1.0,59.92994191560801,
_,R,N,225,_,_,_RN225__,N,0,57,57,69,,,1.239,1053.279467400047,1053.6065146000474,1053.6228987000068,1053.905551200034,1053.9222606000258,None,up,1053.9222606000258,None,1053.9222606000258,1055.155060900026,0.0786460000090301,None,2.414741899992805,,,,,,,,,40,001,2019_Dec_25_1548,untitled,3.1.0,59.92994191560801,
129,F,N,0,R,N,129FN000RN,HRN,0,58,58,208,,,1.2,1056.4055863000103,1056.753650400031,1056.7704868,1057.0530651000445,1057.0703620000277,None,up,1057.0703620000277,None,1057.0703620000277,1058.2517465000274,0.06133120000595227,None,2.1142524000024423,,,,,,,,,40,001,2019_Dec_25_1548,untitled,3.1.0,59.92994191560801,
455,_5,N,270,R,N,455_5N270RN,HRN,0,59,59,278,,,0.8200000000000001,1059.2531333000516,1059.600654400012,1059.6180526000098,1059.9011475000298,1059.9173598000198,None,up,1059.9173598000198,None,1059.9173598000198,1060.7165157000418,0.061348300019744784,None,1.6504191999556497,,,,,,,,,40,001,2019_Dec_25_1548,untitled,3.1.0,59.92994191560801,
143,F,M,270,R,N,143FM270RN,HRN,0,60,60,118,,,0.786,1061.6343501000083,1061.9816839999985,1061.9986446000403,1062.2819372000522,1062.2987938000006,None,down,1062.2987938000006,None,1062.2987938000006,1063.064297600009,0.05882859998382628,None,1.767785400035791,,,,,,,,,40,001,2019_Dec_25_1548,untitled,3.1.0,59.92994191560801,
208,G,M,315,R,N,208GM315RN,HRN,0,61,61,135,,,0.794,1064.1461292000022,1064.4797669000109,1064.4967747000046,1064.7797725000419,1064.796313400031,None,down,1064.796313400031,None,1064.796313400031,1065.5790202000062,0.07076860003871843,None,1.8840393000282347,,,,,,,,,40,001,2019_Dec_25_1548,untitled,3.1.0,59.92994191560801,
450,_5,N,45,R,N,450_5N045RN,HRN,0,62,62,273,,,0.887,1066.7630603000289,1067.0952611000394,1067.1133231000276,1067.395525800006,1067.4139045000193,None,up,1067.4139045000193,None,1067.4139045000193,1068.276430900034,0.0739877000451088,None,3.0132613999885507,,,,,,,,,40,001,2019_Dec_25_1548,untitled,3.1.0,59.92994191560801,
268,_2,M,135,R,N,268_2M135RN,HRN,0,63,63,147,,,1.177,1070.496439200011,1070.8412772000302,1070.8580540000112,1071.1413353000535,1071.1574808000005,None,down,1071.1574808000005,None,1071.1574808000005,1072.3230140000232,0.0617365000071004,None,2.549454399966635,,,,,,,,,40,001,2019_Dec_25_1548,untitled,3.1.0,59.92994191560801,
456,_5,N,315,R,N,456_5N315RN,HRN,0,64,64,279,,,1.339,1073.7807416000287,1074.1218917000224,1074.1384921999997,1074.4218492000364,1074.4385471999994,None,up,1074.4385471999994,None,1074.4385471999994,1075.7535410000128,0.0668001999729313,None,2.6805703999707475,,,,,,,,,40,001,2019_Dec_25_1548,untitled,3.1.0,59.92994191560801,
011,R,M,90,R,N,011RM090RN,HRN,0,65,65,98,,,1.391,1077.1912504000356,1077.5350130000152,1077.5515430000378,1077.8347317000153,1077.8515363000333,None,down,1077.8515363000333,None,1077.8515363000333,1079.2172137000016,0.0654981000116095,None,2.700070799968671,,,,,,,,,40,001,2019_Dec_25_1548,untitled,3.1.0,59.92994191560801,
_,_4,N,315,_,_,__4N315__,N,0,66,66,87,,,0.9410000000000001,1080.6311023000162,1080.9655799000175,1080.9820518000051,1081.2656117000151,1081.2822248000302,None,down,1081.2822248000302,None,1081.2822248000302,1082.214249200013,0.07073139998828992,None,2.215482300030999,,,,,,,,,40,001,2019_Dec_25_1548,untitled,3.1.0,59.92994191560801,
040,R,N,315,L,N,040RN315LN,HLN,0,67,67,207,,,0.963,1083.5798780000187,1083.9141651000245,1083.9298886000179,1084.2135043000453,1084.2299103999976,None,down,1084.2299103999976,None,1084.2299103999976,1085.1783537000301,0.07501520001096651,None,1.9656611999962479,,,,,,,,,40,001,2019_Dec_25_1548,untitled,3.1.0,59.92994191560801,
009,R,M,0,R,N,009RM000RN,HRN,0,68,68,96,,,0.9590000000000001,1086.2653428000049,1086.6106557000312,1086.6278460000176,1086.9108870000346,1086.928830400051,None,down,1086.928830400051,None,1086.928830400051,1087.8764434000477,0.06300800002645701,None,2.018012100015767,,,,,,,,,40,001,2019_Dec_25_1548,untitled,3.1.0,59.92994191560801,
421,_4,N,180,L,N,421_4N180LN,HLN,0,69,69,268,,,1.1300000000000001,1089.0527593000443,1089.3580559000256,1089.3748779000016,1089.6587319000391,1089.6752803000272,None,down,1089.6752803000272,None,1089.6752803000272,1090.7905664000427,0.09513039997546002,None,2.514958799991291,,,,,,,,,40,001,2019_Dec_25_1548,untitled,3.1.0,59.92994191560801,
232,G,N,315,L,N,232GN315LN,HLN,0,70,70,239,,,1.014,1092.2854816000327,1092.605877300026,1092.621961100027,1092.9051975000184,1092.9219079000177,None,up,1092.9219079000177,None,1092.9219079000177,1093.920793700032,0.08717329998034984,None,2.3508385999593884,,,,,,,,,40,001,2019_Dec_25_1548,untitled,3.1.0,59.92994191560801,
397,_4,M,180,R,N,397_4M180RN,HRN,0,71,71,164,,,1.101,1095.3670796000515,1095.6861116000218,1095.7025890000514,1095.985334600031,1096.001960500027,None,None,1096.001960500027,None,1096.001960500027,1097.0852245000424,0.08369930001208559,None,,,,,,,,,,40,001,2019_Dec_25_1548,untitled,3.1.0,59.92994191560801,
496,_5,M,315,L,N,496_5M315LN,HLN,0,72,72,191,,,0.742,1099.5460957000032,1099.8828406000393,1099.8988994000247,1100.1825102000148,1100.1988592999987,1099.5460957000032,down,1100.1988592999987,None,1100.1988592999987,1100.9144140999997,0.06938210001681,None,2.433430999983102,,,,,,,,,40,001,2019_Dec_25_1548,untitled,3.1.0,59.92994191560801,
_,_5,M,45,_,_,__5M045__,N,0,73,73,41,,,1.258,1102.7214300000342,1103.0464175000088,1103.0627791000297,1103.3469375999994,1103.3624627000536,None,None,1103.3624627000536,None,1103.3624627000536,1104.6116450000554,0.07948549999855459,None,,,,,,,,,,40,001,2019_Dec_25_1548,untitled,3.1.0,59.92994191560801,
161,F,N,0,L,N,161FN000LN,HLN,0,74,74,216,,,0.791,1106.9201624999987,1107.243645300041,1107.2597553000087,1107.5422153000254,1107.5591931000235,1106.9201624999987,up,1107.5591931000235,None,1107.5591931000235,1108.3250195000437,0.08484899997711182,None,1.7654890000121668,,,,,,,,,40,001,2019_Dec_25_1548,untitled,3.1.0,59.92994191560801,
035,R,N,90,L,N,035RN090LN,HLN,0,75,75,202,,,1.397,1109.3957568000187,1109.7405333000352,1109.7571754000382,1110.0400128000183,1110.0578752000001,None,up,1110.0578752000001,None,1110.0578752000001,1111.439166600001,0.06387190002715215,None,2.1483723999699578,,,,,,,,,40,001,2019_Dec_25_1548,untitled,3.1.0,59.92994191560801,
_,F,M,225,_,_,_FM225__,N,0,76,76,5,,,1.103,1112.28849180002,1112.6220140000223,1112.6387007000158,1112.9214969000313,1112.9374990000506,None,down,1112.9374990000506,None,1112.9374990000506,1114.0201004000264,0.07465550000779331,None,2.232317999994848,,,,,,,,,40,001,2019_Dec_25_1548,untitled,3.1.0,59.92994191560801,
230,G,N,225,L,N,230GN225LN,HLN,0,77,77,237,,,1.096,1115.2503365000011,1115.5860235000146,1115.6021107000415,1115.884767700045,1115.9020239000092,None,up,1115.9020239000092,None,1115.9020239000092,1116.9840905000456,0.07389310002326965,None,3.030856799974572,,,,,,,,,40,001,2019_Dec_25_1548,untitled,3.1.0,59.92994191560801,
240,G,M,315,L,N,240GM315LN,HLN,0,78,78,143,,,1.0010000000000001,1119.0206998000504,1119.3490352000226,1119.3655243000248,1119.648752500012,1119.6653563000145,None,down,1119.6653563000145,None,1119.6653563000145,1120.6476527000195,0.07979689998319373,None,2.8658877999987453,,,,,,,,,40,001,2019_Dec_25_1548,untitled,3.1.0,59.92994191560801,
014,R,M,225,R,N,014RM225RN,HRN,0,79,79,101,,,1.03,1122.6061192000052,1122.9457708000555,1122.9620813000365,1123.2459533000365,1123.262280600029,None,down,1123.262280600029,None,1123.262280600029,1124.278151400038,0.06774740002583712,None,2.116580600035377,,,,,,,,,40,001,2019_Dec_25_1548,untitled,3.1.0,59.92994191560801,
_,G,N,90,_,_,_GN090__,N,0,80,80,58,,,1.145,1125.4473801000277,1125.7929251000169,1125.8107574000023,1126.093134500028,1126.10940320004,None,up,1126.10940320004,None,1126.10940320004,1127.243101900036,0.06136019999394193,None,2.1841100999736227,,,,,,,,,40,001,2019_Dec_25_1548,untitled,3.1.0,59.92994191560801,
270,_2,M,225,R,N,270_2M225RN,HRN,0,81,81,149,,,1.161,1128.3680772000225,1128.7072168000159,1128.7238337000017,1129.007706000004,1129.0236972999992,None,down,1129.0236972999992,None,1129.0236972999992,1130.1727565000183,0.06722510000690818,None,2.201274299994111,,,,,,,,,40,001,2019_Dec_25_1548,untitled,3.1.0,59.92994191560801,
490,_5,M,45,L,N,490_5M045LN,HLN,0,82,82,185,,,0.913,1131.3103856000234,1131.6377819000045,1131.6553732000175,1131.9379031000426,1131.9545580000267,None,down,1131.9545580000267,None,1131.9545580000267,1132.8539272000198,0.07692599995061755,None,2.818188500008546,,,,,,,,,40,001,2019_Dec_25_1548,untitled,3.1.0,59.92994191560801,
395,_4,M,90,R,N,395_4M090RN,HRN,0,83,83,162,,,0.838,1134.8625962000224,1135.1846865000552,1135.2018556000548,1135.4846247000387,1135.5008446000284,None,up,1135.5008446000284,None,1135.5008446000284,1136.3339374000207,0.08009019994642586,None,2.3659044000087306,,,,,,,,,40,001,2019_Dec_25_1548,untitled,3.1.0,59.92994191560801,
398,_4,M,225,R,N,398_4M225RN,HRN,0,84,84,165,,,0.89,1137.9462941000238,1138.2825750000193,1138.2991859000176,1138.5817637,1138.598249200033,None,down,1138.598249200033,None,1138.598249200033,1139.464565100032,0.07206770003540441,None,2.017013599979691,,,,,,,,,40,001,2019_Dec_25_1548,untitled,3.1.0,59.92994191560801,
261,_2,N,180,R,N,261_2N180RN,HRN,0,85,85,244,,,1.168,1140.682571900019,1141.030052200018,1141.0464333000127,1141.3295006999979,1141.3471921000164,None,down,1141.3471921000164,None,1141.3471921000164,1142.4951649000286,0.06080930004827678,None,2.298971200012602,,,,,,,,,40,001,2019_Dec_25_1548,untitled,3.1.0,59.92994191560801,
_,_2,N,135,_,_,__2N135__,N,0,86,86,75,,,1.1460000000000001,1143.7175614000298,1144.0602190000354,1144.0771715000155,1144.3603593000444,1144.3770107000018,None,up,1144.3770107000018,None,1144.3770107000018,1145.5087908999994,0.0642941000405699,None,2.5347196999937296,,,,,,,,,40,001,2019_Dec_25_1548,untitled,3.1.0,59.92994191560801,
135,F,N,270,R,N,135FN270RN,HRN,0,87,87,214,,,1.141,1147.000662400038,1147.3245341000147,1147.3410338000394,1147.6241708000307,1147.6409470000071,None,up,1147.6409470000071,None,1147.6409470000071,1148.772966700024,0.07984369999030605,None,1.8348004999570549,,,,,,,,,40,001,2019_Dec_25_1548,untitled,3.1.0,59.92994191560801,
264,_2,N,315,R,N,264_2N315RN,HRN,0,88,88,247,,,1.35,1149.557847500022,1149.8889567000442,1149.9056682000519,1150.188450400019,1150.204785800015,None,None,1150.204785800015,None,1150.204785800015,1151.5372433000011,0.07269130001077428,None,,,,,,,,,,40,001,2019_Dec_25_1548,untitled,3.1.0,59.92994191560801,
485,_5,N,180,L,N,485_5N180LN,HLN,0,89,89,284,,,0.7000000000000001,1153.7443617000245,1154.0851254000445,1154.1020335000358,1154.3846157000517,1154.4014117000042,1153.7443617000245,up,1154.4014117000042,None,1154.4014117000042,1155.0839022000437,0.06636890000663698,None,1.8520590999978594,,,,,,,,,40,001,2019_Dec_25_1548,untitled,3.1.0,59.92994191560801,
234,G,M,45,L,N,234GM045LN,HLN,0,90,90,137,,,0.977,1156.3412806999986,1156.6668380000046,1156.6828183000325,1156.965805200045,1156.9826140000368,None,down,1156.9826140000368,None,1156.9826140000368,1157.9483832000406,0.07923210004810244,None,2.3171965000219643,,,,,,,,,40,001,2019_Dec_25_1548,untitled,3.1.0,59.92994191560801,
303,_2,M,270,L,N,303_2M270LN,HLN,0,91,91,158,,,1.165,1159.3903394000372,1159.7135377000086,1159.7301690000459,1160.0134908000473,1160.0294083000044,None,down,1160.0294083000044,None,1160.0294083000044,1161.1788729000255,0.0816313000395894,None,2.6168284000013955,,,,,,,,,40,001,2019_Dec_25_1548,untitled,3.1.0,59.92994191560801,
_,R,M,135,_,_,_RM135__,N,0,92,92,19,,,1.041,1162.7133878000313,1163.0609110000078,1163.077631000022,1163.360867600015,1163.3769502000068,None,down,1163.3769502000068,None,1163.3769502000068,1164.3927823000122,0.05970869999146089,None,2.036395100003574,,,,,,,,,40,001,2019_Dec_25_1548,untitled,3.1.0,59.92994191560801,
137,F,M,0,R,N,137FM000RN,HRN,0,93,93,112,,,1.375,1165.5098519000458,1165.8249566000304,1165.8420493000303,1166.1246549000498,1166.1408834000467,None,down,1166.1408834000467,None,1166.1408834000467,1167.506606400013,0.08561270002974197,None,2.566343499987852,,,,,,,,,40,001,2019_Dec_25_1548,untitled,3.1.0,59.92994191560801,
_,_4,N,45,_,_,__4N045__,N,0,94,94,81,,,1.172,1168.7810848000227,1169.122013300017,1169.13836360001,1169.421641300025,1169.4387147000525,None,up,1169.4387147000525,None,1169.4387147000525,1170.5874491000432,0.0667445000144653,None,2.515664500009734,,,,,,,,,40,001,2019_Dec_25_1548,untitled,3.1.0,59.92994191560801,
045,R,M,180,L,N,045RM180LN,HLN,0,95,95,108,,,0.913,1172.0457233000197,1172.3690919000073,1172.3857672000304,1172.6691803000285,1172.6853204000508,None,down,1172.6853204000508,None,1172.6853204000508,1173.5847303000046,0.08269959996687248,None,1.833750699996017,,,,,,,,,40,001,2019_Dec_25_1548,untitled,3.1.0,59.92994191560801,
008,R,N,315,R,N,008RN315RN,HRN,0,96,96,199,,,1.307,1174.5967743000365,1174.9334735000157,1174.9500295000034,1175.2330496000359,1175.2498010999989,None,up,1175.2498010999989,None,1175.2498010999989,1176.5319029000239,0.06695090001448989,None,2.333070199994836,,,,,,,,,40,001,2019_Dec_25_1548,untitled,3.1.0,59.92994191560801,
_,_4,N,135,_,_,__4N135__,N,0,97,97,83,,,0.919,1177.6537979000132,1177.9972084000474,1178.0142243000446,1178.297528300027,1178.314043600054,None,down,1178.314043600054,None,1178.314043600054,1179.2132461,0.06392400001641363,None,2.165027500013821,,,,,,,,,40,001,2019_Dec_25_1548,untitled,3.1.0,59.92994191560801,
292,_2,N,135,L,N,292_2N135LN,HLN,0,98,98,251,,,0.805,1180.5458640000434,1180.8950082000229,1180.911743100034,1181.1946961000212,1181.2114567000535,None,up,1181.2114567000535,None,1181.2114567000535,1181.9944422000553,0.059697599965147674,None,1.6345812000217848,,,,,,,,,40,001,2019_Dec_25_1548,untitled,3.1.0,59.92994191560801,
_,F,N,0,_,_,_FN000__,N,0,99,99,48,,,0.8290000000000001,1182.9277545000077,1183.2607722000103,1183.2771147000021,1183.5598132000305,1183.5759655000293,None,up,1183.5759655000293,None,1183.5759655000293,1184.392023500055,0.07462639996083453,None,1.6176425000303425,,,,,,,,,40,001,2019_Dec_25_1548,untitled,3.1.0,59.92994191560801,
426,_4,M,45,L,N,426_4M045LN,HLN,0,100,100,169,,,1.031,1185.2634045000304,1185.6077576000243,1185.624552000023,1185.9074430000037,1185.9239431000315,None,down,1185.9239431000315,None,1185.9239431000315,1186.9400774000096,0.06315349997021258,None,1.9161996000329964,,,,,,,,,40,001,2019_Dec_25_1548,untitled,3.1.0,59.92994191560801,
_,F,N,180,_,_,_FN180__,N,0,101,101,52,,,0.8220000000000001,1187.9059907000046,1188.2551761000068,1188.2720558000146,1188.5549272000208,1188.5716718000476,None,up,1188.5716718000476,None,1188.5716718000476,1189.3709915000363,0.05866109998896718,None,2.4006202000309713,,,,,,,,,40,001,2019_Dec_25_1548,untitled,3.1.0,59.92994191560801,
482,_5,N,45,L,N,482_5N045LN,HLN,0,102,102,281,,,1.022,1191.05606610002,1191.3862602000008,1191.4028212000267,1191.6862957000267,1191.7044496000162,None,up,1191.7044496000162,None,1191.7044496000162,1192.7180831000442,0.07522190001327544,None,2.0134003999992274,,,,,,,,,40,001,2019_Dec_25_1548,untitled,3.1.0,59.92994191560801,
194,G,N,45,R,N,194GN045RN,HRN,0,103,103,225,,,0.842,1193.8030795000377,1194.134176200023,1194.1504674000316,1194.4332434000098,1194.4501464000205,None,up,1194.4501464000205,None,1194.4501464000205,1195.2833101000288,0.07409290003124624,None,1.9018333000130951,,,,,,,,,40,001,2019_Dec_25_1548,untitled,3.1.0,59.92994191560801,
299,_2,M,90,L,N,299_2M090LN,HLN,0,104,104,154,,,1.2590000000000001,1196.4407877000049,1196.7648046000395,1196.7819921000046,1197.0638093000161,1197.0811216000002,None,down,1197.0811216000002,None,1197.0811216000002,1198.3299082000158,0.07907440001145005,None,2.2163642999948934,,,,,,,,,40,001,2019_Dec_25_1548,untitled,3.1.0,59.92994191560801,
_,R,N,90,_,_,_RN090__,N,0,105,105,66,,,0.968,1199.3728691000142,1199.7119990000501,1199.7285855000373,1200.0121208000346,1200.0285192000447,None,up,1200.0285192000447,None,1200.0285192000447,1200.9780776000116,0.06858909997390583,None,1.5327427999582142,,,,,,,,,40,001,2019_Dec_25_1548,untitled,3.1.0,59.92994191560801,
_,_4,N,90,_,_,__4N090__,N,0,106,106,82,,,1.122,1201.6322810000274,1201.9768261000281,1201.9934409999987,1202.276602900005,1202.2936286000186,None,up,1202.2936286000186,None,1202.2936286000186,1203.391820800025,0.06423600000562146,None,2.148942400002852,,,,,,,,,40,001,2019_Dec_25_1548,untitled,3.1.0,59.92994191560801,
_,F,M,45,_,_,_FM045__,N,0,107,107,1,,,0.725,1204.517433800036,1204.8576606000424,1204.8742293000105,1205.1575492999982,1205.173840500007,None,down,1205.173840500007,None,1205.173840500007,1205.8732908000238,0.06740600004559383,None,1.550243900041096,,,,,,,,,40,001,2019_Dec_25_1548,untitled,3.1.0,59.92994191560801,
228,G,N,135,L,N,228GN135LN,HLN,0,108,108,235,,,0.78,1206.7917683999985,1207.1391316000372,1207.156020800001,1207.4391633000341,1207.455198700016,None,up,1207.455198700016,None,1207.455198700016,1208.221903800033,0.0609485000022687,None,1.9834374000201933,,,,,,,,,40,001,2019_Dec_25_1548,untitled,3.1.0,59.92994191560801,
144,F,M,315,R,N,144FM315RN,HRN,0,109,109,119,,,1.073,1209.5192568000057,1209.8532873000368,1209.8710245000548,1210.1531277000322,1210.1697112000547,None,down,1210.1697112000547,None,1210.1697112000547,1211.2353518000455,0.07133160001831129,None,1.8668797999853268,,,,,,,,,40,001,2019_Dec_25_1548,untitled,3.1.0,59.92994191560801,
193,G,N,0,R,N,193GN000RN,HRN,0,110,110,224,,,1.191,1212.131954600045,1212.450637800037,1212.4677229000372,1212.7508172000526,1212.7675646000425,None,up,1212.7675646000425,None,1212.7675646000425,1213.9500562000321,0.086595100001432,None,1.966174500004854,,,,,,,,,40,001,2019_Dec_25_1548,untitled,3.1.0,59.92994191560801,
420,_4,N,135,L,N,420_4N135LN,HLN,0,111,111,267,,,1.201,1214.822702000034,1215.1484212000505,1215.1651180000044,1215.4477715000394,1215.4667682000436,None,down,1215.4667682000436,None,1215.4667682000436,1216.6472845000098,0.08089069998823106,None,1.9315642000292428,,,,,,,,,40,001,2019_Dec_25_1548,untitled,3.1.0,59.92994191560801,
166,F,N,225,L,N,166FN225LN,HLN,0,112,112,221,,,1.088,1217.4963956000283,1217.8133761000354,1217.830127400055,1218.112489800027,1218.130008200009,None,up,1218.130008200009,None,1218.130008200009,1219.195760200033,0.08769730001222342,None,2.5650152000016533,,,,,,,,,40,001,2019_Dec_25_1548,untitled,3.1.0,59.92994191560801,
390,_4,N,225,R,N,390_4N225RN,HRN,0,113,113,261,,,1.103,1220.778211100027,1221.1103477000142,1221.1270363000222,1221.4100036000018,1221.4263362000347,None,up,1221.4263362000347,None,1221.4263362000347,1222.5097090000054,0.07407670002430677,None,2.3652717000222765,,,,,,,,,40,001,2019_Dec_25_1548,untitled,3.1.0,59.92994191560801,
424,_4,N,315,L,N,424_4N315LN,HLN,0,114,114,271,,,1.064,1223.867717200017,1224.20714090002,1224.2240571000148,1224.5071849000524,1224.5247504000436,None,up,1224.5247504000436,None,1224.5247504000436,1225.5727023000363,0.06758899998385459,None,2.097438000026159,,,,,,,,,40,001,2019_Dec_25_1548,untitled,3.1.0,59.92994191560801,
_,_2,M,0,_,_,__2M000__,N,0,115,115,24,,,1.3960000000000001,1226.6876319000148,1227.0385112000513,1227.0549070000416,1227.338986900053,1227.3552110000164,None,down,1227.3552110000164,None,1227.3552110000164,1228.736710200028,0.05854729999555275,None,2.73067760001868,,,,,,,,,40,001,2019_Dec_25_1548,untitled,3.1.0,59.92994191560801,
431,_4,M,270,L,N,431_4M270LN,HLN,0,116,116,174,,,0.743,1230.1668426000397,1230.5014389000135,1230.5182958000223,1230.8024082000484,1230.818981700053,None,down,1230.818981700053,None,1230.818981700053,1231.5508924000314,0.07296379999024794,None,2.4341463999589905,,,,,,,,,40,001,2019_Dec_25_1548,untitled,3.1.0,59.92994191560801,
_,G,M,90,_,_,_GM090__,N,0,117,117,10,,,1.027,1233.3495984000037,1233.6660357000073,1233.683040300035,1233.9653250999982,1233.9820082000224,None,down,1233.9820082000224,None,1233.9820082000224,1234.9989105000277,0.08545130002312362,None,3.215466799971182,,,,,,,,,40,001,2019_Dec_25_1548,untitled,3.1.0,59.92994191560801,
_,_4,M,0,_,_,__4M000__,N,0,118,118,32,,,0.8310000000000001,1237.2757506000344,1237.6124088000506,1237.6293245000415,1237.9122477000346,1237.929002400022,None,down,1237.929002400022,None,1237.929002400022,1238.7444931000355,0.06964170001447201,None,2.1849815000314265,,,,,,,,,40,001,2019_Dec_25_1548,untitled,3.1.0,59.92994191560801,
_,G,N,45,_,_,_GN045__,N,0,119,119,57,,,0.754,1240.180516100023,1240.5274304000195,1240.5430969000445,1240.8262721000356,1240.842995700019,None,up,1240.842995700019,None,1240.842995700019,1241.576292200014,0.05926730000646785,None,1.6656976999947801,,,,,,,,,40,001,2019_Dec_25_1548,untitled,3.1.0,59.92994191560801,
227,G,N,90,L,N,227GN090LN,HLN,0,120,120,234,,,0.812,1242.588793300034,1242.924583600019,1242.9412133000442,1243.2250282000168,1243.2408445000183,None,up,1243.2408445000183,None,1243.2408445000183,1244.0408523000078,0.07134429999860004,None,1.4845110000460409,,,,,,,,,40,001,2019_Dec_25_1548,untitled,3.1.0,59.92994191560801,
494,_5,M,225,L,N,494_5M225LN,HLN,0,121,121,189,,,1.102,1244.798619600013,1245.1390423999983,1245.1557689000037,1245.438673000026,1245.4552992000245,None,down,1245.4552992000245,None,1245.4552992000245,1246.538721400022,0.06565870001213625,None,1.8991038000094704,,,,,,,,,40,001,2019_Dec_25_1548,untitled,3.1.0,59.92994191560801,
140,F,M,135,R,N,140FM135RN,HRN,0,122,122,115,,,1.318,1247.4306253000395,1247.7707133000367,1247.7870966000482,1248.070376800024,1248.0869329000125,None,down,1248.0869329000125,None,1248.0869329000125,1249.3857763000415,0.06773760000942275,None,2.5152069000178017,,,,,,,,,40,001,2019_Dec_25_1548,untitled,3.1.0,59.92994191560801,
004,R,N,135,R,N,004RN135RN,HRN,0,123,123,195,,,0.786,1250.6693165000179,1251.017367100052,1251.033968600037,1251.3173412000178,1251.3336638000328,None,up,1251.3336638000328,None,1251.3336638000328,1252.0999608000275,0.060540500038769096,None,2.29783250001492,,,,,,,,,40,001,2019_Dec_25_1548,untitled,3.1.0,59.92994191560801,
_,_2,M,45,_,_,__2M045__,N,0,124,124,25,,,1.053,1253.697633600037,1254.0484270000015,1254.0653153000167,1254.3477152000414,1254.3642482000287,None,down,1254.3642482000287,None,1254.3642482000287,1255.3965451000258,0.05950819997815415,None,3.0977676000329666,,,,,,,,,40,001,2019_Dec_25_1548,untitled,3.1.0,59.92994191560801,
_,_4,M,315,_,_,__4M315__,N,0,125,125,39,,,1.245,1257.5290549000492,1257.877797699999,1257.8950573000475,1258.179727300012,1258.1952567000408,None,down,1258.1952567000408,None,1258.1952567000408,1259.4277452000533,0.05987190001178533,None,2.182565999974031,,,,,,,,,40,001,2019_Dec_25_1548,untitled,3.1.0,59.92994191560801,
_,F,N,45,_,_,_FN045__,N,0,126,126,49,,,0.911,1260.4590947000543,1260.7919566000346,1260.8086697000545,1261.0918808000279,1261.1085206000134,None,up,1261.1085206000134,None,1261.1085206000134,1262.0080725000007,0.07392360002268106,None,2.333030600042548,,,,,,,,,40,001,2019_Dec_25_1548,untitled,3.1.0,59.92994191560801,
_,_4,N,180,_,_,__4N180__,N,0,127,127,84,,,1.343,1263.5180028000032,1263.8562452000333,1263.8729916000157,1264.1559390000184,1264.1726619000547,None,down,1264.1726619000547,None,1264.1726619000547,1265.5058493000106,0.068386799946893,None,3.050376099999994,,,,,,,,,40,001,2019_Dec_25_1548,untitled,3.1.0,59.92994191560801,
_,_4,M,180,_,_,__4M180__,N,0,128,128,36,,,0.972,1267.302741600026,1267.6362895000493,1267.653167600045,1267.9358196000103,1267.9526493000449,None,down,1267.9526493000449,None,1267.9526493000449,1268.9019811000326,0.07063699996797368,None,2.352132999978494,,,,,,,,,40,001,2019_Dec_25_1548,untitled,3.1.0,59.92994191560801,
_,_5,N,0,_,_,__5N000__,N,0,129,129,88,,,0.833,1270.3869137000293,1270.7174400000367,1270.733477300033,1271.0170552000054,1271.0339136000257,None,up,1271.0339136000257,None,1271.0339136000257,1271.8498033000506,0.07355139998253435,None,1.8320074999937788,,,,,,,,,40,001,2019_Dec_25_1548,untitled,3.1.0,59.92994191560801,
258,_2,N,45,R,N,258_2N045RN,HRN,0,130,130,241,,,0.775,1272.9469625000493,1273.2818891000352,1273.2985791000538,1273.5810340000317,1273.5981463000062,None,down,1273.5981463000062,None,1273.5981463000062,1274.3640780000133,0.07166810001945123,None,1.8158369999728166,,,,,,,,,40,001,2019_Dec_25_1548,untitled,3.1.0,59.92994191560801,
_,R,N,45,_,_,_RN045__,N,0,131,131,65,,,1.0170000000000001,1275.496002800006,1275.829044300015,1275.8454991000472,1276.1292955000536,1276.1454581000144,None,up,1276.1454581000144,None,1276.1454581000144,1277.144526900025,0.0749847999541089,None,2.1186100999475457,,,,,,,,,40,001,2019_Dec_25_1548,untitled,3.1.0,59.92994191560801,
134,F,N,225,R,N,134FN225RN,HRN,0,132,132,213,,,0.9490000000000001,1278.3633849000325,1278.6768532000133,1278.6934116000193,1278.9778479000088,1278.9933700000402,None,up,1278.9933700000402,None,1278.9933700000402,1279.9256823000032,0.0874527000123635,None,1.8486977000138722,,,,,,,,,40,001,2019_Dec_25_1548,untitled,3.1.0,59.92994191560801,
_,_5,N,225,_,_,__5N225__,N,0,133,133,93,,,1.1,1280.911104800005,1281.2584103000117,1281.2747122000437,1281.5573047000216,1281.5740481000394,None,up,1281.5740481000394,None,1281.5740481000394,1282.6564015000477,0.062100499984808266,None,2.9481538999825716,,,,,,,,,40,001,2019_Dec_25_1548,untitled,3.1.0,59.92994191560801,
_,_5,M,270,_,_,__5M270__,N,0,134,134,46,,,1.037,1284.6064858000027,1284.9377144000027,1284.9544714000076,1285.2374910000362,1285.2542054000078,None,down,1285.2542054000078,None,1285.2542054000078,1286.270116300031,0.07558549998793751,None,2.8148922999971546,,,,,,,,,40,001,2019_Dec_25_1548,untitled,3.1.0,59.92994191560801,
459,_5,M,90,R,N,459_5M090RN,HRN,0,135,135,178,,,1.331,1288.1351906000054,1288.4848922000383,1288.5010344000184,1288.7843256000197,1288.8014349000296,None,down,1288.8014349000296,None,1288.8014349000296,1290.1165920000058,0.05937690002610907,None,2.931114199978765,,,,,,,,,40,001,2019_Dec_25_1548,untitled,3.1.0,59.92994191560801,
003,R,N,90,R,N,003RN090RN,HRN,0,136,136,194,,,1.168,1291.802558400028,1292.1485670000548,1292.1648784000427,1292.4486170000164,1292.4645098000183,None,up,1292.4645098000183,None,1292.4645098000183,1293.6138424000237,0.0632507000118494,None,2.048612999962643,,,,,,,,,40,001,2019_Dec_25_1548,untitled,3.1.0,59.92994191560801,
235,G,M,90,L,N,235GM090LN,HLN,0,137,137,138,,,0.987,1294.5968071000534,1294.9286881000153,1294.9463823000551,1295.2293303000042,1295.2458288000198,None,down,1295.2458288000198,None,1295.2458288000198,1296.2110904,0.07505780004430562,None,2.531525900005363,,,,,,,,,40,001,2019_Dec_25_1548,untitled,3.1.0,59.92994191560801,
_,R,M,315,_,_,_RM315__,N,0,138,138,23,,,1.3860000000000001,1297.8705964000546,1298.1934276000247,1298.2102052000118,1298.4933872000547,1298.5090984000126,None,down,1298.5090984000126,None,1298.5090984000126,1299.87475300004,0.08452769997529685,None,2.617296099953819,,,,,,,,,40,001,2019_Dec_25_1548,untitled,3.1.0,59.92994191560801,
_,G,N,180,_,_,_GN180__,N,0,139,139,60,,,1.222,1301.2108609999996,1301.5407835000078,1301.5565388000105,1301.8407783000148,1301.8562041000114,None,None,1301.8562041000114,None,1301.8562041000114,1303.072081100021,0.07477440004004166,None,,,,,,,,,,40,001,2019_Dec_25_1548,untitled,3.1.0,59.92994191560801,
168,F,N,315,L,N,168FN315LN,HLN,0,140,140,223,,,1.393,1305.3983545000083,1305.7363109000144,1305.7529232000234,1306.036037700018,1306.0530239000218,1305.3983545000083,down,1306.0530239000218,None,1306.0530239000218,1307.4345400000457,0.06954670004779473,None,2.2983914999640547,,,,,,,,,40,001,2019_Dec_25_1548,untitled,3.1.0,59.92994191560801,
_,F,M,270,_,_,_FM270__,N,0,141,141,6,,,1.109,1308.4196248000371,1308.7672815000406,1308.783765500004,1309.0668556000455,1309.0829213000252,None,down,1309.0829213000252,None,1309.0829213000252,1310.1826054000412,0.060953999985940754,None,2.1156313000246882,,,,,,,,,40,001,2019_Dec_25_1548,untitled,3.1.0,59.92994191560801,
195,G,N,90,R,N,195GN090RN,HRN,0,142,142,226,,,1.232,1311.2885431000032,1311.6144438000047,1311.6315389000229,1311.9157409000327,1311.9308943000506,None,up,1311.9308943000506,None,1311.9308943000506,1313.146718700009,0.0817356999614276,None,2.968401000020094,,,,,,,,,40,001,2019_Dec_25_1548,untitled,3.1.0,59.92994191560801,
295,_2,N,270,L,N,295_2N270LN,HLN,0,143,143,254,,,0.8190000000000001,1314.9902508000378,1315.311100400053,1315.3280568000046,1315.6114608000498,1315.6296709000017,None,up,1315.6296709000017,None,1315.6296709000017,1316.4435823000385,0.08053089998429641,None,2.4839952999609523,,,,,,,,,40,001,2019_Dec_25_1548,untitled,3.1.0,59.92994191560801,
238,G,M,225,L,N,238GM225LN,HLN,0,144,144,141,,,0.704,1318.2082647000207,1318.5254735000199,1318.5419942000299,1318.8249271000386,1318.8412617000286,None,down,1318.8412617000286,None,1318.8412617000286,1319.5411516000167,0.08339240000350401,None,3.1484092000173405,,,,,,,,,40,001,2019_Dec_25_1548,untitled,3.1.0,59.92994191560801,
_,F,N,135,_,_,_FN135__,N,0,145,145,51,,,1.09,1322.0695618000464,1322.4056730000302,1322.4217636000249,1322.7048619000125,1322.7223040000536,None,up,1322.7223040000536,None,1322.7223040000536,1323.787997800042,0.07211090001510456,None,2.0840197000070475,,,,,,,,,40,001,2019_Dec_25_1548,untitled,3.1.0,59.92994191560801,
484,_5,N,135,L,N,484_5N135LN,HLN,0,146,146,283,,,1.1420000000000001,1324.901389000006,1325.219294600014,1325.236042500008,1325.5188005000236,1325.5361693000305,None,up,1325.5361693000305,None,1325.5361693000305,1326.6679624000099,0.0834492000285536,None,1.8317126000183634,,,,,,,,,40,001,2019_Dec_25_1548,untitled,3.1.0,59.92994191560801,
204,G,M,135,R,N,204GM135RN,HRN,0,147,147,131,,,1.289,1327.4394010000397,1327.7852483000024,1327.8006712000351,1328.0834226000006,1328.1008790000342,None,down,1328.1008790000342,None,1328.1008790000342,1329.3659355000127,0.06473799998639151,None,2.4829137000488117,,,,,,,,,40,001,2019_Dec_25_1548,untitled,3.1.0,59.92994191560801,
422,_4,N,225,L,N,422_4N225LN,HLN,0,148,148,269,,,0.9390000000000001,1330.665198600036,1330.9978993000113,1331.0147026000195,1331.2983132000081,1331.314490800025,None,up,1331.314490800025,None,1331.314490800025,1332.2466516999993,0.07254470000043511,None,3.0323573000496253,,,,,,,,,40,001,2019_Dec_25_1548,untitled,3.1.0,59.92994191560801,
002,R,N,45,R,N,002RN045RN,HRN,0,149,149,193,,,1.162,1334.435055000009,1334.7616769000306,1334.7774815000012,1335.060767900024,1335.0773332000244,None,up,1335.0773332000244,None,1335.0773332000244,1336.2269009000156,0.08018069999525324,None,2.0322346999892034,,,,,,,,,40,001,2019_Dec_25_1548,untitled,3.1.0,59.92994191560801,
399,_4,M,270,R,N,399_4M270RN,HRN,0,150,150,166,,,1.087,1337.1903582000523,1337.5257675000466,1337.542223400029,1337.825330200023,1337.8418647000217,None,down,1337.8418647000217,None,1337.8418647000217,1338.9075509000104,0.07325779995881021,None,2.0841697999858297,,,,,,,,,40,001,2019_Dec_25_1548,untitled,3.1.0,59.92994191560801,
016,R,M,315,R,N,016RM315RN,HRN,0,151,151,103,,,1.194,1340.0070009000483,1340.3397005000152,1340.3563865000033,1340.6397644000244,1340.6563521000207,None,down,1340.6563521000207,None,1340.6563521000207,1341.8380685000448,0.07390779996057972,None,2.1163409000146203,,,,,,,,,40,001,2019_Dec_25_1548,untitled,3.1.0,59.92994191560801,
043,R,M,90,L,N,043RM090LN,HLN,0,152,152,106,,,1.27,1342.8720717000542,1343.1864860000205,1343.2034003000008,1343.487142500002,1343.5035540000536,None,down,1343.5035540000536,None,1343.5035540000536,1344.7687528000097,0.08816580002894625,None,2.2178296000347473,,,,,,,,,40,001,2019_Dec_25_1548,untitled,3.1.0,59.92994191560801,
033,R,N,0,L,N,033RN000LN,HLN,0,153,153,200,,,0.768,1345.7928696000017,1346.1342045000056,1346.1515151000349,1346.4339052000432,1346.450461600034,None,down,1346.450461600034,None,1346.450461600034,1347.2005261000013,0.06470420002005994,None,1.5326736999559216,,,,,,,,,40,001,2019_Dec_25_1548,untitled,3.1.0,59.92994191560801,
_,_2,N,180,_,_,__2N180__,N,0,154,154,76,,,0.864,1348.0539194000303,1348.398747600033,1348.4158192000468,1348.6993720000028,1348.7154303000425,None,up,1348.7154303000425,None,1348.7154303000425,1349.5648235000554,0.06369940005242825,None,1.8339993000263348,,,,,,,,,40,001,2019_Dec_25_1548,untitled,3.1.0,59.92994191560801,
039,R,N,270,L,N,039RN270LN,HLN,0,155,155,206,,,0.799,1350.6193086000276,1350.963074600033,1350.9799122000113,1351.2630455000326,1351.2799661000026,None,up,1351.2799661000026,None,1351.2799661000026,1352.0625289000454,0.06353679997846484,None,1.800519600044936,,,,,,,,,40,001,2019_Dec_25_1548,untitled,3.1.0,59.92994191560801,
038,R,N,225,L,N,038RN225LN,HLN,0,156,156,205,,,1.047,1353.1504442000296,1353.4951216000482,1353.511710300052,1353.7953081000014,1353.8115686000092,None,up,1353.8115686000092,None,1353.8115686000092,1354.8435765000177,0.06310780002968386,None,1.7323791999951936,,,,,,,,,40,001,2019_Dec_25_1548,untitled,3.1.0,59.92994191560801,
453,_5,N,180,R,N,453_5N180RN,HRN,0,157,157,276,,,1.042,1355.629834100022,1355.958946400031,1355.9760284000076,1356.2591384000261,1356.2764546000399,None,up,1356.2764546000399,None,1356.2764546000399,1357.3077776000137,0.07525420002639294,None,2.1827629000181332,,,,,,,,,40,001,2019_Dec_25_1548,untitled,3.1.0,59.92994191560801,
136,F,N,315,R,N,136FN315RN,HRN,0,158,158,215,,,1.366,1358.528078800009,1358.8737278000335,1358.8904698000406,1359.1731872000382,1359.1899606000516,None,up,1359.1899606000516,None,1359.1899606000516,1360.5387139000231,0.0625931000104174,None,2.3820312000461854,,,,,,,,,40,001,2019_Dec_25_1548,untitled,3.1.0,59.92994191560801,
462,_5,M,225,R,N,462_5M225RN,HRN,0,159,159,181,,,1.371,1361.6554987000418,1361.987237800029,1362.0038138000527,1362.287759000028,1362.3037509000278,None,down,1362.3037509000278,None,1362.3037509000278,1363.6529973000288,0.07471650000661612,None,2.9661722000455484,,,,,,,,,40,001,2019_Dec_25_1548,untitled,3.1.0,59.92994191560801,
163,F,N,90,L,N,163FN090LN,HLN,0,160,160,218,,,1.3780000000000001,1365.3484483000357,1365.6843465000275,1365.7009723000228,1365.984220900049,1366.0007695000386,None,up,1366.0007695000386,None,1366.0007695000386,1367.3657320000348,0.07045100000686944,None,2.2483240999863483,,,,,,,,,40,001,2019_Dec_25_1548,untitled,3.1.0,59.92994191560801,
_,_2,N,0,_,_,__2N000__,N,0,161,161,72,,,0.896,1368.3258164,1368.6652540000505,1368.6819491000497,1368.9649731000536,1368.9816827000468,None,up,1368.9816827000468,None,1368.9816827000468,1369.8638609000482,0.069679600012023,None,1.7152721000020392,,,,,,,,,40,001,2019_Dec_25_1548,untitled,3.1.0,59.92994191560801,
176,F,M,315,L,N,176FM315LN,HLN,0,162,162,127,,,0.87,1370.7734041000367,1371.112372500007,1371.1291981000104,1371.4127285000286,1371.429253600014,None,down,1371.429253600014,None,1371.429253600014,1372.278204000031,0.06956939998781309,None,1.7658978000399657,,,,,,,,,40,001,2019_Dec_25_1548,untitled,3.1.0,59.92994191560801,
_,G,N,225,_,_,_GN225__,N,0,163,163,61,,,0.969,1373.2685117000365,1373.6106275000493,1373.6273881000234,1373.9123763000243,1373.927293100045,None,up,1373.927293100045,None,1373.927293100045,1374.8767332000425,0.06697029998758808,None,2.0819666999741457,,,,,,,,,40,001,2019_Dec_25_1548,untitled,3.1.0,59.92994191560801,
293,_2,N,180,L,N,293_2N180LN,HLN,0,164,164,252,,,0.9480000000000001,1376.0768659000169,1376.4247501000063,1376.4415452000103,1376.7246217000065,1376.7412452000426,None,up,1376.7412452000426,None,1376.7412452000426,1377.6739497000235,0.06052219995763153,None,2.1154086000169627,,,,,,,,,40,001,2019_Dec_25_1548,untitled,3.1.0,59.92994191560801,
_,_4,N,225,_,_,__4N225__,N,0,165,165,85,,,1.094,1378.9361838000477,1379.2722491000313,1379.2889245000551,1379.5720015999977,1379.5883708000183,None,up,1379.5883708000183,None,1379.5883708000183,1380.6708021000377,0.0710321000078693,None,2.0329243000014685,,,,,,,,,40,001,2019_Dec_25_1548,untitled,3.1.0,59.92994191560801,
172,F,M,135,L,N,172FM135LN,HLN,0,166,166,123,,,1.2730000000000001,1381.694342600007,1382.0380594000453,1382.0539577000309,1382.3362645000452,1382.3527004000498,None,down,1382.3527004000498,None,1382.3527004000498,1383.6018062000512,0.06531590002123266,None,2.099009199999273,,,,,,,,,40,001,2019_Dec_25_1548,untitled,3.1.0,59.92994191560801,
_,R,N,180,_,_,_RN180__,N,0,167,167,68,,,1.156,1384.5259232000099,1384.8675674000406,1384.884171600046,1385.1678750000428,1385.1838294000481,None,up,1385.1838294000481,None,1385.1838294000481,1386.3158889000188,0.06604070001048967,None,2.5652381000109017,,,,,,,,,40,001,2019_Dec_25_1548,untitled,3.1.0,59.92994191560801,
006,R,N,225,R,N,006RN225RN,HRN,0,168,168,197,,,0.8,1387.8362060000072,1388.1648000000278,1388.1811073000426,1388.4642945000087,1388.4808908000123,None,up,1388.4808908000123,None,1388.4808908000123,1389.2637061999994,0.07775359996594489,None,1.5328318999963813,,,,,,,,,40,001,2019_Dec_25_1548,untitled,3.1.0,59.92994191560801,
296,_2,N,315,L,N,296_2N315LN,HLN,0,169,169,255,,,1.393,1390.093531600025,1390.4295971000101,1390.4462860000203,1390.7297360000084,1390.746317400015,None,down,1390.746317400015,None,1390.746317400015,1392.128037300019,0.07141469995258376,None,2.24822749994928,,,,,,,,,40,001,2019_Dec_25_1548,untitled,3.1.0,59.92994191560801,
_,G,M,315,_,_,_GM315__,N,0,170,170,15,,,1.006,1393.0704940000433,1393.4118403000175,1393.4267628000234,1393.71015670005,1393.728443,None,down,1393.728443,None,1393.728443,1394.7090498000034,0.06925399997271597,None,2.129944200045429,,,,,,,,,40,001,2019_Dec_25_1548,untitled,3.1.0,59.92994191560801,
257,_2,N,0,R,N,257_2N000RN,HRN,0,171,171,240,,,1.014,1395.9291232000105,1396.2747438000515,1396.2919800000382,1396.573836100055,1396.590217500052,None,up,1396.590217500052,None,1396.590217500052,1397.5894206000376,0.06383240001741797,None,1.916001099976711,,,,,,,,,40,001,2019_Dec_25_1548,untitled,3.1.0,59.92994191560801,
_,_2,M,180,_,_,__2M180__,N,0,172,172,28,,,1.199,1398.5882289000438,1398.9217982000555,1398.9383946000016,1399.2219686000026,1399.238539700047,None,down,1399.238539700047,None,1399.238539700047,1400.420608000015,0.07404580002184957,None,3.1976689000148326,,,,,,,,,40,001,2019_Dec_25_1548,untitled,3.1.0,59.92994191560801,
_,_4,M,270,_,_,__4M270__,N,0,173,173,38,,,0.983,1402.5210372000001,1402.8520720000379,1402.8682345999987,1403.1526801,1403.1682597000035,None,down,1403.1682597000035,None,1403.1682597000035,1404.1336729000323,0.0761079000076279,None,1.9321443000226282,,,,,,,,,40,001,2019_Dec_25_1548,untitled,3.1.0,59.92994191560801,
001,R,N,0,R,N,001RN000RN,HRN,0,174,174,192,,,1.027,1405.1812602000427,1405.5162512000534,1405.5334975000005,1405.8154008000274,1405.8320911000483,None,up,1405.8320911000483,None,1405.8320911000483,1406.8479519000393,0.07115889998385683,None,1.717288100044243,,,,,,,,,40,001,2019_Dec_25_1548,untitled,3.1.0,59.92994191560801,
_,R,N,135,_,_,_RN135__,N,0,175,175,67,,,0.803,1407.6335264000227,1407.9646561000263,1407.9808769000228,1408.2643875000067,1408.2802954000072,None,up,1408.2802954000072,None,1408.2802954000072,1409.062705700053,0.07491209998261184,None,2.100493900012225,,,,,,,,,40,001,2019_Dec_25_1548,untitled,3.1.0,59.92994191560801,
481,_5,N,0,L,N,481_5N000LN,HLN,0,176,176,280,,,1.379,1410.4482294000336,1410.795328600041,1410.811928900017,1411.094866200001,1411.1120856000343,None,down,1411.1120856000343,None,1411.1120856000343,1412.4770514000556,0.06052359996829182,None,2.1979250000440516,,,,,,,,,40,001,2019_Dec_25_1548,untitled,3.1.0,59.92994191560801,
164,F,N,135,L,N,164FN135LN,HLN,0,177,177,219,,,1.038,1413.3905498000095,1413.7251405999996,1413.7420339000528,1414.024755200022,1414.0414573000162,None,up,1414.0414573000162,None,1414.0414573000162,1415.0578810000443,0.07319379999535158,None,1.833349700027611,,,,,,,,,40,001,2019_Dec_25_1548,untitled,3.1.0,59.92994191560801,
_,_4,M,135,_,_,__4M135__,N,0,178,178,35,,,0.736,1415.9573165000184,1416.2903988000471,1416.3067072000122,1416.5898642000393,1416.6070272000507,None,down,1416.6070272000507,None,1416.6070272000507,1417.3227257000399,0.07155140000395477,None,1.6986986999982037,,,,,,,,,40,001,2019_Dec_25_1548,untitled,3.1.0,59.92994191560801,
_,_5,M,135,_,_,__5M135__,N,0,179,179,43,,,1.097,1418.3766662999988,1418.721396900015,1418.7383248000406,1419.020996700041,1419.0373231000267,None,down,1419.0373231000267,None,1419.0373231000267,1420.1197974000243,0.06383150001056492,None,2.7985454999725334,,,,,,,,,40,001,2019_Dec_25_1548,untitled,3.1.0,59.92994191560801,
131,F,N,90,R,N,131FN090RN,HRN,0,180,180,210,,,1.097,1421.9036469000275,1422.2516789000365,1422.2682432000292,1422.5514574000263,1422.5677044000477,None,up,1422.5677044000477,None,1422.5677044000477,1423.6504234000458,0.060266599990427494,None,2.249837299983483,,,,,,,,,40,001,2019_Dec_25_1548,untitled,3.1.0,59.92994191560801,
269,_2,M,180,R,N,269_2M180RN,HRN,0,181,181,148,,,1.055,1424.889546200051,1425.2319032000378,1425.2491729000467,1425.5319230000023,1425.5484584000078,None,down,1425.5484584000078,None,1425.5484584000078,1426.581250700052,0.06498450000071898,None,2.315510499989614,,,,,,,,,40,001,2019_Dec_25_1548,untitled,3.1.0,59.92994191560801,
_,R,N,315,_,_,_RN315__,N,0,182,182,71,,,1.274,1427.9322126000188,1428.2795153000043,1428.2960484000505,1428.5792449000292,1428.596014300012,None,up,1428.596014300012,None,1428.596014300012,1429.8447733000503,0.061165800027083606,None,2.1984464999986812,,,,,,,,,40,001,2019_Dec_25_1548,untitled,3.1.0,59.92994191560801,
458,_5,M,45,R,N,458_5M045RN,HRN,0,183,183,177,,,1.143,1430.8617510000477,1431.2108349000337,1431.226844800054,1431.5105194000062,1431.5266541000456,None,down,1431.5266541000456,None,1431.5266541000456,1432.660449500021,0.059854699997231364,None,1.9171958999941126,,,,,,,,,40,001,2019_Dec_25_1548,untitled,3.1.0,59.92994191560801,
489,_5,M,0,L,N,489_5M000LN,HLN,0,184,184,184,,,1.1260000000000001,1433.5190013000392,1433.8582567000412,1433.8748288000352,1434.1574775000336,1434.1743236000184,None,down,1434.1743236000184,None,1434.1743236000184,1435.290427400032,0.06837320001795888,None,2.3492137000430375,,,,,,,,,40,001,2019_Dec_25_1548,untitled,3.1.0,59.92994191560801,
259,_2,N,90,R,N,259_2N090RN,HRN,0,185,185,242,,,1.363,1436.6105407000287,1436.939057700045,1436.9557468999992,1437.2390192000312,1437.2553996000206,None,up,1437.2553996000206,None,1437.2553996000206,1438.6044516000547,0.07775860000401735,None,2.2827515000244603,,,,,,,,,40,001,2019_Dec_25_1548,untitled,3.1.0,59.92994191560801,
199,G,N,270,R,N,199GN270RN,HRN,0,186,186,230,,,1.249,1439.6146962000057,1439.953095600009,1439.970000500034,1440.2526844000095,1440.2692384000402,None,up,1440.2692384000402,None,1440.2692384000402,1441.501332200016,0.06853029999183491,None,2.2167651999625377,,,,,,,,,40,001,2019_Dec_25_1548,untitled,3.1.0,59.92994191560801,
289,_2,N,0,L,N,289_2N000LN,HLN,0,187,187,248,,,0.874,1442.5631596000167,1442.9001109000528,1442.9177367000375,1443.1999661000445,1443.2166989000398,None,up,1443.2166989000398,None,1443.2166989000398,1444.0823263000348,0.06967009999789298,None,1.6823149000410922,,,,,,,,,40,001,2019_Dec_25_1548,untitled,3.1.0,59.92994191560801,
_,R,M,45,_,_,_RM045__,N,0,188,188,17,,,0.711,1444.9836532000336,1445.3146362000261,1445.3316950000008,1445.614701500046,1445.6314658000483,None,down,1445.6314658000483,None,1445.6314658000483,1446.330873900035,0.07592240005033091,None,2.0332333000260405,,,,,,,,,40,001,2019_Dec_25_1548,untitled,3.1.0,59.92994191560801,
226,G,N,45,L,N,226GN045LN,HLN,0,189,189,233,,,1.121,1447.7442770000198,1448.0806283000275,1448.0964759000344,1448.3798955000238,1448.3950766000198,None,up,1448.3950766000198,None,1448.3950766000198,1449.494220200053,0.07050559995695949,None,2.216788900026586,,,,,,,,,40,001,2019_Dec_25_1548,untitled,3.1.0,59.92994191560801,
457,_5,M,0,R,N,457_5M000RN,HRN,0,190,190,176,,,1.008,1450.7261122000054,1451.0263088000356,1451.043092100008,1451.3263484000345,1451.3431481000152,None,down,1451.3431481000152,None,1451.3431481000152,1452.3419083000044,0.10447949997615069,None,1.785228000022471,,,,,,,,,40,001,2019_Dec_25_1548,untitled,3.1.0,59.92994191560801,
394,_4,M,45,R,N,394_4M045RN,HRN,0,191,191,161,,,1.292,1453.2109333000262,1453.5409259000444,1453.5576351000345,1453.8407876000274,1453.8575971000246,None,down,1453.8575971000246,None,1453.8575971000246,1455.139323600044,0.07268740003928542,None,2.3981916999910027,,,,,,,,,40,001,2019_Dec_25_1548,untitled,3.1.0,59.92994191560801,
015,R,M,270,R,N,015RM270RN,HRN,0,192,192,102,,,0.924,1456.3444572000299,1456.6717994000064,1456.6886797000188,1456.9719314000104,1456.9884136000182,None,down,1456.9884136000182,None,1456.9884136000182,1457.9037136000115,0.079446799994912,None,1.7495389999821782,,,,,,,,,40,001,2019_Dec_25_1548,untitled,3.1.0,59.92994191560801,
170,F,M,45,L,N,170FM045LN,HLN,0,193,193,121,,,1.245,1458.8254155000322,1459.152979800012,1459.169655500038,1459.452432900027,1459.469474200043,None,down,1459.469474200043,None,1459.469474200043,1460.701542499999,0.0797323000151664,None,2.1651912999805063,,,,,,,,,40,001,2019_Dec_25_1548,untitled,3.1.0,59.92994191560801,
449,_5,N,0,R,N,449_5N000RN,HRN,0,194,194,272,,,0.961,1461.7097447999986,1462.0505941000301,1462.0691333000432,1462.3505861000158,1462.3676404000144,None,up,1462.3676404000144,None,1462.3676404000144,1463.3156635000487,0.06706849997863173,None,1.848228300048504,,,,,,,,,40,001,2019_Dec_25_1548,untitled,3.1.0,59.92994191560801,
_,G,M,45,_,_,_GM045__,N,0,195,195,9,,,1.291,1464.2927162999986,1464.632010900008,1464.6477580000064,1464.9306211000076,1464.947702900041,None,up,1464.947702900041,None,1464.947702900041,1466.2142158000497,0.06996920000528917,None,2.169660000014119,,,,,,,,,40,001,2019_Dec_25_1548,untitled,3.1.0,59.92994191560801,
_,F,M,90,_,_,_FM090__,N,0,196,196,2,,,1.216,1467.21336970001,1467.529052900034,1467.545797800005,1467.8292781000491,1467.8459746000008,None,down,1467.8459746000008,None,1467.8459746000008,1469.0440300000482,0.0855339000117965,None,2.2148493999848142,,,,,,,,,40,001,2019_Dec_25_1548,untitled,3.1.0,59.92994191560801,
_,F,M,0,_,_,_FM000__,N,0,197,197,0,,,1.208,1470.1410079000052,1470.476549300016,1470.4927356000408,1470.7762464000261,1470.7926584000234,None,down,1470.7926584000234,None,1470.7926584000234,1471.991831900028,0.07153190003009513,None,2.331251199997496,,,,,,,,,40,001,2019_Dec_25_1548,untitled,3.1.0,59.92994191560801,
266,_2,M,45,R,N,266_2M045RN,HRN,0,198,198,145,,,1.0210000000000001,1473.196860200027,1473.5404322000104,1473.557050000003,1473.8396584000438,1473.8563380000414,None,down,1473.8563380000414,None,1473.8563380000414,1474.8559673000127,0.06620649999240413,None,2.3341315999859944,,,,,,,,,40,001,2019_Dec_25_1548,untitled,3.1.0,59.92994191560801,
493,_5,M,180,L,N,493_5M180LN,HLN,0,199,199,188,,,1.2630000000000001,1476.279310300015,1476.6036720999982,1476.6203027000302,1476.903964600002,1476.9205175000243,None,up,1476.9205175000243,None,1476.9205175000243,1478.1692309000064,0.08051290002185851,None,3.4315118999802507,,,,,,,,,40,001,2019_Dec_25_1548,untitled,3.1.0,59.92994191560801,
291,_2,N,90,L,N,291_2N090LN,HLN,0,200,200,250,,,0.936,1480.4363347000326,1480.767350100039,1480.78414480004,1481.067195200012,1481.0834451000555,None,up,1481.0834451000555,None,1481.0834451000555,1481.9998974000337,0.07514119998086244,None,2.0502919999998994,,,,,,,,,40,001,2019_Dec_25_1548,untitled,3.1.0,59.92994191560801,
487,_5,N,270,L,N,487_5N270LN,HLN,0,201,201,286,,,1.027,1483.2018063000287,1483.5487082000473,1483.5650501000346,1483.8482619000133,1483.8650218000403,None,up,1483.8650218000403,None,1483.8650218000403,1484.8803595000063,0.06124189996626228,None,2.0313924999791197,,,,,,,,,40,001,2019_Dec_25_1548,untitled,3.1.0,59.92994191560801,
_,F,M,315,_,_,_FM315__,N,0,202,202,7,,,0.856,1485.9636484000366,1486.3120430000126,1486.3293462000438,1486.6122740000137,1486.6288388000103,None,down,1486.6288388000103,None,1486.6288388000103,1487.461173800053,0.06022169999778271,None,1.898625899979379,,,,,,,,,40,001,2019_Dec_25_1548,untitled,3.1.0,59.92994191560801,
_,G,N,315,_,_,_GN315__,N,0,203,203,63,,,1.3900000000000001,1488.5992956000264,1488.9435306000523,1488.9600089000305,1489.2429242000217,1489.259627500025,None,up,1489.259627500025,None,1489.259627500025,1490.6253164000227,0.06448820000514388,None,2.1662979999673553,,,,,,,,,40,001,2019_Dec_25_1548,untitled,3.1.0,59.92994191560801,
_,_4,N,0,_,_,__4N000__,N,0,204,204,80,,,0.871,1491.4937387000537,1491.841052200005,1491.857752800046,1492.1406960000168,1492.1572463000193,None,down,1492.1572463000193,None,1492.1572463000193,1493.0066302000196,0.06041779997758567,None,1.668727099953685,,,,,,,,,40,001,2019_Dec_25_1548,untitled,3.1.0,59.92994191560801,
_,_4,M,45,_,_,__4M045__,N,0,205,205,33,,,0.921,1493.9211225000327,1494.2389628000092,1494.2555065000197,1494.5384934000322,1494.55575270002,None,down,1494.55575270002,None,1494.55575270002,1495.454007900029,0.08660540002165362,None,1.7332920000189915,,,,,,,,,40,001,2019_Dec_25_1548,untitled,3.1.0,59.92994191560801,
267,_2,M,90,R,N,267_2M090RN,HRN,0,206,206,146,,,1.198,1496.3639197000302,1496.703493100009,1496.7203486000071,1497.0032924000407,1497.0196897000424,None,up,1497.0196897000424,None,1497.0196897000424,1498.201604300004,0.06687670003157109,None,2.5818379999836907,,,,,,,,,40,001,2019_Dec_25_1548,untitled,3.1.0,59.92994191560801,
133,F,N,180,R,N,133FN180RN,HRN,0,207,207,212,,,0.9500000000000001,1499.6861599000404,1500.016851500026,1500.0337907000212,1500.3169898000197,1500.3335342000355,None,down,1500.3335342000355,None,1500.3335342000355,1501.2655693000415,0.07564739999361336,None,2.466984499944374,,,,,,,,,40,001,2019_Dec_25_1548,untitled,3.1.0,59.92994191560801,
_,_5,N,270,_,_,__5N270__,N,0,208,208,94,,,0.749,1502.8649798000115,1503.2143903000397,1503.2309812000021,1503.5141890000086,1503.5306681000511,None,up,1503.5306681000511,None,1503.5306681000511,1504.263200000045,0.0574124000268057,None,1.6656065999995917,,,,,,,,,40,001,2019_Dec_25_1548,untitled,3.1.0,59.92994191560801,
_,G,M,225,_,_,_GM225__,N,0,209,209,13,,,1.333,1505.2740915000322,1505.6118980000028,1505.6295990000363,1505.9115821000305,1505.928589200019,None,down,1505.928589200019,None,1505.928589200019,1507.2440433000447,0.07013139995979145,None,2.565097299986519,,,,,,,,,40,001,2019_Dec_25_1548,untitled,3.1.0,59.92994191560801,
_,_4,N,270,_,_,__4N270__,N,0,210,210,86,,,1.012,1508.560910100001,1508.9093001,1508.9256104000378,1509.2089494000538,1509.2255721000256,None,up,1509.2255721000256,None,1509.2255721000256,1510.226016700035,0.05978449998656288,None,2.2341731999767944,,,,,,,,,40,001,2019_Dec_25_1548,untitled,3.1.0,59.92994191560801,
_,R,M,270,_,_,_RM270__,N,0,211,211,22,,,0.993,1511.5251418999978,1511.8734850000474,1511.8902099000406,1512.1731850000215,1512.190487600048,None,down,1512.190487600048,None,1512.190487600048,1513.1720623000292,0.05823950003832579,None,1.815650500007905,,,,,,,,,40,001,2019_Dec_25_1548,untitled,3.1.0,59.92994191560801,
142,F,M,225,R,N,142FM225RN,HRN,0,212,212,117,,,0.899,1514.1029169000103,1514.4211568000028,1514.4383292000275,1514.7216194000212,1514.7381917000166,None,down,1514.7381917000166,None,1514.7381917000166,1515.6203876000363,0.08623039996018633,None,2.0815519000170752,,,,,,,,,40,001,2019_Dec_25_1548,untitled,3.1.0,59.92994191560801,
_,R,M,0,_,_,_RM000__,N,0,213,213,16,,,0.848,1516.8986817999976,1517.2355383000104,1517.2522360000294,1517.5350836000289,1517.551943700004,None,down,1517.551943700004,None,1517.551943700004,1518.384002500039,0.06966809998266399,None,1.8824872000259347,,,,,,,,,40,001,2019_Dec_25_1548,untitled,3.1.0,59.92994191560801,
206,G,M,225,R,N,206GM225RN,HRN,0,214,214,133,,,1.2750000000000001,1519.5139414000441,1519.849618200038,1519.8659941000515,1520.1491999000427,1520.1658738000551,None,down,1520.1658738000551,None,1520.1658738000551,1521.4151361000258,0.07203969999682158,None,2.282585699984338,,,,,,,,,40,001,2019_Dec_25_1548,untitled,3.1.0,59.92994191560801,
233,G,M,0,L,N,233GM000LN,HLN,0,215,215,136,,,0.8190000000000001,1522.5380184000242,1522.8649828000343,1522.88058560004,1523.1635393000324,1523.1801836000523,None,down,1523.1801836000523,None,1523.1801836000523,1523.980175100034,0.08057980000739917,None,1.9517117000068538,,,,,,,,,40,001,2019_Dec_25_1548,untitled,3.1.0,59.92994191560801,
174,F,M,225,L,N,174FM225LN,HLN,0,216,216,125,,,0.9520000000000001,1525.2163792000501,1525.544847400044,1525.5620165000437,1525.8442598000402,1525.8699469999992,None,down,1525.8699469999992,None,1525.8699469999992,1526.7935660000076,0.07580340001732111,None,2.440933000005316,,,,,,,,,40,001,2019_Dec_25_1548,untitled,3.1.0,59.92994191560801,
162,F,N,45,L,N,162FN045LN,HLN,0,217,217,217,,,1.228,1528.39679290005,1528.7256904000533,1528.742250900017,1529.0254147000378,1529.0420905000065,None,up,1529.0420905000065,None,1529.0420905000065,1530.2581820000196,0.07794200000353158,None,2.0494423000491224,,,,,,,,,40,001,2019_Dec_25_1548,untitled,3.1.0,59.92994191560801,
495,_5,M,270,L,N,495_5M270LN,HLN,0,218,218,190,,,0.9480000000000001,1531.1822556999978,1531.5062903000508,1531.523515000008,1531.805913100019,1531.823472900025,None,down,1531.823472900025,None,1531.823472900025,1532.755273900053,0.0813452999573201,None,2.8145632999949157,,,,,,,,,40,001,2019_Dec_25_1548,untitled,3.1.0,59.92994191560801,
036,R,N,135,L,N,036RN135LN,HLN,0,219,219,203,,,0.99,1534.721207900031,1535.052826100029,1535.0696720000124,1535.3523984000203,1535.3692657000502,None,up,1535.3692657000502,None,1535.3692657000502,1536.3360367999994,0.07521219999762252,None,1.716257799998857,,,,,,,,,40,001,2019_Dec_25_1548,untitled,3.1.0,59.92994191560801,
263,_2,N,270,R,N,263_2N270RN,HRN,0,220,220,246,,,1.1480000000000001,1537.1634105000412,1537.501461900014,1537.5178506000084,1537.8011887000175,1537.8180979000172,None,up,1537.8180979000172,None,1537.8180979000172,1538.949743300036,0.07080729998415336,None,2.0814398999791592,,,,,,,,,40,001,2019_Dec_25_1548,untitled,3.1.0,59.92994191560801,
_,_2,N,225,_,_,__2N225__,N,0,221,221,77,,,0.8200000000000001,1539.9717672000406,1540.315200300014,1540.3322997000068,1540.6152646000264,1540.6318867000518,None,up,1540.6318867000518,None,1540.6318867000518,1541.4310864,0.0654283000039868,None,1.5996631000307389,,,,,,,,,40,001,2019_Dec_25_1548,untitled,3.1.0,59.92994191560801,
417,_4,N,0,L,N,417_4N000LN,HLN,0,222,222,264,,,1.343,1542.3016298000002,1542.6467881000135,1542.6632888000458,1542.9471566000138,1542.9635209000553,None,down,1542.9635209000553,None,1542.9635209000553,1544.2951171000022,0.06193289998918772,None,2.152138000004925,,,,,,,,,40,001,2019_Dec_25_1548,untitled,3.1.0,59.92994191560801,
_,G,M,180,_,_,_GM180__,N,0,223,223,12,,,0.773,1545.2095663000364,1545.5281491000205,1545.544595400046,1545.8273799000308,1545.8432594000478,None,down,1545.8432594000478,None,1545.8432594000478,1546.609835100011,0.08242689998587593,None,1.9327676999964751,,,,,,,,,40,001,2019_Dec_25_1548,untitled,3.1.0,59.92994191560801,
265,_2,M,0,R,N,265_2M000RN,HRN,0,224,224,144,,,1.04,1547.8595916000195,1548.1921514000278,1548.2080203000223,1548.4914926000056,1548.5084792000125,None,down,1548.5084792000125,None,1548.5084792000125,1549.523395300028,0.07526189996860921,None,2.0483462999691255,,,,,,,,,40,001,2019_Dec_25_1548,untitled,3.1.0,59.92994191560801,
491,_5,M,90,L,N,491_5M090LN,HLN,0,225,225,186,,,1.053,1550.6378537000273,1550.9723903000122,1550.9890045000357,1551.272104600037,1551.2904145000502,None,down,1551.2904145000502,None,1551.2904145000502,1552.3212146000005,0.07323650002945215,None,2.4993350000004284,,,,,,,,,40,001,2019_Dec_25_1548,untitled,3.1.0,59.92994191560801,
464,_5,M,315,R,N,464_5M315RN,HRN,0,226,226,183,,,1.358,1553.8719077000278,1554.203099400038,1554.2206677000504,1554.5039041000418,1554.521626200003,None,down,1554.521626200003,None,1554.521626200003,1555.868246100028,0.07269910001195967,None,2.215322300035041,,,,,,,,,40,001,2019_Dec_25_1548,untitled,3.1.0,59.92994191560801,
418,_4,N,45,L,N,418_4N045LN,HLN,0,227,227,265,,,1.335,1556.835908900015,1557.1513413000503,1557.1674626000458,1557.4506366000278,1557.467261200014,None,up,1557.467261200014,None,1557.467261200014,1558.7829448000412,0.0902631999924779,None,2.1485047999885865,,,,,,,,,40,001,2019_Dec_25_1548,untitled,3.1.0,59.92994191560801,
_,_5,M,315,_,_,__5M315__,N,0,228,228,47,,,1.0190000000000001,1559.7044665000285,1560.0318393000052,1560.0486645000055,1560.3315011000377,1560.348041500023,None,down,1560.348041500023,None,1560.348041500023,1561.3474366000155,0.08040570002049208,None,2.317369399999734,,,,,,,,,40,001,2019_Dec_25_1548,untitled,3.1.0,59.92994191560801,
386,_4,N,45,R,N,386_4N045RN,HRN,0,229,229,257,,,0.879,1562.745797600015,1563.0785771000083,1563.0954628000036,1563.3790572000435,1563.395726000017,None,up,1563.395726000017,None,1563.395726000017,1564.2610855000094,0.07170359999872744,None,1.6675096999970265,,,,,,,,,40,001,2019_Dec_25_1548,untitled,3.1.0,59.92994191560801,
488,_5,N,315,L,N,488_5N315LN,HLN,0,230,230,287,,,0.919,1565.1318308000336,1565.4766039000242,1565.4932893000077,1565.7764577000053,1565.79311290005,None,down,1565.79311290005,None,1565.79311290005,1566.6918027000502,0.06173129996750504,None,2.1330247999867424,,,,,,,,,40,001,2019_Dec_25_1548,untitled,3.1.0,59.92994191560801,
_,R,M,225,_,_,_RM225__,N,0,231,231,21,,,0.8210000000000001,1567.9963648000266,1568.3411123999977,1568.3577114000218,1568.641064800031,1568.657699900039,None,down,1568.657699900039,None,1568.657699900039,1569.456658400013,0.0630840000230819,None,2.3013188000186346,,,,,,,,,40,001,2019_Dec_25_1548,untitled,3.1.0,59.92994191560801,
_,_5,N,45,_,_,__5N045__,N,0,232,232,89,,,0.9400000000000001,1571.0612683000509,1571.3716485000332,1571.3880887000123,1571.6709568000515,1571.6880332000437,None,up,1571.6880332000437,None,1571.6880332000437,1572.6211708000046,0.0920248000184074,None,2.084039599983953,,,,,,,,,40,001,2019_Dec_25_1548,untitled,3.1.0,59.92994191560801,
132,F,N,135,R,N,132FN135RN,HRN,0,233,233,211,,,1.308,1573.8404423000175,1574.1860784000019,1574.2025546000223,1574.4858695000294,1574.5027586000506,None,down,1574.5027586000506,None,1574.5027586000506,1575.801454200002,0.06165879999753088,None,2.415057900012471,,,,,,,,,40,001,2019_Dec_25_1548,untitled,3.1.0,59.92994191560801,
034,R,N,45,L,N,034RN045LN,HLN,0,234,234,201,,,1.034,1577.0003090000246,1577.3332303000498,1577.3502128000255,1577.6326590000535,1577.6497549000196,None,up,1577.6497549000196,None,1577.6497549000196,1578.665407100052,0.07279509998625144,None,1.8149824000429362,,,,,,,,,40,001,2019_Dec_25_1548,untitled,3.1.0,59.92994191560801,
304,_2,M,315,L,N,304_2M315LN,HLN,0,235,235,159,,,1.209,1579.5537863000063,1579.8806007000385,1579.8982052000356,1580.1806078000227,1580.197944900021,None,down,1580.197944900021,None,1580.197944900021,1581.3961131000542,0.08104299998376518,None,2.014015900029335,,,,,,,,,40,001,2019_Dec_25_1548,untitled,3.1.0,59.92994191560801,
037,R,N,180,L,N,037RN180LN,HLN,0,236,236,204,,,0.754,1582.2804898000322,1582.6284337000106,1582.6449666000553,1582.9283762000268,1582.9450031000306,None,up,1582.9450031000306,None,1582.9450031000306,1583.677386000054,0.06166549999034032,None,2.1993902000249363,,,,,,,,,40,001,2019_Dec_25_1548,untitled,3.1.0,59.92994191560801,
_,G,N,0,_,_,_GN000__,N,0,237,237,56,,,1.0090000000000001,1585.2417962000472,1585.5590199000435,1585.5758262000163,1585.8594382000156,1585.875961700047,None,up,1585.875961700047,None,1585.875961700047,1586.874657200009,0.08833949995459989,None,1.9333466999814846,,,,,,,,,40,001,2019_Dec_25_1548,untitled,3.1.0,59.92994191560801,
271,_2,M,270,R,N,271_2M270RN,HRN,0,238,238,150,,,1.24,1587.8959412000258,1588.2240675000357,1588.2413286000374,1588.5237640000414,1588.5404708000133,None,down,1588.5404708000133,None,1588.5404708000133,1589.75516650005,0.0779072999721393,None,1.9987638999591582,,,,,,,,,40,001,2019_Dec_25_1548,untitled,3.1.0,59.92994191560801,
297,_2,M,0,L,N,297_2M000LN,HLN,0,239,239,152,,,1.2570000000000001,1590.6191860000254,1590.9546386000002,1590.9716737000272,1591.2567131000105,1591.271892000048,None,down,1591.271892000048,None,1591.271892000048,1592.5028336000396,0.07161769998492673,None,2.2812503000022843,,,,,,,,,40,001,2019_Dec_25_1548,untitled,3.1.0,59.92994191560801,
_,_4,M,90,_,_,__4M090__,N,0,240,240,34,,,0.93,1593.6254570000456,1593.9686388000264,1593.9854052000446,1594.268506500055,1594.2849404000444,None,down,1594.2849404000444,None,1594.2849404000444,1595.200580100005,0.0650381000014022,None,2.1650810000137426,,,,,,,,,40,001,2019_Dec_25_1548,untitled,3.1.0,59.92994191560801,
_,_2,M,225,_,_,__2M225__,N,0,241,241,29,,,1.075,1596.5326077000354,1596.8668747000047,1596.883280500013,1597.166323500045,1597.1830484000384,None,down,1597.1830484000384,None,1597.1830484000384,1598.2314773000544,0.07468580000568181,None,2.4021270000375807,,,,,,,,,40,001,2019_Dec_25_1548,untitled,3.1.0,59.92994191560801,
_,_2,M,270,_,_,__2M270__,N,0,242,242,30,,,1.249,1599.6808347000042,1599.996778300032,1600.013883800013,1600.2971995000262,1600.3141432000557,None,down,1600.3141432000557,None,1600.3141432000557,1601.5451452000416,0.08482010004809126,None,2.2144214000436477,,,,,,,,,40,001,2019_Dec_25_1548,untitled,3.1.0,59.92994191560801,
262,_2,N,225,R,N,262_2N225RN,HRN,0,243,243,245,,,1.095,1602.6000802000053,1602.9449066000525,1602.9608202000381,1603.243988000031,1603.2614469000255,None,up,1603.2614469000255,None,1603.2614469000255,1604.3433274000417,0.06428380002034828,None,1.8828482999815606,,,,,,,,,40,001,2019_Dec_25_1548,untitled,3.1.0,59.92994191560801,
_,_5,M,180,_,_,__5M180__,N,0,244,244,44,,,1.143,1605.2230493000243,1605.5588976000436,1605.5752934000338,1605.8586118000094,1605.8748787000077,None,down,1605.8748787000077,None,1605.8748787000077,1607.007338299998,0.07007349998457357,None,2.050176599994302,,,,,,,,,40,001,2019_Dec_25_1548,untitled,3.1.0,59.92994191560801,
012,R,M,135,R,N,012RM135RN,HRN,0,245,245,99,,,0.873,1607.99147550005,1608.33933290001,1608.3557220000075,1608.6392880000058,1608.6557122000377,None,down,1608.6557122000377,None,1608.6557122000377,1609.5049929000088,0.05952680000336841,None,2.848446000018157,,,,,,,,,40,001,2019_Dec_25_1548,untitled,3.1.0,59.92994191560801,
_,_5,M,0,_,_,__5M000__,N,0,246,246,40,,,1.333,1611.5816480000503,1611.9191321000108,1611.935940299998,1612.2194412000244,1612.236029200023,None,down,1612.236029200023,None,1612.236029200023,1613.5509806000046,0.07016080000903457,None,2.783185100008268,,,,,,,,,40,001,2019_Dec_25_1548,untitled,3.1.0,59.92994191560801,
044,R,M,135,L,N,044RM135LN,HLN,0,247,247,107,,,1.055,1615.1017104000202,1615.4332613000297,1615.4494328,1615.7327323000063,1615.7496434000204,None,down,1615.7496434000204,None,1615.7496434000204,1616.7817817000323,0.07385749998502433,None,2.4152337000123225,,,,,,,,,40,001,2019_Dec_25_1548,untitled,3.1.0,59.92994191560801,
_,_2,N,45,_,_,__2N045__,N,0,248,248,73,,,0.884,1618.2473210000317,1618.5807131000329,1618.5975563000538,1618.880095600034,1618.8965430000098,None,up,1618.8965430000098,None,1618.8965430000098,1619.7628712000442,0.07367599999997765,None,1.68482679995941,,,,,,,,,40,001,2019_Dec_25_1548,untitled,3.1.0,59.92994191560801,
231,G,N,270,L,N,231GN270LN,HLN,0,249,249,238,,,0.802,1620.6695396000287,1620.995134900033,1621.011876100034,1621.294145300053,1621.3115635000286,None,up,1621.3115635000286,None,1621.3115635000286,1622.0944113000296,0.07947240001522005,None,1.9501871000393294,,,,,,,,,40,001,2019_Dec_25_1548,untitled,3.1.0,59.92994191560801,
138,F,M,45,R,N,138FM045RN,HRN,0,250,250,113,,,1.374,1623.3609782000422,1623.6761183000053,1623.6929979000124,1623.9759306000196,1623.9925528000458,None,down,1623.9925528000458,None,1623.9925528000458,1625.3577674000408,0.08756640000501648,None,3.0812116999877617,,,,,,,,,40,001,2019_Dec_25_1548,untitled,3.1.0,59.92994191560801,
046,R,M,225,L,N,046RM225LN,HLN,0,251,251,109,,,1.2550000000000001,1627.1557802000316,1627.4894783000345,1627.506036100036,1627.7898080000305,1627.805666500004,None,down,1627.805666500004,None,1627.805666500004,1629.0377244000556,0.07439540000632405,None,2.8664873000234365,,,,,,,,,40,001,2019_Dec_25_1548,untitled,3.1.0,59.92994191560801,
_,R,M,90,_,_,_RM090__,N,0,252,252,18,,,0.9430000000000001,1630.7700729000499,1631.0863272999995,1631.1031099000247,1631.4267417000374,1631.4267417000374,None,down,1631.4267417000374,None,1631.4267417000374,1632.334985100024,0.0841738999588415,None,2.326463299978059,,,,,,,,,40,001,2019_Dec_25_1548,untitled,3.1.0,59.92994191560801,
010,R,M,45,R,N,010RM045RN,HRN,0,253,253,97,,,0.841,1633.8322301000007,1634.1668799000327,1634.183468400035,1634.4669418000267,1634.4832594000036,None,down,1634.4832594000036,None,1634.4832594000036,1635.315939799999,0.07061939995037392,None,1.71691010001814,,,,,,,,,40,001,2019_Dec_25_1548,untitled,3.1.0,59.92994191560801,
460,_5,M,135,R,N,460_5M135RN,HRN,0,254,254,179,,,0.7000000000000001,1636.2756229000515,1636.6149188000127,1636.6314271000447,1636.9144421000383,1636.9319459000253,None,down,1636.9319459000253,None,1636.9319459000253,1637.6139573000255,0.06817430001683533,None,2.098054100002628,,,,,,,,,40,001,2019_Dec_25_1548,untitled,3.1.0,59.92994191560801,
_,_5,N,180,_,_,__5N180__,N,0,255,255,92,,,1.367,1639.1184801000054,1639.4460713000153,1639.4623760000104,1639.7459884000127,1639.7627385000233,None,down,1639.7627385000233,None,1639.7627385000233,1641.1111298000324,0.07972280000103638,None,2.181493500014767,,,,,,,,,40,001,2019_Dec_25_1548,untitled,3.1.0,59.92994191560801,
007,R,N,270,R,N,007RN270RN,HRN,0,256,256,198,,,1.297,1642.0155088000465,1642.3599687000387,1642.3767091000336,1642.659187000012,1642.676158200018,None,up,1642.676158200018,None,1642.676158200018,1643.958650500048,0.06368269998347387,None,2.098353200010024,,,,,,,,,40,001,2019_Dec_25_1548,untitled,3.1.0,59.92994191560801,
425,_4,M,0,L,N,425_4M000LN,HLN,0,257,257,168,,,0.92,1644.8454421000206,1645.190456500044,1645.2069543000543,1645.4898081000429,1645.5066912000184,None,down,1645.5066912000184,None,1645.5066912000184,1646.4060054000001,0.06350360001670197,None,2.082682100008242,,,,,,,,,40,001,2019_Dec_25_1548,untitled,3.1.0,59.92994191560801,
463,_5,M,270,R,N,463_5M270RN,HRN,0,258,258,182,,,1.155,1647.6632505000453,1648.0052099000313,1648.021319600055,1648.3045390000334,1648.3208100000047,None,down,1648.3208100000047,None,1648.3208100000047,1649.4535326000187,0.06687600002624094,None,2.250668799970299,,,,,,,,,40,001,2019_Dec_25_1548,untitled,3.1.0,59.92994191560801,
_,_5,N,90,_,_,__5N090__,N,0,259,259,90,,,0.9490000000000001,1650.6409984000493,1650.9859703000402,1651.002454100002,1651.2852313000476,1651.3020717000472,None,up,1651.3020717000472,None,1651.3020717000472,1652.2352410000167,0.063077200029511,None,1.8320794999599457,,,,,,,,,40,001,2019_Dec_25_1548,untitled,3.1.0,59.92994191560801,
229,G,N,180,L,N,229GN180LN,HLN,0,260,260,236,,,0.929,1653.2039020000375,1653.5500215000357,1653.5662626000121,1653.8498188000522,1653.866347800009,None,down,1653.866347800009,None,1653.866347800009,1654.7822222000104,0.06269319995772094,None,1.982034000044223,,,,,,,,,40,001,2019_Dec_25_1548,untitled,3.1.0,59.92994191560801,
_,_2,N,270,_,_,__2N270__,N,0,261,261,78,,,1.215,1655.916131200036,1656.2641360000125,1656.2807145000552,1656.564002500032,1656.58056880004,None,up,1656.58056880004,None,1656.58056880004,1657.779663000023,0.06058699998538941,None,2.0822038000333123,,,,,,,,,40,001,2019_Dec_25_1548,untitled,3.1.0,59.92994191560801,
201,G,M,0,R,N,201GM000RN,HRN,0,262,262,128,,,1.338,1658.732729600044,1659.0785994000034,1659.096339300042,1659.3795355000184,1659.3953764000325,None,down,1659.3953764000325,None,1659.3953764000325,1660.7105805000174,0.06332309998106211,None,2.548587299999781,,,,,,,,,40,001,2019_Dec_25_1548,untitled,3.1.0,59.92994191560801,
428,_4,M,135,L,N,428_4M135LN,HLN,0,263,263,171,,,1.272,1662.0458489000448,1662.3588456000434,1662.375655400043,1662.6586592000094,1662.675559299998,None,down,1662.675559299998,None,1662.675559299998,1663.9242999000126,0.09373779996531084,None,2.348175799997989,,,,,,,,,40,001,2019_Dec_25_1548,untitled,3.1.0,59.92994191560801,
419,_4,N,90,L,N,419_4N090LN,HLN,0,264,264,266,,,1.043,1665.1012659000116,1665.4398088000016,1665.456525000045,1665.7396901000175,1665.7563242000178,None,up,1665.7563242000178,None,1665.7563242000178,1666.7886299000238,0.06855610001366585,None,1.8163793999701738,,,,,,,,,40,001,2019_Dec_25_1548,untitled,3.1.0,59.92994191560801,
005,R,N,180,R,N,005RN180RN,HRN,0,265,265,196,,,1.117,1667.6539518000209,1667.9877477000118,1668.0040503000491,1668.2869623000151,1668.3037682000431,None,up,1668.3037682000431,None,1668.3037682000431,1669.402870800055,0.0719698000466451,None,2.348859000019729,,,,,,,,,40,001,2019_Dec_25_1548,untitled,3.1.0,59.92994191560801,
301,_2,M,180,L,N,301_2M180LN,HLN,0,266,266,156,,,0.711,1670.738574100018,1671.0680776000372,1671.0855371000362,1671.3681625000318,1671.3848856000113,None,down,1671.3848856000113,None,1671.3848856000113,1672.0839844000293,0.07636840001214296,None,2.131951899966225,,,,,,,,,40,001,2019_Dec_25_1548,untitled,3.1.0,59.92994191560801,
197,G,N,180,R,N,197GN180RN,HRN,0,267,267,228,,,0.848,1673.663071500021,1673.9656078000553,1673.9656078000553,1674.2317587000434,1674.2481066000182,None,up,1674.2481066000182,None,1674.2481066000182,1675.0810955000343,0.1386138999951072,None,2.617614599992521,,,,,,,,,40,001,2019_Dec_25_1548,untitled,3.1.0,59.92994191560801,
_,F,N,225,_,_,_FN225__,N,0,268,268,53,,,0.9560000000000001,1676.942897300003,1677.2798465000233,1677.2976154000498,1677.5793953000102,1677.596047500032,None,up,1677.596047500032,None,1677.596047500032,1678.5283436000464,0.06928060000063851,None,2.4152428000234067,,,,,,,,,40,001,2019_Dec_25_1548,untitled,3.1.0,59.92994191560801,
225,G,N,0,L,N,225GN000LN,HLN,0,269,269,232,,,1.1,1680.0819321000017,1680.4268178000348,1680.4432846000418,1680.726370700053,1680.7431434000027,None,up,1680.7431434000027,None,1680.7431434000027,1681.8253279000055,0.06350599997676909,None,2.2314460999914445,,,,,,,,,40,001,2019_Dec_25_1548,untitled,3.1.0,59.92994191560801,
392,_4,N,315,R,N,392_4N315RN,HRN,0,270,270,263,,,1.178,1683.041147400043,1683.3911811000435,1683.4074840000249,1683.6901633000234,1683.7070031000185,None,up,1683.7070031000185,None,1683.7070031000185,1684.8723609000444,0.05969980004010722,None,2.4668928000028245,,,,,,,,,40,001,2019_Dec_25_1548,untitled,3.1.0,59.92994191560801,
393,_4,M,0,R,N,393_4M000RN,HRN,0,271,271,160,,,1.0110000000000001,1686.2570920000435,1686.5882618000032,1686.604800500034,1686.8872616000008,1686.9041547000525,None,down,1686.9041547000525,None,1686.9041547000525,1687.9029925000505,0.07457890000659972,None,1.898855099978391,,,,,,,,,40,001,2019_Dec_25_1548,untitled,3.1.0,59.92994191560801,
452,_5,N,135,R,N,452_5N135RN,HRN,0,272,272,275,,,0.9380000000000001,1688.8834147000453,1689.2193189000245,1689.2357107000425,1689.5190904000192,1689.5366917000501,None,down,1689.5366917000501,None,1689.5366917000501,1690.4512757000048,0.07255660003283992,None,2.4304271999862976,,,,,,,,,40,001,2019_Dec_25_1548,untitled,3.1.0,59.92994191560801,
461,_5,M,180,R,N,461_5M180RN,HRN,0,273,273,180,,,0.7030000000000001,1692.0349655000027,1692.3836902000476,1692.4018693000544,1692.68294160004,1692.699128200009,None,down,1692.699128200009,None,1692.699128200009,1693.3821732000215,0.060429500008467585,None,1.5496735000051558,,,,,,,,,40,001,2019_Dec_25_1548,untitled,3.1.0,59.92994191560801,
272,_2,M,315,R,N,272_2M315RN,HRN,0,274,274,151,,,1.206,1694.3393228000496,1694.6640278000268,1694.6807086000335,1694.9651525000227,1694.980585000012,None,down,1694.980585000012,None,1694.980585000012,1696.179358100053,0.07894469995517284,None,2.2817327000084333,,,,,,,,,40,001,2019_Dec_25_1548,untitled,3.1.0,59.92994191560801,
_,G,N,135,_,_,_GN135__,N,0,275,275,59,,,1.026,1697.3318142000353,1697.678636400029,1697.6951009000186,1697.9781124000438,1697.9947333000018,None,up,1697.9947333000018,None,1697.9947333000018,1698.9950755000464,0.06284769997000694,None,2.0483085000305437,,,,,,,,,40,001,2019_Dec_25_1548,untitled,3.1.0,59.92994191560801,
_,_2,M,135,_,_,__2M135__,N,0,276,276,27,,,1.3800000000000001,1700.1174650000175,1700.4596635000198,1700.4759670000058,1700.7593932000455,1700.7758804000332,None,down,1700.7758804000332,None,1700.7758804000332,1702.1414077000227,0.06684539996786043,None,2.7980458000092767,,,,,,,,,40,001,2019_Dec_25_1548,untitled,3.1.0,59.92994191560801,
167,F,N,270,L,N,167FN270LN,HLN,0,277,277,222,,,1.074,1703.6554695000523,1703.989219900046,1704.0055885000038,1704.2895314000198,1704.305734100053,None,down,1704.305734100053,None,1704.305734100053,1705.3555742000462,0.07351229997584596,None,2.249058299988974,,,,,,,,,40,001,2019_Dec_25_1548,untitled,3.1.0,59.92994191560801,
302,_2,M,225,L,N,302_2M225LN,HLN,0,278,278,157,,,1.159,1706.6472487000283,1706.9706224000547,1706.9865331000183,1707.270083600015,1707.2866993000498,None,down,1707.2866993000498,None,1707.2866993000498,1708.435504699999,0.08318110002437606,None,2.3158781000529416,,,,,,,,,40,001,2019_Dec_25_1548,untitled,3.1.0,59.92994191560801,
141,F,M,180,R,N,141FM180RN,HRN,0,279,279,116,,,1.034,1709.677750300034,1710.0174468000187,1710.0340164000518,1710.3170039000106,1710.334304100019,None,down,1710.334304100019,None,1710.334304100019,1711.349349200027,0.06800889997975901,None,2.264406499976758,,,,,,,,,40,001,2019_Dec_25_1548,untitled,3.1.0,59.92994191560801,
391,_4,N,270,R,N,391_4N270RN,HRN,0,280,280,262,,,1.094,1712.6690032000188,1713.0147317000083,1713.031103800051,1713.3144979000208,1713.3310548000154,None,up,1713.3310548000154,None,1713.3310548000154,1714.4143176000216,0.06361439998727292,None,2.265882700041402,,,,,,,,,40,001,2019_Dec_25_1548,untitled,3.1.0,59.92994191560801,
_,F,M,180,_,_,_FM180__,N,0,281,281,4,,,1.056,1715.669513700006,1716.0124454000033,1716.0298527000123,1716.3127576000406,1716.3292286000215,None,down,1716.3292286000215,None,1716.3292286000215,1717.3611845000414,0.06365440000081435,None,1.997815200011246,,,,,,,,,40,001,2019_Dec_25_1548,untitled,3.1.0,59.92994191560801,
_,F,N,315,_,_,_FN315__,N,0,282,282,55,,,0.978,1718.4039635000518,1718.743035200052,1718.7595145000378,1719.042733600014,1719.0589489000267,None,up,1719.0589489000267,None,1719.0589489000267,1720.0261247000308,0.06916190002812073,None,2.0697831000434235,,,,,,,,,40,001,2019_Dec_25_1548,untitled,3.1.0,59.92994191560801,
013,R,M,180,R,N,013RM180RN,HRN,0,283,283,100,,,1.175,1721.2219348000363,1721.5407290000003,1721.5579939000309,1721.8405667000334,1721.8566091000102,None,down,1721.8566091000102,None,1721.8566091000102,1723.0237183000427,0.08211320004193112,None,2.3347671999945305,,,,,,,,,40,001,2019_Dec_25_1548,untitled,3.1.0,59.92994191560801,
_,F,M,135,_,_,_FM135__,N,0,284,284,3,,,0.89,1724.2603137000115,1724.6048161000363,1724.621742300049,1724.9049840000225,1724.9213355000247,None,down,1724.9213355000247,None,1724.9213355000247,1725.7868606000557,0.06177229998866096,None,1.9823627000441775,,,,,,,,,40,001,2019_Dec_25_1548,untitled,3.1.0,59.92994191560801,
_,_2,M,90,_,_,__2M090__,N,0,285,285,26,,,1.062,1726.9728919000481,1727.319411400007,1727.3361272000475,1727.6200452000485,1727.635991600051,None,down,1727.635991600051,None,1727.635991600051,1728.6845371000236,0.060297599993646145,None,2.167462399986107,,,,,,,,,40,001,2019_Dec_25_1548,untitled,3.1.0,59.92994191560801,
239,G,M,270,L,N,239GM270LN,HLN,0,286,286,142,,,1.123,1729.895091400016,1730.2173882000498,1730.2330360000487,1730.5159568000236,1730.5329430000274,None,down,1730.5329430000274,None,1730.5329430000274,1731.6486935000285,0.08279349998338148,None,2.7147482999716885,,,,,,,,,40,001,2019_Dec_25_1548,untitled,3.1.0,59.92994191560801,
_,G,M,135,_,_,_GM135__,N,0,287,287,11,,,0.869,1733.3270715000108,1733.6633992000134,1733.6798928000499,1733.9630568000139,1733.9795850000228,None,down,1733.9795850000228,None,1733.9795850000228,1734.829070900043,0.07221180002670735,None,2.3323766000103205,,,,,,,,,40,001,2019_Dec_25_1548,untitled,3.1.0,59.92994191560801,
,,,,,,,,,,,,,,,,,,,,,,,,,,,,,1736.3278359000105,None,1743.105535800045,None,1748.4343253000407,None,1752.0476349000237,None,,,,,,,
