Number,Letter,type,Orientation,human,face_type,image,picture,trials.thisRepN,trials.thisTrialN,trials.thisN,trials.thisIndex,text.started,text.stopped,stimulus_duration,CROSS.started,CROSS.stopped,BLANK.started,BLANK.stopped,TEST.started,TEST.stopped,key_JUDGE.keys,key_JUDGE.rt,key_JUDGE.started,key_JUDGE.stopped,image_2.started,image_2.stopped,ISI.started,ISI.stopped,q1.started,q1.stopped,q2.started,q2.stopped,q3.started,q3.stopped,text_2.started,text_2.stopped,participant,session,date,expName,psychopyVersion,frameRate
432,_4,M,315,L,N,432_4M315LN,HLN,0,0,0,175,95.5977844,None,1.034,157.3762286,157.5518305,157.5518305,157.6646576,157.683882,None,down,3.4310534,157.683882,None,157.683882,158.6973884,0.3049926,None,,,,,,,,,41,1,2020_Jan_03_0920,untitled,3.1.0,60.05118763
42,R,M,45,L,N,042RM045LN,HLN,0,1,1,105,,,0.823,161.505984,161.7962007,161.7962007,161.9109915,161.9279669,None,down,2.1508332,161.9279669,None,161.9279669,162.72693,0.3014731,None,,,,,,,,,41,1,2020_Jan_03_0920,untitled,3.1.0,60.05118763
_,_5,M,0,_,_,__5M000__,N,0,2,2,40,,,1.183,164.4642655,164.7589115,164.7589115,164.792488,164.8098762,None,None,,164.8098762,None,164.8098762,165.9741374,0.370205,None,,,,,,,,,41,1,2020_Jan_03_0920,untitled,3.1.0,60.05118763
431,_4,M,270,L,N,431_4M270LN,HLN,0,3,3,174,,,1.227,168.5095949,168.8047287,168.8047287,169.0047578,169.0215098,168.5095949,down,2.8487187,169.0215098,None,169.0215098,170.237201,0.2048072,None,,,,,,,,,41,1,2020_Jan_03_0920,untitled,3.1.0,60.05118763
175,F,M,270,L,N,175FM270LN,HLN,0,4,4,126,,,0.999,172.1923901,172.4849557,172.4849557,172.5852283,172.6017713,None,up,2.5822947,172.6017713,None,172.6017713,173.5843599,0.3097905,None,,,,,,,,,41,1,2020_Jan_03_0920,untitled,3.1.0,60.05118763
452,_5,N,135,R,N,452_5N135RN,HRN,0,5,5,275,,,1.127,175.5137739,175.816463,175.816463,175.8988945,175.9157777,None,up,2.6666375,175.9157777,None,175.9157777,177.0311631,0.3165593,None,,,,,,,,,41,1,2020_Jan_03_0920,untitled,3.1.0,60.05118763
385,_4,N,0,R,N,385_4N000RN,HRN,0,6,6,256,,,1.344,178.8130208,179.1130454,179.1130454,179.2966363,179.313653,None,up,2.3321141,179.313653,None,179.313653,180.644885,0.2182001,None,,,,,,,,,41,1,2020_Jan_03_0920,untitled,3.1.0,60.05118763
425,_4,M,0,L,N,425_4M000LN,HLN,0,7,7,168,,,0.872,181.8706335,182.1599044,182.1599044,182.3602105,182.3785799,None,up,2.2308385,182.3785799,None,182.3785799,183.2805468,0.2117432,None,,,,,,,,,41,1,2020_Jan_03_0920,untitled,3.1.0,60.05118763
142,F,M,225,R,N,142FM225RN,HRN,0,8,8,117,,,0.732,184.9583222,185.2571091,185.2571091,185.323798,185.3405819,None,down,2.3334429,185.3405819,None,185.3405819,186.0566655,0.3365974,None,,,,,,,,,41,1,2020_Jan_03_0920,untitled,3.1.0,60.05118763
_,_2,M,315,_,_,__2M315__,N,0,9,9,31,,,1.012,187.9868331,188.2879492,188.2879492,188.3878218,188.404537,None,down,2.8338805,188.404537,None,188.404537,189.4034984,0.299046,None,,,,,,,,,41,1,2020_Jan_03_0920,untitled,3.1.0,60.05118763
459,_5,M,90,R,N,459_5M090RN,HRN,0,10,10,178,,,0.832,191.7873643,191.7873643,191.7873643,192.0849079,192.0849079,None,up,3.0332721,192.0849079,None,192.0849079,192.7864855,0.5365628,None,,,,,,,,,41,1,2020_Jan_03_0920,untitled,3.1.0,60.05118763
_,_4,N,270,_,_,__4N270__,N,0,11,11,86,,,0.937,195.3607052,195.6490069,195.6490069,195.8327115,195.8513148,None,up,2.1159902,195.8513148,None,195.8513148,196.7805412,0.2258662,None,,,,,,,,,41,1,2020_Jan_03_0920,untitled,3.1.0,60.05118763
169,F,M,0,L,N,169FM000LN,HLN,0,12,12,120,,,1.139,198.4437215,198.4437215,198.4437215,198.7438164,198.7438164,None,down,2.1526157,198.7438164,None,198.7438164,199.829774,0.4517353,None,,,,,,,,,41,1,2020_Jan_03_0920,untitled,3.1.0,60.05118763
193,G,N,0,R,N,193GN000RN,HRN,0,13,13,224,,,0.775,201.1081054,201.4101364,201.4101364,201.6101524,201.6267817,None,up,1.8164001,201.6267817,None,201.6267817,202.3920838,0.2002096,None,,,,,,,,,41,1,2020_Jan_03_0920,untitled,3.1.0,60.05118763
488,_5,N,315,L,N,488_5N315LN,HLN,0,14,14,287,,,1.34,203.7591752,204.0574535,204.0574535,204.1574725,204.1741181,None,up,2.3826864,204.1741181,None,204.1741181,205.5064107,0.3033394,None,,,,,,,,,41,1,2020_Jan_03_0920,untitled,3.1.0,60.05118763
_,_2,M,90,_,_,__2M090__,N,0,15,15,26,,,0.818,206.8820288,207.1719416,207.1719416,207.2717995,207.2883695,None,down,3.1159541,207.2883695,None,207.2883695,208.0874026,0.3125596,None,,,,,,,,,41,1,2020_Jan_03_0920,untitled,3.1.0,60.05118763
_,_2,N,315,_,_,__2N315__,N,0,16,16,79,,,1.34,210.6472621,210.9367812,210.9367812,211.1181146,211.1350683,None,up,2.6682306,211.1350683,None,211.1350683,212.4671654,0.2287819,None,,,,,,,,,41,1,2020_Jan_03_0920,untitled,3.1.0,60.05118763
426,_4,M,45,L,N,426_4M045LN,HLN,0,17,17,169,,,0.746,214.2235679,214.2235679,214.5036673,214.5316775,214.548619,None,down,1.9494301,214.548619,None,214.548619,215.2808957,0.394973,None,,,,,,,,,41,1,2020_Jan_03_0920,untitled,3.1.0,60.05118763
419,_4,N,90,L,N,419_4N090LN,HLN,0,18,18,266,,,0.997,216.7197632,217.0130285,217.0130285,217.2126992,217.2307151,None,up,2.5329089,217.2307151,None,217.2307151,218.2128085,0.2105812,None,,,,,,,,,41,1,2020_Jan_03_0920,untitled,3.1.0,60.05118763
204,G,M,135,R,N,204GM135RN,HRN,0,19,19,131,,,1.284,220.1046061,220.3933928,220.3933928,220.4764662,220.493443,None,down,2.5503502,220.493443,None,220.493443,221.7588958,0.3258465,None,,,,,,,,,41,1,2020_Jan_03_0920,untitled,3.1.0,60.05118763
_,_2,N,135,_,_,__2N135__,N,0,20,20,75,,,0.883,223.4217678,223.7219946,223.7219946,223.7736628,223.7736628,None,up,2.0000551,223.7736628,None,223.7736628,224.6565752,0.3595483,None,,,,,,,,,41,1,2020_Jan_03_0920,untitled,3.1.0,60.05118763
44,R,M,135,L,N,044RM135LN,HLN,0,21,21,107,,,0.779,226.0535987,226.3550268,226.3550268,226.4885951,226.5059373,None,down,1.9321449,226.5059373,None,226.5059373,227.2707032,0.2638454,None,,,,,,,,,41,1,2020_Jan_03_0920,untitled,3.1.0,60.05118763
_,R,N,45,_,_,_RN045__,N,0,22,22,65,,,1.262,228.7265321,229.0202526,229.0202526,229.1530589,229.1715343,None,up,2.1482893,229.1715343,None,229.1715343,230.418359,0.2749516,None,,,,,,,,,41,1,2020_Jan_03_0920,untitled,3.1.0,60.05118763
16,R,M,315,R,N,016RM315RN,HRN,0,23,23,103,,,0.788,231.5793762,231.8672333,231.8672333,232.0330222,232.0499756,None,down,2.0850753,232.0499756,None,232.0499756,232.83371,0.2456458,None,,,,,,,,,41,1,2020_Jan_03_0920,untitled,3.1.0,60.05118763
136,F,N,315,R,N,136FN315RN,HRN,0,24,24,215,,,1.214,234.4657144,234.7641734,234.7641734,234.8473199,234.8644112,None,up,2.7165467,234.8644112,None,234.8644112,236.0627992,0.3175176,None,,,,,,,,,41,1,2020_Jan_03_0920,untitled,3.1.0,60.05118763
_,_2,N,225,_,_,__2N225__,N,0,25,25,77,,,0.778,237.7766468,238.0777877,238.0777877,238.2942745,238.310903,None,up,1.9995577,238.310903,None,238.310903,239.0772169,0.1835919,None,,,,,,,,,41,1,2020_Jan_03_0920,untitled,3.1.0,60.05118763
_,G,N,315,_,_,_GN315__,N,0,26,26,63,,,0.802,240.6477324,240.9421506,240.9421506,241.0258241,241.0423709,None,up,2.0316212,241.0423709,None,241.0423709,241.8258211,0.3238197,None,,,,,,,,,41,1,2020_Jan_03_0920,untitled,3.1.0,60.05118763
199,G,N,270,R,N,199GN270RN,HRN,0,27,27,230,,,1.002,243.3854693,243.6746194,243.6746194,243.7895526,243.8067411,None,up,2.0490038,243.8067411,None,243.8067411,244.7918726,0.2997321,None,,,,,,,,,41,1,2020_Jan_03_0920,untitled,3.1.0,60.05118763
12,R,M,135,R,N,012RM135RN,HRN,0,28,28,99,,,1.223,246.1555395,246.4536941,246.4536941,246.5704306,246.58742,None,up,2.7976711,246.58742,None,246.58742,247.8027585,0.2865718,None,,,,,,,,,41,1,2020_Jan_03_0920,untitled,3.1.0,60.05118763
_,_2,M,225,_,_,__2M225__,N,0,29,29,29,,,0.82,249.6516933,249.9511021,249.9511021,250.1006094,250.1174559,None,up,2.6489,250.1174559,None,250.1174559,250.9165095,0.2545457,None,,,,,,,,,41,1,2020_Jan_03_0920,untitled,3.1.0,60.05118763
265,_2,M,0,R,N,265_2M000RN,HRN,0,30,30,144,,,0.796,253.0279403,253.3160287,253.3160287,253.4810127,253.4977617,None,up,2.182447,253.4977617,None,253.4977617,254.2809465,0.2496516,None,,,,,,,,,41,1,2020_Jan_03_0920,untitled,3.1.0,60.05118763
_,R,M,90,_,_,_RM090__,N,0,31,31,18,,,1.092,256.0306947,256.3285928,256.3285928,256.3958656,256.4127127,None,up,2.4509233,256.4127127,None,256.4127127,257.4945333,0.3375035,None,,,,,,,,,41,1,2020_Jan_03_0920,untitled,3.1.0,60.05118763
396,_4,M,135,R,N,396_4M135RN,HRN,0,32,32,163,,,0.768,259.1780835,259.4760131,259.4760131,259.5769101,259.5964378,None,up,2.1464634,259.5964378,None,259.5964378,260.3481873,0.3015695,None,,,,,,,,,41,1,2020_Jan_03_0920,untitled,3.1.0,60.05118763
269,_2,M,180,R,N,269_2M180RN,HRN,0,33,33,148,,,0.921,262.0927399,262.3898413,262.3898413,262.4564524,262.473118,None,up,3.0829707,262.473118,None,262.473118,263.3893509,0.3373669,None,,,,,,,,,41,1,2020_Jan_03_0920,untitled,3.1.0,60.05118763
428,_4,M,135,L,N,428_4M135LN,HLN,0,34,34,171,,,1.077,265.7606187,266.0533944,266.0533944,266.2700717,266.2872472,None,None,,266.2872472,None,266.2872472,267.3525334,0.1921115,None,,,,,,,,,41,1,2020_Jan_03_0920,untitled,3.1.0,60.05118763
489,_5,M,0,L,N,489_5M000LN,HLN,0,35,35,184,,,1.044,270.0207636,270.3167281,270.3167281,270.4665615,270.4844167,270.0207636,down,2.3660751,270.4844167,None,270.4844167,271.5162638,0.2590059,None,,,,,,,,,41,1,2020_Jan_03_0920,untitled,3.1.0,60.05118763
5,R,N,180,R,N,005RN180RN,HRN,0,36,36,196,,,0.928,273.1100054,273.397628,273.397628,273.5801964,273.5801964,None,down,2.884118,273.5801964,None,273.5801964,274.4958373,0.242072,None,,,,,,,,,41,1,2020_Jan_03_0920,untitled,3.1.0,60.05118763
_,R,N,270,_,_,_RN270__,N,0,37,37,70,,,0.707,276.7710324,277.0607399,277.0607399,277.1772231,277.1935185,None,up,2.166488,277.1935185,None,277.1935185,277.8933812,0.2946497,None,,,,,,,,,41,1,2020_Jan_03_0920,untitled,3.1.0,60.05118763
294,_2,N,225,L,N,294_2N225LN,HLN,0,38,38,253,,,1.147,279.6876422,279.9755346,279.9755346,280.0743411,280.0918769,None,up,2.2496293,280.0918769,None,280.0918769,281.2235916,0.3146535,None,,,,,,,,,41,1,2020_Jan_03_0920,untitled,3.1.0,60.05118763
_,_4,N,45,_,_,__4N045__,N,0,39,39,81,,,0.744,282.5890936,282.8886244,282.8886244,283.0551139,283.0719586,None,up,1.7676485,283.0719586,None,283.0719586,283.8050098,0.232826,None,,,,,,,,,41,1,2020_Jan_03_0920,untitled,3.1.0,60.05118763
261,_2,N,180,R,N,261_2N180RN,HRN,0,40,40,244,,,0.85,285.0689748,285.3700662,285.3700662,285.5530389,285.5700373,None,up,1.9672987,285.5700373,None,285.5700373,286.4025135,0.2157514,None,,,,,,,,,41,1,2020_Jan_03_0920,untitled,3.1.0,60.05118763
_,_2,N,0,_,_,__2N000__,N,0,41,41,72,,,0.772,287.7794827,288.0679812,288.0679812,288.2509181,288.2674106,None,up,1.6999343,288.2674106,None,288.2674106,289.0330767,0.2268194,None,,,,,,,,,41,1,2020_Jan_03_0920,untitled,3.1.0,60.05118763
170,F,M,45,L,N,170FM045LN,HLN,0,42,42,121,,,0.918,290.1890001,290.4827958,290.4827958,290.683184,290.7029154,None,down,1.8117627,290.7029154,None,290.7029154,291.599225,0.2090223,None,,,,,,,,,41,1,2020_Jan_03_0920,untitled,3.1.0,60.05118763
139,F,M,90,R,N,139FM090RN,HRN,0,43,43,114,,,1.26,292.7174728,293.0133616,293.0133616,293.2296634,293.2468902,None,down,2.1981931,293.2468902,None,293.2468902,294.495191,0.191232,None,,,,,,,,,41,1,2020_Jan_03_0920,untitled,3.1.0,60.05118763
_,_4,M,225,_,_,__4M225__,N,0,44,44,37,,,0.869,295.6592379,295.9607306,295.9607306,296.1608432,296.1772808,None,up,2.0843699,296.1772808,None,296.1772808,297.0265077,0.2013187,None,,,,,,,,,41,1,2020_Jan_03_0920,untitled,3.1.0,60.05118763
299,_2,M,90,L,N,299_2M090LN,HLN,0,45,45,154,,,1.376,298.5896505,298.8913463,298.8913463,298.9748177,298.9917355,None,down,2.4496003,298.9917355,None,298.9917355,300.3571604,0.3130902,None,,,,,,,,,41,1,2020_Jan_03_0920,untitled,3.1.0,60.05118763
_,_5,N,135,_,_,__5N135__,N,0,46,46,91,,,0.736,301.6955375,301.9888888,301.9888888,302.1552979,302.1719658,None,up,1.8687279,302.1719658,None,302.1719658,302.8889884,0.2406393,None,,,,,,,,,41,1,2020_Jan_03_0920,untitled,3.1.0,60.05118763
239,G,M,270,L,N,239GM270LN,HLN,0,47,47,142,,,1.377,304.3444803,304.6365233,304.6365233,304.7531737,304.7696898,None,down,2.8332616,304.7696898,None,304.7696898,306.1387776,0.2898125,None,,,,,,,,,41,1,2020_Jan_03_0920,untitled,3.1.0,60.05118763
417,_4,N,0,L,N,417_4N000LN,HLN,0,48,48,264,,,0.887,307.8218192,308.1179134,308.1179134,308.3165962,308.3331972,None,up,1.91646,308.3331972,None,308.3331972,309.2156856,0.2030011,None,,,,,,,,,41,1,2020_Jan_03_0920,untitled,3.1.0,60.05118763
450,_5,N,45,R,N,450_5N045RN,HRN,0,49,49,273,,,1.068,310.4843403,310.7809072,310.7809072,310.964262,310.9824183,None,up,1.7983657,310.9824183,None,310.9824183,312.0297436,0.2217935,None,,,,,,,,,41,1,2020_Jan_03_0920,untitled,3.1.0,60.05118763
391,_4,N,270,R,N,391_4N270RN,HRN,0,50,50,262,,,1.041,313.1025476,313.3954693,313.3954693,313.4951975,313.5121788,None,up,1.8998354,313.5121788,None,313.5121788,314.5448685,0.3067399,None,,,,,,,,,41,1,2020_Jan_03_0920,untitled,3.1.0,60.05118763
141,F,M,180,R,N,141FM180RN,HRN,0,51,51,116,,,0.76,315.6531826,315.9436738,315.9436738,316.1263321,316.1434032,None,down,2.7839848,316.1434032,None,316.1434032,316.8925127,0.2272648,None,,,,,,,,,41,1,2020_Jan_03_0920,untitled,3.1.0,60.05118763
_,F,N,180,_,_,_FN180__,N,0,52,52,52,,,1.222,319.2970715,319.5900768,319.5900768,319.6398689,319.6564558,None,up,2.3031825,319.6564558,None,319.6564558,320.8722402,0.355977,None,,,,,,,,,41,1,2020_Jan_03_0920,untitled,3.1.0,60.05118763
_,_4,N,90,_,_,__4N090__,N,0,53,53,82,,,1.244,322.3082065,322.6041773,322.6041773,322.687395,322.7042446,None,up,2.2316833,322.7042446,None,322.7042446,323.9359767,0.3244138,None,,,,,,,,,41,1,2020_Jan_03_0920,untitled,3.1.0,60.05118763
225,G,N,0,L,N,225GN000LN,HLN,0,54,54,232,,,0.998,325.1674911,325.4681258,325.4681258,325.6515889,325.6683749,None,up,1.8492412,325.6683749,None,325.6683749,326.6508522,0.218253,None,,,,,,,,,41,1,2020_Jan_03_0920,untitled,3.1.0,60.05118763
_,G,M,225,_,_,_GM225__,N,0,55,55,13,,,1.172,327.8361173,328.1335913,328.1335913,328.2331412,328.2503982,None,down,2.7146295,328.2503982,None,328.2503982,329.4148933,0.3027717,None,,,,,,,,,41,1,2020_Jan_03_0920,untitled,3.1.0,60.05118763
36,R,N,135,L,N,036RN135LN,HLN,0,56,56,203,,,0.848,331.3570904,331.6478914,331.6478914,331.6804063,331.6983791,None,up,2.4469097,331.6983791,None,331.6983791,332.5291736,0.3781799,None,,,,,,,,,41,1,2020_Jan_03_0920,untitled,3.1.0,60.05118763
455,_5,N,270,R,N,455_5N270RN,HRN,0,57,57,278,,,0.954,334.332838,334.626806,334.626806,334.8602609,334.8769397,None,up,1.8828168,334.8769397,None,334.8769397,335.8095868,0.175528,None,,,,,,,,,41,1,2020_Jan_03_0920,untitled,3.1.0,60.05118763
_,_4,N,315,_,_,__4N315__,N,0,58,58,87,,,0.703,337.1059905,337.3937572,337.3937572,337.4753608,337.4947568,None,up,1.7302575,337.4947568,None,337.4947568,338.1753101,0.3295791,None,,,,,,,,,41,1,2020_Jan_03_0920,untitled,3.1.0,60.05118763
8,R,N,315,R,N,008RN315RN,HRN,0,59,59,199,,,0.715,339.4219939,339.7321498,339.7321498,339.939031,339.9556106,None,up,1.8015787,339.9556106,None,339.9556106,340.6547961,0.1840486,None,,,,,,,,,41,1,2020_Jan_03_0920,untitled,3.1.0,60.05118763
_,_2,M,0,_,_,__2M000__,N,0,60,60,24,,,1.221,342.0148984,342.3032303,342.3032303,342.4699162,342.4865759,None,down,3.2821481,342.4865759,None,342.4865759,343.7023653,0.2447341,None,,,,,,,,,41,1,2020_Jan_03_0920,untitled,3.1.0,60.05118763
45,R,M,180,L,N,045RM180LN,HLN,0,61,61,108,,,1.02,346.0760697,346.3674123,346.3674123,346.4833336,346.5001651,None,up,2.4332152,346.5001651,None,346.5001651,347.4991856,0.294297,None,,,,,,,,,41,1,2020_Jan_03_0920,untitled,3.1.0,60.05118763
228,G,N,135,L,N,228GN135LN,HLN,0,62,62,235,,,0.892,349.2639647,349.5637877,349.5637877,349.6480136,349.665068,None,up,2.1496101,349.665068,None,349.665068,350.5469341,0.3173089,None,,,,,,,,,41,1,2020_Jan_03_0920,untitled,3.1.0,60.05118763
494,_5,M,225,L,N,494_5M225LN,HLN,0,63,63,189,,,1.178,352.0253894,352.3286412,352.3286412,352.5490402,352.5490402,None,up,2.9616033,352.5490402,None,352.5490402,353.7112829,0.1930329,None,,,,,,,,,41,1,2020_Jan_03_0920,untitled,3.1.0,60.05118763
263,_2,N,270,R,N,263_2N270RN,HRN,0,64,64,246,,,1.034,355.7130797,356.008087,356.008087,356.2247992,356.2417578,None,up,2.183433,356.2417578,None,356.2417578,357.2584131,0.189984,None,,,,,,,,,41,1,2020_Jan_03_0920,untitled,3.1.0,60.05118763
_,_5,M,315,_,_,__5M315__,N,0,65,65,47,,,1.225,358.7292176,359.0220917,359.0220917,359.1389013,359.1554249,None,down,3.015963,359.1554249,None,359.1554249,360.3712294,0.2908434,None,,,,,,,,,41,1,2020_Jan_03_0920,untitled,3.1.0,60.05118763
237,G,M,180,L,N,237GM180LN,HLN,0,66,66,140,,,0.846,362.4067503,362.702355,362.702355,362.8858769,362.9038366,None,down,2.5816391,362.9038366,None,362.9038366,363.7350066,0.2204945,None,,,,,,,,,41,1,2020_Jan_03_0920,untitled,3.1.0,60.05118763
397,_4,M,180,R,N,397_4M180RN,HRN,0,67,67,164,,,1.303,365.7183789,366.0163528,366.0163528,366.199592,366.2169769,None,up,2.4017724,366.2169769,None,366.2169769,367.5150152,0.2168373,None,,,,,,,,,41,1,2020_Jan_03_0920,untitled,3.1.0,60.05118763
33,R,N,0,L,N,033RN000LN,HLN,0,68,68,200,,,0.837,369.0496556,369.0496556,369.0496556,369.3468086,369.3468086,None,up,1.9333002,369.3468086,None,369.3468086,370.1793871,0.4157454,None,,,,,,,,,41,1,2020_Jan_03_0920,untitled,3.1.0,60.05118763
_,R,M,135,_,_,_RM135__,N,0,69,69,19,,,0.911,371.6012648,371.8943678,371.8943678,371.9942829,372.0111976,None,down,3.0649388,372.0111976,None,372.0111976,372.9104186,0.3085702,None,,,,,,,,,41,1,2020_Jan_03_0920,untitled,3.1.0,60.05118763
451,_5,N,90,R,N,451_5N090RN,HRN,0,70,70,274,,,0.97,375.2581701,375.5576067,375.5576067,375.7909076,375.8076369,None,up,2.4348283,375.8076369,None,375.8076369,376.7568534,0.1712216,None,,,,,,,,,41,1,2020_Jan_03_0920,untitled,3.1.0,60.05118763
_,F,M,135,_,_,_FM135__,N,0,71,71,3,,,0.801,378.5416356,378.8383712,378.8383712,378.9546885,378.9717885,None,up,2.183157,378.9717885,None,378.9717885,379.7710578,0.2828068,None,,,,,,,,,41,1,2020_Jan_03_0920,untitled,3.1.0,60.05118763
206,G,M,225,R,N,206GM225RN,HRN,0,72,72,133,,,1.297,381.4196671,381.7187349,381.7187349,381.8691181,381.8864974,None,down,2.9344511,381.8864974,None,381.8864974,383.1683888,0.2491789,None,,,,,,,,,41,1,2020_Jan_03_0920,untitled,3.1.0,60.05118763
495,_5,M,270,L,N,495_5M270LN,HLN,0,73,73,190,,,0.807,385.2253938,385.507682,385.515777,385.5491075,385.5658164,None,up,2.8493322,385.5658164,None,385.5658164,386.348358,0.3835504,None,,,,,,,,,41,1,2020_Jan_03_0920,untitled,3.1.0,60.05118763
430,_4,M,225,L,N,430_4M225LN,HLN,0,74,74,173,,,1.014,388.678898,388.9798468,388.9798468,389.129571,389.147061,None,up,2.7158226,389.147061,None,389.147061,390.1451736,0.2517269,None,,,,,,,,,41,1,2020_Jan_03_0920,untitled,3.1.0,60.05118763
236,G,M,135,L,N,236GM135LN,HLN,0,75,75,139,,,0.978,392.0597554,392.3598506,392.3598506,392.5762422,392.5932048,None,down,2.7488665,392.5932048,None,392.5932048,393.559811,0.1846488,None,,,,,,,,,41,1,2020_Jan_03_0920,untitled,3.1.0,60.05118763
3,R,N,90,R,N,003RN090RN,HRN,0,76,76,194,,,1.228,395.6676692,395.9571994,395.9571994,396.0576641,396.0754829,None,up,2.5472208,396.0754829,None,396.0754829,397.2896445,0.3115541,None,,,,,,,,,41,1,2020_Jan_03_0920,untitled,3.1.0,60.05118763
137,F,M,0,R,N,137FM000RN,HRN,0,77,77,112,,,0.715,398.8689525,399.1712951,399.1712951,399.3380315,399.3566419,None,down,2.1308685,399.3566419,None,399.3566419,400.0540329,0.2313413,None,,,,,,,,,41,1,2020_Jan_03_0920,untitled,3.1.0,60.05118763
289,_2,N,0,L,N,289_2N000LN,HLN,0,78,78,248,,,0.733,401.8606896,402.1510328,402.1510328,402.2009903,402.2176331,None,up,1.8343976,402.2176331,None,402.2176331,402.9346311,0.360393,None,,,,,,,,,41,1,2020_Jan_03_0920,untitled,3.1.0,60.05118763
41,R,M,0,L,N,041RM000LN,HLN,0,79,79,104,,,0.721,404.2528537,404.549072,404.549072,404.7657085,404.7821689,None,down,1.8000286,404.7821689,None,404.7821689,405.4978768,0.1884818,None,,,,,,,,,41,1,2020_Jan_03_0920,untitled,3.1.0,60.05118763
300,_2,M,135,L,N,300_2M135LN,HLN,0,80,80,155,,,0.826,406.7843968,407.0800099,407.0800099,407.2971684,407.3140328,None,down,2.4475729,407.3140328,None,407.3140328,408.1305506,0.1893007,None,,,,,,,,,41,1,2020_Jan_03_0920,untitled,3.1.0,60.05118763
_,_5,M,90,_,_,__5M090__,N,0,81,81,42,,,1.268,410.0387047,410.3277369,410.3277369,410.4774162,410.4944448,None,down,3.2643689,410.4944448,None,410.4944448,411.7430819,0.2649136,None,,,,,,,,,41,1,2020_Jan_03_0920,untitled,3.1.0,60.05118763
483,_5,N,90,L,N,483_5N090LN,HLN,0,82,82,282,,,1.063,413.9959885,414.2911708,414.2911708,414.4756076,414.4954186,None,up,2.177866,414.4954186,None,414.4954186,415.540275,0.2239076,None,,,,,,,,,41,1,2020_Jan_03_0920,untitled,3.1.0,60.05118763
464,_5,M,315,R,N,464_5M315RN,HRN,0,83,83,183,,,1.237,416.9960051,417.2879956,417.2879956,417.3878229,417.4043619,None,None,,417.4043619,None,417.4043619,418.6206761,0.3090092,None,,,,,,,,,41,1,2020_Jan_03_0920,untitled,3.1.0,60.05118763
_,_4,M,315,_,_,__4M315__,N,0,84,84,39,,,0.805,421.131004,421.4197974,421.4197974,421.5846945,421.6011817,421.131004,up,1.9674078,421.6011817,None,421.6011817,422.3833262,0.2516926,None,,,,,,,,,41,1,2020_Jan_03_0920,untitled,3.1.0,60.05118763
457,_5,M,0,R,N,457_5M000RN,HRN,0,85,85,176,,,0.707,423.7690175,424.065226,424.065226,424.2818115,424.2999017,None,down,1.9002689,424.2999017,None,424.2999017,424.9987904,0.1861344,None,,,,,,,,,41,1,2020_Jan_03_0920,untitled,3.1.0,60.05118763
_,_5,M,45,_,_,__5M045__,N,0,86,86,41,,,1.349,426.450627,426.7468809,426.7468809,426.9134232,426.9306454,None,down,3.266888,426.9306454,None,426.9306454,428.2632699,0.2334247,None,,,,,,,,,41,1,2020_Jan_03_0920,untitled,3.1.0,60.05118763
272,_2,M,315,R,N,272_2M315RN,HRN,0,87,87,151,,,1.102,430.5378822,430.8276305,430.8276305,430.926387,430.9429235,None,down,2.9171251,430.9429235,None,430.9429235,432.0255041,0.315968,None,,,,,,,,,41,1,2020_Jan_03_0920,untitled,3.1.0,60.05118763
_,_5,M,135,_,_,__5M135__,N,0,88,88,43,,,0.924,434.2272468,434.5229334,434.5229334,434.589717,434.589717,None,up,2.983096,434.589717,None,434.589717,435.5057058,0.3505502,None,,,,,,,,,41,1,2020_Jan_03_0920,untitled,3.1.0,60.05118763
_,R,N,315,_,_,_RN315__,N,0,89,89,71,,,0.916,437.8475808,438.1390221,438.1390221,438.2877937,438.303303,None,up,2.6992496,438.303303,None,438.303303,439.202322,0.2632031,None,,,,,,,,,41,1,2020_Jan_03_0920,untitled,3.1.0,60.05118763
484,_5,N,135,L,N,484_5N135LN,HLN,0,90,90,283,,,1.251,441.2024591,441.5005768,441.5005768,441.7172528,441.7342344,None,up,2.8493522,441.7342344,None,441.7342344,442.966694,0.1858014,None,,,,,,,,,41,1,2020_Jan_03_0920,untitled,3.1.0,60.05118763
196,G,N,135,R,N,196GN135RN,HRN,0,91,91,227,,,1.263,444.8578956,445.1475059,445.1475059,445.2976512,445.3157076,None,up,2.7633955,445.3157076,None,445.3157076,446.5631232,0.2604568,None,,,,,,,,,41,1,2020_Jan_03_0920,untitled,3.1.0,60.05118763
460,_5,M,135,R,N,460_5M135RN,HRN,0,92,92,179,,,1.195,448.4278056,448.7271424,448.7271424,448.7938672,448.8108799,None,None,,448.8108799,None,448.8108799,449.9927336,0.3346535,None,,,,,,,,,41,1,2020_Jan_03_0920,untitled,3.1.0,60.05118763
11,R,M,90,R,N,011RM090RN,HRN,0,93,93,98,,,0.92,452.4842532,452.773881,452.773881,452.9903576,453.0073439,452.4842532,down,2.1156714,453.0073439,None,453.0073439,453.9061124,0.1989242,None,,,,,,,,,41,1,2020_Jan_03_0920,untitled,3.1.0,60.05118763
_,F,N,315,_,_,_FN315__,N,0,94,94,55,,,0.738,455.3472326,455.6381762,455.6381762,455.8378949,455.855226,None,up,2.0991764,455.855226,None,455.855226,456.5705884,0.2116047,None,,,,,,,,,41,1,2020_Jan_03_0920,untitled,3.1.0,60.05118763
240,G,M,315,L,N,240GM315LN,HLN,0,95,95,143,,,0.925,458.3366693,458.6361263,458.6361263,458.669259,458.6869589,None,down,2.1992256,458.6869589,None,458.6869589,459.6012015,0.3669129,None,,,,,,,,,41,1,2020_Jan_03_0920,untitled,3.1.0,60.05118763
423,_4,N,270,L,N,423_4N270LN,HLN,0,96,96,270,,,1.185,461.1948441,461.5128683,461.5128683,461.6202413,461.6202413,None,up,2.1793394,461.6202413,None,461.6202413,462.7983573,0.2882918,None,,,,,,,,,41,1,2020_Jan_03_0920,untitled,3.1.0,60.05118763
15,R,M,270,R,N,015RM270RN,HRN,0,97,97,102,,,1.284,464.0358931,464.3302286,464.3302286,464.5138675,464.530264,None,down,2.3012332,464.530264,None,464.530264,465.795778,0.2236498,None,,,,,,,,,41,1,2020_Jan_03_0920,untitled,3.1.0,60.05118763
493,_5,M,180,L,N,493_5M180LN,HLN,0,98,98,188,,,1.011,467.0620542,467.3610551,467.3610551,467.5442752,467.5610093,None,up,2.3340313,467.5610093,None,467.5610093,468.5598483,0.2158097,None,,,,,,,,,41,1,2020_Jan_03_0920,untitled,3.1.0,60.05118763
_,R,M,0,_,_,_RM000__,N,0,99,99,16,,,1.313,470.1346053,470.425117,470.425117,470.6081233,470.6249365,None,down,2.3830193,470.6249365,None,470.6249365,471.9242304,0.2253196,None,,,,,,,,,41,1,2020_Jan_03_0920,untitled,3.1.0,60.05118763
_,_2,M,45,_,_,__2M045__,N,0,100,100,25,,,1.257,473.2776949,473.5724029,473.5724029,473.722651,473.7395855,None,down,3.0680621,473.7395855,None,473.7395855,474.987957,0.2548245,None,,,,,,,,,41,1,2020_Jan_03_0920,untitled,3.1.0,60.05118763
_,G,N,0,_,_,_GN000__,N,0,101,101,56,,,0.795,477.265622,477.265622,477.265622,477.5595898,477.5595898,None,up,1.6258039,477.5595898,None,477.5595898,478.3351109,0.4309277,None,,,,,,,,,41,1,2020_Jan_03_0920,untitled,3.1.0,60.05118763
227,G,N,90,L,N,227GN090LN,HLN,0,102,102,234,,,0.887,479.4957606,479.7842059,479.7842059,479.8999649,479.9169949,None,up,1.7991851,479.9169949,None,479.9169949,480.7828303,0.2973971,None,,,,,,,,,41,1,2020_Jan_03_0920,untitled,3.1.0,60.05118763
_,_4,N,135,_,_,__4N135__,N,0,103,103,83,,,1.292,481.9335298,482.2312867,482.2312867,482.4310402,482.4478795,None,up,2.4017698,482.4478795,None,482.4478795,483.7300788,0.2047095,None,,,,,,,,,41,1,2020_Jan_03_0920,untitled,3.1.0,60.05118763
_,F,N,45,_,_,_FN045__,N,0,104,104,49,,,1.261,485.1341074,485.4285332,485.4285332,485.5784179,485.5784179,None,up,2.3503786,485.5784179,None,485.5784179,486.8288284,0.2673936,None,,,,,,,,,41,1,2020_Jan_03_0920,untitled,3.1.0,60.05118763
_,R,N,225,_,_,_RN225__,N,0,105,105,69,,,0.849,488.292901,488.5928817,488.5928817,488.6425623,488.6594979,None,up,2.1843046,488.6594979,None,488.6594979,489.4926416,0.3489299,None,,,,,,,,,41,1,2020_Jan_03_0920,untitled,3.1.0,60.05118763
_,_2,N,90,_,_,__2N090__,N,0,106,106,74,,,0.891,491.1031557,491.3913685,491.3913685,491.5565039,491.5734974,None,up,1.8172462,491.5734974,None,491.5734974,492.4581928,0.2435479,None,,,,,,,,,41,1,2020_Jan_03_0920,untitled,3.1.0,60.05118763
_,_2,M,270,_,_,__2M270__,N,0,107,107,30,,,1.048,493.6450833,493.9378378,493.9378378,494.1043703,494.1208734,None,down,2.8980634,494.1208734,None,494.1208734,495.1533421,0.2392452,None,,,,,,,,,41,1,2020_Jan_03_0920,untitled,3.1.0,60.05118763
232,G,N,315,L,N,232GN315LN,HLN,0,108,108,239,,,1.326,497.2088548,497.5012604,497.5012604,497.734552,497.7512873,None,up,2.6652378,497.7512873,None,497.7512873,499.0664057,0.1791589,None,,,,,,,,,41,1,2020_Jan_03_0920,untitled,3.1.0,60.05118763
486,_5,N,225,L,N,486_5N225LN,HLN,0,109,109,285,,,0.86,500.615476,500.9151435,500.9151435,501.131362,501.1482313,None,up,2.2670758,501.1482313,None,501.1482313,501.9972841,0.1879982,None,,,,,,,,,41,1,2020_Jan_03_0920,untitled,3.1.0,60.05118763
197,G,N,180,R,N,197GN180RN,HRN,0,110,110,228,,,0.949,503.6392087,503.9313043,503.9313043,504.129173,504.1463908,None,up,2.1485406,504.1463908,None,504.1463908,505.0781511,0.2115366,None,,,,,,,,,41,1,2020_Jan_03_0920,untitled,3.1.0,60.05118763
_,G,M,45,_,_,_GM045__,N,0,111,111,9,,,0.724,506.4752215,506.7765693,506.7765693,507.0099997,507.0267184,None,down,1.9853919,507.0267184,None,507.0267184,507.7435402,0.1690494,None,,,,,,,,,41,1,2020_Jan_03_0920,untitled,3.1.0,60.05118763
427,_4,M,90,L,N,427_4M090LN,HLN,0,112,112,170,,,0.862,509.2622489,509.5573441,509.5573441,509.740636,509.740636,None,down,3.1336953,509.740636,None,509.740636,510.5899308,0.2307807,None,,,,,,,,,41,1,2020_Jan_03_0920,untitled,3.1.0,60.05118763
496,_5,M,315,L,N,496_5M315LN,HLN,0,113,113,191,,,1.014,513.0710666,513.3706493,513.3706493,513.5882366,513.6055939,None,up,2.7640891,513.6055939,None,513.6055939,514.6031738,0.1829336,None,,,,,,,,,41,1,2020_Jan_03_0920,untitled,3.1.0,60.05118763
207,G,M,270,R,N,207GM270RN,HRN,0,114,114,134,,,0.841,516.5813961,516.8695809,516.8695809,517.0843485,517.1012514,None,down,2.7349117,517.1012514,None,517.1012514,517.9336314,0.1989064,None,,,,,,,,,41,1,2020_Jan_03_0920,untitled,3.1.0,60.05118763
260,_2,N,135,R,N,260_2N135RN,HRN,0,115,115,243,,,1.197,520.1128411,520.4151265,520.4151265,520.565851,520.565851,None,up,3.4644109,520.565851,None,520.565851,521.7474834,0.2588485,None,,,,,,,,,41,1,2020_Jan_03_0920,untitled,3.1.0,60.05118763
_,G,M,0,_,_,_GM000__,N,0,116,116,8,,,1.327,524.362835,524.682545,524.682545,524.745924,524.7642091,None,down,2.513033,524.7642091,None,524.7642091,526.0763408,0.3124493,None,,,,,,,,,41,1,2020_Jan_03_0920,untitled,3.1.0,60.05118763
297,_2,M,0,L,N,297_2M000LN,HLN,0,117,117,152,,,1.163,527.4964288,527.7915438,527.7915438,527.9915801,528.0080594,None,down,2.149639,528.0080594,None,528.0080594,529.1571659,0.2068677,None,,,,,,,,,41,1,2020_Jan_03_0920,untitled,3.1.0,60.05118763
481,_5,N,0,L,N,481_5N000LN,HLN,0,118,118,280,,,0.888,530.3970381,530.689196,530.689196,530.8721425,530.8889721,None,up,1.7004133,530.8889721,None,530.8889721,531.7809361,0.2253182,None,,,,,,,,,41,1,2020_Jan_03_0920,untitled,3.1.0,60.05118763
176,F,M,315,L,N,176FM315LN,HLN,0,119,119,127,,,0.793,532.9229571,533.2209188,533.2209188,533.3038859,533.3217288,None,up,2.0322804,533.3217288,None,533.3217288,534.1026527,0.3193403,None,,,,,,,,,41,1,2020_Jan_03_0920,untitled,3.1.0,60.05118763
_,G,M,270,_,_,_GM270__,N,0,120,120,14,,,0.88,535.5843916,535.8849089,535.8849089,536.0680028,536.0851822,None,down,2.1012395,536.0851822,None,536.0851822,536.9507839,0.2174593,None,,,,,,,,,41,1,2020_Jan_03_0920,untitled,3.1.0,60.05118763
_,_5,N,270,_,_,__5N270__,N,0,121,121,94,,,1.097,538.4171211,538.7154103,538.7154103,538.8990834,538.9159735,None,up,2.1319036,538.9159735,None,538.9159735,540.0004309,0.2152597,None,,,,,,,,,41,1,2020_Jan_03_0920,untitled,3.1.0,60.05118763
_,F,M,0,_,_,_FM000__,N,0,122,122,0,,,1.147,541.2963017,541.5963049,541.5963049,541.762591,541.7794107,None,down,1.9994848,541.7794107,None,541.7794107,542.9116457,0.2365232,None,,,,,,,,,41,1,2020_Jan_03_0920,untitled,3.1.0,60.05118763
262,_2,N,225,R,N,262_2N225RN,HRN,0,123,123,245,,,0.798,543.99665,544.2936212,544.2936212,544.4937456,544.5104493,None,up,1.9008916,544.5104493,None,544.5104493,545.292863,0.2056096,None,,,,,,,,,41,1,2020_Jan_03_0920,untitled,3.1.0,60.05118763
_,G,M,135,_,_,_GM135__,N,0,124,124,11,,,1.029,546.6057526,546.9080362,546.9080362,547.1246383,547.1413809,None,down,2.965426,547.1413809,None,547.1413809,548.1578797,0.1822444,None,,,,,,,,,41,1,2020_Jan_03_0920,untitled,3.1.0,60.05118763
398,_4,M,225,R,N,398_4M225RN,HRN,0,125,125,165,,,1.204,550.390515,550.6882869,550.6882869,550.8227432,550.8408029,None,down,2.4471711,550.8408029,None,550.8408029,552.021112,0.2704146,None,,,,,,,,,41,1,2020_Jan_03_0920,untitled,3.1.0,60.05118763
168,F,N,315,L,N,168FN315LN,HLN,0,126,126,223,,,1.199,553.581186,553.8703665,553.8703665,554.0020331,554.0187852,None,up,2.6658292,554.0187852,None,554.0187852,555.2048401,0.2787206,None,,,,,,,,,41,1,2020_Jan_03_0920,untitled,3.1.0,60.05118763
_,_2,M,135,_,_,__2M135__,N,0,127,127,27,,,1.245,556.8853353,557.1824006,557.1824006,557.3990678,557.4168876,None,None,,557.4168876,None,557.4168876,558.6480017,0.1884814,None,,,,,,,,,41,1,2020_Jan_03_0920,untitled,3.1.0,60.05118763
133,F,N,180,R,N,133FN180RN,HRN,0,128,128,212,,,1.227,561.0879067,561.3790629,561.3790629,561.5954198,561.61204,561.0879067,up,2.8828582,561.61204,None,561.61204,562.8293096,0.1956951,None,,,,,,,,,41,1,2020_Jan_03_0920,untitled,3.1.0,60.05118763
_,_5,N,180,_,_,__5N180__,N,0,129,129,92,,,1.361,564.7345378,565.0258698,565.0258698,565.2089963,565.22574,None,up,2.8825157,565.22574,None,565.22574,566.5746348,0.2266759,None,,,,,,,,,41,1,2020_Jan_03_0920,untitled,3.1.0,60.05118763
_,R,M,180,_,_,_RM180__,N,0,130,130,20,,,0.792,568.385763,568.6731259,568.6731259,568.8230297,568.8399858,None,up,2.3007861,568.8399858,None,568.8399858,569.621718,0.2607775,None,,,,,,,,,41,1,2020_Jan_03_0920,untitled,3.1.0,60.05118763
453,_5,N,180,R,N,453_5N180RN,HRN,0,131,131,276,,,1.035,571.4626208,571.7533074,571.7533074,571.8529876,571.8698828,None,up,2.2017746,571.8698828,None,571.8698828,572.9024205,0.3053422,None,,,,,,,,,41,1,2020_Jan_03_0920,untitled,3.1.0,60.05118763
233,G,M,0,L,N,233GM000LN,HLN,0,132,132,136,,,0.7,574.3676892,574.6674073,574.6674073,574.7841613,574.8007042,None,up,2.4832464,574.8007042,None,574.8007042,575.4835261,0.2819659,None,,,,,,,,,41,1,2020_Jan_03_0920,untitled,3.1.0,60.05118763
292,_2,N,135,L,N,292_2N135LN,HLN,0,133,133,251,,,1.274,577.6106851,577.9126134,577.9126134,577.9975693,578.014374,None,up,2.3174734,578.014374,None,578.014374,579.2797461,0.3132284,None,,,,,,,,,41,1,2020_Jan_03_0920,untitled,3.1.0,60.05118763
295,_2,N,270,L,N,295_2N270LN,HLN,0,134,134,254,,,1.282,580.6490764,580.9451084,580.9451084,581.0621821,581.0621821,None,up,2.7668374,581.0621821,None,581.0621821,582.3443582,0.2988208,None,,,,,,,,,41,1,2020_Jan_03_0920,untitled,3.1.0,60.05118763
_,R,M,270,_,_,_RM270__,N,0,135,135,22,,,1.059,584.0980843,584.3924697,584.3924697,584.5427087,584.5599876,None,down,2.3002518,584.5599876,None,584.5599876,585.6079094,0.253026,None,,,,,,,,,41,1,2020_Jan_03_0920,untitled,3.1.0,60.05118763
202,G,M,45,R,N,202GM045RN,HRN,0,136,136,129,,,0.933,587.2007786,587.489402,587.489402,587.5902606,587.5902606,None,up,2.4834646,587.5902606,None,587.5902606,588.5216344,0.3228297,None,,,,,,,,,41,1,2020_Jan_03_0920,untitled,3.1.0,60.05118763
_,G,N,180,_,_,_GN180__,N,0,137,137,60,,,1.067,590.2993399,590.5887006,590.5887006,590.786943,590.8034449,None,up,2.3823435,590.8034449,None,590.8034449,591.853209,0.2138333,None,,,,,,,,,41,1,2020_Jan_03_0920,untitled,3.1.0,60.05118763
_,F,N,270,_,_,_FN270__,N,0,138,138,54,,,1.232,593.4092413,593.7007784,593.7007784,593.9007203,593.9174263,None,up,2.1845444,593.9174263,None,593.9174263,595.1328832,0.2107427,None,,,,,,,,,41,1,2020_Jan_03_0920,untitled,3.1.0,60.05118763
462,_5,M,225,R,N,462_5M225RN,HRN,0,139,139,181,,,0.906,596.3489429,596.648085,596.648085,596.8159965,596.8345136,None,down,2.5139456,596.8345136,None,596.8345136,597.731571,0.2322406,None,,,,,,,,,41,1,2020_Jan_03_0920,untitled,3.1.0,60.05118763
_,F,M,315,_,_,_FM315__,N,0,140,140,7,,,1.355,599.6125782,599.9121483,599.9121483,600.061724,600.0784475,None,down,3.1327413,600.0784475,None,600.0784475,601.4275079,0.2469341,None,,,,,,,,,41,1,2020_Jan_03_0920,untitled,3.1.0,60.05118763
_,_4,M,270,_,_,__4M270__,N,0,141,141,38,,,1.007,603.4038139,603.6923303,603.6923303,603.9250891,603.9418827,None,down,2.2329628,603.9418827,None,603.9418827,604.9411257,0.1809152,None,,,,,,,,,41,1,2020_Jan_03_0920,untitled,3.1.0,60.05118763
_,F,M,225,_,_,_FM225__,N,0,142,142,5,,,0.928,606.3944853,606.6894105,606.6894105,606.8894541,606.9060742,None,up,2.5155663,606.9060742,None,606.9060742,607.8232202,0.2077624,None,,,,,,,,,41,1,2020_Jan_03_0920,untitled,3.1.0,60.05118763
_,_2,M,180,_,_,__2M180__,N,0,143,143,28,,,1.105,609.6299261,609.9201862,609.9201862,610.1362811,610.1535304,None,down,3.2811611,610.1535304,None,610.1535304,611.2520508,0.1955277,None,,,,,,,,,41,1,2020_Jan_03_0920,untitled,3.1.0,60.05118763
421,_4,N,180,L,N,421_4N180LN,HLN,0,144,144,268,,,1.248,613.6707139,613.9663848,613.9663848,614.1499743,614.1667738,None,up,2.914959,614.1667738,None,614.1667738,615.3988426,0.2208486,None,,,,,,,,,41,1,2020_Jan_03_0920,untitled,3.1.0,60.05118763
203,G,M,90,R,N,203GM090RN,HRN,0,145,145,130,,,1.012,617.4163492,617.7346569,617.7346569,617.844965,617.844965,None,up,2.3514013,617.844965,None,617.844965,618.813378,0.3145573,None,,,,,,,,,41,1,2020_Jan_03_0920,untitled,3.1.0,60.05118763
_,F,N,225,_,_,_FN225__,N,0,146,146,53,,,0.958,620.4436815,620.7437939,620.7437939,620.9105732,620.9273687,None,up,2.0176563,620.9273687,None,620.9273687,621.8761119,0.230794,None,,,,,,,,,41,1,2020_Jan_03_0920,untitled,3.1.0,60.05118763
_,_5,N,90,_,_,__5N090__,N,0,147,147,90,,,0.935,623.2043407,623.4933211,623.4933211,623.6579139,623.6747018,None,up,1.8012972,623.6747018,None,623.6747018,624.6071544,0.2434927,None,,,,,,,,,41,1,2020_Jan_03_0920,untitled,3.1.0,60.05118763
174,F,M,225,L,N,174FM225LN,HLN,0,148,148,125,,,1.346,625.7087643,626.0060131,626.0060131,626.1891389,626.2060524,None,None,,626.2060524,None,626.2060524,627.5378755,0.2200106,None,,,,,,,,,41,1,2020_Jan_03_0920,untitled,3.1.0,60.05118763
_,_4,M,180,_,_,__4M180__,N,0,149,149,36,,,1.184,629.9157491,630.2040176,630.2040176,630.3858349,630.4027952,629.9157491,up,2.8177137,630.4027952,None,630.4027952,631.5681328,0.2308661,None,,,,,,,,,41,1,2020_Jan_03_0920,untitled,3.1.0,60.05118763
_,F,N,0,_,_,_FN000__,N,0,150,150,48,,,0.817,633.6554584,633.6554584,633.6554584,633.9520436,633.9520436,None,up,1.8817952,633.9520436,None,633.9520436,634.764707,0.4105032,None,,,,,,,,,41,1,2020_Jan_03_0920,untitled,3.1.0,60.05118763
_,G,N,45,_,_,_GN045__,N,0,151,151,57,,,1.268,636.0840649,636.380045,636.380045,636.5465364,636.5634955,None,up,2.232477,636.5634955,None,636.5634955,637.8134509,0.2370181,None,,,,,,,,,41,1,2020_Jan_03_0920,untitled,3.1.0,60.05118763
302,_2,M,225,L,N,302_2M225LN,HLN,0,152,152,157,,,1.257,639.0287642,639.3274699,639.3274699,639.5109828,639.5275591,None,down,2.8162191,639.5275591,None,639.5275591,640.7763318,0.2202019,None,,,,,,,,,41,1,2020_Jan_03_0920,untitled,3.1.0,60.05118763
301,_2,M,180,L,N,301_2M180LN,HLN,0,153,153,156,,,0.805,642.5905304,642.8911296,642.8911296,643.0576806,643.0743261,None,down,2.1009032,643.0743261,None,643.0743261,643.8582918,0.2322839,None,,,,,,,,,41,1,2020_Jan_03_0920,untitled,3.1.0,60.05118763
390,_4,N,225,R,N,390_4N225RN,HRN,0,154,154,261,,,1.055,645.4558987,645.7553638,645.7553638,645.8887388,645.9061565,None,up,2.0151424,645.9061565,None,645.9061565,646.9542503,0.2658545,None,,,,,,,,,41,1,2020_Jan_03_0920,untitled,3.1.0,60.05118763
144,F,M,315,R,N,144FM315RN,HRN,0,155,155,119,,,1.124,648.1520209,648.4546176,648.4546176,648.6377571,648.656811,None,down,2.2457254,648.656811,None,648.656811,649.7684554,0.2158541,None,,,,,,,,,41,1,2020_Jan_03_0920,untitled,3.1.0,60.05118763
143,F,M,270,R,N,143FM270RN,HRN,0,156,156,118,,,1.022,651.1208174,651.4170165,651.4170165,651.6168832,651.6336857,None,down,1.750249,651.6336857,None,651.6336857,652.6495203,0.2053211,None,,,,,,,,,41,1,2020_Jan_03_0920,untitled,3.1.0,60.05118763
_,G,N,270,_,_,_GN270__,N,0,157,157,62,,,0.779,653.6146742,653.9146706,653.9146706,654.0985217,654.1146913,None,up,1.5511707,654.1146913,None,654.1146913,654.8811445,0.2176454,None,,,,,,,,,41,1,2020_Jan_03_0920,untitled,3.1.0,60.05118763
48,R,M,315,L,N,048RM315LN,HLN,0,158,158,111,,,1.018,656.0030124,656.2962303,656.2962303,656.3792871,656.3961571,None,down,1.8672713,656.3961571,None,656.3961571,657.3952744,0.3247279,None,,,,,,,,,41,1,2020_Jan_03_0920,untitled,3.1.0,60.05118763
259,_2,N,90,R,N,259_2N090RN,HRN,0,159,159,242,,,1.259,658.8252765,658.8252765,658.8252765,659.1169079,659.1169079,None,up,1.9439412,659.1169079,None,659.1169079,660.2434925,0.5399912,None,,,,,,,,,41,1,2020_Jan_03_0920,untitled,3.1.0,60.05118763
485,_5,N,180,L,N,485_5N180LN,HLN,0,160,160,284,,,0.998,661.3338594,661.6252014,661.6252014,661.7753095,661.79185,None,down,1.8005056,661.79185,None,661.79185,662.7738129,0.2582073,None,,,,,,,,,41,1,2020_Jan_03_0920,untitled,3.1.0,60.05118763
_,_4,M,90,_,_,__4M090__,N,0,161,161,34,,,1.191,663.8534137,664.1544843,664.1544843,664.3611707,664.3611707,None,down,2.2603391,664.3611707,None,664.3611707,665.5051219,0.2461398,None,,,,,,,,,41,1,2020_Jan_03_0920,untitled,3.1.0,60.05118763
226,G,N,45,L,N,226GN045LN,HLN,0,162,162,233,,,1.338,666.9363707,667.2365448,667.2365448,667.3361896,667.35344,None,up,2.1500939,667.35344,None,667.35344,668.6689443,0.3021299,None,,,,,,,,,41,1,2020_Jan_03_0920,untitled,3.1.0,60.05118763
235,G,M,90,L,N,235GM090LN,HLN,0,163,163,138,,,1.294,669.7412049,670.0343387,670.0343387,670.2171741,670.2339097,None,down,2.1662011,670.2339097,None,670.2339097,671.5165634,0.2248154,None,,,,,,,,,41,1,2020_Jan_03_0920,untitled,3.1.0,60.05118763
9,R,M,0,R,N,009RM000RN,HRN,0,164,164,96,,,0.846,672.6227978,672.9152274,672.9152274,673.1153094,673.1322932,None,down,1.8822744,673.1322932,None,673.1322932,673.963836,0.211304,None,,,,,,,,,41,1,2020_Jan_03_0920,untitled,3.1.0,60.05118763
_,F,N,135,_,_,_FN135__,N,0,165,165,51,,,1.207,675.226003,675.514215,675.514215,675.729676,675.7466117,None,down,1.9995076,675.7466117,None,675.7466117,676.9452879,0.1992114,None,,,,,,,,,41,1,2020_Jan_03_0920,untitled,3.1.0,60.05118763
_,_4,M,135,_,_,__4M135__,N,0,166,166,35,,,0.997,678.0380262,678.3276093,678.3276093,678.4601414,678.4766794,None,down,2.6489829,678.4766794,None,678.4766794,679.4606232,0.2756556,None,,,,,,,,,41,1,2020_Jan_03_0920,untitled,3.1.0,60.05118763
424,_4,N,315,L,N,424_4N315LN,HLN,0,167,167,271,,,1.334,681.3273951,681.6237978,681.6237978,681.8402297,681.8571676,None,up,2.383475,681.8571676,None,681.8571676,683.172395,0.1894692,None,,,,,,,,,41,1,2020_Jan_03_0920,untitled,3.1.0,60.05118763
_,_5,N,315,_,_,__5N315__,N,0,168,168,95,,,0.895,684.4616973,684.7547111,684.7547111,684.9544432,684.971195,None,up,1.9330712,684.971195,None,684.971195,685.8539883,0.2078967,None,,,,,,,,,41,1,2020_Jan_03_0920,untitled,3.1.0,60.05118763
231,G,N,270,L,N,231GN270LN,HLN,0,169,169,238,,,0.962,687.1341277,687.4354818,687.4354818,687.6190829,687.6358817,None,up,2.1179073,687.6358817,None,687.6358817,688.5856933,0.2173798,None,,,,,,,,,41,1,2020_Jan_03_0920,untitled,3.1.0,60.05118763
422,_4,N,225,L,N,422_4N225LN,HLN,0,170,170,269,,,1.047,689.9537637,690.2499682,690.2499682,690.4676484,690.4851976,None,up,1.980915,690.4851976,None,690.4851976,691.5155926,0.1880252,None,,,,,,,,,41,1,2020_Jan_03_0920,untitled,3.1.0,60.05118763
13,R,M,180,R,N,013RM180RN,HRN,0,171,171,100,,,1.16,692.7092876,692.9995154,692.9995154,693.1810034,693.1980542,None,down,2.0511242,693.1980542,None,693.1980542,694.3460765,0.2288063,None,,,,,,,,,41,1,2020_Jan_03_0920,untitled,3.1.0,60.05118763
134,F,N,225,R,N,134FN225RN,HRN,0,172,172,213,,,0.977,695.6005539,695.8950672,695.8950672,695.9782795,695.9782795,None,up,2.2514491,695.9782795,None,695.9782795,696.943807,0.3318339,None,,,,,,,,,41,1,2020_Jan_03_0920,untitled,3.1.0,60.05118763
458,_5,M,45,R,N,458_5M045RN,HRN,0,173,173,177,,,1.039,698.485588,698.7760297,698.7760297,698.9591699,698.9591699,None,down,2.9991943,698.9591699,None,698.9591699,699.991441,0.2375329,None,,,,,,,,,41,1,2020_Jan_03_0920,untitled,3.1.0,60.05118763
449,_5,N,0,R,N,449_5N000RN,HRN,0,174,174,272,,,1.127,702.1686578,702.4560011,702.4560011,702.672401,702.6900122,None,up,1.9482809,702.6900122,None,702.6900122,703.8054487,0.1972171,None,,,,,,,,,41,1,2020_Jan_03_0920,untitled,3.1.0,60.05118763
420,_4,N,135,L,N,420_4N135LN,HLN,0,175,175,267,,,0.905,704.8811088,705.1704321,705.1704321,705.3532899,705.3700396,None,up,2.2679942,705.3700396,None,705.3700396,706.2528371,0.2306075,None,,,,,,,,,41,1,2020_Jan_03_0920,untitled,3.1.0,60.05118763
271,_2,M,270,R,N,271_2M270RN,HRN,0,176,176,150,,,0.895,707.9155752,708.2180202,708.2180202,708.3511147,708.3683634,None,down,2.7694041,708.3683634,None,708.3683634,709.2508159,0.2608394,None,,,,,,,,,41,1,2020_Jan_03_0920,untitled,3.1.0,60.05118763
_,_5,M,180,_,_,__5M180__,N,0,177,177,44,,,1.224,711.527466,711.8166222,711.8166222,711.8642772,711.8815613,None,None,,711.8815613,None,711.8815613,713.0795735,0.3702121,None,,,,,,,,,41,1,2020_Jan_03_0920,untitled,3.1.0,60.05118763
_,R,M,315,_,_,_RM315__,N,0,178,178,23,,,1.297,715.5217495,715.8120882,715.8120882,716.0603413,716.0770158,715.5217495,down,2.15019,716.0770158,None,716.0770158,717.3592972,0.1662222,None,,,,,,,,,41,1,2020_Jan_03_0920,untitled,3.1.0,60.05118763
492,_5,M,135,L,N,492_5M135LN,HLN,0,179,179,187,,,1.067,718.4390919,718.7414547,718.7414547,718.9412767,718.9580263,None,None,,718.9580263,None,718.9580263,720.0072442,0.1988187,None,,,,,,,,,41,1,2020_Jan_03_0920,untitled,3.1.0,60.05118763
_,_5,N,225,_,_,__5N225__,N,0,180,180,93,,,0.952,722.6613621,722.9547078,722.9547078,723.1382131,723.1556644,722.6613621,up,2.6981707,723.1556644,None,723.1556644,724.0870659,0.2285133,None,,,,,,,,,41,1,2020_Jan_03_0920,untitled,3.1.0,60.05118763
_,_5,M,225,_,_,__5M225__,N,0,181,181,45,,,0.81,726.1795642,726.4687394,726.4687394,726.5688555,726.5850084,None,down,2.1523126,726.5850084,None,726.5850084,727.3839807,0.311507,None,,,,,,,,,41,1,2020_Jan_03_0920,untitled,3.1.0,60.05118763
267,_2,M,90,R,N,267_2M090RN,HRN,0,182,182,146,,,1.083,729.0036969,729.2991301,729.2991301,729.4655013,729.4655013,None,up,2.7157182,729.4655013,None,729.4655013,730.5480541,0.2470889,None,,,,,,,,,41,1,2020_Jan_03_0920,untitled,3.1.0,60.05118763
132,F,N,135,R,N,132FN135RN,HRN,0,183,183,211,,,1.245,732.3996299,732.6960161,732.6960161,732.896124,732.9125361,None,up,2.6323257,732.9125361,None,732.9125361,734.1451258,0.206249,None,,,,,,,,,41,1,2020_Jan_03_0920,untitled,3.1.0,60.05118763
298,_2,M,45,L,N,298_2M045LN,HLN,0,184,184,153,,,1.302,735.7857697,736.0763839,736.0763839,736.2601731,736.2769354,None,up,3.3485569,736.2769354,None,736.2769354,737.5589815,0.2258772,None,,,,,,,,,41,1,2020_Jan_03_0920,untitled,3.1.0,60.05118763
456,_5,N,315,R,N,456_5N315RN,HRN,0,185,185,279,,,1.262,739.8843778,740.1735312,740.1735312,740.3399371,740.357251,None,up,2.2141475,740.357251,None,740.357251,741.6051233,0.2412399,None,,,,,,,,,41,1,2020_Jan_03_0920,untitled,3.1.0,60.05118763
290,_2,N,45,L,N,290_2N045LN,HLN,0,186,186,249,,,1.005,742.8122577,743.1041662,743.1041662,743.2881271,743.3076424,None,up,2.0780679,743.3076424,None,743.3076424,744.2903846,0.2273009,None,,,,,,,,,41,1,2020_Jan_03_0920,untitled,3.1.0,60.05118763
34,R,N,45,L,N,034RN045LN,HLN,0,187,187,201,,,0.807,745.6429978,745.9346659,745.9346659,746.1010626,746.1177116,None,up,1.9336284,746.1177116,None,746.1177116,746.9176391,0.2450839,None,,,,,,,,,41,1,2020_Jan_03_0920,untitled,3.1.0,60.05118763
131,F,N,90,R,N,131FN090RN,HRN,0,188,188,210,,,1.304,748.2974253,748.5988597,748.5988597,748.7652095,748.782087,None,up,3.0509053,748.782087,None,748.782087,750.0812105,0.2334406,None,,,,,,,,,41,1,2020_Jan_03_0920,untitled,3.1.0,60.05118763
10,R,M,45,R,N,010RM045RN,HRN,0,189,189,97,,,1.16,752.0587014,752.3474563,752.3474563,752.5452724,752.5622118,None,down,2.1157197,752.5622118,None,752.5622118,753.7112409,0.2112639,None,,,,,,,,,41,1,2020_Jan_03_0920,untitled,3.1.0,60.05118763
303,_2,M,270,L,N,303_2M270LN,HLN,0,190,190,158,,,0.967,754.9222594,755.2119321,755.2119321,755.3934468,755.4112386,None,up,2.717178,755.4112386,None,755.4112386,756.3586506,0.2319188,None,,,,,,,,,41,1,2020_Jan_03_0920,untitled,3.1.0,60.05118763
393,_4,M,0,R,N,393_4M000RN,HRN,0,191,191,160,,,1.12,758.4576713,758.7580648,758.7580648,758.8411549,758.8606677,None,up,2.0455517,758.8606677,None,758.8606677,759.9604523,0.3123488,None,,,,,,,,,41,1,2020_Jan_03_0920,untitled,3.1.0,60.05118763
392,_4,N,315,R,N,392_4N315RN,HRN,0,192,192,263,,,1.059,761.1859153,761.4876818,761.4876818,761.6206627,761.6375136,None,up,1.9010847,761.6375136,None,761.6375136,762.6864428,0.2676256,None,,,,,,,,,41,1,2020_Jan_03_0920,untitled,3.1.0,60.05118763
43,R,M,90,L,N,043RM090LN,HLN,0,193,193,106,,,1.323,763.8492706,764.151829,764.151829,764.2516019,764.2685723,None,down,2.3365189,764.2685723,None,764.2685723,765.5839493,0.2986649,None,,,,,,,,,41,1,2020_Jan_03_0920,untitled,3.1.0,60.05118763
198,G,N,225,R,N,198GN225RN,HRN,0,194,194,229,,,1.157,766.9334303,767.2325769,767.2325769,767.3158429,767.3327963,None,up,2.1163204,767.3327963,None,767.3327963,768.4813855,0.3149331,None,,,,,,,,,41,1,2020_Jan_03_0920,untitled,3.1.0,60.05118763
165,F,N,180,L,N,165FN180LN,HLN,0,195,195,220,,,1.022,769.7122468,770.0143357,770.0143357,770.1635024,770.1800731,None,up,2.6170411,770.1800731,None,770.1800731,771.1964846,0.2497126,None,,,,,,,,,41,1,2020_Jan_03_0920,untitled,3.1.0,60.05118763
166,F,N,225,L,N,166FN225LN,HLN,0,196,196,221,,,1.156,773.0765428,773.3770939,773.3770939,773.5102233,773.5271549,None,up,2.2026528,773.5271549,None,773.5271549,774.6801697,0.2627763,None,,,,,,,,,41,1,2020_Jan_03_0920,untitled,3.1.0,60.05118763
293,_2,N,180,L,N,293_2N180LN,HLN,0,197,197,252,,,1.339,776.1242013,776.4243568,776.4243568,776.4578515,776.4578515,None,up,2.0829285,776.4578515,None,776.4578515,777.7904217,0.3788944,None,,,,,,,,,41,1,2020_Jan_03_0920,untitled,3.1.0,60.05118763
35,R,N,90,L,N,035RN090LN,HLN,0,198,198,202,,,0.706,778.7733034,779.0722806,779.0722806,779.2552767,779.2722866,None,up,1.533794,779.2722866,None,779.2722866,779.9713867,0.2190385,None,,,,,,,,,41,1,2020_Jan_03_0920,untitled,3.1.0,60.05118763
387,_4,N,90,R,N,387_4N090RN,HRN,0,199,199,258,,,1.046,781.0489107,781.3382871,781.3382871,781.5371372,781.5371372,None,up,2.1328352,781.5371372,None,781.5371372,782.5696462,0.2251898,None,,,,,,,,,41,1,2020_Jan_03_0920,untitled,3.1.0,60.05118763
_,R,N,0,_,_,_RN000__,N,0,200,200,64,,,0.995,783.9983464,784.2860403,784.2860403,784.3841127,784.4011502,None,up,1.7674087,784.4011502,None,784.4011502,785.3834453,0.3127108,None,,,,,,,,,41,1,2020_Jan_03_0920,untitled,3.1.0,60.05118763
_,F,M,90,_,_,_FM090__,N,0,201,201,2,,,0.793,786.4144878,786.7156517,786.7156517,786.8826131,786.8996874,None,down,1.7169974,786.8996874,None,786.8996874,787.6815952,0.2301088,None,,,,,,,,,41,1,2020_Jan_03_0920,untitled,3.1.0,60.05118763
_,_5,N,45,_,_,__5N045__,N,0,202,202,89,,,1.3,788.9307007,789.2298413,789.2298413,789.3302131,789.3465547,None,up,2.6989333,789.3465547,None,789.3465547,790.6313901,0.3000995,None,,,,,,,,,41,1,2020_Jan_03_0920,untitled,3.1.0,60.05118763
_,R,N,135,_,_,_RN135__,N,0,203,203,67,,,1.164,792.2390773,792.5278325,792.5278325,792.7603624,792.7769282,None,up,2.4669204,792.7769282,None,792.7769282,793.9262075,0.1815404,None,,,,,,,,,41,1,2020_Jan_03_0920,untitled,3.1.0,60.05118763
482,_5,N,45,L,N,482_5N045LN,HLN,0,204,204,281,,,1.238,795.5322299,795.8248513,795.8248513,795.9575811,795.974337,None,up,3.0497493,795.974337,None,795.974337,797.2064161,0.2757378,None,,,,,,,,,41,1,2020_Jan_03_0920,untitled,3.1.0,60.05118763
138,F,M,45,R,N,138FM045RN,HRN,0,205,205,113,,,1.305,799.3631464,799.6545452,799.6545452,799.737566,799.7546863,None,down,2.5166339,799.7546863,None,799.7546863,801.0532761,0.326243,None,,,,,,,,,41,1,2020_Jan_03_0920,untitled,3.1.0,60.05118763
399,_4,M,270,R,N,399_4M270RN,HRN,0,206,206,166,,,0.797,802.5224822,802.8189677,802.8189677,802.9851677,803.0023476,None,down,1.8664664,803.0023476,None,803.0023476,803.7848991,0.2358544,None,,,,,,,,,41,1,2020_Jan_03_0920,untitled,3.1.0,60.05118763
163,F,N,90,L,N,163FN090LN,HLN,0,207,207,218,,,0.931,805.1669563,805.465531,805.465531,805.5824592,805.5993444,None,up,1.8341353,805.5993444,None,805.5993444,806.5162695,0.2824875,None,,,,,,,,,41,1,2020_Jan_03_0920,untitled,3.1.0,60.05118763
_,_4,N,225,_,_,__4N225__,N,0,208,208,85,,,0.771,807.6723598,807.9636153,807.9636153,808.1482594,808.1648096,None,up,1.7502361,808.1648096,None,808.1648096,808.9294605,0.2245937,None,,,,,,,,,41,1,2020_Jan_03_0920,untitled,3.1.0,60.05118763
268,_2,M,135,R,N,268_2M135RN,HRN,0,209,209,147,,,0.986,810.1445722,810.4447174,810.4447174,810.6279662,810.6446905,None,down,2.7501338,810.6446905,None,810.6446905,811.6104214,0.2166362,None,,,,,,,,,41,1,2020_Jan_03_0920,untitled,3.1.0,60.05118763
_,_4,M,0,_,_,__4M000__,N,0,210,210,32,,,0.978,813.5810795,813.8752317,813.8752317,814.1081467,814.1250349,None,up,1.8171138,814.1250349,None,814.1250349,815.091041,0.1738777,None,,,,,,,,,41,1,2020_Jan_03_0920,untitled,3.1.0,60.05118763
129,F,N,0,R,N,129FN000RN,HRN,0,211,211,208,,,0.905,816.1820283,816.4733728,816.4733728,816.6562342,816.6728019,None,up,1.8010283,816.6728019,None,816.6728019,817.5732358,0.2260773,None,,,,,,,,,41,1,2020_Jan_03_0920,untitled,3.1.0,60.05118763
_,_2,N,45,_,_,__2N045__,N,0,212,212,73,,,1.144,818.7036239,819.0045773,819.0045773,819.1882238,819.204589,None,up,1.948774,819.204589,None,819.204589,820.3368242,0.2155595,None,,,,,,,,,41,1,2020_Jan_03_0920,untitled,3.1.0,60.05118763
161,F,N,0,L,N,161FN000LN,HLN,0,213,213,216,,,0.918,821.346757,821.6378394,821.6378394,821.8695796,821.8885758,None,up,1.5808052,821.8885758,None,821.8885758,822.7865002,0.1802715,None,,,,,,,,,41,1,2020_Jan_03_0920,untitled,3.1.0,60.05118763
395,_4,M,90,R,N,395_4M090RN,HRN,0,214,214,162,,,0.949,823.7008469,823.9995992,823.9995992,824.1827863,824.1994813,None,down,1.7828296,824.1994813,None,824.1994813,825.1317798,0.2170299,None,,,,,,,,,41,1,2020_Jan_03_0920,untitled,3.1.0,60.05118763
7,R,N,270,R,N,007RN270RN,HRN,0,215,215,198,,,0.834,826.1711534,826.4640687,826.4640687,826.6971406,826.7140835,None,up,1.6512399,826.7140835,None,826.7140835,827.5298458,0.1754999,None,,,,,,,,,41,1,2020_Jan_03_0920,untitled,3.1.0,60.05118763
400,_4,M,315,R,N,400_4M315RN,HRN,0,216,216,167,,,1.157,828.5789999,828.8788463,828.8788463,829.0786071,829.0952877,None,down,3.0159092,829.0952877,None,829.0952877,830.2442937,0.1990037,None,,,,,,,,,41,1,2020_Jan_03_0920,untitled,3.1.0,60.05118763
_,_4,N,0,_,_,__4N000__,N,0,217,217,80,,,1.054,832.3203495,832.6097881,832.6097881,832.8267715,832.8433155,None,up,1.8499309,832.8433155,None,832.8433155,833.874865,0.1949046,None,,,,,,,,,41,1,2020_Jan_03_0920,untitled,3.1.0,60.05118763
_,G,N,225,_,_,_GN225__,N,0,218,218,61,,,0.88,834.9769144,835.2733178,835.2733178,835.4068154,835.4238745,None,up,1.6657484,835.4238745,None,835.4238745,836.2897409,0.2681552,None,,,,,,,,,41,1,2020_Jan_03_0920,untitled,3.1.0,60.05118763
229,G,N,180,L,N,229GN180LN,HLN,0,219,219,236,,,0.702,837.3801262,837.6722834,837.6722834,837.8059326,837.826202,None,down,1.7780661,837.826202,None,837.826202,838.5045168,0.2730914,None,,,,,,,,,41,1,2020_Jan_03_0920,untitled,3.1.0,60.05118763
296,_2,N,315,L,N,296_2N315LN,HLN,0,220,220,255,,,1.174,839.8429629,840.1355336,840.1355336,840.3187409,840.3355877,None,up,2.9319161,840.3355877,None,840.3355877,841.5010752,0.2264823,None,,,,,,,,,41,1,2020_Jan_03_0920,untitled,3.1.0,60.05118763
_,_5,N,0,_,_,__5N000__,N,0,221,221,88,,,1.137,843.4696704,843.7660092,843.7660092,843.9826347,843.9989136,None,up,2.0833445,843.9989136,None,843.9989136,845.1311311,0.1877671,None,,,,,,,,,41,1,2020_Jan_03_0920,untitled,3.1.0,60.05118763
389,_4,N,180,R,N,389_4N180RN,HRN,0,222,222,260,,,1.065,846.4006767,846.6966437,846.6966437,846.7964462,846.814194,None,up,2.0661807,846.814194,None,846.814194,847.8638942,0.3056023,None,,,,,,,,,41,1,2020_Jan_03_0920,untitled,3.1.0,60.05118763
_,R,N,90,_,_,_RN090__,N,0,223,223,66,,,1.306,849.1471108,849.4440077,849.4440077,849.5939919,849.611253,None,up,2.1654169,849.611253,None,849.611253,850.9097834,0.2541352,None,,,,,,,,,41,1,2020_Jan_03_0920,untitled,3.1.0,60.05118763
_,_5,M,270,_,_,__5M270__,N,0,224,224,46,,,0.823,852.0371863,852.3398166,852.3398166,852.4999674,852.5146126,None,down,2.1606523,852.5146126,None,852.5146126,853.3249887,0.2473754,None,,,,,,,,,41,1,2020_Jan_03_0920,untitled,3.1.0,60.05118763
238,G,M,225,L,N,238GM225LN,HLN,0,225,225,141,,,0.728,854.9038455,855.2056565,855.2056565,855.3888633,855.405668,None,up,2.4657176,855.405668,None,855.405668,856.1216385,0.2166894,None,,,,,,,,,41,1,2020_Jan_03_0920,untitled,3.1.0,60.05118763
_,R,M,225,_,_,_RM225__,N,0,226,226,21,,,1.087,858.0749159,858.3696247,858.3696247,858.5859198,858.6026512,None,down,2.78275,858.6026512,None,858.6026512,859.6688969,0.1899179,None,,,,,,,,,41,1,2020_Jan_03_0920,untitled,3.1.0,60.05118763
270,_2,M,225,R,N,270_2M225RN,HRN,0,227,227,149,,,1.058,861.5978576,861.8999844,861.8999844,862.100286,862.1166254,None,down,2.7178957,862.1166254,None,862.1166254,863.1655638,0.2009675,None,,,,,,,,,41,1,2020_Jan_03_0920,untitled,3.1.0,60.05118763
_,F,M,45,_,_,_FM045__,N,0,228,228,1,,,0.823,865.033756,865.3306719,865.3306719,865.5469349,865.563948,None,down,2.0166426,865.563948,None,865.563948,866.3801158,0.1869,None,,,,,,,,,41,1,2020_Jan_03_0920,untitled,3.1.0,60.05118763
388,_4,N,135,R,N,388_4N135RN,HRN,0,229,229,259,,,0.996,867.880334,868.1782715,868.1782715,868.2942864,868.3112665,None,down,2.4184902,868.3112665,None,868.3112665,869.3007251,0.2832617,None,,,,,,,,,41,1,2020_Jan_03_0920,untitled,3.1.0,60.05118763
_,G,M,90,_,_,_GM090__,N,0,230,230,10,,,1.241,870.9324207,871.2252128,871.2252128,871.4414905,871.4581716,None,down,2.6491774,871.4581716,None,871.4581716,872.6905979,0.1881391,None,,,,,,,,,41,1,2020_Jan_03_0920,untitled,3.1.0,60.05118763
386,_4,N,45,R,N,386_4N045RN,HRN,0,231,231,257,,,0.941,874.3201872,874.6219851,874.6219851,874.8227664,874.8394715,None,up,1.883182,874.8394715,None,874.8394715,875.7709253,0.1988682,None,,,,,,,,,41,1,2020_Jan_03_0920,untitled,3.1.0,60.05118763
37,R,N,180,L,N,037RN180LN,HLN,0,232,232,204,,,1.113,877.0540221,877.3530925,877.3530925,877.4369829,877.4537555,None,up,3.1489523,877.4537555,None,877.4537555,878.5563653,0.3180884,None,,,,,,,,,41,1,2020_Jan_03_0920,untitled,3.1.0,60.05118763
461,_5,M,180,R,N,461_5M180RN,HRN,0,233,233,180,,,1.399,880.9252474,881.2168803,881.2168803,881.3170366,881.3358642,None,up,2.628854,881.3358642,None,881.3358642,882.7150092,0.304738,None,,,,,,,,,41,1,2020_Jan_03_0920,untitled,3.1.0,60.05118763
40,R,N,315,L,N,040RN315LN,HLN,0,234,234,207,,,0.757,884.1253649,884.4144283,884.4144283,884.7194789,884.7194789,None,up,1.7767353,884.7194789,None,884.7194789,885.4456679,0.1503159,None,,,,,,,,,41,1,2020_Jan_03_0920,untitled,3.1.0,60.05118763
_,G,M,315,_,_,_GM315__,N,0,235,235,15,,,1.068,886.700196,886.9947418,886.9947418,887.2110212,887.2284116,None,up,2.5646088,887.2284116,None,887.2284116,888.2780139,0.1915791,None,,,,,,,,,41,1,2020_Jan_03_0920,untitled,3.1.0,60.05118763
_,F,M,270,_,_,_FM270__,N,0,236,236,6,,,1.184,890.1151153,890.4083077,890.4083077,890.5080261,890.524924,None,down,2.5994992,890.524924,None,890.524924,891.6904865,0.3099576,None,,,,,,,,,41,1,2020_Jan_03_0920,untitled,3.1.0,60.05118763
173,F,M,180,L,N,173FM180LN,HLN,0,237,237,124,,,1.376,893.452135,893.7393583,893.7393583,893.8387719,893.8555372,None,up,3.2657979,893.8555372,None,893.8555372,895.2209923,0.3133972,None,,,,,,,,,41,1,2020_Jan_03_0920,untitled,3.1.0,60.05118763
_,F,N,90,_,_,_FN090__,N,0,238,238,50,,,0.825,897.4550447,897.7521322,897.7521322,897.8363421,897.8542963,None,up,1.7979787,897.8542963,None,897.8542963,898.6684417,0.3182838,None,,,,,,,,,41,1,2020_Jan_03_0920,untitled,3.1.0,60.05118763
257,_2,N,0,R,N,257_2N000RN,HRN,0,239,239,240,,,1.36,899.8787839,900.1843604,900.1843604,900.367794,900.3865056,None,up,2.129237,900.3865056,None,900.3865056,901.7320496,0.2142369,None,,,,,,,,,41,1,2020_Jan_03_0920,untitled,3.1.0,60.05118763
208,G,M,315,R,N,208GM315RN,HRN,0,240,240,135,,,1.209,902.7474045,903.0472424,903.0472424,903.2306761,903.2472278,None,up,2.982628,903.2472278,None,903.2472278,904.446114,0.2183342,None,,,,,,,,,41,1,2020_Jan_03_0920,untitled,3.1.0,60.05118763
140,F,M,135,R,N,140FM135RN,HRN,0,241,241,115,,,0.804,906.4499231,906.7438987,906.7438987,906.944197,906.9615401,None,down,2.582095,906.9615401,None,906.9615401,907.7599619,0.2080253,None,,,,,,,,,41,1,2020_Jan_03_0920,untitled,3.1.0,60.05118763
46,R,M,225,L,N,046RM225LN,HLN,0,242,242,109,,,1.165,909.7962613,910.0911934,910.0911934,910.2576246,910.2745541,None,down,2.3338191,910.2745541,None,910.2745541,911.4234227,0.2400877,None,,,,,,,,,41,1,2020_Jan_03_0920,untitled,3.1.0,60.05118763
_,_4,M,45,_,_,__4M045__,N,0,243,243,33,,,1.193,912.8617772,913.1552497,913.1552497,913.3220511,913.3385906,None,down,2.0318839,913.3385906,None,913.3385906,914.5209531,0.2372509,None,,,,,,,,,41,1,2020_Jan_03_0920,untitled,3.1.0,60.05118763
6,R,N,225,R,N,006RN225RN,HRN,0,244,244,197,,,1.329,915.6220338,915.9210989,915.9210989,916.0874218,916.1053403,None,up,2.3465791,916.1053403,None,916.1053403,917.4180984,0.2358408,None,,,,,,,,,41,1,2020_Jan_03_0920,untitled,3.1.0,60.05118763
258,_2,N,45,R,N,258_2N045RN,HRN,0,245,245,241,,,0.925,918.675388,918.9665821,918.9665821,919.1667785,919.1834061,None,up,1.7506742,919.1834061,None,919.1834061,920.0991983,0.2111522,None,,,,,,,,,41,1,2020_Jan_03_0920,untitled,3.1.0,60.05118763
454,_5,N,225,R,N,454_5N225RN,HRN,0,246,246,277,,,1.079,921.143889,921.4330873,921.4330873,921.6477718,921.6645625,None,up,2.3825704,921.6645625,None,921.6645625,922.7312293,0.1965268,None,,,,,,,,,41,1,2020_Jan_03_0920,untitled,3.1.0,60.05118763
230,G,N,225,L,N,230GN225LN,HLN,0,247,247,237,,,0.738,924.2501355,924.54534,924.54534,924.7617639,924.7786055,None,up,2.1991428,924.7786055,None,924.7786055,925.5112153,0.1895995,None,,,,,,,,,41,1,2020_Jan_03_0920,untitled,3.1.0,60.05118763
291,_2,N,90,L,N,291_2N090LN,HLN,0,248,248,250,,,0.974,927.1833048,927.4764171,927.4764171,927.6927928,927.7099057,None,up,2.8644559,927.7099057,None,927.7099057,928.6760085,0.1905301,None,,,,,,,,,41,1,2020_Jan_03_0920,untitled,3.1.0,60.05118763
429,_4,M,180,L,N,429_4M180LN,HLN,0,249,249,172,,,1.384,930.9057705,931.2061179,931.2061179,931.289697,931.309193,None,up,2.3474411,931.309193,None,931.309193,932.6714351,0.3182527,None,,,,,,,,,41,1,2020_Jan_03_0920,untitled,3.1.0,60.05118763
171,F,M,90,L,N,171FM090LN,HLN,0,250,250,122,,,1.027,933.9630903,934.2533371,934.2533371,934.369875,934.3866052,None,down,2.0330993,934.3866052,None,934.3866052,935.4021822,0.2900415,None,,,,,,,,,41,1,2020_Jan_03_0920,untitled,3.1.0,60.05118763
_,R,M,45,_,_,_RM045__,N,0,251,251,17,,,1.326,936.6461022,936.9360762,936.9360762,937.1341969,937.1512916,None,down,2.2656366,937.1512916,None,937.1512916,938.4665352,0.2129065,None,,,,,,,,,41,1,2020_Jan_03_0920,untitled,3.1.0,60.05118763
_,G,N,135,_,_,_GN135__,N,0,252,252,59,,,0.778,939.6443912,939.933488,939.933488,940.1314822,940.1482312,None,up,2.6714749,940.1482312,None,940.1482312,940.9158287,0.2147548,None,,,,,,,,,41,1,2020_Jan_03_0920,untitled,3.1.0,60.05118763
172,F,M,135,L,N,172FM135LN,HLN,0,253,253,123,,,1.312,943.0754736,943.3790106,943.3790106,943.5461996,943.5627075,None,down,2.1990815,943.5627075,None,943.5627075,944.8456543,0.2370525,None,,,,,,,,,41,1,2020_Jan_03_0920,untitled,3.1.0,60.05118763
164,F,N,135,L,N,164FN135LN,HLN,0,254,254,219,,,0.99,946.0558105,946.3442457,946.3442457,946.4762658,946.493723,None,up,1.8648442,946.493723,None,946.493723,947.4766055,0.2771907,None,,,,,,,,,41,1,2020_Jan_03_0920,untitled,3.1.0,60.05118763
_,F,M,180,_,_,_FM180__,N,0,255,255,4,,,0.832,948.553558,948.8409332,948.8409332,949.0738692,949.0918992,None,None,,949.0918992,None,949.0918992,949.906222,0.1816798,None,,,,,,,,,41,1,2020_Jan_03_0920,untitled,3.1.0,60.05118763
490,_5,M,45,L,N,490_5M045LN,HLN,0,256,256,185,,,0.867,952.7372035,953.0367175,953.0367175,953.2699615,953.2867241,952.7372035,down,2.9156275,953.2867241,None,953.2867241,954.1365742,0.1726387,None,,,,,,,,,41,1,2020_Jan_03_0920,untitled,3.1.0,60.05118763
_,_2,N,270,_,_,__2N270__,N,0,257,257,78,,,1.234,956.3796406,956.6836682,956.6836682,956.9175093,956.9350039,None,up,2.2655514,956.9350039,None,956.9350039,958.1506352,0.1663066,None,,,,,,,,,41,1,2020_Jan_03_0920,untitled,3.1.0,60.05118763
264,_2,N,315,R,N,264_2N315RN,HRN,0,258,258,247,,,0.969,959.4681074,959.7646342,959.7646342,959.9152132,959.9326062,None,up,2.7150783,959.9326062,None,959.9326062,960.8805571,0.2526731,None,,,,,,,,,41,1,2020_Jan_03_0920,untitled,3.1.0,60.05118763
1,R,N,0,R,N,001RN000RN,HRN,0,259,259,192,,,1.313,962.9105322,963.2124993,963.2124993,963.3632652,963.3833419,None,up,2.3607711,963.3833419,None,963.3833419,964.6770265,0.2464466,None,,,,,,,,,41,1,2020_Jan_03_0920,untitled,3.1.0,60.05118763
38,R,N,225,L,N,038RN225LN,HLN,0,260,260,205,,,1.08,965.9734019,966.260049,966.260049,966.4584932,966.4751537,None,up,2.1998791,966.4751537,None,966.4751537,967.5408389,0.2158853,None,,,,,,,,,41,1,2020_Jan_03_0920,untitled,3.1.0,60.05118763
266,_2,M,45,R,N,266_2M045RN,HRN,0,261,261,145,,,0.875,968.8950525,969.1893754,969.1893754,969.3892498,969.4063206,None,up,2.9651093,969.4063206,None,969.4063206,970.2717679,0.2067675,None,,,,,,,,,41,1,2020_Jan_03_0920,untitled,3.1.0,60.05118763
14,R,M,225,R,N,014RM225RN,HRN,0,262,262,101,,,1.275,972.5840298,972.8861317,972.8861317,973.0868541,973.1039102,None,None,,973.1039102,None,973.1039102,974.3682306,0.1994736,None,,,,,,,,,41,1,2020_Jan_03_0920,untitled,3.1.0,60.05118763
200,G,N,315,R,N,200GN315RN,HRN,0,263,263,231,,,1.035,976.820311,977.1161717,977.1161717,977.2830403,977.2998415,976.820311,up,1.8844768,977.2998415,None,977.2998415,978.3156802,0.2360257,None,,,,,,,,,41,1,2020_Jan_03_0920,untitled,3.1.0,60.05118763
205,G,M,180,R,N,205GM180RN,HRN,0,264,264,132,,,1.016,979.5166216,979.8156098,979.8156098,979.9170191,979.9170191,None,down,2.6284921,979.9170191,None,979.9170191,980.9290257,0.3126719,None,,,,,,,,,41,1,2020_Jan_03_0920,untitled,3.1.0,60.05118763
304,_2,M,315,L,N,304_2M315LN,HLN,0,265,265,159,,,0.866,982.7420811,983.0440497,983.0440497,983.2603739,983.2777675,None,up,2.8653031,983.2777675,None,983.2777675,984.1267596,0.1843635,None,,,,,,,,,41,1,2020_Jan_03_0920,untitled,3.1.0,60.05118763
234,G,M,45,L,N,234GM045LN,HLN,0,266,266,137,,,1.283,986.3415292,986.6410061,986.6410061,986.8575552,986.8741875,None,down,2.9820264,986.8741875,None,986.8741875,988.140616,0.1858109,None,,,,,,,,,41,1,2020_Jan_03_0920,untitled,3.1.0,60.05118763
167,F,N,270,L,N,167FN270LN,HLN,0,267,267,222,,,1.399,990.0629661,990.3552623,990.3552623,990.5713893,990.5885167,None,up,2.7824862,990.5885167,None,990.5885167,991.97043,0.1950199,None,,,,,,,,,41,1,2020_Jan_03_0920,untitled,3.1.0,60.05118763
4,R,N,135,R,N,004RN135RN,HRN,0,268,268,195,,,1.01,993.6435956,993.9346614,993.9346614,994.0844557,994.1011281,None,up,1.9845195,994.1011281,None,994.1011281,995.1021657,0.2570255,None,,,,,,,,,41,1,2020_Jan_03_0920,untitled,3.1.0,60.05118763
2,R,N,45,R,N,002RN045RN,HRN,0,269,269,193,,,0.912,996.3130015,996.6158221,996.6158221,996.7990838,996.8182049,None,up,1.5834092,996.8182049,None,996.8182049,997.7151081,0.2144924,None,,,,,,,,,41,1,2020_Jan_03_0920,untitled,3.1.0,60.05118763
_,G,N,90,_,_,_GN090__,N,0,270,270,58,,,1.347,998.625536,998.9154408,998.9154408,999.1134054,999.1301553,None,up,2.6159269,999.1301553,None,999.1301553,1000.462408,0.211482,None,,,,,,,,,41,1,2020_Jan_03_0920,untitled,3.1.0,60.05118763
195,G,N,90,R,N,195GN090RN,HRN,0,271,271,226,,,1.063,1001.986489,1002.277643,1002.277643,1002.46069,1002.477608,None,up,1.7362139,1002.477608,None,1002.477608,1003.526038,0.2259973,None,,,,,,,,,41,1,2020_Jan_03_0920,untitled,3.1.0,60.05118763
162,F,N,45,L,N,162FN045LN,HLN,0,272,272,217,,,1.06,1004.445169,1004.741678,1004.741678,1004.925035,1004.942291,None,up,1.8844569,1004.942291,None,1004.942291,1005.992636,0.2173414,None,,,,,,,,,41,1,2020_Jan_03_0920,untitled,3.1.0,60.05118763
_,_2,N,180,_,_,__2N180__,N,0,273,273,76,,,0.821,1007.114277,1007.406665,1007.406665,1007.54015,1007.557095,None,up,2.0496976,1007.557095,None,1007.557095,1008.372583,0.2697863,None,,,,,,,,,41,1,2020_Jan_03_0920,untitled,3.1.0,60.05118763
463,_5,M,270,R,N,463_5M270RN,HRN,0,274,274,182,,,0.941,1009.910781,1010.203707,1010.203707,1010.321685,1010.339304,None,down,2.3475128,1010.339304,None,1010.339304,1011.286572,0.2905746,None,,,,,,,,,41,1,2020_Jan_03_0920,untitled,3.1.0,60.05118763
47,R,M,270,L,N,047RM270LN,HLN,0,275,275,110,,,1.003,1012.93883,1013.234371,1013.234371,1013.401356,1013.417821,None,down,1.8667291,1013.417821,None,1013.417821,1014.40027,0.2374194,None,,,,,,,,,41,1,2020_Jan_03_0920,untitled,3.1.0,60.05118763
135,F,N,270,R,N,135FN270RN,HRN,0,276,276,214,,,0.998,1015.522364,1015.817036,1015.817036,1015.998477,1016.015373,None,up,1.8672644,1016.015373,None,1016.015373,1016.997839,0.2242955,None,,,,,,,,,41,1,2020_Jan_03_0920,untitled,3.1.0,60.05118763
491,_5,M,90,L,N,491_5M090LN,HLN,0,277,277,186,,,0.888,1018.088957,1018.380068,1018.380068,1018.596658,1018.613278,None,down,1.8839002,1018.613278,None,1018.613278,1019.479403,0.1936966,None,,,,,,,,,41,1,2020_Jan_03_0920,untitled,3.1.0,60.05118763
201,G,M,0,R,N,201GM000RN,HRN,0,278,278,128,,,1.214,1020.718851,1021.010953,1021.010953,1021.210854,1021.22781,None,down,2.6169463,1021.22781,None,1021.22781,1022.427201,0.2093977,None,,,,,,,,,41,1,2020_Jan_03_0920,untitled,3.1.0,60.05118763
194,G,N,45,R,N,194GN045RN,HRN,0,279,279,225,,,1.306,1024.122063,1024.424897,1024.424897,1024.575374,1024.575374,None,up,2.3527256,1024.575374,None,1024.575374,1025.873234,0.2593708,None,,,,,,,,,41,1,2020_Jan_03_0920,untitled,3.1.0,60.05118763
487,_5,N,270,L,N,487_5N270LN,HLN,0,280,280,286,,,0.904,1027.260685,1027.555162,1027.555162,1027.655057,1027.671932,None,up,1.8833933,1027.671932,None,1027.671932,1028.555269,0.3089605,None,,,,,,,,,41,1,2020_Jan_03_0920,untitled,3.1.0,60.05118763
_,R,N,180,_,_,_RN180__,N,0,281,281,68,,,0.877,1029.863779,1030.153976,1030.153976,1030.269682,1030.286261,None,up,2.4158145,1030.286261,None,1030.286261,1031.152303,0.2933066,None,,,,,,,,,41,1,2020_Jan_03_0920,untitled,3.1.0,60.05118763
39,R,N,270,L,N,039RN270LN,HLN,0,282,282,206,,,0.78,1032.917806,1033.216866,1033.216866,1033.416796,1033.433849,None,up,1.6674866,1033.433849,None,1033.433849,1034.199706,0.2023424,None,,,,,,,,,41,1,2020_Jan_03_0920,untitled,3.1.0,60.05118763
_,_4,N,180,_,_,__4N180__,N,0,283,283,84,,,0.854,1035.310537,1035.600037,1035.600037,1035.81571,1035.835984,None,up,1.8455616,1035.835984,None,1035.835984,1036.680506,0.195877,None,,,,,,,,,41,1,2020_Jan_03_0920,untitled,3.1.0,60.05118763
_,G,M,180,_,_,_GM180__,N,0,284,284,12,,,1.059,1037.925081,1038.215052,1038.215052,1038.39597,1038.413926,None,up,2.5814009,1038.413926,None,1038.413926,1039.462312,0.2309529,None,,,,,,,,,41,1,2020_Jan_03_0920,untitled,3.1.0,60.05118763
418,_4,N,45,L,N,418_4N045LN,HLN,0,285,285,265,,,0.841,1041.240362,1041.541297,1041.541297,1041.709651,1041.727953,None,up,1.7972591,1041.727953,None,1041.727953,1042.546811,0.2298667,None,,,,,,,,,41,1,2020_Jan_03_0920,untitled,3.1.0,60.05118763
394,_4,M,45,R,N,394_4M045RN,HRN,0,286,286,161,,,1.301,1043.718761,1044.0076,1044.0076,1044.240891,1044.258379,None,down,2.0983708,1044.258379,None,1044.258379,1045.539459,0.182489,None,,,,,,,,,41,1,2020_Jan_03_0920,untitled,3.1.0,60.05118763
130,F,N,45,R,N,130FN045RN,HRN,0,287,287,209,,,0.949,1046.546038,1046.838453,1046.838453,1047.071881,1047.088251,None,up,1.9337186,1047.088251,None,1047.088251,1048.020552,0.1778002,None,,,,,,,,,41,1,2020_Jan_03_0920,untitled,3.1.0,60.05118763
,,,,,,,,,,,,,,,,,,,,,,,,,,,,,1049.039518,None,1054.765804,None,1058.312877,None,1061.859529,None,,,,,,
