Number,Letter,type,Orientation,human,face_type,image,picture,trials.thisRepN,trials.thisTrialN,trials.thisN,trials.thisIndex,text.started,text.stopped,stimulus_duration,CROSS.started,CROSS.stopped,BLANK.started,BLANK.stopped,TEST.started,TEST.stopped,key_JUDGE.keys,key_JUDGE.rt,key_JUDGE.started,key_JUDGE.stopped,image_2.started,image_2.stopped,ISI.started,ISI.stopped,q1.started,q1.stopped,q2.started,q2.stopped,q3.started,q3.stopped,text_2.started,text_2.stopped,participant,session,date,expName,psychopyVersion,frameRate
238,G,M,225,L,N,238GM225LN,HLN,0,0,0,141,273.5240604,None,0.968,325.0549935,325.0549935,325.0549935,325.187682,325.2090082,None,up,2.2526423,325.2090082,None,325.2090082,326.0433241,0.5325843,None,,,,,,,,,42,1,2020_Jan_03_1022,untitled,3.1.0,59.80457063
169,F,M,0,L,N,169FM000LN,HLN,0,1,1,120,,,0.945,327.7448545,328.0422575,328.0422575,328.1926733,328.2120322,None,down,2.7794647,328.2120322,None,328.2120322,329.1263845,0.2578153,None,,,,,,,,,42,1,2020_Jan_03_1022,untitled,3.1.0,59.80457063
300,_2,M,135,L,N,300_2M135LN,HLN,0,2,2,155,,,0.763,331.2933292,331.5890097,331.5890097,331.7048883,331.7221105,None,down,2.8567996,331.7221105,None,331.7221105,332.4719791,0.2897684,None,,,,,,,,,42,1,2020_Jan_03_1022,untitled,3.1.0,59.80457063
259,_2,N,90,R,N,259_2N090RN,HRN,0,3,3,242,,,0.7,335.075855,335.075855,335.075855,335.375348,335.375348,None,up,1.5770986,335.375348,None,335.375348,336.0015575,0.4778786,None,,,,,,,,,42,1,2020_Jan_03_1022,untitled,3.1.0,59.80457063
_,_5,M,315,_,_,__5M315__,N,0,4,4,47,,,1.174,337.2672618,337.5669458,337.5669458,337.6671239,337.6839278,None,down,3.1645415,337.6839278,None,337.6839278,338.8491128,0.3027329,None,,,,,,,,,42,1,2020_Jan_03_1022,untitled,3.1.0,59.80457063
265,_2,M,0,R,N,265_2M000RN,HRN,0,5,5,144,,,0.957,341.1324313,341.4302228,341.4302228,341.5633002,341.5813306,None,up,2.8666409,341.5813306,None,341.5813306,342.5294749,0.2712318,None,,,,,,,,,42,1,2020_Jan_03_1022,untitled,3.1.0,59.80457063
_,R,N,225,_,_,_RN225__,N,0,6,6,69,,,0.726,344.792232,345.0935735,345.0935735,345.1773203,345.1935064,None,up,2.3662795,345.1935064,None,345.1935064,345.8938102,0.3219368,None,,,,,,,,,42,1,2020_Jan_03_1022,untitled,3.1.0,59.80457063
482,_5,N,45,L,N,482_5N045LN,HLN,0,7,7,281,,,0.82,347.8672528,348.1575952,348.1575952,348.2741149,348.2922576,None,up,1.8354164,348.2922576,None,348.2922576,349.0910992,0.2957434,None,,,,,,,,,42,1,2020_Jan_03_1022,untitled,3.1.0,59.80457063
137,F,M,0,R,N,137FM000RN,HRN,0,8,8,112,,,1.112,350.5018317,350.7898523,350.7898523,350.8556299,350.8556299,None,down,3.2812558,350.8556299,None,350.8556299,351.9540535,0.3572109,None,,,,,,,,,42,1,2020_Jan_03_1022,untitled,3.1.0,59.80457063
7,R,N,270,R,N,007RN270RN,HRN,0,9,9,198,,,1.164,354.4042195,354.7023297,354.7023297,354.8519334,354.869478,None,up,2.1492359,354.869478,None,354.869478,356.0172635,0.2546202,None,,,,,,,,,42,1,2020_Jan_03_1022,untitled,3.1.0,59.80457063
_,G,N,90,_,_,_GN090__,N,0,10,10,58,,,0.706,357.3703341,357.6659251,357.6659251,357.7324534,357.7492733,None,up,2.1661311,357.7492733,None,357.7492733,358.4488722,0.3383607,None,,,,,,,,,42,1,2020_Jan_03_1022,untitled,3.1.0,59.80457063
168,F,N,315,L,N,168FN315LN,HLN,0,11,11,223,,,0.883,360.2057575,360.4969657,360.4969657,360.6304185,360.6492488,None,up,3.0458564,360.6492488,None,360.6492488,361.5129333,0.2780517,None,,,,,,,,,42,1,2020_Jan_03_1022,untitled,3.1.0,59.80457063
195,G,N,90,R,N,195GN090RN,HRN,0,12,12,226,,,1.227,363.9749339,364.2770616,364.2770616,364.4103819,364.4270998,None,up,2.9327874,364.4270998,None,364.4270998,365.6306454,0.2675052,None,,,,,,,,,42,1,2020_Jan_03_1022,untitled,3.1.0,59.80457063
489,_5,M,0,L,N,489_5M000LN,HLN,0,13,13,184,,,1.21,367.6600666,367.9569741,367.9569741,368.0735646,368.0903961,None,down,2.6325043,368.0903961,None,368.0903961,369.2902672,0.2859015,None,,,,,,,,,42,1,2020_Jan_03_1022,untitled,3.1.0,59.80457063
459,_5,M,90,R,N,459_5M090RN,HRN,0,14,14,178,,,1.395,371.0040055,371.3041161,371.3041161,371.4372519,371.4539125,None,down,3.1488691,371.4539125,None,371.4539125,372.835926,0.2691708,None,,,,,,,,,42,1,2020_Jan_03_1022,untitled,3.1.0,59.80457063
493,_5,M,180,L,N,493_5M180LN,HLN,0,15,15,188,,,1.035,374.804542,375.100917,375.100917,375.3174134,375.3360998,None,down,3.2144824,375.3360998,None,375.3360998,376.3510358,0.1890805,None,,,,,,,,,42,1,2020_Jan_03_1022,untitled,3.1.0,59.80457063
_,_2,N,315,_,_,__2N315__,N,0,16,16,79,,,1.305,378.8699605,379.1647633,379.1647633,379.2650819,379.284743,None,down,2.9124979,379.284743,None,379.284743,380.5798108,0.3036498,None,,,,,,,,,42,1,2020_Jan_03_1022,untitled,3.1.0,59.80457063
_,G,N,180,_,_,_GN180__,N,0,17,17,60,,,0.713,382.512383,382.8107058,382.8107058,382.9100656,382.926626,None,up,3.132906,382.926626,None,382.926626,383.627637,0.3005969,None,,,,,,,,,42,1,2020_Jan_03_1022,untitled,3.1.0,59.80457063
37,R,N,180,L,N,037RN180LN,HLN,0,18,18,204,,,0.866,386.3810324,386.6742959,386.6742959,386.7739787,386.7905619,None,up,2.3160788,386.7905619,None,386.7905619,387.6397013,0.3083032,None,,,,,,,,,42,1,2020_Jan_03_1022,untitled,3.1.0,59.80457063
_,F,M,0,_,_,_FM000__,N,0,19,19,0,,,0.701,389.4227698,389.7211553,389.7211553,389.8211124,389.8379115,None,down,1.753686,389.8379115,None,389.8379115,390.5220934,0.3020487,None,,,,,,,,,42,1,2020_Jan_03_1022,untitled,3.1.0,59.80457063
196,G,N,135,R,N,196GN135RN,HRN,0,20,20,227,,,1.394,391.9119565,392.2038353,392.2038353,392.3210766,392.3210766,None,up,3.1464283,392.3210766,None,392.3210766,393.7013677,0.3027012,None,,,,,,,,,42,1,2020_Jan_03_1022,untitled,3.1.0,59.80457063
483,_5,N,90,L,N,483_5N090LN,HLN,0,21,21,282,,,0.842,395.7908141,396.0828498,396.0828498,396.1828363,396.2000918,None,up,3.1152101,396.2000918,None,396.2000918,397.0329361,0.3111959,None,,,,,,,,,42,1,2020_Jan_03_1022,untitled,3.1.0,59.80457063
295,_2,N,270,L,N,295_2N270LN,HLN,0,22,22,254,,,0.934,399.6302977,399.9295597,399.9295597,400.0291961,400.046202,None,down,1.9669439,400.046202,None,400.046202,400.9618426,0.2995108,None,,,,,,,,,42,1,2020_Jan_03_1022,untitled,3.1.0,59.80457063
231,G,N,270,L,N,231GN270LN,HLN,0,23,23,238,,,1.029,402.2302713,402.5273545,402.5273545,402.727114,402.7445692,None,up,2.1661285,402.7445692,None,402.7445692,403.7605965,0.203343,None,,,,,,,,,42,1,2020_Jan_03_1022,untitled,3.1.0,59.80457063
226,G,N,45,L,N,226GN045LN,HLN,0,24,24,233,,,0.861,405.230226,405.5246623,405.5246623,405.6242978,405.6417106,None,up,2.2833708,405.6417106,None,405.6417106,406.4900275,0.3057625,None,,,,,,,,,42,1,2020_Jan_03_1022,untitled,3.1.0,59.80457063
161,F,N,0,L,N,161FN000LN,HLN,0,25,25,216,,,0.789,408.2430754,408.5387695,408.5387695,408.6382122,408.6550659,None,up,1.7681375,408.6550659,None,408.6550659,409.4382985,0.3051732,None,,,,,,,,,42,1,2020_Jan_03_1022,untitled,3.1.0,59.80457063
_,F,N,270,_,_,_FN270__,N,0,26,26,54,,,0.897,410.7665251,411.0530064,411.0530064,411.1358713,411.15264,None,up,2.318296,411.15264,None,411.15264,412.0350441,0.3256163,None,,,,,,,,,42,1,2020_Jan_03_1022,untitled,3.1.0,59.80457063
270,_2,M,225,R,N,270_2M225RN,HRN,0,27,27,149,,,1.134,413.8690979,414.1478214,414.1668633,414.1834308,414.2000883,None,down,3.316381,414.2000883,None,414.2000883,415.3167253,0.3796732,None,,,,,,,,,42,1,2020_Jan_03_1022,untitled,3.1.0,59.80457063
267,_2,M,90,R,N,267_2M090RN,HRN,0,28,28,146,,,0.704,417.7354069,418.0299969,418.0299969,418.2297359,418.246704,None,up,2.2497361,418.246704,None,418.246704,418.9303476,0.206167,None,,,,,,,,,42,1,2020_Jan_03_1022,untitled,3.1.0,59.80457063
289,_2,N,0,L,N,289_2N000LN,HLN,0,29,29,248,,,1.187,420.7744922,421.0771772,421.0771772,421.2104568,421.2270892,None,up,2.9012565,421.2270892,None,421.2270892,422.3928457,0.2661483,None,,,,,,,,,42,1,2020_Jan_03_1022,untitled,3.1.0,59.80457063
_,_2,M,45,_,_,__2M045__,N,0,30,30,25,,,1.169,424.3259716,424.6241242,424.6241242,424.8410107,424.857959,None,down,3.3154176,424.857959,None,424.857959,426.0071485,0.1849219,None,,,,,,,,,42,1,2020_Jan_03_1022,untitled,3.1.0,59.80457063
_,R,N,0,_,_,_RN000__,N,0,31,31,64,,,0.861,428.4283348,428.722546,428.722546,428.9264525,428.9264525,None,up,2.0106006,428.9264525,None,428.9264525,429.7530825,0.2390805,None,,,,,,,,,42,1,2020_Jan_03_1022,untitled,3.1.0,59.80457063
_,G,M,180,_,_,_GM180__,N,0,32,32,12,,,1.389,431.2447052,431.5347803,431.5347803,431.6525776,431.6699658,None,None,,431.6699658,None,431.6699658,433.0502486,0.2950217,None,,,,,,,,,42,1,2020_Jan_03_1022,untitled,3.1.0,59.80457063
_,F,N,180,_,_,_FN180__,N,0,33,33,52,,,0.716,435.4238436,435.7143382,435.7143382,435.8473891,435.8642754,435.4238436,up,2.7331219,435.8642754,None,435.8642754,436.5638703,0.2761105,None,,,,,,,,,42,1,2020_Jan_03_1022,untitled,3.1.0,59.80457063
303,_2,M,270,L,N,303_2M270LN,HLN,0,34,34,158,,,1.322,438.8682447,439.1612792,439.1612792,439.3114074,439.3289568,None,down,2.6661259,439.3289568,None,439.3289568,440.6437934,0.2580053,None,,,,,,,,,42,1,2020_Jan_03_1022,untitled,3.1.0,59.80457063
48,R,M,315,L,N,048RM315LN,HLN,0,35,35,111,,,1.003,442.2491024,442.5418197,442.5418197,442.7084963,442.7251782,None,down,3.2490133,442.7251782,None,442.7251782,443.7248483,0.2362373,None,,,,,,,,,42,1,2020_Jan_03_1022,untitled,3.1.0,59.80457063
197,G,N,180,R,N,197GN180RN,HRN,0,36,36,228,,,1.112,446.1512467,446.4386295,446.4386295,446.6880583,446.7049016,None,up,2.3823384,446.7049016,None,446.7049016,447.8037003,0.1655733,None,,,,,,,,,42,1,2020_Jan_03_1022,untitled,3.1.0,59.80457063
_,_2,N,45,_,_,__2N045__,N,0,37,37,73,,,1.302,449.3801075,449.6689274,449.6689274,449.8022125,449.8189687,None,None,,449.8189687,None,449.8189687,451.10168,0.2807302,None,,,,,,,,,42,1,2020_Jan_03_1022,untitled,3.1.0,59.80457063
430,_4,M,225,L,N,430_4M225LN,HLN,0,38,38,173,,,0.933,453.6111965,453.9000003,453.9000003,454.0154674,454.0154674,453.6111965,down,3.3330346,454.0154674,None,454.0154674,454.9321339,0.3064471,None,,,,,,,,,42,1,2020_Jan_03_1022,untitled,3.1.0,59.80457063
_,G,M,90,_,_,_GM090__,N,0,39,39,10,,,1.349,457.6244383,457.9144005,457.9144005,458.0618877,458.0781118,None,down,2.5847625,458.0781118,None,458.0781118,459.4107664,0.261042,None,,,,,,,,,42,1,2020_Jan_03_1022,untitled,3.1.0,59.80457063
207,G,M,270,R,N,207GM270RN,HRN,0,40,40,134,,,0.919,460.9757465,461.2755824,461.2755824,461.375444,461.3921515,None,down,3.3140796,461.3921515,None,461.3921515,462.3089642,0.2969021,None,,,,,,,,,42,1,2020_Jan_03_1022,untitled,3.1.0,59.80457063
_,R,M,225,_,_,_RM225__,N,0,41,41,21,,,0.857,464.900747,465.1900416,465.1900416,465.4218792,465.4386215,None,down,1.983186,465.4386215,None,465.4386215,466.2896127,0.1826188,None,,,,,,,,,42,1,2020_Jan_03_1022,untitled,3.1.0,59.80457063
486,_5,N,225,L,N,486_5N225LN,HLN,0,42,42,285,,,0.897,467.6094948,467.9031113,467.9031113,468.1363383,468.1531966,None,up,2.1175767,468.1531966,None,468.1531966,469.0354577,0.1750983,None,,,,,,,,,42,1,2020_Jan_03_1022,untitled,3.1.0,59.80457063
_,F,M,315,_,_,_FM315__,N,0,43,43,7,,,1.078,470.5625563,470.8523745,470.8523745,470.9838623,471.0004743,None,down,2.3664222,471.0004743,None,471.0004743,472.0665191,0.2767944,None,,,,,,,,,42,1,2020_Jan_03_1022,untitled,3.1.0,59.80457063
236,G,M,135,L,N,236GM135LN,HLN,0,44,44,139,,,0.82,473.6234873,473.9144979,473.9144979,474.0810004,474.0977053,None,None,,474.0977053,None,474.0977053,474.8977541,0.2414901,None,,,,,,,,,42,1,2020_Jan_03_1022,untitled,3.1.0,59.80457063
201,G,M,0,R,N,201GM000RN,HRN,0,45,45,128,,,0.789,477.7567066,478.046441,478.046441,478.2781603,478.2984166,477.7567066,down,1.8961394,478.2984166,None,478.2984166,479.0764918,0.1830425,None,,,,,,,,,42,1,2020_Jan_03_1022,untitled,3.1.0,59.80457063
293,_2,N,180,L,N,293_2N180LN,HLN,0,46,46,252,,,0.827,480.4852624,480.7755644,480.7755644,480.9083337,480.925228,None,up,2.2682291,480.925228,None,480.925228,481.7418854,0.2785863,None,,,,,,,,,42,1,2020_Jan_03_1022,untitled,3.1.0,59.80457063
167,F,N,270,L,N,167FN270LN,HLN,0,47,47,222,,,1.346,483.5000602,483.7915972,483.7915972,483.9057716,483.922532,None,up,2.1010752,483.922532,None,483.922532,485.2554784,0.2945396,None,,,,,,,,,42,1,2020_Jan_03_1022,untitled,3.1.0,59.80457063
418,_4,N,45,L,N,418_4N045LN,HLN,0,48,48,265,,,1.286,486.3350936,486.6373891,486.6373891,486.7372037,486.7546365,None,up,3.1808116,486.7546365,None,486.7546365,488.0203408,0.2983961,None,,,,,,,,,42,1,2020_Jan_03_1022,untitled,3.1.0,59.80457063
268,_2,M,135,R,N,268_2M135RN,HRN,0,49,49,147,,,1.052,490.1452154,490.4350347,490.4350347,490.6505206,490.6674722,None,up,2.5483854,490.6674722,None,490.6674722,491.7224909,0.1967227,None,,,,,,,,,42,1,2020_Jan_03_1022,untitled,3.1.0,59.80457063
458,_5,M,45,R,N,458_5M045RN,HRN,0,50,50,177,,,1.377,493.5297894,493.8302802,493.8302802,493.9303385,493.9469184,None,None,,493.9469184,None,493.9469184,495.312915,0.3020868,None,,,,,,,,,42,1,2020_Jan_03_1022,untitled,3.1.0,59.80457063
388,_4,N,135,R,N,388_4N135RN,HRN,0,51,51,259,,,1.399,497.6824106,497.9770421,497.9770421,498.1272267,498.1436202,497.6824106,up,2.7836309,498.1436202,None,498.1436202,499.5257545,0.2588112,None,,,,,,,,,42,1,2020_Jan_03_1022,untitled,3.1.0,59.80457063
227,G,N,90,L,N,227GN090LN,HLN,0,52,52,234,,,1.32,501.1745739,501.4739008,501.4739008,501.6411278,501.6597725,None,up,2.4798409,501.6597725,None,501.6597725,502.9730956,0.2345182,None,,,,,,,,,42,1,2020_Jan_03_1022,untitled,3.1.0,59.80457063
4,R,N,135,R,N,004RN135RN,HRN,0,53,53,195,,,1.006,504.4309704,504.7214482,504.7214482,504.8547409,504.8718701,None,up,2.6351459,504.8718701,None,504.8718701,505.8699507,0.2749146,None,,,,,,,,,42,1,2020_Jan_03_1022,untitled,3.1.0,59.80457063
292,_2,N,135,L,N,292_2N135LN,HLN,0,54,54,251,,,1.287,507.8030853,508.1010586,508.1010586,508.2344172,508.2344172,None,up,2.9153717,508.2344172,None,508.2344172,509.5167004,0.2771586,None,,,,,,,,,42,1,2020_Jan_03_1022,untitled,3.1.0,59.80457063
138,F,M,45,R,N,138FM045RN,HRN,0,55,55,113,,,0.846,511.3458335,511.6494846,511.6494846,511.8644405,511.8812135,None,down,1.8829028,511.8812135,None,511.8812135,512.7137119,0.183896,None,,,,,,,,,42,1,2020_Jan_03_1022,untitled,3.1.0,59.80457063
_,R,N,270,_,_,_RN270__,N,0,56,56,70,,,1.341,513.9837443,514.2794937,514.2794937,514.4789156,514.4958384,None,up,2.3501772,514.4958384,None,514.4958384,515.8293868,0.2072841,None,,,,,,,,,42,1,2020_Jan_03_1022,untitled,3.1.0,59.80457063
_,R,M,90,_,_,_RM090__,N,0,57,57,18,,,1.141,517.1744429,517.4764127,517.4764127,517.5618087,517.5770858,None,down,2.2154109,517.5770858,None,517.5770858,518.7101117,0.3157483,None,,,,,,,,,42,1,2020_Jan_03_1022,untitled,3.1.0,59.80457063
3,R,N,90,R,N,003RN090RN,HRN,0,58,58,194,,,1.211,520.1427291,520.4403725,520.4403725,520.5069962,520.523745,None,up,2.4154937,520.523745,None,520.523745,521.7241953,0.3366729,None,,,,,,,,,42,1,2020_Jan_03_1022,untitled,3.1.0,59.80457063
44,R,M,135,L,N,044RM135LN,HLN,0,59,59,107,,,0.993,523.3356424,523.6152401,523.6243048,523.6560662,523.9224752,None,down,1.9479679,523.9224752,None,523.9224752,524.6541699,0.3807061,None,,,,,,,,,42,1,2020_Jan_03_1022,untitled,3.1.0,59.80457063
391,_4,N,270,R,N,391_4N270RN,HRN,0,60,60,262,,,1.027,526.0660135,526.3685803,526.3685803,526.585193,526.6019464,None,up,2.0828483,526.6019464,None,526.6019464,527.6175487,0.1828378,None,,,,,,,,,42,1,2020_Jan_03_1022,untitled,3.1.0,59.80457063
_,_5,N,135,_,_,__5N135__,N,0,61,61,91,,,1.298,528.8939343,529.1827592,529.1827592,529.3991555,529.4159021,None,up,3.1156314,529.4159021,None,529.4159021,530.6982597,0.1975081,None,,,,,,,,,42,1,2020_Jan_03_1022,untitled,3.1.0,59.80457063
_,_2,N,225,_,_,__2N225__,N,0,62,62,77,,,1.02,532.8148342,533.1125188,533.1125188,533.2468759,533.2640598,None,up,2.3823823,533.2640598,None,533.2640598,534.2616813,0.2700388,None,,,,,,,,,42,1,2020_Jan_03_1022,untitled,3.1.0,59.80457063
_,_4,M,180,_,_,__4M180__,N,0,63,63,36,,,1.145,535.9638788,536.2598892,536.2598892,536.3599417,536.3766186,None,up,1.9510636,536.3766186,None,536.3766186,537.5090195,0.3031271,None,,,,,,,,,42,1,2020_Jan_03_1022,untitled,3.1.0,59.80457063
390,_4,N,225,R,N,390_4N225RN,HRN,0,64,64,261,,,1.268,538.582579,538.8756608,538.8756608,539.0424419,539.0612141,None,up,1.796023,539.0612141,None,539.0612141,540.3089643,0.2393757,None,,,,,,,,,42,1,2020_Jan_03_1022,untitled,3.1.0,59.80457063
42,R,M,45,L,N,042RM045LN,HLN,0,65,65,105,,,0.85,541.1530407,541.4552658,541.4552658,541.5731587,541.5921319,None,down,2.1139076,541.5921319,None,541.5921319,542.4211717,0.2832484,None,,,,,,,,,42,1,2020_Jan_03_1022,untitled,3.1.0,59.80457063
463,_5,M,270,R,N,463_5M270RN,HRN,0,66,66,182,,,1.289,543.9771208,544.2697046,544.2697046,544.4200936,544.4366691,None,None,,544.4366691,None,544.4366691,545.7180975,0.2575628,None,,,,,,,,,42,1,2020_Jan_03_1022,untitled,3.1.0,59.80457063
_,_2,M,90,_,_,__2M090__,N,0,67,67,26,,,1.196,548.088942,548.3833578,548.3833578,548.6157798,548.6333333,548.088942,up,2.3156944,548.6333333,None,548.6333333,549.8161703,0.1790906,None,,,,,,,,,42,1,2020_Jan_03_1022,untitled,3.1.0,59.80457063
304,_2,M,315,L,N,304_2M315LN,HLN,0,68,68,159,,,0.854,551.1891583,551.4810586,551.4810586,551.6647305,551.683171,None,down,2.7462518,551.683171,None,551.683171,552.5132652,0.2262267,None,,,,,,,,,42,1,2020_Jan_03_1022,untitled,3.1.0,59.80457063
_,_4,M,0,_,_,__4M000__,N,0,69,69,32,,,1.166,554.6709897,554.9612406,554.9612406,555.1446106,555.1623717,None,up,2.0478395,555.1623717,None,555.1623717,556.3102042,0.2269084,None,,,,,,,,,42,1,2020_Jan_03_1022,untitled,3.1.0,59.80457063
14,R,M,225,R,N,014RM225RN,HRN,0,70,70,101,,,1.34,557.4894076,557.791199,557.791199,557.9246022,557.9410947,None,up,2.383449,557.9410947,None,557.9410947,559.2737272,0.267333,None,,,,,,,,,42,1,2020_Jan_03_1022,untitled,3.1.0,59.80457063
130,F,N,45,R,N,130FN045RN,HRN,0,71,71,209,,,1.021,560.5918912,560.8883805,560.8883805,561.0385202,561.0549306,None,up,1.9497459,561.0549306,None,561.0549306,562.0708496,0.2545705,None,,,,,,,,,42,1,2020_Jan_03_1022,untitled,3.1.0,59.80457063
139,F,M,90,R,N,139FM090RN,HRN,0,72,72,114,,,1.032,563.1870574,563.4864479,563.4864479,563.7192613,563.7360614,None,down,1.9661894,563.7360614,None,563.7360614,564.7524339,0.1708078,None,,,,,,,,,42,1,2020_Jan_03_1022,untitled,3.1.0,59.80457063
_,_2,M,135,_,_,__2M135__,N,0,73,73,27,,,1.221,565.9254516,566.2174674,566.2174674,566.4178905,566.4356189,None,up,2.2820952,566.4356189,None,566.4356189,567.6331582,0.2096107,None,,,,,,,,,42,1,2020_Jan_03_1022,untitled,3.1.0,59.80457063
_,_4,M,45,_,_,__4M045__,N,0,74,74,33,,,0.838,568.970069,569.2645704,569.2645704,569.4312418,569.4480124,None,down,2.1011826,569.4480124,None,569.4480124,570.2825147,0.2370369,None,,,,,,,,,42,1,2020_Jan_03_1022,untitled,3.1.0,59.80457063
420,_4,N,135,L,N,420_4N135LN,HLN,0,75,75,267,,,1.328,571.8322548,572.1285769,572.1285769,572.2617446,572.2794537,None,up,2.0189955,572.2794537,None,572.2794537,573.594181,0.26684,None,,,,,,,,,42,1,2020_Jan_03_1022,untitled,3.1.0,59.80457063
298,_2,M,45,L,N,298_2M045LN,HLN,0,76,76,153,,,1.261,574.5152717,574.8095692,574.8095692,575.009824,575.0273252,None,down,3.0810044,575.0273252,None,575.0273252,576.2751607,0.2029808,None,,,,,,,,,42,1,2020_Jan_03_1022,untitled,3.1.0,59.80457063
394,_4,M,45,R,N,394_4M045RN,HRN,0,77,77,161,,,0.767,578.4091815,578.7062483,578.7062483,578.8227323,578.839387,None,down,2.5006781,578.839387,None,578.839387,579.5890374,0.2887712,None,,,,,,,,,42,1,2020_Jan_03_1022,untitled,3.1.0,59.80457063
144,F,M,315,R,N,144FM315RN,HRN,0,78,78,119,,,0.963,581.5649841,581.853517,581.853517,582.0535241,582.0711592,None,down,2.8156051,582.0711592,None,582.0711592,583.0201106,0.2111387,None,,,,,,,,,42,1,2020_Jan_03_1022,untitled,3.1.0,59.80457063
202,G,M,45,R,N,202GM045RN,HRN,0,79,79,129,,,0.737,585.1192987,585.4168388,585.4168388,585.600629,585.6174198,None,down,2.1506928,585.6174198,None,585.6174198,586.3511173,0.2184137,None,,,,,,,,,42,1,2020_Jan_03_1022,untitled,3.1.0,59.80457063
230,G,N,225,L,N,230GN225LN,HLN,0,80,80,237,,,0.734,587.9688854,588.2652972,588.2652972,588.4810892,588.4978263,None,down,2.2151363,588.4978263,None,588.4978263,589.2138032,0.1881399,None,,,,,,,,,42,1,2020_Jan_03_1022,untitled,3.1.0,59.80457063
262,_2,N,225,R,N,262_2N225RN,HRN,0,81,81,245,,,0.974,591.0022941,591.2952519,591.2952519,591.4286227,591.4453927,None,up,2.3159282,591.4453927,None,591.4453927,592.3948842,0.2787305,None,,,,,,,,,42,1,2020_Jan_03_1022,untitled,3.1.0,59.80457063
_,G,M,45,_,_,_GM045__,N,0,82,82,9,,,1.037,594.0764296,594.3757991,594.3757991,594.4757598,594.4924191,None,down,2.8813251,594.4924191,None,594.4924191,595.5085069,0.3027072,None,,,,,,,,,42,1,2020_Jan_03_1022,untitled,3.1.0,59.80457063
170,F,M,45,L,N,170FM045LN,HLN,0,83,83,121,,,1.399,597.6533508,597.9417414,597.9417414,598.0900188,598.106979,None,down,2.3333804,598.106979,None,598.106979,599.4888399,0.2665402,None,,,,,,,,,42,1,2020_Jan_03_1022,untitled,3.1.0,59.80457063
11,R,M,90,R,N,011RM090RN,HRN,0,84,84,98,,,1.103,600.6720819,600.9700018,600.9700018,601.153415,601.1701562,None,down,2.1346747,601.1701562,None,601.1701562,602.2601479,0.2169826,None,,,,,,,,,42,1,2020_Jan_03_1022,untitled,3.1.0,59.80457063
399,_4,M,270,R,N,399_4M270RN,HRN,0,85,85,166,,,1.085,603.6068075,603.9011693,603.9011693,604.0179073,604.0354105,None,down,2.4816496,604.0354105,None,604.0354105,605.0999143,0.2895284,None,,,,,,,,,42,1,2020_Jan_03_1022,untitled,3.1.0,59.80457063
143,F,M,270,R,N,143FM270RN,HRN,0,86,86,118,,,0.79,606.7883705,607.0815661,607.0815661,607.2314519,607.2483066,None,down,3.2487064,607.2483066,None,607.2483066,608.0304574,0.2588436,None,,,,,,,,,42,1,2020_Jan_03_1022,untitled,3.1.0,59.80457063
13,R,M,180,R,N,013RM180RN,HRN,0,87,87,100,,,0.895,610.6756057,610.9778842,610.9778842,611.2116804,611.2301293,None,up,2.04855,611.2301293,None,611.2301293,612.1107723,0.1654445,None,,,,,,,,,42,1,2020_Jan_03_1022,untitled,3.1.0,59.80457063
_,_5,N,225,_,_,__5N225__,N,0,88,88,93,,,0.802,613.5010007,613.7928356,613.7928356,614.0100179,614.0100179,None,up,3.0642771,614.0100179,None,614.0100179,614.8085553,0.2031475,None,,,,,,,,,42,1,2020_Jan_03_1022,untitled,3.1.0,59.80457063
487,_5,N,270,L,N,487_5N270LN,HLN,0,89,89,286,,,1.158,617.2580079,617.5566486,617.5566486,617.7902852,617.8099484,None,down,2.2619865,617.8099484,None,617.8099484,618.9401088,0.170846,None,,,,,,,,,42,1,2020_Jan_03_1022,untitled,3.1.0,59.80457063
_,_5,M,90,_,_,__5M090__,N,0,90,90,42,,,0.912,620.3862452,620.6864155,620.6864155,620.7862498,620.8030757,None,down,3.2155827,620.8030757,None,620.8030757,621.7035287,0.3016797,None,,,,,,,,,42,1,2020_Jan_03_1022,untitled,3.1.0,59.80457063
426,_4,M,45,L,N,426_4M045LN,HLN,0,91,91,169,,,1.131,624.2810258,624.5827597,624.5827597,624.7327549,624.7495345,None,down,2.3492998,624.7495345,None,624.7495345,625.8650721,0.24903,None,,,,,,,,,42,1,2020_Jan_03_1022,untitled,3.1.0,59.80457063
135,F,N,270,R,N,135FN270RN,HRN,0,92,92,214,,,1.099,627.325732,627.616059,627.616059,627.8135211,627.8315565,None,up,2.2826745,627.8315565,None,627.8315565,628.9125721,0.2141135,None,,,,,,,,,42,1,2020_Jan_03_1022,untitled,3.1.0,59.80457063
_,G,N,225,_,_,_GN225__,N,0,93,93,61,,,1.133,630.4361884,630.7280165,630.7280165,630.8278084,630.8451421,None,None,,630.8451421,None,630.8451421,631.9604975,0.3055369,None,,,,,,,,,42,1,2020_Jan_03_1022,untitled,3.1.0,59.80457063
_,G,M,135,_,_,_GM135__,N,0,94,94,11,,,1.033,634.5333313,634.8240276,634.8240276,635.0404901,635.0569663,634.5333313,down,2.1996418,635.0569663,None,635.0569663,636.07286,0.192207,None,,,,,,,,,42,1,2020_Jan_03_1022,untitled,3.1.0,59.80457063
15,R,M,270,R,N,015RM270RN,HRN,0,95,95,102,,,0.963,637.4615819,637.7549282,637.7549282,637.9712331,637.9878665,None,down,2.2502083,637.9878665,None,637.9878665,638.9368386,0.192558,None,,,,,,,,,42,1,2020_Jan_03_1022,untitled,3.1.0,59.80457063
261,_2,N,180,R,N,261_2N180RN,HRN,0,96,96,244,,,1.089,640.4522279,640.7519688,640.7519688,640.9518164,640.968756,None,up,2.9330844,640.968756,None,640.968756,642.0510855,0.2009389,None,,,,,,,,,42,1,2020_Jan_03_1022,untitled,3.1.0,59.80457063
8,R,N,315,R,N,008RN315RN,HRN,0,97,97,199,,,0.835,644.1283986,644.4176132,644.4176132,644.6154387,644.632354,None,up,1.6342526,644.632354,None,644.632354,645.4654709,0.210532,None,,,,,,,,,42,1,2020_Jan_03_1022,untitled,3.1.0,59.80457063
_,_4,N,0,_,_,__4N000__,N,0,98,98,80,,,0.918,646.5588781,646.8486068,646.8486068,646.9804698,646.9982484,None,up,2.0006051,646.9982484,None,646.9982484,647.8963098,0.276437,None,,,,,,,,,42,1,2020_Jan_03_1022,untitled,3.1.0,59.80457063
_,_5,M,270,_,_,__5M270__,N,0,99,99,46,,,1.04,649.4334661,649.4334661,649.4334661,649.7292346,649.7292346,None,None,,649.7292346,None,649.7292346,650.7601484,0.4149931,None,,,,,,,,,42,1,2020_Jan_03_1022,untitled,3.1.0,59.80457063
175,F,M,270,L,N,175FM270LN,HLN,0,100,100,126,,,1.305,653.5256085,653.8240298,653.8240298,653.9240842,653.9411564,653.5256085,down,2.6332245,653.9411564,None,653.9411564,655.2237253,0.3057941,None,,,,,,,,,42,1,2020_Jan_03_1022,untitled,3.1.0,59.80457063
429,_4,M,180,L,N,429_4M180LN,HLN,0,101,101,172,,,1.127,656.8073345,657.1046676,657.1046676,657.2894571,657.3059241,None,up,2.6832999,657.3059241,None,657.3059241,658.4205789,0.2195291,None,,,,,,,,,42,1,2020_Jan_03_1022,untitled,3.1.0,59.80457063
_,_4,N,90,_,_,__4N090__,N,0,102,102,82,,,0.703,660.3444672,660.6362863,660.6362863,660.7222018,660.7222018,None,up,1.446569,660.7222018,None,660.7222018,661.4182768,0.3364386,None,,,,,,,,,42,1,2020_Jan_03_1022,untitled,3.1.0,59.80457063
495,_5,M,270,L,N,495_5M270LN,HLN,0,103,103,190,,,1.146,662.4835766,662.7828314,662.7828314,662.8823886,662.8994095,None,down,2.8314979,662.8994095,None,662.8994095,664.0314317,0.3011333,None,,,,,,,,,42,1,2020_Jan_03_1022,untitled,3.1.0,59.80457063
_,G,N,135,_,_,_GN135__,N,0,104,104,59,,,1.268,665.9883785,666.2808837,666.2808837,666.4463562,666.4630659,None,up,2.4329493,666.4630659,None,666.4630659,667.7118205,0.2470887,None,,,,,,,,,42,1,2020_Jan_03_1022,untitled,3.1.0,59.80457063
464,_5,M,315,R,N,464_5M315RN,HRN,0,105,105,183,,,1.05,669.3012558,669.3012558,669.5937369,669.6103074,669.6272991,None,down,3.1482203,669.6272991,None,669.6272991,670.661416,0.3886566,None,,,,,,,,,42,1,2020_Jan_03_1022,untitled,3.1.0,59.80457063
_,F,M,135,_,_,_FM135__,N,0,106,106,3,,,1.311,673.0615226,673.3569958,673.3569958,673.4903837,673.5068723,None,up,2.5000437,673.5068723,None,673.5068723,674.7928567,0.2743021,None,,,,,,,,,42,1,2020_Jan_03_1022,untitled,3.1.0,59.80457063
_,R,M,270,_,_,_RM270__,N,0,107,107,22,,,1.309,676.2277094,676.521083,676.521083,676.7214354,676.738513,None,down,2.4155524,676.738513,None,676.738513,678.0364456,0.2074183,None,,,,,,,,,42,1,2020_Jan_03_1022,untitled,3.1.0,59.80457063
142,F,M,225,R,N,142FM225RN,HRN,0,108,108,117,,,0.895,679.394847,679.6863481,679.6863481,679.8700851,679.8885713,None,down,1.9949792,679.8885713,None,679.8885713,680.7564089,0.2259896,None,,,,,,,,,42,1,2020_Jan_03_1022,untitled,3.1.0,59.80457063
496,_5,M,315,L,N,496_5M315LN,HLN,0,109,109,191,,,1.287,682.0916568,682.3828795,682.3828795,682.5993498,682.6172481,None,down,2.8143433,682.6172481,None,682.6172481,683.8818679,0.1955608,None,,,,,,,,,42,1,2020_Jan_03_1022,untitled,3.1.0,59.80457063
490,_5,M,45,L,N,490_5M045LN,HLN,0,110,110,185,,,1.054,685.6629159,685.9626579,685.9626579,686.1458725,686.1627618,None,down,2.4327556,686.1627618,None,686.1627618,687.2118828,0.2174472,None,,,,,,,,,42,1,2020_Jan_03_1022,untitled,3.1.0,59.80457063
2,R,N,45,R,N,002RN045RN,HRN,0,111,111,193,,,1.283,688.8787296,689.1780604,689.1780604,689.3108587,689.3301843,None,up,1.980662,689.3301843,None,689.3301843,690.5926812,0.2662654,None,,,,,,,,,42,1,2020_Jan_03_1022,untitled,3.1.0,59.80457063
_,F,N,90,_,_,_FN090__,N,0,112,112,50,,,1.259,691.6168365,691.9073063,691.9073063,692.02431,692.0406011,None,up,2.1662146,692.0406011,None,692.0406011,693.2900291,0.2886318,None,,,,,,,,,42,1,2020_Jan_03_1022,untitled,3.1.0,59.80457063
_,G,M,225,_,_,_GM225__,N,0,113,113,13,,,1.153,694.4077629,694.7050648,694.7050648,694.9215264,694.9383476,None,down,3.1314376,694.9383476,None,694.9383476,696.0709407,0.1883618,None,,,,,,,,,42,1,2020_Jan_03_1022,untitled,3.1.0,59.80457063
_,_5,N,0,_,_,__5N000__,N,0,114,114,88,,,1.289,698.3456837,698.6349521,698.6349521,698.7849436,698.801721,None,up,2.0168785,698.801721,None,698.801721,700.083777,0.2640786,None,,,,,,,,,42,1,2020_Jan_03_1022,untitled,3.1.0,59.80457063
206,G,M,225,R,N,206GM225RN,HRN,0,115,115,133,,,1.205,701.1019247,701.3992154,701.3992154,701.5326617,701.5499465,None,down,2.6808328,701.5499465,None,701.5499465,702.7485016,0.2700574,None,,,,,,,,,42,1,2020_Jan_03_1022,untitled,3.1.0,59.80457063
398,_4,M,225,R,N,398_4M225RN,HRN,0,116,116,165,,,0.895,704.4468993,704.7462129,704.7462129,704.9462792,704.9630601,None,up,1.6509553,704.9630601,None,704.9630601,705.8456072,0.2037571,None,,,,,,,,,42,1,2020_Jan_03_1022,untitled,3.1.0,59.80457063
432,_4,M,315,L,N,432_4M315LN,HLN,0,117,117,175,,,1.009,706.9162642,707.211344,707.211344,707.328312,707.3468566,None,up,1.8467799,707.3468566,None,707.3468566,708.3437491,0.2888087,None,,,,,,,,,42,1,2020_Jan_03_1022,untitled,3.1.0,59.80457063
397,_4,M,180,R,N,397_4M180RN,HRN,0,118,118,164,,,0.769,709.5323031,709.8252761,709.8252761,709.9087853,709.9251317,None,up,1.3712753,709.9251317,None,709.9251317,710.675177,0.3225458,None,,,,,,,,,42,1,2020_Jan_03_1022,untitled,3.1.0,59.80457063
449,_5,N,0,R,N,449_5N000RN,HRN,0,119,119,272,,,1.082,711.6769187,711.9735677,711.9735677,712.0233639,712.0411523,None,up,1.8152144,712.0411523,None,712.0411523,713.1056838,0.3586513,None,,,,,,,,,42,1,2020_Jan_03_1022,untitled,3.1.0,59.80457063
386,_4,N,45,R,N,386_4N045RN,HRN,0,120,120,257,,,1.373,714.5098178,714.5098178,714.5098178,714.8054955,714.8054955,None,up,1.7844006,714.8054955,None,714.8054955,715.9532532,0.6392652,None,,,,,,,,,42,1,2020_Jan_03_1022,untitled,3.1.0,59.80457063
34,R,N,45,L,N,034RN045LN,HLN,0,121,121,201,,,1.284,716.9165626,717.218854,717.218854,717.3022635,717.318994,None,up,1.900721,717.318994,None,717.318994,718.5850801,0.3125979,None,,,,,,,,,42,1,2020_Jan_03_1022,untitled,3.1.0,59.80457063
5,R,N,180,R,N,005RN180RN,HRN,0,122,122,196,,,1.033,719.4356466,719.7331809,719.7331809,719.932977,719.9499307,None,up,2.2663142,719.9499307,None,719.9499307,720.9669711,0.2032719,None,,,,,,,,,42,1,2020_Jan_03_1022,untitled,3.1.0,59.80457063
427,_4,M,90,L,N,427_4M090LN,HLN,0,123,123,170,,,1.23,722.4812433,722.7809405,722.7809405,722.9309931,722.948329,None,down,2.3670612,722.948329,None,722.948329,724.1634869,0.2492661,None,,,,,,,,,42,1,2020_Jan_03_1022,untitled,3.1.0,59.80457063
_,_5,N,90,_,_,__5N090__,N,0,124,124,90,,,0.725,725.55835,725.845954,725.845954,726.0281496,726.045073,None,up,1.4511002,726.045073,None,726.045073,726.7619492,0.228125,None,,,,,,,,,42,1,2020_Jan_03_1022,untitled,3.1.0,59.80457063
_,F,N,225,_,_,_FN225__,N,0,125,125,53,,,0.719,727.8023113,728.0926578,728.0926578,728.2259206,728.2259206,None,up,1.5155878,728.2259206,None,728.2259206,728.9424147,0.2885594,None,,,,,,,,,42,1,2020_Jan_03_1022,untitled,3.1.0,59.80457063
492,_5,M,135,L,N,492_5M135LN,HLN,0,126,126,187,,,0.846,729.9296296,730.2240376,730.2240376,730.4571544,730.4739342,None,down,2.8173671,730.4739342,None,730.4739342,731.307362,0.1760315,None,,,,,,,,,42,1,2020_Jan_03_1022,untitled,3.1.0,59.80457063
36,R,N,135,L,N,036RN135LN,HLN,0,127,127,203,,,1.314,733.5882677,733.8872718,733.8872718,734.0038943,734.0206858,None,up,2.1660004,734.0206858,None,734.0206858,735.3195585,0.28143,None,,,,,,,,,42,1,2020_Jan_03_1022,untitled,3.1.0,59.80457063
_,_2,N,135,_,_,__2N135__,N,0,128,128,75,,,1.241,736.4028733,736.7035308,736.7035308,736.9016257,736.9182863,None,up,2.6005298,736.9182863,None,736.9182863,738.1513206,0.2025428,None,,,,,,,,,42,1,2020_Jan_03_1022,untitled,3.1.0,59.80457063
203,G,M,90,R,N,203GM090RN,HRN,0,129,129,130,,,1.353,739.8624656,740.1502403,740.1502403,740.2318312,740.2487995,None,down,2.9681488,740.2487995,None,740.2487995,741.599586,0.328651,None,,,,,,,,,42,1,2020_Jan_03_1022,untitled,3.1.0,59.80457063
423,_4,N,270,L,N,423_4N270LN,HLN,0,130,130,270,,,1.059,743.5014012,743.7955829,743.7955829,743.9301949,743.9500086,None,up,1.8125205,743.9500086,None,743.9500086,744.9945751,0.2707602,None,,,,,,,,,42,1,2020_Jan_03_1022,untitled,3.1.0,59.80457063
260,_2,N,135,R,N,260_2N135RN,HRN,0,131,131,243,,,1.217,745.960202,746.2602724,746.2602724,746.4769527,746.4934689,None,up,2.3837956,746.4934689,None,746.4934689,747.6924339,0.184709,None,,,,,,,,,42,1,2020_Jan_03_1022,untitled,3.1.0,59.80457063
_,R,N,45,_,_,_RN045__,N,0,132,132,65,,,0.78,749.1902062,749.4909029,749.4909029,749.5906464,749.6072605,None,up,1.2996235,749.6072605,None,749.6072605,750.3732968,0.2997453,None,,,,,,,,,42,1,2020_Jan_03_1022,untitled,3.1.0,59.80457063
6,R,N,225,R,N,006RN225RN,HRN,0,133,133,197,,,1.316,751.1262728,751.4235259,751.4235259,751.6230077,751.6416224,None,up,1.9980046,751.6416224,None,751.6416224,752.9404998,0.204884,None,,,,,,,,,42,1,2020_Jan_03_1022,untitled,3.1.0,59.80457063
450,_5,N,45,R,N,450_5N045RN,HRN,0,134,134,273,,,1.15,753.8620653,754.1533864,754.1533864,754.3540795,754.3720583,None,up,1.6982029,754.3720583,None,754.3720583,755.5020507,0.2075802,None,,,,,,,,,42,1,2020_Jan_03_1022,untitled,3.1.0,59.80457063
173,F,M,180,L,N,173FM180LN,HLN,0,135,135,124,,,1.028,756.3280083,756.6184655,756.6184655,756.7845717,756.8027637,None,down,1.8727408,756.8027637,None,756.8027637,757.8182482,0.2441067,None,,,,,,,,,42,1,2020_Jan_03_1022,untitled,3.1.0,59.80457063
_,R,M,0,_,_,_RM000__,N,0,136,136,16,,,1.266,758.9631926,759.2653822,759.2653822,759.3985656,759.3985656,None,down,2.1862807,759.3985656,None,759.3985656,760.664489,0.2737339,None,,,,,,,,,42,1,2020_Jan_03_1022,untitled,3.1.0,59.80457063
258,_2,N,45,R,N,258_2N045RN,HRN,0,137,137,241,,,0.972,761.8412603,762.129839,762.129839,762.3127076,762.3302691,None,up,1.6652158,762.3302691,None,762.3302691,763.2795775,0.2361937,None,,,,,,,,,42,1,2020_Jan_03_1022,untitled,3.1.0,59.80457063
491,_5,M,90,L,N,491_5M090LN,HLN,0,138,138,186,,,0.73,764.1873285,764.4775189,764.4775189,764.7107409,764.7275183,None,down,1.883882,764.7275183,None,764.7275183,765.4432151,0.1801701,None,,,,,,,,,42,1,2020_Jan_03_1022,untitled,3.1.0,59.80457063
_,F,M,90,_,_,_FM090__,N,0,139,139,2,,,0.809,766.8498423,767.141996,767.141996,767.3252835,767.3419455,None,down,2.149515,767.3419455,None,767.3419455,768.1412713,0.2248471,None,,,,,,,,,42,1,2020_Jan_03_1022,untitled,3.1.0,59.80457063
_,G,M,315,_,_,_GM315__,N,0,140,140,15,,,1.023,769.7480493,770.0394634,770.0394634,770.2059311,770.2231432,None,down,2.532316,770.2231432,None,770.2231432,771.2388454,0.2404167,None,,,,,,,,,42,1,2020_Jan_03_1022,untitled,3.1.0,59.80457063
200,G,N,315,R,N,200GN315RN,HRN,0,141,141,231,,,0.941,773.0759167,773.3707836,773.3707836,773.4719567,773.4912093,None,up,1.9966291,773.4912093,None,773.4912093,774.4039765,0.3068944,None,,,,,,,,,42,1,2020_Jan_03_1022,untitled,3.1.0,59.80457063
228,G,N,135,L,N,228GN135LN,HLN,0,142,142,235,,,1.379,775.7059917,776.0011191,776.0011191,776.2007544,776.2184188,None,up,2.5476841,776.2184188,None,776.2184188,777.5833375,0.2056292,None,,,,,,,,,42,1,2020_Jan_03_1022,untitled,3.1.0,59.80457063
395,_4,M,90,R,N,395_4M090RN,HRN,0,143,143,162,,,0.837,778.9938266,779.2963121,779.2963121,779.4813055,779.4977844,None,down,1.6831965,779.4977844,None,779.4977844,780.3143661,0.2147162,None,,,,,,,,,42,1,2020_Jan_03_1022,untitled,3.1.0,59.80457063
_,_2,N,270,_,_,__2N270__,N,0,144,144,78,,,1.311,781.4081708,781.6976258,781.6976258,781.8957714,781.9129622,None,up,2.733692,781.9129622,None,781.9129622,783.2113684,0.2142414,None,,,,,,,,,42,1,2020_Jan_03_1022,untitled,3.1.0,59.80457063
237,G,M,180,L,N,237GM180LN,HLN,0,145,145,140,,,1.133,784.8437514,785.1430297,785.1430297,785.3598506,785.3786912,None,up,2.3809419,785.3786912,None,785.3786912,786.491558,0.1848753,None,,,,,,,,,42,1,2020_Jan_03_1022,untitled,3.1.0,59.80457063
235,G,M,90,L,N,235GM090LN,HLN,0,146,146,138,,,0.722,788.0390428,788.3399437,788.3399437,788.4735517,788.4900659,None,down,2.0827396,788.4900659,None,788.4900659,789.1965425,0.2650577,None,,,,,,,,,42,1,2020_Jan_03_1022,untitled,3.1.0,59.80457063
_,_4,M,270,_,_,__4M270__,N,0,147,147,38,,,0.799,790.8459844,791.1379013,791.1379013,791.2884615,791.3050233,None,down,2.082129,791.3050233,None,791.3050233,792.0867142,0.2614085,None,,,,,,,,,42,1,2020_Jan_03_1022,untitled,3.1.0,59.80457063
_,G,N,45,_,_,_GN045__,N,0,148,148,57,,,0.804,793.6557268,793.9519051,793.9519051,794.1017114,794.1186924,None,up,2.0490596,794.1186924,None,794.1186924,794.9009936,0.256792,None,,,,,,,,,42,1,2020_Jan_03_1022,untitled,3.1.0,59.80457063
199,G,N,270,R,N,199GN270RN,HRN,0,149,149,230,,,0.797,796.4546549,796.7495525,796.7495525,796.8824363,796.8995526,None,up,2.3321176,796.8995526,None,796.8995526,797.6819744,0.2750556,None,,,,,,,,,42,1,2020_Jan_03_1022,untitled,3.1.0,59.80457063
198,G,N,225,R,N,198GN225RN,HRN,0,150,150,229,,,0.725,799.5253887,799.813735,799.813735,799.9467349,799.9634676,None,up,1.9348628,799.9634676,None,799.9634676,800.679854,0.2810987,None,,,,,,,,,42,1,2020_Jan_03_1022,untitled,3.1.0,59.80457063
294,_2,N,225,L,N,294_2N225LN,HLN,0,151,151,253,,,0.997,802.1430495,802.4446547,802.4446547,802.6115033,802.6284109,None,up,1.9335835,802.6284109,None,802.6284109,803.6101619,0.229443,None,,,,,,,,,42,1,2020_Jan_03_1022,untitled,3.1.0,59.80457063
176,F,M,315,L,N,176FM315LN,HLN,0,152,152,127,,,0.751,804.8377462,805.128272,805.128272,805.2814195,805.3013895,None,down,2.4566101,805.3013895,None,805.3013895,806.0245192,0.2616758,None,,,,,,,,,42,1,2020_Jan_03_1022,untitled,3.1.0,59.80457063
_,_5,N,45,_,_,__5N045__,N,0,153,153,89,,,1.111,808.0480007,808.3394171,808.3394171,808.4725289,808.489315,None,up,1.6854483,808.489315,None,808.489315,809.5883597,0.2777604,None,,,,,,,,,42,1,2020_Jan_03_1022,untitled,3.1.0,59.80457063
_,F,N,0,_,_,_FN000__,N,0,154,154,48,,,1.355,810.4775831,810.7704899,810.7704899,810.8872471,810.9039496,None,up,1.9493661,810.9039496,None,810.9039496,812.2526131,0.2907048,None,,,,,,,,,42,1,2020_Jan_03_1022,untitled,3.1.0,59.80457063
385,_4,N,0,R,N,385_4N000RN,HRN,0,155,155,256,,,1.23,813.1121867,813.4016056,813.4016056,813.5681387,813.584926,None,up,1.8160316,813.584926,None,813.584926,814.8010912,0.245605,None,,,,,,,,,42,1,2020_Jan_03_1022,untitled,3.1.0,59.80457063
_,_4,M,135,_,_,__4M135__,N,0,156,156,35,,,1.017,815.6020813,815.899425,815.899425,816.1163995,816.1331613,None,up,1.8321334,816.1331613,None,816.1331613,817.132672,0.1884008,None,,,,,,,,,42,1,2020_Jan_03_1022,untitled,3.1.0,59.80457063
133,F,N,180,R,N,133FN180RN,HRN,0,157,157,212,,,0.931,818.2590045,818.5475192,818.5475192,818.6804721,818.6977554,None,up,1.8173533,818.6977554,None,818.6977554,819.6128807,0.2782619,None,,,,,,,,,42,1,2020_Jan_03_1022,untitled,3.1.0,59.80457063
299,_2,M,90,L,N,299_2M090LN,HLN,0,158,158,154,,,0.709,820.7974318,821.0956017,821.0956017,821.2279788,821.2448194,None,down,2.4488337,821.2448194,None,821.2448194,821.9437502,0.2674052,None,,,,,,,,,42,1,2020_Jan_03_1022,untitled,3.1.0,59.80457063
422,_4,N,225,L,N,422_4N225LN,HLN,0,159,159,269,,,1.016,823.9000407,824.1919128,824.1919128,824.408663,824.4255258,None,up,1.6502579,824.4255258,None,824.4255258,825.4243961,0.1944441,None,,,,,,,,,42,1,2020_Jan_03_1022,untitled,3.1.0,59.80457063
171,F,M,90,L,N,171FM090LN,HLN,0,160,160,122,,,1.369,826.3042268,826.5926196,826.5926196,826.7900271,826.8068283,None,down,2.4327377,826.8068283,None,826.8068283,828.1551892,0.2146311,None,,,,,,,,,42,1,2020_Jan_03_1022,untitled,3.1.0,59.80457063
_,R,M,45,_,_,_RM045__,N,0,161,161,17,,,1.184,829.4635989,829.7541208,829.7541208,829.9536394,829.9706112,None,down,2.2673633,829.9706112,None,829.9706112,831.1363578,0.2104316,None,,,,,,,,,42,1,2020_Jan_03_1022,untitled,3.1.0,59.80457063
485,_5,N,180,L,N,485_5N180LN,HLN,0,162,162,284,,,1.098,832.4920292,832.7854596,832.7854596,832.9516881,832.9692896,None,up,1.9984896,832.9692896,None,832.9692896,834.0505541,0.2391575,None,,,,,,,,,42,1,2020_Jan_03_1022,untitled,3.1.0,59.80457063
40,R,N,315,L,N,040RN315LN,HLN,0,163,163,207,,,1.114,835.2583722,835.5490846,835.5490846,835.6840082,835.7032533,None,up,1.7970997,835.7032533,None,835.7032533,836.801316,0.2771107,None,,,,,,,,,42,1,2020_Jan_03_1022,untitled,3.1.0,59.80457063
_,R,N,90,_,_,_RN090__,N,0,164,164,66,,,1.201,837.7094361,837.9980058,837.9980058,838.2132664,838.2301066,None,up,1.6338132,838.2301066,None,838.2301066,839.4123613,0.1953798,None,,,,,,,,,42,1,2020_Jan_03_1022,untitled,3.1.0,59.80457063
451,_5,N,90,R,N,451_5N090RN,HRN,0,165,165,274,,,1.169,840.0507107,840.344743,840.344743,840.5778661,840.594813,None,up,1.7349384,840.594813,None,840.594813,841.743628,0.1753817,None,,,,,,,,,42,1,2020_Jan_03_1022,untitled,3.1.0,59.80457063
393,_4,M,0,R,N,393_4M000RN,HRN,0,166,166,160,,,1.394,842.5496958,842.8427513,842.8427513,843.0422699,843.0591673,None,None,,843.0591673,None,843.0591673,844.4459545,0.2071265,None,,,,,,,,,42,1,2020_Jan_03_1022,untitled,3.1.0,59.80457063
_,F,N,135,_,_,_FN135__,N,0,167,167,51,,,1.144,846.8129207,847.1060719,847.1060719,847.2553249,847.272758,846.8129207,up,1.7659506,847.272758,None,847.272758,848.4042165,0.2609707,None,,,,,,,,,42,1,2020_Jan_03_1022,untitled,3.1.0,59.80457063
_,_2,M,0,_,_,__2M000__,N,0,168,168,24,,,1.003,849.2804113,849.5701961,849.5701961,849.7532729,849.7708024,None,down,2.2739224,849.7708024,None,849.7708024,850.7689465,0.2261246,None,,,,,,,,,42,1,2020_Jan_03_1022,untitled,3.1.0,59.80457063
46,R,M,225,L,N,046RM225LN,HLN,0,169,169,109,,,1.095,852.3458239,852.6347125,852.6347125,852.7671178,852.7839737,None,down,2.4154959,852.7839737,None,852.7839737,853.866466,0.2834762,None,,,,,,,,,42,1,2020_Jan_03_1022,untitled,3.1.0,59.80457063
_,_5,M,0,_,_,__5M000__,N,0,170,170,40,,,0.745,855.4750256,855.7646418,855.7646418,855.9146964,855.9312141,None,down,2.548962,855.9312141,None,855.9312141,856.6640366,0.2585457,None,,,,,,,,,42,1,2020_Jan_03_1022,untitled,3.1.0,59.80457063
193,G,N,0,R,N,193GN000RN,HRN,0,171,171,224,,,0.801,858.6880987,858.9783017,858.9783017,859.1951039,859.211747,None,up,1.3842615,859.211747,None,859.211747,859.9939224,0.1955578,None,,,,,,,,,42,1,2020_Jan_03_1022,untitled,3.1.0,59.80457063
_,_2,M,315,_,_,__2M315__,N,0,172,172,31,,,1.082,860.8234701,861.1105105,861.1105105,861.3098475,861.3277735,None,down,2.2648003,861.3277735,None,861.3277735,862.3922804,0.2121421,None,,,,,,,,,42,1,2020_Jan_03_1022,untitled,3.1.0,59.80457063
290,_2,N,45,L,N,290_2N045LN,HLN,0,173,173,249,,,1.013,863.8273862,864.1239322,864.1239322,864.3080249,864.3260625,None,up,2.0983568,864.3260625,None,864.3260625,865.3249084,0.2185396,None,,,,,,,,,42,1,2020_Jan_03_1022,untitled,3.1.0,59.80457063
225,G,N,0,L,N,225GN000LN,HLN,0,174,174,232,,,1.395,866.6363819,866.9390632,866.9390632,867.1393753,867.1587725,None,up,2.0960814,867.1587725,None,867.1587725,868.5370339,0.19833,None,,,,,,,,,42,1,2020_Jan_03_1022,untitled,3.1.0,59.80457063
_,_2,M,225,_,_,__2M225__,N,0,175,175,29,,,1.285,869.459533,869.7522717,869.7522717,869.969135,869.985759,None,down,3.0321247,869.985759,None,869.985759,871.2512938,0.192162,None,,,,,,,,,42,1,2020_Jan_03_1022,untitled,3.1.0,59.80457063
302,_2,M,225,L,N,302_2M225LN,HLN,0,176,176,157,,,0.913,873.3411978,873.6329453,873.6329453,873.7321656,873.7487253,None,down,2.449494,873.7487253,None,873.7487253,874.6482332,0.3100232,None,,,,,,,,,42,1,2020_Jan_03_1022,untitled,3.1.0,59.80457063
452,_5,N,135,R,N,452_5N135RN,HRN,0,177,177,275,,,0.786,876.5246931,876.8132913,876.8132913,876.9126659,876.9297038,None,up,1.7496877,876.9297038,None,876.9297038,877.6953124,0.3118304,None,,,,,,,,,42,1,2020_Jan_03_1022,untitled,3.1.0,59.80457063
240,G,M,315,L,N,240GM315LN,HLN,0,178,178,143,,,1.356,879.0115396,879.3113184,879.3113184,879.3945311,879.4117057,None,down,2.6478083,879.4117057,None,879.4117057,880.7597115,0.3158567,None,,,,,,,,,42,1,2020_Jan_03_1022,untitled,3.1.0,59.80457063
165,F,N,180,L,N,165FN180LN,HLN,0,179,179,220,,,0.736,882.4751659,882.4751659,882.4751659,882.7755783,882.793607,None,up,1.8305418,882.793607,None,882.793607,883.5078329,0.4006534,None,,,,,,,,,42,1,2020_Jan_03_1022,untitled,3.1.0,59.80457063
461,_5,M,180,R,N,461_5M180RN,HRN,0,180,180,180,,,1.095,884.8447734,885.1389603,885.1389603,885.3387183,885.3553268,None,None,,885.3553268,None,885.3553268,886.438117,0.2073548,None,,,,,,,,,42,1,2020_Jan_03_1022,untitled,3.1.0,59.80457063
457,_5,M,0,R,N,457_5M000RN,HRN,0,181,181,176,,,1.217,889.0399437,889.3351334,889.3351334,889.5352489,889.5521419,889.0399437,up,1.8991694,889.5521419,None,889.5521419,890.7508566,0.2098496,None,,,,,,,,,42,1,2020_Jan_03_1022,untitled,3.1.0,59.80457063
266,_2,M,45,R,N,266_2M045RN,HRN,0,182,182,145,,,1.1,891.6911275,891.9828706,891.9828706,892.1665335,892.1832959,None,down,2.383183,892.1832959,None,892.1832959,893.265118,0.225367,None,,,,,,,,,42,1,2020_Jan_03_1022,untitled,3.1.0,59.80457063
136,F,N,315,R,N,136FN315RN,HRN,0,183,183,215,,,1.226,894.7909864,895.0806478,895.0806478,895.2820464,895.3022667,None,up,1.9107944,895.3022667,None,895.3022667,896.5128537,0.2072374,None,,,,,,,,,42,1,2020_Jan_03_1022,untitled,3.1.0,59.80457063
455,_5,N,270,R,N,455_5N270RN,HRN,0,184,184,278,,,1.017,897.516617,897.8127469,897.8127469,897.9287514,897.9481506,None,up,1.8293742,897.9481506,None,897.9481506,898.9434206,0.2900389,None,,,,,,,,,42,1,2020_Jan_03_1022,untitled,3.1.0,59.80457063
_,R,N,315,_,_,_RN315__,N,0,185,185,71,,,1.226,899.9730459,900.2757078,900.2757078,900.4925877,900.5088742,None,up,1.8335922,900.5088742,None,900.5088742,901.7254471,0.1824264,None,,,,,,,,,42,1,2020_Jan_03_1022,untitled,3.1.0,59.80457063
296,_2,N,315,L,N,296_2N315LN,HLN,0,186,186,255,,,0.862,902.6526116,902.9418654,902.9418654,903.0564853,903.0734659,None,up,3.0658576,903.0734659,None,903.0734659,903.9228224,0.2971314,None,,,,,,,,,42,1,2020_Jan_03_1022,untitled,3.1.0,59.80457063
387,_4,N,90,R,N,387_4N090RN,HRN,0,187,187,258,,,0.742,906.3675857,906.6550911,906.6550911,906.8532881,906.8699899,None,up,1.4206961,906.8699899,None,906.8699899,907.6024353,0.2153537,None,,,,,,,,,42,1,2020_Jan_03_1022,untitled,3.1.0,59.80457063
271,_2,M,270,R,N,271_2M270RN,HRN,0,188,188,150,,,0.801,908.5126009,908.804813,908.804813,909.0180484,909.0349256,None,down,2.1333457,909.0349256,None,909.0349256,909.8181353,0.202318,None,,,,,,,,,42,1,2020_Jan_03_1022,untitled,3.1.0,59.80457063
453,_5,N,180,R,N,453_5N180RN,HRN,0,189,189,276,,,1.225,911.4949994,911.7850791,911.7850791,911.8827576,911.9003737,None,up,1.8490913,911.9003737,None,911.9003737,913.1150105,0.3111311,None,,,,,,,,,42,1,2020_Jan_03_1022,untitled,3.1.0,59.80457063
205,G,M,180,R,N,205GM180RN,HRN,0,190,190,132,,,1.338,914.0637523,914.3636088,914.3636088,914.464309,914.4815124,None,None,,914.4815124,None,914.4815124,915.8118901,0.2978925,None,,,,,,,,,42,1,2020_Jan_03_1022,untitled,3.1.0,59.80457063
_,_4,M,315,_,_,__4M315__,N,0,191,191,39,,,1.076,918.1624282,918.4595359,918.4595359,918.6768515,918.6932118,918.1624282,up,1.799769,918.6932118,None,918.6932118,919.7587641,0.1903755,None,,,,,,,,,42,1,2020_Jan_03_1022,untitled,3.1.0,59.80457063
1,R,N,0,R,N,001RN000RN,HRN,0,192,192,192,,,1.232,920.7416839,921.0406721,921.0406721,921.2072715,921.2239071,None,up,1.8829963,921.2239071,None,921.2239071,922.4395715,0.2349924,None,,,,,,,,,42,1,2020_Jan_03_1022,untitled,3.1.0,59.80457063
_,_4,N,270,_,_,__4N270__,N,0,193,193,86,,,0.905,923.4290286,923.7222391,923.7222391,923.822354,923.8393026,None,up,1.7499873,923.8393026,None,923.8393026,924.7375963,0.3086513,None,,,,,,,,,42,1,2020_Jan_03_1022,untitled,3.1.0,59.80457063
_,_5,M,135,_,_,__5M135__,N,0,194,194,43,,,0.775,925.837062,926.1365507,926.1365507,926.3035615,926.3202861,None,up,2.6840169,926.3202861,None,926.3202861,927.0865355,0.2309594,None,,,,,,,,,42,1,2020_Jan_03_1022,untitled,3.1.0,59.80457063
421,_4,N,180,L,N,421_4N180LN,HLN,0,195,195,268,,,0.748,929.2752707,929.596008,929.596008,929.7170216,929.7357066,None,up,1.6806814,929.7357066,None,929.7357066,930.4667299,0.2554351,None,,,,,,,,,42,1,2020_Jan_03_1022,untitled,3.1.0,59.80457063
269,_2,M,180,R,N,269_2M180RN,HRN,0,196,196,148,,,0.719,931.6392342,931.9319053,931.9319053,932.1311798,932.1480462,None,up,1.468447,932.1480462,None,932.1480462,932.847423,0.2084306,None,,,,,,,,,42,1,2020_Jan_03_1022,untitled,3.1.0,59.80457063
_,_2,N,90,_,_,__2N090__,N,0,197,197,74,,,0.967,933.8240408,934.1131654,934.1131654,934.3295729,934.3461082,None,up,1.567898,934.3461082,None,934.3461082,935.2969033,0.195067,None,,,,,,,,,42,1,2020_Jan_03_1022,untitled,3.1.0,59.80457063
_,_4,M,90,_,_,__4M090__,N,0,198,198,34,,,0.829,936.1244473,936.427638,936.427638,936.6274335,936.6441648,None,up,1.666101,936.6441648,None,936.6441648,937.4598579,0.1975374,None,,,,,,,,,42,1,2020_Jan_03_1022,untitled,3.1.0,59.80457063
419,_4,N,90,L,N,419_4N090LN,HLN,0,199,199,266,,,0.973,938.5429993,938.842099,938.842099,939.0253843,939.0420787,None,up,1.4834651,939.0420787,None,939.0420787,939.9920296,0.2182134,None,,,,,,,,,42,1,2020_Jan_03_1022,untitled,3.1.0,59.80457063
_,_4,N,135,_,_,__4N135__,N,0,200,200,83,,,1.388,940.7415776,941.0402513,941.0402513,941.2404988,941.2576305,None,up,1.9826476,941.2576305,None,941.2576305,942.6388944,0.2018833,None,,,,,,,,,42,1,2020_Jan_03_1022,untitled,3.1.0,59.80457063
_,_5,M,45,_,_,__5M045__,N,0,201,201,41,,,1.3,943.5001929,943.7893023,943.7893023,943.9548437,943.9764841,None,up,1.9178404,943.9764841,None,943.9764841,945.2543624,0.244732,None,,,,,,,,,42,1,2020_Jan_03_1022,untitled,3.1.0,59.80457063
_,R,M,180,_,_,_RM180__,N,0,202,202,20,,,0.96,946.2386639,946.5356794,946.5356794,946.619364,946.6360213,None,up,1.5657549,946.6360213,None,946.6360213,947.5841626,0.3231481,None,,,,,,,,,42,1,2020_Jan_03_1022,untitled,3.1.0,59.80457063
_,_2,M,270,_,_,__2M270__,N,0,203,203,30,,,0.795,948.4163482,948.716761,948.716761,948.9165967,948.9333691,None,up,2.5156715,948.9333691,None,948.9333691,949.7160652,0.2019807,None,,,,,,,,,42,1,2020_Jan_03_1022,untitled,3.1.0,59.80457063
166,F,N,225,L,N,166FN225LN,HLN,0,204,204,221,,,1.139,951.7088575,951.9971878,951.9971878,952.1637606,952.1804557,None,up,2.0162902,952.1804557,None,952.1804557,953.313108,0.2445704,None,,,,,,,,,42,1,2020_Jan_03_1022,untitled,3.1.0,59.80457063
488,_5,N,315,L,N,488_5N315LN,HLN,0,205,205,287,,,0.882,954.462563,954.7618016,954.7618016,954.9123379,954.9315155,None,up,1.9809288,954.9315155,None,954.9315155,955.7947262,0.2511152,None,,,,,,,,,42,1,2020_Jan_03_1022,untitled,3.1.0,59.80457063
392,_4,N,315,R,N,392_4N315RN,HRN,0,206,206,263,,,1.08,957.1451655,957.4426692,957.4426692,957.6257501,957.6429837,None,up,1.816412,957.6429837,None,957.6429837,958.7088122,0.2177869,None,,,,,,,,,42,1,2020_Jan_03_1022,untitled,3.1.0,59.80457063
460,_5,M,135,R,N,460_5M135RN,HRN,0,207,207,179,,,1.082,959.6955527,959.9902057,959.9902057,960.1737691,960.1901035,None,up,2.2518761,960.1901035,None,960.1901035,961.2566839,0.2226997,None,,,,,,,,,42,1,2020_Jan_03_1022,untitled,3.1.0,59.80457063
_,_4,N,180,_,_,__4N180__,N,0,208,208,84,,,1.229,962.7325956,963.0211853,963.0211853,963.1711525,963.1711525,None,up,1.8995353,963.1711525,None,963.1711525,964.3864446,0.2728555,None,,,,,,,,,42,1,2020_Jan_03_1022,untitled,3.1.0,59.80457063
_,_5,N,270,_,_,__5N270__,N,0,209,209,94,,,1.353,965.2843689,965.5835841,965.5835841,965.7854182,965.8086132,None,up,1.946595,965.8086132,None,965.8086132,967.1344911,0.1988089,None,,,,,,,,,42,1,2020_Jan_03_1022,untitled,3.1.0,59.80457063
233,G,M,0,L,N,233GM000LN,HLN,0,210,210,136,,,1.308,967.9734683,968.2664931,968.2664931,968.4660409,968.4829629,None,down,2.5005588,968.4829629,None,968.4829629,969.7816848,0.2046666,None,,,,,,,,,42,1,2020_Jan_03_1022,untitled,3.1.0,59.80457063
481,_5,N,0,L,N,481_5N000LN,HLN,0,211,211,280,,,1.118,971.2523619,971.5465647,971.5465647,971.69747,971.7155695,None,up,1.7982088,971.7155695,None,971.7155695,972.8292624,0.25333,None,,,,,,,,,42,1,2020_Jan_03_1022,untitled,3.1.0,59.80457063
229,G,N,180,L,N,229GN180LN,HLN,0,212,212,236,,,0.889,973.7665762,974.0615671,974.0615671,974.2282743,974.2458042,None,up,2.2320227,974.2458042,None,974.2458042,975.1269482,0.2370698,None,,,,,,,,,42,1,2020_Jan_03_1022,untitled,3.1.0,59.80457063
_,_5,M,180,_,_,__5M180__,N,0,213,213,44,,,1.388,976.7785289,977.0754547,977.0754547,977.1931387,977.2120779,None,down,3.4107463,977.2120779,None,977.2120779,978.5906695,0.2855905,None,,,,,,,,,42,1,2020_Jan_03_1022,untitled,3.1.0,59.80457063
264,_2,N,315,R,N,264_2N315RN,HRN,0,214,214,247,,,1.075,980.8211992,981.1219116,981.1219116,981.3382582,981.3550373,None,up,2.1169475,981.3550373,None,981.3550373,982.420702,0.1851112,None,,,,,,,,,42,1,2020_Jan_03_1022,untitled,3.1.0,59.80457063
45,R,M,180,L,N,045RM180LN,HLN,0,215,215,108,,,0.701,983.7592059,984.0525284,984.0525284,984.1858272,984.2026971,None,None,,984.2026971,None,984.2026971,984.8853086,0.2743689,None,,,,,,,,,42,1,2020_Jan_03_1022,untitled,3.1.0,59.80457063
_,_5,N,315,_,_,__5N315__,N,0,216,216,95,,,1.358,987.8783243,988.1821698,988.1821698,988.3819408,988.3988133,987.8783243,up,1.934085,988.3988133,None,988.3988133,989.7480674,0.2009834,None,,,,,,,,,42,1,2020_Jan_03_1022,untitled,3.1.0,59.80457063
484,_5,N,135,L,N,484_5N135LN,HLN,0,217,217,283,,,0.845,990.5924841,990.8825768,990.8825768,991.0471059,991.0643509,None,up,1.9364128,991.0643509,None,991.0643509,991.8962984,0.2444092,None,,,,,,,,,42,1,2020_Jan_03_1022,untitled,3.1.0,59.80457063
194,G,N,45,R,N,194GN045RN,HRN,0,218,218,225,,,1.29,993.3361807,993.6277977,993.6277977,993.7287741,993.745299,None,up,2.2816739,993.745299,None,993.745299,995.0098555,0.3111331,None,,,,,,,,,42,1,2020_Jan_03_1022,untitled,3.1.0,59.80457063
_,R,N,180,_,_,_RN180__,N,0,219,219,68,,,1.121,996.2518745,996.5414293,996.5414293,996.7414986,996.7587752,None,up,1.8330235,996.7587752,None,996.7587752,997.8573909,0.2128418,None,,,,,,,,,42,1,2020_Jan_03_1022,untitled,3.1.0,59.80457063
_,F,M,225,_,_,_FM225__,N,0,220,220,5,,,1.221,998.9187517,999.2067087,999.2067087,999.3057443,999.3234235,None,down,3.2315673,999.3234235,None,999.3234235,1000.538145,0.3129213,None,,,,,,,,,42,1,2020_Jan_03_1022,untitled,3.1.0,59.80457063
_,G,M,270,_,_,_GM270__,N,0,221,221,14,,,1.233,1002.744898,1003.03597,1003.03597,1003.268954,1003.28706,None,down,2.3818638,1003.28706,None,1003.28706,1004.501875,0.1771433,None,,,,,,,,,42,1,2020_Jan_03_1022,untitled,3.1.0,59.80457063
_,R,M,315,_,_,_RM315__,N,0,222,222,23,,,1.374,1005.901582,1006.199957,1006.199957,1006.383596,1006.400372,None,down,2.6510648,1006.400372,None,1006.400372,1007.765496,0.2176155,None,,,,,,,,,42,1,2020_Jan_03_1022,untitled,3.1.0,59.80457063
494,_5,M,225,L,N,494_5M225LN,HLN,0,223,223,189,,,1.081,1009.374186,1009.663479,1009.663479,1009.780061,1009.780061,None,down,2.5666895,1009.780061,None,1009.780061,1010.862084,0.3018406,None,,,,,,,,,42,1,2020_Jan_03_1022,untitled,3.1.0,59.80457063
389,_4,N,180,R,N,389_4N180RN,HRN,0,224,224,260,,,1.062,1012.559737,1012.860655,1012.860655,1013.06046,1013.077351,None,up,1.7495843,1013.077351,None,1013.077351,1014.12641,0.200097,None,,,,,,,,,42,1,2020_Jan_03_1022,untitled,3.1.0,59.80457063
462,_5,M,225,R,N,462_5M225RN,HRN,0,225,225,181,,,1.035,1015.039193,1015.326904,1015.326904,1015.54154,1015.558416,None,down,2.6167892,1015.558416,None,1015.558416,1016.573992,0.1981797,None,,,,,,,,,42,1,2020_Jan_03_1022,untitled,3.1.0,59.80457063
_,F,M,180,_,_,_FM180__,N,0,226,226,4,,,0.732,1018.49889,1018.788966,1018.788966,1018.888734,1018.905613,None,down,2.2170871,1018.905613,None,1018.905613,1019.621676,0.3102374,None,,,,,,,,,42,1,2020_Jan_03_1022,untitled,3.1.0,59.80457063
454,_5,N,225,R,N,454_5N225RN,HRN,0,227,227,277,,,1.036,1021.366746,1021.670311,1021.670311,1021.836275,1021.853018,None,up,2.1505604,1021.853018,None,1021.853018,1022.870815,0.2285398,None,,,,,,,,,42,1,2020_Jan_03_1022,untitled,3.1.0,59.80457063
417,_4,N,0,L,N,417_4N000LN,HLN,0,228,228,264,,,0.987,1024.289394,1024.604393,1024.604393,1024.727124,1024.727124,None,up,1.5407365,1024.727124,None,1024.727124,1025.715862,0.2658841,None,,,,,,,,,42,1,2020_Jan_03_1022,untitled,3.1.0,59.80457063
_,G,N,270,_,_,_GN270__,N,0,229,229,62,,,0.771,1026.497556,1026.798575,1026.798575,1026.981795,1026.998486,None,up,1.9163459,1026.998486,None,1026.998486,1027.764745,0.2165463,None,,,,,,,,,42,1,2020_Jan_03_1022,untitled,3.1.0,59.80457063
_,_4,N,225,_,_,__4N225__,N,0,230,230,85,,,0.9,1029.10035,1029.396159,1029.396159,1029.629262,1029.646232,None,up,3.1653161,1029.646232,None,1029.646232,1030.52869,0.1730589,None,,,,,,,,,42,1,2020_Jan_03_1022,untitled,3.1.0,59.80457063
456,_5,N,315,R,N,456_5N315RN,HRN,0,231,231,279,,,0.908,1033.026581,1033.326344,1033.326344,1033.525946,1033.543256,None,up,1.5493704,1033.543256,None,1033.543256,1034.44167,0.2014961,None,,,,,,,,,42,1,2020_Jan_03_1022,untitled,3.1.0,59.80457063
38,R,N,225,L,N,038RN225LN,HLN,0,232,232,205,,,1.334,1035.334554,1035.624408,1035.624408,1035.807362,1035.824054,None,up,2.0663128,1035.824054,None,1035.824054,1037.140135,0.2284677,None,,,,,,,,,42,1,2020_Jan_03_1022,untitled,3.1.0,59.80457063
140,F,M,135,R,N,140FM135RN,HRN,0,233,233,115,,,1.246,1038.149769,1038.438907,1038.438907,1038.605364,1038.623083,None,down,2.7808808,1038.623083,None,1038.623083,1039.854466,0.2431311,None,,,,,,,,,42,1,2020_Jan_03_1022,untitled,3.1.0,59.80457063
424,_4,N,315,L,N,424_4N315LN,HLN,0,234,234,271,,,1.35,1041.610263,1041.901916,1041.901916,1042.118335,1042.134965,None,up,1.9672471,1042.134965,None,1042.134965,1043.466967,0.1921236,None,,,,,,,,,42,1,2020_Jan_03_1022,untitled,3.1.0,59.80457063
396,_4,M,135,R,N,396_4M135RN,HRN,0,235,235,163,,,1.254,1044.451116,1044.749434,1044.749434,1044.815907,1044.832891,None,up,2.3992711,1044.832891,None,1044.832891,1046.081503,0.3343729,None,,,,,,,,,42,1,2020_Jan_03_1022,untitled,3.1.0,59.80457063
164,F,N,135,L,N,164FN135LN,HLN,0,236,236,219,,,1.108,1047.516605,1047.813702,1047.813702,1047.947046,1047.963599,None,up,2.4669986,1047.963599,None,1047.963599,1049.062362,0.2715092,None,,,,,,,,,42,1,2020_Jan_03_1022,untitled,3.1.0,59.80457063
141,F,M,180,R,N,141FM180RN,HRN,0,237,237,116,,,1.144,1050.625874,1050.928554,1050.928554,1051.144011,1051.160539,None,up,1.833759,1051.160539,None,1051.160539,1052.293996,0.1825475,None,,,,,,,,,42,1,2020_Jan_03_1022,untitled,3.1.0,59.80457063
_,R,M,135,_,_,_RM135__,N,0,238,238,19,,,1.4,1053.312746,1053.609162,1053.609162,1053.709312,1053.726602,None,down,2.217203,1053.726602,None,1053.726602,1055.107072,0.3045306,None,,,,,,,,,42,1,2020_Jan_03_1022,untitled,3.1.0,59.80457063
_,_5,N,180,_,_,__5N180__,N,0,239,239,92,,,0.795,1056.251106,1056.570987,1056.570987,1056.657529,1056.674569,None,up,1.6477171,1056.674569,None,1056.674569,1057.455173,0.2885443,None,,,,,,,,,42,1,2020_Jan_03_1022,untitled,3.1.0,59.80457063
39,R,N,270,L,N,039RN270LN,HLN,0,240,240,206,,,0.726,1058.53544,1058.83744,1058.83744,1059.037293,1059.053888,None,up,1.4027029,1059.053888,None,1059.053888,1059.77007,0.1998371,None,,,,,,,,,42,1,2020_Jan_03_1022,untitled,3.1.0,59.80457063
131,F,N,90,R,N,131FN090RN,HRN,0,241,241,210,,,1.036,1060.673409,1060.968945,1060.968945,1061.168449,1061.185438,None,up,2.2323589,1061.185438,None,1061.185438,1062.217712,0.2034358,None,,,,,,,,,42,1,2020_Jan_03_1022,untitled,3.1.0,59.80457063
204,G,M,135,R,N,204GM135RN,HRN,0,242,242,131,,,1.386,1063.641995,1063.932855,1063.932855,1064.132628,1064.149437,None,down,2.7494665,1064.149437,None,1064.149437,1065.514936,0.2106775,None,,,,,,,,,42,1,2020_Jan_03_1022,untitled,3.1.0,59.80457063
239,G,M,270,L,N,239GM270LN,HLN,0,243,243,142,,,1.248,1067.10533,1067.396832,1067.396832,1067.613067,1067.630343,None,down,2.2994322,1067.630343,None,1067.630343,1068.862572,0.191643,None,,,,,,,,,42,1,2020_Jan_03_1022,untitled,3.1.0,59.80457063
425,_4,M,0,L,N,425_4M000LN,HLN,0,244,244,168,,,1.305,1070.187197,1070.477103,1070.477103,1070.64392,1070.66108,None,down,1.966174,1070.66108,None,1070.66108,1071.944559,0.2421206,None,,,,,,,,,42,1,2020_Jan_03_1022,untitled,3.1.0,59.80457063
208,G,M,315,R,N,208GM315RN,HRN,0,245,245,135,,,0.831,1072.914329,1073.208047,1073.208047,1073.34125,1073.358177,None,down,1.9511999,1073.358177,None,1073.358177,1074.173543,0.2689471,None,,,,,,,,,42,1,2020_Jan_03_1022,untitled,3.1.0,59.80457063
291,_2,N,90,L,N,291_2N090LN,HLN,0,246,246,250,,,1.273,1075.521632,1075.822158,1075.822158,1076.022103,1076.03897,None,up,2.2837019,1076.03897,None,1076.03897,1077.304629,0.1968124,None,,,,,,,,,42,1,2020_Jan_03_1022,untitled,3.1.0,59.80457063
41,R,M,0,L,N,041RM000LN,HLN,0,247,247,104,,,0.945,1078.554299,1078.853171,1078.853171,1079.036195,1079.053093,None,down,1.8334647,1079.053093,None,1079.053093,1079.985773,0.2173642,None,,,,,,,,,42,1,2020_Jan_03_1022,untitled,3.1.0,59.80457063
9,R,M,0,R,N,009RM000RN,HRN,0,248,248,96,,,1.352,1081.107359,1081.401059,1081.401059,1081.602233,1081.62084,None,down,2.3470942,1081.62084,None,1081.62084,1082.949553,0.2074625,None,,,,,,,,,42,1,2020_Jan_03_1022,untitled,3.1.0,59.80457063
_,_4,N,315,_,_,__4N315__,N,0,249,249,87,,,1.009,1084.19836,1084.498413,1084.498413,1084.682441,1084.699632,None,up,1.6826219,1084.699632,None,1084.699632,1085.696939,0.2167707,None,,,,,,,,,42,1,2020_Jan_03_1022,untitled,3.1.0,59.80457063
_,G,M,0,_,_,_GM000__,N,0,250,250,8,,,1.355,1086.6445,1086.946342,1086.946342,1087.095915,1087.112648,None,down,2.3000058,1087.112648,None,1087.112648,1088.448843,0.2470602,None,,,,,,,,,42,1,2020_Jan_03_1022,untitled,3.1.0,59.80457063
162,F,N,45,L,N,162FN045LN,HLN,0,251,251,217,,,1.275,1089.60779,1089.910256,1089.910256,1090.126655,1090.143404,None,up,2.1335856,1090.143404,None,1090.143404,1091.408833,0.1836229,None,,,,,,,,,42,1,2020_Jan_03_1022,untitled,3.1.0,59.80457063
297,_2,M,0,L,N,297_2M000LN,HLN,0,252,252,152,,,1.098,1092.485754,1092.774472,1092.774472,1093.00789,1093.00789,None,down,2.5310388,1093.00789,None,1093.00789,1094.089797,0.1905388,None,,,,,,,,,42,1,2020_Jan_03_1022,untitled,3.1.0,59.80457063
33,R,N,0,L,N,033RN000LN,HLN,0,253,253,200,,,1.343,1095.859993,1096.154625,1096.154625,1096.254813,1096.271638,None,up,1.9328146,1096.271638,None,1096.271638,1097.603279,0.3097727,None,,,,,,,,,42,1,2020_Jan_03_1022,untitled,3.1.0,59.80457063
_,_2,N,0,_,_,__2N000__,N,0,254,254,72,,,1.143,1098.422116,1098.718989,1098.718989,1098.918832,1098.935738,None,down,2.0331579,1098.935738,None,1098.935738,1100.068391,0.2036356,None,,,,,,,,,42,1,2020_Jan_03_1022,untitled,3.1.0,59.80457063
132,F,N,135,R,N,132FN135RN,HRN,0,255,255,211,,,1.145,1101.203654,1101.500018,1101.500018,1101.68396,1101.702695,None,up,2.0498902,1101.702695,None,1101.702695,1102.832876,0.2198871,None,,,,,,,,,42,1,2020_Jan_03_1022,untitled,3.1.0,59.80457063
134,F,N,225,R,N,134FN225RN,HRN,0,256,256,213,,,1.101,1104.082293,1104.381493,1104.381493,1104.481975,1104.481975,None,up,1.8379453,1104.481975,None,1104.481975,1105.57968,0.3112136,None,,,,,,,,,42,1,2020_Jan_03_1022,untitled,3.1.0,59.80457063
_,G,N,0,_,_,_GN000__,N,0,257,257,56,,,1.369,1106.559824,1106.861953,1106.861953,1107.045006,1107.061718,None,up,2.0182869,1107.061718,None,1107.061718,1108.410847,0.2206714,None,,,,,,,,,42,1,2020_Jan_03_1022,untitled,3.1.0,59.80457063
16,R,M,315,R,N,016RM315RN,HRN,0,258,258,103,,,1.178,1109.290778,1109.576554,1109.576554,1109.792742,1109.809645,None,down,1.851135,1109.809645,None,1109.809645,1110.975056,0.1947146,None,,,,,,,,,42,1,2020_Jan_03_1022,untitled,3.1.0,59.80457063
_,F,N,315,_,_,_FN315__,N,0,259,259,55,,,1.261,1111.961156,1112.25719,1112.25719,1112.373955,1112.390648,None,up,1.8513345,1112.390648,None,1112.390648,1113.63944,0.2832267,None,,,,,,,,,42,1,2020_Jan_03_1022,untitled,3.1.0,59.80457063
257,_2,N,0,R,N,257_2N000RN,HRN,0,260,260,240,,,0.818,1114.459484,1114.755093,1114.755093,1114.955135,1114.971592,None,up,1.5010068,1114.971592,None,1114.971592,1115.771953,0.20512,None,,,,,,,,,42,1,2020_Jan_03_1022,untitled,3.1.0,59.80457063
301,_2,M,180,L,N,301_2M180LN,HLN,0,261,261,156,,,0.824,1116.694574,1116.986632,1116.986632,1117.186502,1117.203979,None,up,2.0846746,1117.203979,None,1117.203979,1118.019807,0.2080554,None,,,,,,,,,42,1,2020_Jan_03_1022,untitled,3.1.0,59.80457063
43,R,M,90,L,N,043RM090LN,HLN,0,262,262,106,,,1.114,1119.589027,1119.907429,1119.907429,1120.022785,1120.022785,None,down,2.8605493,1120.022785,None,1120.022785,1121.13288,0.2808902,None,,,,,,,,,42,1,2020_Jan_03_1022,untitled,3.1.0,59.80457063
263,_2,N,270,R,N,263_2N270RN,HRN,0,263,263,246,,,0.994,1123.058508,1123.347555,1123.347555,1123.597425,1123.614085,None,up,1.8831047,1123.614085,None,1123.614085,1124.596467,0.1617892,None,,,,,,,,,42,1,2020_Jan_03_1022,untitled,3.1.0,59.80457063
_,R,N,135,_,_,_RN135__,N,0,264,264,67,,,1.254,1125.795652,1126.095338,1126.095338,1126.211807,1126.228446,None,up,2.3502222,1126.228446,None,1126.228446,1127.460554,0.2862285,None,,,,,,,,,42,1,2020_Jan_03_1022,untitled,3.1.0,59.80457063
10,R,M,45,R,N,010RM045RN,HRN,0,265,265,97,,,1.062,1128.816891,1129.109418,1129.109418,1129.293467,1129.310411,None,down,2.0662861,1129.310411,None,1129.310411,1130.358057,0.2248143,None,,,,,,,,,42,1,2020_Jan_03_1022,untitled,3.1.0,59.80457063
172,F,M,135,L,N,172FM135LN,HLN,0,266,266,123,,,1.344,1131.639964,1131.94033,1131.94033,1132.090602,1132.107741,None,down,2.2319562,1132.107741,None,1132.107741,1133.43919,0.2478439,None,,,,,,,,,42,1,2020_Jan_03_1022,untitled,3.1.0,59.80457063
47,R,M,270,L,N,047RM270LN,HLN,0,267,267,110,,,0.979,1134.571038,1134.870989,1134.870989,1135.055776,1135.07516,None,down,1.8792324,1135.07516,None,1135.07516,1136.037071,0.2156822,None,,,,,,,,,42,1,2020_Jan_03_1022,untitled,3.1.0,59.80457063
_,F,M,270,_,_,_FM270__,N,0,268,268,6,,,0.768,1137.179525,1137.468569,1137.468569,1137.668218,1137.685263,None,down,1.7328153,1137.685263,None,1137.685263,1138.434667,0.2110091,None,,,,,,,,,42,1,2020_Jan_03_1022,untitled,3.1.0,59.80457063
_,G,N,315,_,_,_GN315__,N,0,269,269,63,,,0.868,1139.602218,1139.899748,1139.899748,1140.132855,1140.149586,None,up,1.6182388,1140.149586,None,1140.149586,1140.999005,0.1719543,None,,,,,,,,,42,1,2020_Jan_03_1022,untitled,3.1.0,59.80457063
400,_4,M,315,R,N,400_4M315RN,HRN,0,270,270,167,,,1.371,1141.982508,1142.28184,1142.28184,1142.497572,1142.497572,None,up,2.7667796,1142.497572,None,1142.497572,1143.863993,0.1980255,None,,,,,,,,,42,1,2020_Jan_03_1022,untitled,3.1.0,59.80457063
_,_4,M,225,_,_,__4M225__,N,0,271,271,37,,,1.202,1145.479529,1145.77791,1145.77791,1145.977768,1145.994838,None,up,2.1507938,1145.994838,None,1145.994838,1147.194078,0.2000444,None,,,,,,,,,42,1,2020_Jan_03_1022,untitled,3.1.0,59.80457063
428,_4,M,135,L,N,428_4M135LN,HLN,0,272,272,171,,,0.842,1148.392036,1148.692141,1148.692141,1148.859104,1148.876256,None,up,2.8499456,1148.876256,None,1148.876256,1149.708947,0.2328167,None,,,,,,,,,42,1,2020_Jan_03_1022,untitled,3.1.0,59.80457063
129,F,N,0,R,N,129FN000RN,HRN,0,273,273,208,,,1.056,1152.048058,1152.338891,1152.338891,1152.438736,1152.455798,None,up,1.8006424,1152.455798,None,1152.455798,1153.504903,0.3046733,None,,,,,,,,,42,1,2020_Jan_03_1022,untitled,3.1.0,59.80457063
35,R,N,90,L,N,035RN090LN,HLN,0,274,274,202,,,1.331,1154.472682,1154.77074,1154.77074,1154.970751,1154.98811,None,up,2.0325974,1154.98811,None,1154.98811,1156.302204,0.202617,None,,,,,,,,,42,1,2020_Jan_03_1022,untitled,3.1.0,59.80457063
_,_4,N,45,_,_,__4N045__,N,0,275,275,81,,,0.864,1157.221647,1157.517757,1157.517757,1157.734252,1157.751122,None,up,1.4667584,1157.751122,None,1157.751122,1158.600151,0.1892397,None,,,,,,,,,42,1,2020_Jan_03_1022,untitled,3.1.0,59.80457063
234,G,M,45,L,N,234GM045LN,HLN,0,276,276,137,,,1.07,1159.438944,1159.732602,1159.732602,1159.932252,1159.94913,None,down,2.2328333,1159.94913,None,1159.94913,1160.997867,0.2084333,None,,,,,,,,,42,1,2020_Jan_03_1022,untitled,3.1.0,59.80457063
_,F,M,45,_,_,_FM045__,N,0,277,277,1,,,0.755,1162.480822,1162.780211,1162.780211,1162.896294,1162.913467,None,down,1.8167144,1162.913467,None,1162.913467,1163.645976,0.2869387,None,,,,,,,,,42,1,2020_Jan_03_1022,untitled,3.1.0,59.80457063
163,F,N,90,L,N,163FN090LN,HLN,0,278,278,218,,,1.118,1165.052478,1165.344597,1165.344597,1165.444371,1165.461215,None,up,1.7852067,1165.461215,None,1165.461215,1166.561323,0.3060751,None,,,,,,,,,42,1,2020_Jan_03_1022,untitled,3.1.0,59.80457063
232,G,N,315,L,N,232GN315LN,HLN,0,279,279,239,,,0.737,1167.570045,1167.858912,1167.858912,1167.975646,1167.99189,None,up,1.9837196,1167.99189,None,1167.99189,1168.707769,0.3015146,None,,,,,,,,,42,1,2020_Jan_03_1022,untitled,3.1.0,59.80457063
_,_5,M,225,_,_,__5M225__,N,0,280,280,45,,,1.17,1170.265609,1170.556383,1170.556383,1170.689762,1170.706579,None,up,2.4998025,1170.706579,None,1170.706579,1171.855409,0.2775458,None,,,,,,,,,42,1,2020_Jan_03_1022,untitled,3.1.0,59.80457063
272,_2,M,315,R,N,272_2M315RN,HRN,0,281,281,151,,,0.826,1173.492749,1173.786962,1173.786962,1173.920373,1173.936933,None,down,2.1993363,1173.936933,None,1173.936933,1174.752944,0.2730983,None,,,,,,,,,42,1,2020_Jan_03_1022,untitled,3.1.0,59.80457063
_,_2,N,180,_,_,__2N180__,N,0,282,282,76,,,0.981,1176.374453,1176.667624,1176.667624,1176.850929,1176.867684,None,up,2.1333269,1176.867684,None,1176.867684,1177.834343,0.2235259,None,,,,,,,,,42,1,2020_Jan_03_1022,untitled,3.1.0,59.80457063
_,_2,M,180,_,_,__2M180__,N,0,283,283,28,,,1.26,1179.240362,1179.532091,1179.532091,1179.715648,1179.732103,None,down,2.2004522,1179.732103,None,1179.732103,1180.982231,0.2242003,None,,,,,,,,,42,1,2020_Jan_03_1022,untitled,3.1.0,59.80457063
174,F,M,225,L,N,174FM225LN,HLN,0,284,284,125,,,1.375,1182.197833,1182.497369,1182.497369,1182.646825,1182.666542,None,down,3.260826,1182.666542,None,1182.666542,1184.028097,0.2470382,None,,,,,,,,,42,1,2020_Jan_03_1022,untitled,3.1.0,59.80457063
_,F,N,45,_,_,_FN045__,N,0,285,285,49,,,1.299,1186.124505,1186.425881,1186.425881,1186.642396,1186.659137,None,up,2.0826197,1186.659137,None,1186.659137,1187.94135,0.1871876,None,,,,,,,,,42,1,2020_Jan_03_1022,untitled,3.1.0,59.80457063
431,_4,M,270,L,N,431_4M270LN,HLN,0,286,286,174,,,1.193,1189.040493,1189.339885,1189.339885,1189.456705,1189.473154,None,up,2.616501,1189.473154,None,1189.473154,1190.655544,0.2864023,None,,,,,,,,,42,1,2020_Jan_03_1022,untitled,3.1.0,59.80457063
12,R,M,135,R,N,012RM135RN,HRN,0,287,287,99,,,0.807,1192.332721,1192.620971,1192.620971,1192.80345,1192.820418,None,up,1.9663854,1192.820418,None,1192.820418,1193.620031,0.2282115,None,,,,,,,,,42,1,2020_Jan_03_1022,untitled,3.1.0,59.80457063
,,,,,,,,,,,,,,,,,,,,,,,,,,,,,1194.804586,None,1205.725926,None,1209.840453,None,1214.025473,None,,,,,,
