Number,Letter,type,Orientation,human,face_type,image,picture,trials.thisRepN,trials.thisTrialN,trials.thisN,trials.thisIndex,text.started,text.stopped,stimulus_duration,CROSS.started,CROSS.stopped,BLANK.started,BLANK.stopped,TEST.started,TEST.stopped,key_JUDGE.keys,key_JUDGE.started,key_JUDGE.stopped,image_2.started,image_2.stopped,ISI.started,ISI.stopped,key_JUDGE.rt,q1.started,q1.stopped,q2.started,q2.stopped,q3.started,q3.stopped,text_2.started,text_2.stopped,participant,session,date,expName,psychopyVersion,frameRate,
235,G,M,90,L,N,235GM090LN,HLN,0,0,0,138,609.932457900024,None,0.961,636.2990568000823,636.5918820000952,636.5918820000952,636.7751358000096,636.7919305000687,None,None,636.7919305000687,None,636.7919305000687,637.7242248000111,0.231165700010024,None,,,,,,,,,,43,001,2020_Jan_03_1049,untitled,3.1.0,60.06395606998162,
_,F,M,315,_,_,_FM315__,N,0,1,1,7,,,0.862,640.6674637000542,640.9560319000157,640.9560319000157,641.071242300095,641.0879019000567,640.6674637000542,up,641.0879019000567,None,641.0879019000567,641.9373463999946,0.2975407000631094,None,3.315237500006333,,,,,,,,,43,001,2020_Jan_03_1049,untitled,3.1.0,60.06395606998162,
431,_4,M,270,L,N,431_4M270LN,HLN,0,2,2,174,,,1.058,644.613153400016,644.9021896000486,644.9021896000486,645.1177435000427,645.1345657000784,None,down,645.1345657000784,None,645.1345657000784,646.1834681000328,0.19728500000201166,None,3.3818338999990374,,,,,,,,,43,001,2020_Jan_03_1049,untitled,3.1.0,60.06395606998162,
_,_5,N,0,_,_,__5N000__,N,0,3,3,88,,,1.224,648.699338800041,648.997753100004,648.997753100004,649.2307389000198,649.2471283000195,None,up,649.2471283000195,None,649.2471283000195,650.4630725000752,0.1710501000052318,None,2.7169525999343023,,,,,,,,,43,001,2020_Jan_03_1049,untitled,3.1.0,60.06395606998162,
395,_4,M,90,R,N,395_4M090RN,HRN,0,4,4,162,,,1.097,652.2885688000824,652.5780912000919,652.5780912000919,652.6777862000745,652.695275700069,None,down,652.695275700069,None,652.695275700069,653.7778370000888,0.31017950002569705,None,3.165538000059314,,,,,,,,,43,001,2020_Jan_03_1049,untitled,3.1.0,60.06395606998162,
294,_2,N,225,L,N,294_2N225LN,HLN,0,5,5,253,,,1.381,656.2104917000979,656.5078794000437,656.5078794000437,656.5746064000996,656.5911138000665,None,None,656.5911138000665,None,656.5911138000665,657.9567483999999,0.334872999927029,None,,,,,,,,,,43,001,2020_Jan_03_1049,untitled,3.1.0,60.06395606998162,
_,G,M,270,_,_,_GM270__,N,0,6,6,14,,,1.3800000000000001,660.2812569000525,660.5708288000897,660.5708288000897,660.7709467000095,660.7874379000859,660.2812569000525,None,660.7874379000859,None,660.7874379000859,662.1531408000737,0.21503439999651164,None,,,,,,,,,,43,001,2020_Jan_03_1049,untitled,3.1.0,60.06395606998162,
389,_4,N,180,R,N,389_4N180RN,HRN,0,7,7,260,,,0.875,664.4624033001019,664.75190630008,664.75190630008,664.9673152000178,664.9841108000837,664.4624033001019,None,664.9841108000837,None,664.9841108000837,665.8499526000815,0.1991717000491917,None,,,,,,,,,,43,001,2020_Jan_03_1049,untitled,3.1.0,60.06395606998162,
131,F,N,90,R,N,131FN090RN,HRN,0,8,8,210,,,1.104,668.6483845000621,668.9469655000139,668.9469655000139,669.1638314001029,669.1802034000866,668.6483845000621,up,669.1802034000866,None,669.1802034000866,670.2792557000648,0.18370109994430095,None,3.1325672999955714,,,,,,,,,43,001,2020_Jan_03_1049,untitled,3.1.0,60.06395606998162,
138,F,M,45,R,N,138FM045RN,HRN,0,9,9,113,,,1.022,672.6126774000004,672.9103629000019,672.9103629000019,673.0267406000057,673.0435841000872,None,None,673.0435841000872,None,673.0435841000872,674.0593173000962,0.28670199995394796,None,,,,,,,,,,43,001,2020_Jan_03_1049,untitled,3.1.0,60.06395606998162,
_,_5,M,315,_,_,__5M315__,N,0,10,10,47,,,0.737,676.7705406000605,677.0581316000316,677.0581316000316,677.2229580000276,677.239765400067,676.7705406000605,down,677.239765400067,None,677.239765400067,677.9556328000035,0.2513644000282511,None,3.0652076000114903,,,,,,,,,43,001,2020_Jan_03_1049,untitled,3.1.0,60.06395606998162,
263,_2,N,270,R,N,263_2N270RN,HRN,0,11,11,246,,,0.783,680.5096589000896,680.8035139000276,680.8035139000276,681.0197334000841,681.0364258000627,None,up,681.0364258000627,None,681.0364258000627,681.8024872000096,0.19181640003807843,None,2.5167811999563128,,,,,,,,,43,001,2020_Jan_03_1049,untitled,3.1.0,60.06395606998162,
173,F,M,180,L,N,173FM180LN,HLN,0,12,12,124,,,0.9500000000000001,683.9267983000027,684.2170959000941,684.2170959000941,684.2670649000211,684.2837564999936,None,None,684.2837564999936,None,684.2837564999936,685.2165310001001,0.3577646999619901,None,,,,,,,,,,43,001,2020_Jan_03_1049,untitled,3.1.0,60.06395606998162,
432,_4,M,315,L,N,432_4M315LN,HLN,0,13,13,175,,,1.2610000000000001,687.9863260000711,688.2802758000325,688.2802758000325,688.4633813000983,688.4803185000783,687.9863260000711,down,688.4803185000783,None,688.4803185000783,689.7288184000645,0.22770709998439997,None,3.4145308999577537,,,,,,,,,43,001,2020_Jan_03_1049,untitled,3.1.0,60.06395606998162,
_,_4,N,180,_,_,__4N180__,N,0,14,14,84,,,1.342,692.1183798999991,692.4097157000797,692.4097157000797,692.6106272001052,692.6264347000979,None,None,692.6264347000979,None,692.6264347000979,693.9587925000815,0.21023490000516176,None,,,,,,,,,,43,001,2020_Jan_03_1049,untitled,3.1.0,60.06395606998162,
_,_4,N,315,_,_,__4N315__,N,0,15,15,87,,,1.3800000000000001,696.2937220000895,696.5894856000086,696.5894856000086,696.8062756001018,696.822741900105,696.2937220000895,up,696.822741900105,None,696.822741900105,698.188198100077,0.1910215999232605,None,3.181610899977386,,,,,,,,,43,001,2020_Jan_03_1049,untitled,3.1.0,60.06395606998162,
258,_2,N,45,R,N,258_2N045RN,HRN,0,16,16,241,,,1.162,700.1975522000575,700.4860685000895,700.4860685000895,700.7191130000865,700.7358866001014,None,up,700.7358866001014,None,700.7358866001014,701.8850946000312,0.18100870004855096,None,2.5674482999602333,,,,,,,,,43,001,2020_Jan_03_1049,untitled,3.1.0,60.06395606998162,
143,F,M,270,R,N,143FM270RN,HRN,0,17,17,118,,,1.299,703.5223636000883,703.8164100000868,703.8164100000868,704.033043900039,704.033043900039,None,up,704.033043900039,None,704.033043900039,705.332172100083,0.20220449997577816,None,2.6323790999595076,,,,,,,,,43,001,2020_Jan_03_1049,untitled,3.1.0,60.06395606998162,
226,G,N,45,L,N,226GN045LN,HLN,0,18,18,233,,,1.331,706.9718936000718,707.2635705000721,707.2635705000721,707.3832470000489,707.3982789000729,None,up,707.3982789000729,None,707.3982789000729,708.712236899999,0.29378609999548644,None,3.0304867000086233,,,,,,,,,43,001,2020_Jan_03_1049,untitled,3.1.0,60.06395606998162,
388,_4,N,135,R,N,388_4N135RN,HRN,0,19,19,259,,,0.723,710.7342888000421,711.0270060000475,711.0270060000475,711.1434308000607,711.1600863001077,None,up,711.1600863001077,None,711.1600863001077,711.8766347001074,0.29251319996546954,None,2.565678399987519,,,,,,,,,43,001,2020_Jan_03_1049,untitled,3.1.0,60.06395606998162,
_,G,N,270,_,_,_GN270__,N,0,20,20,62,,,1.1520000000000001,713.9499506000429,714.2408622000366,714.2408622000366,714.4404882000526,714.457453400013,None,up,714.457453400013,None,714.457453400013,715.5895409000805,0.21051519992761314,None,2.7491859000874683,,,,,,,,,43,001,2020_Jan_03_1049,untitled,3.1.0,60.06395606998162,
452,_5,N,135,R,N,452_5N135RN,HRN,0,21,21,275,,,0.911,717.4180054001044,717.7210685000755,717.7210685000755,717.9226611000486,717.9388803000329,None,up,717.9388803000329,None,717.9388803000329,718.8364912000252,0.19856629997957498,None,2.9492261999985203,,,,,,,,,43,001,2020_Jan_03_1049,untitled,3.1.0,60.06395606998162,
428,_4,M,135,L,N,428_4M135LN,HLN,0,22,22,171,,,0.931,721.0916538001038,721.3850885001011,721.3850885001011,721.6011846000329,721.6178189000348,None,up,721.6178189000348,None,721.6178189000348,722.5336360000074,0.19123870006296784,None,2.797871300019324,,,,,,,,,43,001,2020_Jan_03_1049,untitled,3.1.0,60.06395606998162,
486,_5,N,225,L,N,486_5N225LN,HLN,0,23,23,285,,,1.3880000000000001,724.6035369000165,724.8981919001089,724.8981919001089,725.1322082000552,725.148292100057,None,None,725.148292100057,None,725.148292100057,726.5144473999972,0.17611649993341416,None,,,,,,,,,,43,001,2020_Jan_03_1049,untitled,3.1.0,60.06395606998162,
_,R,N,315,_,_,_RN315__,N,0,24,24,71,,,1.153,728.8118549000937,729.11092310003,729.11092310003,729.3274039000971,729.3442145000445,728.8118549000937,up,729.3442145000445,None,729.3442145000445,730.4765979000367,0.18942039995454252,None,2.8655822000000626,,,,,,,,,43,001,2020_Jan_03_1049,untitled,3.1.0,60.06395606998162,
012,R,M,135,R,N,012RM135RN,HRN,0,25,25,99,,,0.838,732.4044647000264,732.7069389000535,732.7069389000535,732.926028200076,732.9442349000601,None,down,732.9442349000601,None,732.9442349000601,733.7571876000147,0.182152200024575,None,2.4301970000378788,,,,,,,,,43,001,2020_Jan_03_1049,untitled,3.1.0,60.06395606998162,
302,_2,M,225,L,N,302_2M225LN,HLN,0,26,26,157,,,1.129,735.5912461000262,735.8885578000918,735.8885578000918,736.08820810006,736.105126600014,None,up,736.105126600014,None,736.105126600014,737.2208132999949,0.20376990002114326,None,2.915168800042011,,,,,,,,,43,001,2020_Jan_03_1049,untitled,3.1.0,60.06395606998162,
009,R,M,0,R,N,009RM000RN,HRN,0,27,27,96,,,0.841,739.213511900045,739.5037666000426,739.5037666000426,739.735368900001,739.7524246000685,None,down,739.7524246000685,None,739.7524246000685,740.5844201000873,0.1811085999943316,None,2.132096999906935,,,,,,,,,43,001,2020_Jan_03_1049,untitled,3.1.0,60.06395606998162,
272,_2,M,315,R,N,272_2M315RN,HRN,0,28,28,151,,,0.725,742.1060721999966,742.3993539999938,742.3993539999938,742.5992549000075,742.6160940000555,None,up,742.6160940000555,None,742.6160940000555,743.3334219000535,0.20704919996205717,None,2.367613199981861,,,,,,,,,43,001,2020_Jan_03_1049,untitled,3.1.0,60.06395606998162,
004,R,N,135,R,N,004RN135RN,HRN,0,29,29,195,,,0.917,745.2977863000706,745.5966950000729,745.5966950000729,745.6966572999954,745.7132129000966,None,up,745.7132129000966,None,745.7132129000966,746.6125835001003,0.29888000001665205,None,2.6179435999365523,,,,,,,,,43,001,2020_Jan_03_1049,untitled,3.1.0,60.06395606998162,
451,_5,N,90,R,N,451_5N090RN,HRN,0,30,30,274,,,0.732,748.5303045000182,748.8273113000905,748.8273113000905,749.043865900021,749.0605825000675,None,up,749.0605825000675,None,749.0605825000675,749.7766755000921,0.18692519993055612,None,2.4655027999542654,,,,,,,,,43,001,2020_Jan_03_1049,untitled,3.1.0,60.06395606998162,
453,_5,N,180,R,N,453_5N180RN,HRN,0,31,31,276,,,1.2770000000000001,751.7387895000866,752.0414129000856,752.0414129000856,752.2409172001062,752.2575494000921,None,up,752.2575494000921,None,752.2575494000921,753.5231843000511,0.19949150003958493,None,2.633673399919644,,,,,,,,,43,001,2020_Jan_03_1049,untitled,3.1.0,60.06395606998162,
422,_4,N,225,L,N,422_4N225LN,HLN,0,32,32,269,,,1.226,755.106726200087,755.4048412000993,755.4048412000993,755.6058569001034,755.6244935001014,None,up,755.6244935001014,None,755.6244935001014,756.8378775001038,0.20283049996942282,None,3.1286584999179468,,,,,,,,,43,001,2020_Jan_03_1049,untitled,3.1.0,60.06395606998162,
_,G,N,45,_,_,_GN045__,N,0,33,33,57,,,0.8280000000000001,758.9460502000293,759.2344302000711,759.2344302000711,759.4681510000955,759.4845568001037,None,up,759.4845568001037,None,759.4845568001037,760.301166200079,0.1803766000084579,None,1.9170804999303073,,,,,,,,,43,001,2020_Jan_03_1049,untitled,3.1.0,60.06395606998162,
227,G,N,90,L,N,227GN090LN,HLN,0,34,34,234,,,1.245,761.6349760000594,761.9326431000372,761.9326431000372,762.1158604000229,762.1322683000471,None,up,762.1322683000471,None,762.1322683000471,763.3656615000218,0.2179167999420315,None,2.3999878000468016,,,,,,,,,43,001,2020_Jan_03_1049,untitled,3.1.0,60.06395606998162,
417,_4,N,0,L,N,417_4N000LN,HLN,0,35,35,264,,,1.327,764.7521772000473,765.0464877000777,765.0464877000777,765.2460966000799,765.2631840000395,None,up,765.2631840000395,None,765.2631840000395,766.5785945000825,0.2052008000900969,None,2.267657699994743,,,,,,,,,43,001,2020_Jan_03_1049,untitled,3.1.0,60.06395606998162,
387,_4,N,90,R,N,387_4N090RN,HRN,0,36,36,258,,,1.1280000000000001,767.7526259000879,768.04409640003,768.04409640003,768.2439750001067,768.2606257000007,None,up,768.2606257000007,None,768.2606257000007,769.3761489000171,0.20651470008306205,None,2.3813393999589607,,,,,,,,,43,001,2020_Jan_03_1049,untitled,3.1.0,60.06395606998162,
_,F,N,270,_,_,_FN270__,N,0,37,37,54,,,1.284,770.9387902000453,771.2410350000719,771.2410350000719,771.3576173000038,771.3744576000609,None,up,771.3744576000609,None,771.3744576000609,772.6399335000897,0.2843836999963969,None,2.3837230000644922,,,,,,,,,43,001,2020_Jan_03_1049,untitled,3.1.0,60.06395606998162,
397,_4,M,180,R,N,397_4M180RN,HRN,0,38,38,164,,,0.8240000000000001,773.9921850000974,774.2883884001058,774.2883884001058,774.4716030000709,774.4889110000804,None,down,774.4889110000804,None,774.4889110000804,775.3041552000213,0.21926200005691499,None,2.4159010000294074,,,,,,,,,43,001,2020_Jan_03_1049,untitled,3.1.0,60.06395606998162,
202,G,M,45,R,N,202GM045RN,HRN,0,39,39,129,,,0.9470000000000001,777.1393913000356,777.4358689000364,777.4358689000364,777.618618800072,777.6353802999947,None,up,777.6353802999947,None,777.6353802999947,778.5679728999967,0.21996289992239326,None,2.316737200017087,,,,,,,,,43,001,2020_Jan_03_1049,untitled,3.1.0,60.06395606998162,
139,F,M,90,R,N,139FM090RN,HRN,0,40,40,114,,,1.163,780.1693148000631,780.4663918000879,780.4663918000879,780.6661597000202,780.68339260004,None,up,780.68339260004,None,780.68339260004,781.8318901000312,0.20457960001658648,None,3.3411148000741377,,,,,,,,,43,001,2020_Jan_03_1049,untitled,3.1.0,60.06395606998162,
204,G,M,135,R,N,204GM135RN,HRN,0,41,41,131,,,1.183,784.303860999993,784.5966105000116,784.5966105000116,784.7468684000196,784.7665013000369,None,down,784.7665013000369,None,784.7665013000369,785.9289107000222,0.26049320003949106,None,3.34554929996375,,,,,,,,,43,001,2020_Jan_03_1049,untitled,3.1.0,60.06395606998162,
488,_5,N,315,L,N,488_5N315LN,HLN,0,42,42,287,,,1.2790000000000001,788.3275853000814,788.6255592000671,788.6255592000671,788.8258457001066,788.8424911000766,None,None,788.8424911000766,None,788.8424911000766,790.1082840000745,0.20277199998963624,None,,,,,,,,,,43,001,2020_Jan_03_1049,untitled,3.1.0,60.06395606998162,
456,_5,N,315,R,N,456_5N315RN,HRN,0,43,43,279,,,0.733,792.476730800001,792.7718234000495,792.7718234000495,793.0220922000008,793.0389876000118,792.476730800001,up,793.0389876000118,None,793.0389876000118,793.7546677000355,0.15950800001155585,None,2.116755000082776,,,,,,,,,43,001,2020_Jan_03_1049,untitled,3.1.0,60.06395606998162,
429,_4,M,180,L,N,429_4M180LN,HLN,0,44,44,172,,,1.193,795.4835766000906,795.7710021000821,795.7710021000821,795.8693020000355,795.8862481000833,None,None,795.8862481000833,None,795.8862481000833,797.0686323000118,0.3154196999967098,None,,,,,,,,,,43,001,2020_Jan_03_1049,untitled,3.1.0,60.06395606998162,
_,_2,M,135,_,_,__2M135__,N,0,45,45,27,,,0.884,799.884926400031,799.884926400031,799.884926400031,800.1844755000202,800.1844755000202,799.884926400031,up,800.1844755000202,None,800.1844755000202,800.9487654000986,0.521104900049977,None,2.8138409999664873,,,,,,,,,43,001,2020_Jan_03_1049,untitled,3.1.0,60.06395606998162,
_,_5,N,270,_,_,__5N270__,N,0,46,46,94,,,0.742,803.3140776000218,803.6143791000359,803.6143791000359,803.7142861000029,803.7455295000691,None,up,803.7455295000691,None,803.7455295000691,804.4626200000057,0.2981140000047162,None,2.2506591000128537,,,,,,,,,43,001,2020_Jan_03_1049,untitled,3.1.0,60.06395606998162,
427,_4,M,90,L,N,427_4M090LN,HLN,0,47,47,170,,,1.137,806.1972522001015,806.4934449000284,806.4934449000284,806.7112173000351,806.7302314999979,None,down,806.7302314999979,None,806.7302314999979,807.8588249000022,0.18732370005454868,None,2.896241100039333,,,,,,,,,43,001,2020_Jan_03_1049,untitled,3.1.0,60.06395606998162,
_,_2,N,45,_,_,__2N045__,N,0,48,48,73,,,1.133,809.9453981000697,810.2401780000655,810.2401780000655,810.3403092999943,810.3569432999939,None,up,810.3569432999939,None,810.3569432999939,811.4725218000822,0.30558429996017367,None,2.5181793000083417,,,,,,,,,43,001,2020_Jan_03_1049,untitled,3.1.0,60.06395606998162,
225,G,N,0,L,N,225GN000LN,HLN,0,49,49,232,,,1.245,813.0984411000973,813.388854400022,813.388854400022,813.5874495001044,813.6041423000861,None,up,813.6041423000861,None,813.6041423000861,814.8362429999979,0.21061579999513924,None,2.9327882999787107,,,,,,,,,43,001,2020_Jan_03_1049,untitled,3.1.0,60.06395606998162,
_,_2,N,0,_,_,__2N000__,N,0,50,50,72,,,1.073,816.7586077000014,817.0510443000821,817.0510443000821,817.2507740000729,817.2679535000352,None,up,817.2679535000352,None,817.2679535000352,818.3330975000281,0.20893900003284216,None,2.3987933000316843,,,,,,,,,43,001,2020_Jan_03_1049,untitled,3.1.0,60.06395606998162,
041,R,M,0,L,N,041RM000LN,HLN,0,51,51,104,,,0.811,819.8652497000294,820.1646948000416,820.1646948000416,820.3813214000547,820.3981890000869,None,down,820.3981890000869,None,820.3981890000869,821.1974163000705,0.18593309994321316,None,2.1828488999744877,,,,,,,,,43,001,2020_Jan_03_1049,untitled,3.1.0,60.06395606998162,
393,_4,M,0,R,N,393_4M000RN,HRN,0,52,52,160,,,1.169,822.7979753999971,823.0957435000455,823.0957435000455,823.2965066001052,823.3163777000736,None,down,823.3163777000736,None,823.3163777000736,824.4613240000326,0.20265210000798106,None,2.9110464999685064,,,,,,,,,43,001,2020_Jan_03_1049,untitled,3.1.0,60.06395606998162,
166,F,N,225,L,N,166FN225LN,HLN,0,53,53,221,,,1.306,826.4039253999945,826.6932628001086,826.6932628001086,826.9429804000538,826.9590507000685,None,up,826.9590507000685,None,826.9590507000685,828.258081200067,0.16429680003784597,None,3.1164434000384063,,,,,,,,,43,001,2020_Jan_03_1049,untitled,3.1.0,60.06395606998162,
291,_2,N,90,L,N,291_2N090LN,HLN,0,54,54,250,,,0.86,830.2926357000833,830.5891776001081,830.5891776001081,830.7900658000726,830.8081270999974,None,up,830.8081270999974,None,830.8081270999974,831.6546813000459,0.20521769998595119,None,2.3804603000171483,,,,,,,,,43,001,2020_Jan_03_1049,untitled,3.1.0,60.06395606998162,
_,F,N,90,_,_,_FN090__,N,0,55,55,50,,,0.887,833.5057764000958,833.8026849000016,833.8026849000016,833.9028555999976,833.9218883001013,None,up,833.9218883001013,None,833.9218883001013,834.7852271000156,0.3041266999207437,None,2.2308834000723436,,,,,,,,,43,001,2020_Jan_03_1049,untitled,3.1.0,60.06395606998162,
_,F,N,315,_,_,_FN315__,N,0,56,56,55,,,1.0230000000000001,836.3451621000422,836.6347693999996,836.6347693999996,836.8677305000601,836.8851753000636,None,up,836.8851753000636,None,836.8851753000636,837.9001391000347,0.17925600009039044,None,2.0347116000484675,,,,,,,,,43,001,2020_Jan_03_1049,untitled,3.1.0,60.06395606998162,
_,_4,M,315,_,_,__4M315__,N,0,57,57,39,,,0.963,839.123258800013,839.4148303000256,839.4148303000256,839.6487907000119,839.6652909000404,None,down,839.6652909000404,None,839.6652909000404,840.6150359000312,0.18322890007402748,None,2.2758350999793038,,,,,,,,,43,001,2020_Jan_03_1049,untitled,3.1.0,60.06395606998162,
_,R,M,225,_,_,_RM225__,N,0,58,58,21,,,1.354,842.1862771000015,842.4788550999947,842.4788550999947,842.662357000052,842.6786204000236,None,up,842.6786204000236,None,842.6786204000236,844.0115962000564,0.23017500003334135,None,3.3065789999673143,,,,,,,,,43,001,2020_Jan_03_1049,untitled,3.1.0,60.06395606998162,
_,R,M,90,_,_,_RM090__,N,0,59,59,18,,,0.834,846.2515774000203,846.5418563000858,846.5418563000858,846.7086813000496,846.7248837000225,None,down,846.7248837000225,None,846.7248837000225,847.540999900084,0.24687090003862977,None,2.6845624999841675,,,,,,,,,43,001,2020_Jan_03_1049,untitled,3.1.0,60.06395606998162,
_,_4,N,0,_,_,__4N000__,N,0,60,60,80,,,0.802,849.6047335000476,849.905737800058,849.905737800058,850.1219474000391,850.1386879000347,None,up,850.1386879000347,None,850.1386879000347,850.9231828000629,0.18266380007844418,None,2.467101800022647,,,,,,,,,43,001,2020_Jan_03_1049,untitled,3.1.0,60.06395606998162,
303,_2,M,270,L,N,303_2M270LN,HLN,0,61,61,158,,,1.22,852.8032914000796,853.1027980000945,853.1027980000945,853.3201917000115,853.337950300076,None,up,853.337950300076,None,853.337950300076,854.5512772999937,0.18476590001955628,None,2.565792400040664,,,,,,,,,43,001,2020_Jan_03_1049,untitled,3.1.0,60.06395606998162,
_,_4,N,270,_,_,__4N270__,N,0,62,62,86,,,1.366,856.1932156000985,856.4834080000874,856.4834080000874,856.633086200105,856.633086200105,None,up,856.633086200105,None,856.633086200105,857.9836264000041,0.27241189999040216,None,2.435168500058353,,,,,,,,,43,001,2020_Jan_03_1049,untitled,3.1.0,60.06395606998162,
197,G,N,180,R,N,197GN180RN,HRN,0,63,63,228,,,1.36,859.3006584000541,859.5970617000712,859.5970617000712,859.796895800042,859.796895800042,None,None,859.796895800042,None,859.796895800042,861.1459376000566,0.21578249998856336,None,,,,,,,,,,43,001,2020_Jan_03_1049,untitled,3.1.0,60.06395606998162,
292,_2,N,135,L,N,292_2N135LN,HLN,0,64,64,251,,,1.307,863.562655900023,863.859850000008,863.859850000008,863.9934490000596,864.0105813000118,863.562655900023,up,864.0105813000118,None,864.0105813000118,865.3088453999953,0.2708971999818459,None,3.430991500033997,,,,,,,,,43,001,2020_Jan_03_1049,untitled,3.1.0,60.06395606998162,
489,_5,M,0,L,N,489_5M000LN,HLN,0,65,65,184,,,1.36,867.6417160000419,867.9400055001024,867.9400055001024,868.1563967000693,868.1729616000084,None,down,868.1729616000084,None,868.1729616000084,869.5216895000776,0.18767570005729795,None,2.8154373000143096,,,,,,,,,43,001,2020_Jan_03_1049,untitled,3.1.0,60.06395606998162,
_,_5,M,180,_,_,__5M180__,N,0,66,66,44,,,0.718,871.1767525000032,871.4698678000132,871.4698678000132,871.7032687000465,871.7198403000366,None,down,871.7198403000366,None,871.7198403000366,872.4190928000025,0.1765233000041917,None,2.4837687999242917,,,,,,,,,43,001,2020_Jan_03_1049,untitled,3.1.0,60.06395606998162,
_,_4,N,135,_,_,__4N135__,N,0,67,67,83,,,0.856,874.3919948000694,874.6840277001029,874.6840277001029,874.9177084000548,874.9358459000941,None,up,874.9358459000941,None,874.9358459000941,875.7827238000464,0.17579989996738732,None,2.6624004000332206,,,,,,,,,43,001,2020_Jan_03_1049,untitled,3.1.0,60.06395606998162,
391,_4,N,270,R,N,391_4N270RN,HRN,0,68,68,262,,,0.963,877.7845844000112,878.0807229001075,878.0807229001075,878.3139753000578,878.3311556000262,None,up,878.3311556000262,None,878.3311556000262,879.2799162000883,0.1739579999120906,None,2.4337832999881357,,,,,,,,,43,001,2020_Jan_03_1049,untitled,3.1.0,60.06395606998162,
418,_4,N,45,L,N,418_4N045LN,HLN,0,69,69,265,,,0.9450000000000001,880.9683155000675,881.2614828000078,881.2614828000078,881.4779274000321,881.4945675000781,None,up,881.4945675000781,None,881.4945675000781,882.4272274000105,0.19056019990239292,None,2.2500875999685377,,,,,,,,,43,001,2020_Jan_03_1049,untitled,3.1.0,60.06395606998162,
454,_5,N,225,R,N,454_5N225RN,HRN,0,70,70,277,,,1.342,883.957044800045,884.2587591001065,884.2587591001065,884.4587249000324,884.4755305000581,None,down,884.4755305000581,None,884.4755305000581,885.8075432000915,0.19827349996194243,None,2.633036599960178,,,,,,,,,43,001,2020_Jan_03_1049,untitled,3.1.0,60.06395606998162,
229,G,N,180,L,N,229GN180LN,HLN,0,71,71,236,,,1.3800000000000001,887.3057114999974,887.6058925000252,887.6058925000252,887.8223192000296,887.839066100074,None,up,887.839066100074,None,887.839066100074,889.2045166000025,0.18420849996618927,None,3.085220000008121,,,,,,,,,43,001,2020_Jan_03_1049,untitled,3.1.0,60.06395606998162,
038,R,N,225,L,N,038RN225LN,HLN,0,72,72,205,,,1.101,891.1146948999958,891.4033190000337,891.4033190000337,891.6527279000729,891.6527279000729,None,up,891.6527279000729,None,891.6527279000729,892.7515223000664,0.17449080001097172,None,2.866233899956569,,,,,,,,,43,001,2020_Jan_03_1049,untitled,3.1.0,60.06395606998162,
231,G,N,270,L,N,231GN270LN,HLN,0,73,73,238,,,0.898,894.6931261999998,894.982989900047,894.982989900047,895.2326410000678,895.2493235000875,None,up,895.2493235000875,None,895.2493235000875,896.1317202000646,0.16251550009474158,None,2.1827687999466434,,,,,,,,,43,001,2020_Jan_03_1049,untitled,3.1.0,60.06395606998162,
237,G,M,180,L,N,237GM180LN,HLN,0,74,74,140,,,0.915,897.642883200082,897.9448555000126,897.9448555000126,898.1468298000982,898.1634790000971,None,down,898.1634790000971,None,898.1634790000971,899.062416800065,0.1970903999172151,None,3.0317194000817835,,,,,,,,,43,001,2020_Jan_03_1049,untitled,3.1.0,60.06395606998162,
_,G,M,90,_,_,_GM090__,N,0,75,75,10,,,1.387,901.4617765001021,901.7600709000835,901.7600709000835,901.9100523000816,901.9289332000772,None,down,901.9289332000772,None,901.9289332000772,903.2935052000685,0.2540323999710381,None,3.0633256000000983,,,,,,,,,43,001,2020_Jan_03_1049,untitled,3.1.0,60.06395606998162,
007,R,N,270,R,N,007RN270RN,HRN,0,76,76,198,,,1.149,905.1944001000375,905.4905621000798,905.4905621000798,905.7067022999981,905.7236184000503,None,up,905.7236184000503,None,905.7236184000503,906.8555837000022,0.18928750010672957,None,2.6326372999465093,,,,,,,,,43,001,2020_Jan_03_1049,untitled,3.1.0,60.06395606998162,
_,_5,M,0,_,_,__5M000__,N,0,77,77,40,,,1.12,908.5397074000211,908.837393600028,908.837393600028,909.0705417999998,909.0870929000666,None,down,909.0870929000666,None,909.0870929000666,910.1862884000875,0.17145469994284213,None,2.6325002000667155,,,,,,,,,43,001,2020_Jan_03_1049,untitled,3.1.0,60.06395606998162,
162,F,N,45,L,N,162FN045LN,HLN,0,78,78,217,,,1.032,911.8865828000708,912.1844054000685,912.1844054000685,912.4342620000243,912.450807300047,None,up,912.450807300047,None,912.450807300047,913.4668498000829,0.1557838999433443,None,2.216777900001034,,,,,,,,,43,001,2020_Jan_03_1049,untitled,3.1.0,60.06395606998162,
493,_5,M,180,L,N,493_5M180LN,HLN,0,79,79,188,,,1.115,914.8649779000552,915.1652644000715,915.1652644000715,915.3816245000344,915.3985810000449,None,down,915.3985810000449,None,915.3985810000449,916.4976742001018,0.18335520010441542,None,3.449085400090553,,,,,,,,,43,001,2020_Jan_03_1049,untitled,3.1.0,60.06395606998162,
003,R,N,90,R,N,003RN090RN,HRN,0,80,80,194,,,1.343,919.1120985000161,919.4116682000458,919.4116682000458,919.5615109000355,919.5781176000601,None,up,919.5781176000601,None,919.5781176000601,920.9106545000104,0.252203100011684,None,3.1989074000157416,,,,,,,,,43,001,2020_Jan_03_1049,untitled,3.1.0,60.06395606998162,
135,F,N,270,R,N,135FN270RN,HRN,0,81,81,214,,,1.032,923.0269302000524,923.32536170003,923.32536170003,923.4915297999978,923.5081325001083,None,up,923.5081325001083,None,923.5081325001083,924.5239187000552,0.23549419990740716,None,2.0505007000174373,,,,,,,,,43,001,2020_Jan_03_1049,untitled,3.1.0,60.06395606998162,
134,F,N,225,R,N,134FN225RN,HRN,0,82,82,213,,,1.035,925.7859709000913,926.0730292000808,926.0730292000808,926.2726036000531,926.2891168000642,None,up,926.2891168000642,None,926.2891168000642,927.3051519000437,0.21363189991097897,None,1.9829156000632793,,,,,,,,,43,001,2020_Jan_03_1049,untitled,3.1.0,60.06395606998162,
481,_5,N,0,L,N,481_5N000LN,HLN,0,83,83,280,,,0.976,928.478907700046,928.7703656000085,928.7703656000085,928.9866148000583,929.0034378001001,None,up,929.0034378001001,None,929.0034378001001,929.96917330008,0.19228990003466606,None,2.7003587000072002,,,,,,,,,43,001,2020_Jan_03_1049,untitled,3.1.0,60.06395606998162,
_,_2,N,315,_,_,__2N315__,N,0,84,84,79,,,0.834,931.9118557000766,932.2003567999927,932.2003567999927,932.4168616000097,932.4336311999941,None,up,932.4336311999941,None,932.4336311999941,933.2511035000207,0.19374050002079457,None,2.599747300031595,,,,,,,,,43,001,2020_Jan_03_1049,untitled,3.1.0,60.06395606998162,
485,_5,N,180,L,N,485_5N180LN,HLN,0,85,85,284,,,1.101,935.2417436999967,935.5307974000461,935.5307974000461,935.747677300009,935.7647040000884,None,down,935.7647040000884,None,935.7647040000884,936.846690800041,0.195157999987714,None,3.232220400008373,,,,,,,,,43,001,2020_Jan_03_1049,untitled,3.1.0,60.06395606998162,
_,R,N,90,_,_,_RN090__,N,0,86,86,66,,,0.9480000000000001,939.1782420000527,939.477203699993,939.477203699993,939.7107860000106,939.728254100075,None,up,939.728254100075,None,939.728254100075,940.6602056000847,0.16889339999761432,None,2.2815126000205055,,,,,,,,,43,001,2020_Jan_03_1049,untitled,3.1.0,60.06395606998162,
_,R,M,135,_,_,_RM135__,N,0,87,87,19,,,1.058,942.2085838000057,942.5082442000275,942.5082442000275,942.7244353001006,942.7412531001028,None,down,942.7412531001028,None,942.7412531001028,943.7904781000689,0.1846903000259772,None,2.800140899955295,,,,,,,,,43,001,2020_Jan_03_1049,untitled,3.1.0,60.06395606998162,
240,G,M,315,L,N,240GM315LN,HLN,0,88,88,143,,,1.276,945.8236786000198,946.121500600013,946.121500600013,946.2549990999978,946.2718835000414,None,down,946.2718835000414,None,946.2718835000414,947.5371058000019,0.2663209999445826,None,2.8491057000355795,,,,,,,,,43,001,2020_Jan_03_1049,untitled,3.1.0,60.06395606998162,
238,G,M,225,L,N,238GM225LN,HLN,0,89,89,141,,,1.093,949.3312236000784,949.620027200086,949.620027200086,949.8351520000724,949.8519456000067,None,down,949.8519456000067,None,949.8519456000067,950.9350784000708,0.19457709998823702,None,2.798878400004469,,,,,,,,,43,001,2020_Jan_03_1049,untitled,3.1.0,60.06395606998162,
047,R,M,270,L,N,047RM270LN,HLN,0,90,90,110,,,0.866,952.8809956000187,953.1822815000778,953.1822815000778,953.3660895000212,953.3828308000229,None,up,953.3828308000229,None,953.3828308000229,954.2314563000109,0.21577490004710853,None,3.1324170000152662,,,,,,,,,43,001,2020_Jan_03_1049,untitled,3.1.0,60.06395606998162,
450,_5,N,45,R,N,450_5N045RN,HRN,0,91,91,273,,,0.989,956.7026304000756,956.9957122000633,956.9957122000633,957.2285858000396,957.2452851000708,None,up,957.2452851000708,None,957.2452851000708,958.2277371000964,0.1732318999711424,None,3.1820627000415698,,,,,,,,,43,001,2020_Jan_03_1049,untitled,3.1.0,60.06395606998162,
385,_4,N,0,R,N,385_4N000RN,HRN,0,92,92,256,,,1.157,960.6979089000961,960.9920420000562,960.9920420000562,961.1417461000383,961.1586192999966,None,up,961.1586192999966,None,961.1586192999966,962.3077408000827,0.2580743000144139,None,2.134739700006321,,,,,,,,,43,001,2020_Jan_03_1049,untitled,3.1.0,60.06395606998162,
196,G,N,135,R,N,196GN135RN,HRN,0,93,93,227,,,0.926,963.5139253000962,963.8063825001009,963.8063825001009,964.0064948000945,964.0230122000212,None,up,964.0230122000212,None,964.0230122000212,964.938722299994,0.20719699992332608,None,2.565783099969849,,,,,,,,,43,001,2020_Jan_03_1049,untitled,3.1.0,60.06395606998162,
_,_5,N,225,_,_,__5N225__,N,0,94,94,93,,,1.3,966.8059742000187,967.1033685000148,967.1033685000148,967.3036739000818,967.3200366999954,None,down,967.3200366999954,None,967.3200366999954,968.6021619000239,0.20175340003333986,None,3.09919970005285,,,,,,,,,43,001,2020_Jan_03_1049,untitled,3.1.0,60.06395606998162,
048,R,M,315,L,N,048RM315LN,HLN,0,95,95,111,,,1.1,970.7148661999963,971.0164853000315,971.0164853000315,971.1330102999927,971.1499675000086,None,down,971.1499675000086,None,971.1499675000086,972.2320992000168,0.28259519999846816,None,2.632141000009142,,,,,,,,,43,001,2020_Jan_03_1049,untitled,3.1.0,60.06395606998162,
176,F,M,315,L,N,176FM315LN,HLN,0,96,96,127,,,1.223,973.9810104001081,974.2805122000864,974.2805122000864,974.4969746000133,974.5135664000409,None,down,974.5135664000409,None,974.5135664000409,975.7292321000714,0.1869909999659285,None,3.347982600098476,,,,,,,,,43,001,2020_Jan_03_1049,untitled,3.1.0,60.06395606998162,
_,_5,M,135,_,_,__5M135__,N,0,97,97,43,,,0.904,978.0609316000482,978.360285700066,978.360285700066,978.5767805000069,978.5934646000387,None,down,978.5934646000387,None,978.5934646000387,979.4758567000972,0.18743609997909516,None,3.082292600069195,,,,,,,,,43,001,2020_Jan_03_1049,untitled,3.1.0,60.06395606998162,
_,F,M,0,_,_,_FM000__,N,0,98,98,0,,,1.35,981.9421958000166,982.2399823000887,982.2399823000887,982.3902850000886,982.407212399994,None,down,982.407212399994,None,982.407212399994,983.7385588000761,0.2534211000893265,None,2.332431999966502,,,,,,,,,43,001,2020_Jan_03_1049,untitled,3.1.0,60.06395606998162,
396,_4,M,135,R,N,396_4M135RN,HRN,0,99,99,163,,,0.842,984.9727414000081,985.2705604000948,985.2705604000948,985.4540827000747,985.4705843999982,None,down,985.4705843999982,None,985.4705843999982,986.3034562000539,0.21916290000081062,None,1.9999122999142855,,,,,,,,,43,001,2020_Jan_03_1049,untitled,3.1.0,60.06395606998162,
045,R,M,180,L,N,045RM180LN,HLN,0,100,100,108,,,1.06,987.6535869000945,987.9523419000907,987.9523419000907,988.1849443000974,988.201610899996,None,down,988.201610899996,None,988.201610899996,989.2507914000889,0.17135960003361106,None,3.3487910999683663,,,,,,,,,43,001,2020_Jan_03_1049,untitled,3.1.0,60.06395606998162,
_,_2,M,0,_,_,__2M000__,N,0,101,101,24,,,1.23,991.7285984000191,992.0315127000213,992.0315127000213,992.2644163999939,992.2812278000638,None,up,992.2812278000638,None,992.2812278000638,993.4967772000236,0.1658757000695914,None,3.3656602000119165,,,,,,,,,43,001,2020_Jan_03_1049,untitled,3.1.0,60.06395606998162,
142,F,M,225,R,N,142FM225RN,HRN,0,102,102,117,,,0.986,995.8728143000044,996.1619461000664,996.1619461000664,996.3612530000973,996.3779137000674,None,down,996.3779137000674,None,996.3779137000674,997.3436871001031,0.21306910004932433,None,2.699031600030139,,,,,,,,,43,001,2020_Jan_03_1049,untitled,3.1.0,60.06395606998162,
001,R,N,0,R,N,001RN000RN,HRN,0,103,103,192,,,0.9380000000000001,999.2797078000149,999.575076600071,999.575076600071,999.7913281000219,999.8081046000589,None,up,999.8081046000589,None,999.8081046000589,1000.7406182000414,0.18972720007877797,None,2.3999312000814825,,,,,,,,,43,001,2020_Jan_03_1049,untitled,3.1.0,60.06395606998162,
044,R,M,135,L,N,044RM135LN,HLN,0,104,104,107,,,0.891,1002.4516551000997,1002.740375500056,1002.740375500056,1002.9232621000847,1002.9407400001073,None,down,1002.9407400001073,None,1002.9407400001073,1003.8213217000011,0.23089180001989007,None,2.3981536999344826,,,,,,,,,43,001,2020_Jan_03_1049,untitled,3.1.0,60.06395606998162,
140,F,M,135,R,N,140FM135RN,HRN,0,105,105,115,,,1.018,1005.5558804000029,1005.8526760000968,1005.8526760000968,1006.0526436000364,1006.069868999999,None,up,1006.069868999999,None,1006.069868999999,1007.0685500000836,0.20087099994998425,None,2.866218199953437,,,,,,,,,43,001,2020_Jan_03_1049,untitled,3.1.0,60.06395606998162,
_,F,N,135,_,_,_FN135__,N,0,106,106,51,,,1.106,1009.1983901000349,1009.5000146999955,1009.5000146999955,1009.6494700000621,1009.6663949000649,None,up,1009.6663949000649,None,1009.6663949000649,1010.7655307000969,0.24985520006157458,None,2.7988228000467643,,,,,,,,,43,001,2020_Jan_03_1049,untitled,3.1.0,60.06395606998162,
039,R,N,270,L,N,039RN270LN,HLN,0,107,107,206,,,1.245,1012.6634654999943,1012.9633763000602,1012.9633763000602,1013.1800180000719,1013.1967521000188,None,up,1013.1967521000188,None,1013.1967521000188,1014.428681200021,0.18500850000418723,None,2.800416100071743,,,,,,,,,43,001,2020_Jan_03_1049,untitled,3.1.0,60.06395606998162,
_,_5,M,225,_,_,__5M225__,N,0,108,108,45,,,1.099,1016.2111289000604,1016.5103303000797,1016.5103303000797,1016.7101291000145,1016.7267720000818,None,down,1016.7267720000818,None,1016.7267720000818,1017.8090706000803,0.2001041000476107,None,3.1654294999316335,,,,,,,,,43,001,2020_Jan_03_1049,untitled,3.1.0,60.06395606998162,
271,_2,M,270,R,N,271_2M270RN,HRN,0,109,109,150,,,1.295,1020.1139394000638,1020.4066910000984,1020.4066910000984,1020.6066278000362,1020.623488400015,None,up,1020.623488400015,None,1020.623488400015,1021.9057688000612,0.20888409996405244,None,2.5164050000021234,,,,,,,,,43,001,2020_Jan_03_1049,untitled,3.1.0,60.06395606998162,
_,_2,M,90,_,_,__2M090__,N,0,110,110,26,,,0.91,1023.3953823000193,1023.6875887000933,1023.6875887000933,1023.8537610000931,1023.8704006000189,None,up,1023.8704006000189,None,1023.8704006000189,1024.7700822000625,0.2410569000057876,None,2.74886609998066,,,,,,,,,43,001,2020_Jan_03_1049,untitled,3.1.0,60.06395606998162,
268,_2,M,135,R,N,268_2M135RN,HRN,0,111,111,147,,,1.07,1026.920162800001,1027.217605200014,1027.217605200014,1027.3344241000013,1027.3508732001064,None,None,1027.3508732001064,None,1027.3508732001064,1028.3997903000563,0.28642919997218996,None,,,,,,,,,,43,001,2020_Jan_03_1049,untitled,3.1.0,60.06395606998162,
482,_5,N,45,L,N,482_5N045LN,HLN,0,112,112,281,,,1.211,1031.0269439000404,1031.316377100069,1031.316377100069,1031.530540500069,1031.5470875001047,1031.0269439000404,up,1031.5470875001047,None,1031.5470875001047,1032.7461237000534,0.20068450004328042,None,2.4505293000256643,,,,,,,,,43,001,2020_Jan_03_1049,untitled,3.1.0,60.06395606998162,
458,_5,M,45,R,N,458_5M045RN,HRN,0,113,113,177,,,1.171,1034.2072179000825,1034.495274700108,1034.495274700108,1034.7112132000038,1034.7276777999941,None,None,1034.7276777999941,None,1034.7276777999941,1035.893492900068,0.19603520003147423,None,,,,,,,,,,43,001,2020_Jan_03_1049,untitled,3.1.0,60.06395606998162,
495,_5,M,270,L,N,495_5M270LN,HLN,0,114,114,190,,,1.052,1038.4125906000845,1038.707427400048,1038.707427400048,1038.907281700056,1038.9253711000783,1038.4125906000845,up,1038.9253711000783,None,1038.9253711000783,1039.9570935000665,0.2038131000008434,None,3.0155119000701234,,,,,,,,,43,001,2020_Jan_03_1049,untitled,3.1.0,60.06395606998162,
400,_4,M,315,R,N,400_4M315RN,HRN,0,115,115,167,,,1.232,1042.149552899995,1042.4386053000344,1042.4386053000344,1042.6543339000782,1042.6708574000513,None,down,1042.6708574000513,None,1042.6708574000513,1043.8866246000398,0.19502380001358688,None,2.6653142999857664,,,,,,,,,43,001,2020_Jan_03_1049,untitled,3.1.0,60.06395606998162,
457,_5,M,0,R,N,457_5M000RN,HRN,0,116,116,176,,,0.8290000000000001,1045.5846723000286,1045.8847525001038,1045.8847525001038,1046.051073400071,1046.0679545000894,None,down,1046.0679545000894,None,1046.0679545000894,1046.884128100006,0.23461129993665963,None,2.2487696999451146,,,,,,,,,43,001,2020_Jan_03_1049,untitled,3.1.0,60.06395606998162,
_,_5,N,315,_,_,__5N315__,N,0,117,117,95,,,1.21,1048.5055772000924,1048.7989058000967,1048.7989058000967,1049.031837000046,1049.0488339000149,None,up,1049.0488339000149,None,1049.0488339000149,1050.2480871001026,0.17632829991634935,None,2.5490818000398576,,,,,,,,,43,001,2020_Jan_03_1049,untitled,3.1.0,60.06395606998162,
_,F,N,45,_,_,_FN045__,N,0,118,118,49,,,1.228,1051.7879777000053,1052.079175800085,1052.079175800085,1052.3126329000806,1052.329222700093,None,up,1052.329222700093,None,1052.329222700093,1053.5448459000327,0.1764385000569746,None,2.6157058000098914,,,,,,,,,43,001,2020_Jan_03_1049,untitled,3.1.0,60.06395606998162,
_,_5,N,135,_,_,__5N135__,N,0,119,119,91,,,1.239,1055.424384700018,1055.424384700018,1055.424384700018,1055.7264500000747,1055.7264500000747,None,up,1055.7264500000747,None,1055.7264500000747,1056.9082502000965,0.4650567000498995,None,2.715514599927701,,,,,,,,,43,001,2020_Jan_03_1049,untitled,3.1.0,60.06395606998162,
295,_2,N,270,L,N,295_2N270LN,HLN,0,120,120,254,,,1.229,1058.6557267000899,1058.9565455000848,1058.9565455000848,1059.1561892000027,1059.1731822000584,None,up,1059.1731822000584,None,1059.1731822000584,1060.3885600001086,0.2009546000044793,None,2.615609799977392,,,,,,,,,43,001,2020_Jan_03_1049,untitled,3.1.0,60.06395606998162,
270,_2,M,225,R,N,270_2M225RN,HRN,0,121,121,149,,,0.918,1062.019211600069,1062.3051868000766,1062.3051868000766,1062.5033299000934,1062.5200370000675,None,down,1062.5200370000675,None,1062.5200370000675,1063.4213631000603,0.21555399999488145,None,3.182681699981913,,,,,,,,,43,001,2020_Jan_03_1049,untitled,3.1.0,60.06395606998162,
_,R,M,315,_,_,_RM315__,N,0,122,122,23,,,0.79,1065.888538600062,1066.183352400083,1066.183352400083,1066.4163845001021,1066.4330916000763,None,down,1066.4330916000763,None,1066.4330916000763,1067.2157654000912,0.17334280000068247,None,2.5492674000561237,,,,,,,,,43,001,2020_Jan_03_1049,untitled,3.1.0,60.06395606998162,
297,_2,M,0,L,N,297_2M000LN,HLN,0,123,123,152,,,1.301,1069.1794337000465,1069.4806380000664,1069.4806380000664,1069.6971992000472,1069.7142271000193,None,down,1069.7142271000193,None,1069.7142271000193,1070.996175800101,0.18398550001438707,None,3.2316427000332624,,,,,,,,,43,001,2020_Jan_03_1049,untitled,3.1.0,60.06395606998162,
_,F,M,90,_,_,_FM090__,N,0,124,124,2,,,0.859,1073.25716560008,1073.5437795000616,1073.5437795000616,1073.6601759000914,1073.6770564001054,None,down,1073.6770564001054,None,1073.6770564001054,1074.5263395000948,0.2944687999552116,None,2.200314600020647,,,,,,,,,43,001,2020_Jan_03_1049,untitled,3.1.0,60.06395606998162,
399,_4,M,270,R,N,399_4M270RN,HRN,0,125,125,166,,,0.971,1076.1063833000371,1076.4079217000399,1076.4079217000399,1076.5912938000401,1076.6079616000643,None,down,1076.6079616000643,None,1076.6079616000643,1077.5739193001064,0.21601740003097802,None,2.4668287000386044,,,,,,,,,43,001,2020_Jan_03_1049,untitled,3.1.0,60.06395606998162,
_,R,M,180,_,_,_RM180__,N,0,126,126,20,,,1.189,1079.2798100000946,1079.57204800006,1079.57204800006,1079.788140000077,1079.805286000017,None,down,1079.805286000017,None,1079.805286000017,1080.9872944999952,0.19093260006047785,None,2.7654502000659704,,,,,,,,,43,001,2020_Jan_03_1049,untitled,3.1.0,60.06395606998162,
261,_2,N,180,R,N,261_2N180RN,HRN,0,127,127,244,,,1.1400000000000001,1082.7784534000093,1083.0687068999978,1083.0687068999978,1083.2853186000139,1083.303939400008,None,up,1083.303939400008,None,1083.303939400008,1084.4344859000994,0.1950027000857517,None,3.1808514998992905,,,,,,,,,43,001,2020_Jan_03_1049,untitled,3.1.0,60.06395606998162,
035,R,N,90,L,N,035RN090LN,HLN,0,128,128,202,,,0.8130000000000001,1086.7021774000023,1086.9986542999977,1086.9986542999977,1087.1985912000528,1087.2154399000574,None,up,1087.2154399000574,None,1087.2154399000574,1088.0144030000083,0.20373569999355823,None,2.800122399930842,,,,,,,,,43,001,2020_Jan_03_1049,untitled,3.1.0,60.06395606998162,
_,G,N,90,_,_,_GN090__,N,0,129,129,58,,,1.182,1090.2844113000901,1090.5788780000294,1090.5788780000294,1090.7287256000564,1090.7454046000494,None,up,1090.7454046000494,None,1090.7454046000494,1091.9121449000668,0.2566544000292197,None,2.5679324000375345,,,,,,,,,43,001,2020_Jan_03_1049,untitled,3.1.0,60.06395606998162,
_,_5,N,90,_,_,__5N090__,N,0,130,130,90,,,0.752,1093.5428418000229,1093.8429043000797,1093.8429043000797,1094.0424914000323,1094.0424914000323,None,up,1094.0424914000323,None,1094.0424914000323,1094.7920965000521,0.21295750001445413,None,2.6157584000611678,,,,,,,,,43,001,2020_Jan_03_1049,untitled,3.1.0,60.06395606998162,
016,R,M,315,R,N,016RM315RN,HRN,0,131,131,103,,,1.368,1096.8632083000848,1097.156442800071,1097.156442800071,1097.3727090000175,1097.3896734000882,None,down,1097.3896734000882,None,1097.3896734000882,1098.7386806000723,0.1913150999462232,None,3.2489467000123113,,,,,,,,,43,001,2020_Jan_03_1049,untitled,3.1.0,60.06395606998162,
203,G,M,90,R,N,203GM090RN,HRN,0,132,132,130,,,0.799,1100.815650500008,1101.1040809000842,1101.1040809000842,1101.3528846000554,1101.3698478000006,None,down,1101.3698478000006,None,1101.3698478000006,1102.151971400017,0.16529660008382052,None,2.0654131000628695,,,,,,,,,43,001,2020_Jan_03_1049,untitled,3.1.0,60.06395606998162,
236,G,M,135,L,N,236GM135LN,HLN,0,133,133,139,,,0.932,1103.6362232000101,1103.933795500081,1103.933795500081,1104.1508181000827,1104.167106900015,None,up,1104.167106900015,None,1104.167106900015,1105.082819400006,0.18480450008064508,None,2.5665480999741703,,,,,,,,,43,001,2020_Jan_03_1049,untitled,3.1.0,60.06395606998162,
265,_2,M,0,R,N,265_2M000RN,HRN,0,134,134,144,,,0.729,1107.0360411000438,1107.3309757000534,1107.3309757000534,1107.4472889000317,1107.4642662000842,None,down,1107.4642662000842,None,1107.4642662000842,1108.180089200032,0.29069180006626993,None,2.432177299982868,,,,,,,,,43,001,2020_Jan_03_1049,untitled,3.1.0,60.06395606998162,
_,G,M,45,_,_,_GM045__,N,0,135,135,9,,,1.2610000000000001,1110.1039504000219,1110.3949243000243,1110.3949243000243,1110.6113333000103,1110.6281270000618,None,down,1110.6281270000618,None,1110.6281270000618,1111.8770980000263,0.19547709997277707,None,2.699920400045812,,,,,,,,,43,001,2020_Jan_03_1049,untitled,3.1.0,60.06395606998162,
_,_2,N,270,_,_,__2N270__,N,0,136,136,78,,,1.042,1113.6024859000463,1113.8919234001078,1113.8919234001078,1114.041695700027,1114.058483800036,None,up,1114.058483800036,None,1114.058483800036,1115.0908489000285,0.26138579996768385,None,2.4482350000180304,,,,,,,,,43,001,2020_Jan_03_1049,untitled,3.1.0,60.06395606998162,
230,G,N,225,L,N,230GN225LN,HLN,0,137,137,237,,,1.057,1116.7108205000404,1117.0059307001065,1117.0059307001065,1117.2222440000623,1117.238862600061,None,up,1117.238862600061,None,1117.238862600061,1118.2876247999957,0.19265779992565513,None,2.782214600010775,,,,,,,,,43,001,2020_Jan_03_1049,untitled,3.1.0,60.06395606998162,
141,F,M,180,R,N,141FM180RN,HRN,0,138,138,116,,,1.305,1120.2022452000529,1120.5025808000937,1120.5025808000937,1120.7357869000407,1120.7526114000939,None,down,1120.7526114000939,None,1120.7526114000939,1122.0348028000444,0.16970189998392016,None,3.1148634999990463,,,,,,,,,43,001,2020_Jan_03_1049,untitled,3.1.0,60.06395606998162,
293,_2,N,180,L,N,293_2N180LN,HLN,0,139,139,252,,,0.974,1124.074044100009,1124.3661401000572,1124.3661401000572,1124.5827000000281,1124.5991241000593,None,down,1124.5991241000593,None,1124.5991241000593,1125.565078600077,0.1944255999987945,None,2.3499714001081884,,,,,,,,,43,001,2020_Jan_03_1049,untitled,3.1.0,60.06395606998162,
194,G,N,45,R,N,194GN045RN,HRN,0,140,140,225,,,0.9450000000000001,1127.157655899995,1127.4467246000422,1127.4467246000422,1127.663089800044,1127.6797895000782,None,up,1127.6797895000782,None,1127.6797895000782,1128.6125398000004,0.19404049997683614,None,2.233573699952103,,,,,,,,,43,001,2020_Jan_03_1049,untitled,3.1.0,60.06395606998162,
_,_4,M,225,_,_,__4M225__,N,0,141,141,37,,,1.4000000000000001,1130.1279216000112,1130.427318800008,1130.427318800008,1130.6439863000996,1130.6439863000996,None,down,1130.6439863000996,None,1130.6439863000996,1132.0424897000194,0.192845500074327,None,2.733714499976486,,,,,,,,,43,001,2020_Jan_03_1049,untitled,3.1.0,60.06395606998162,
205,G,M,180,R,N,205GM180RN,HRN,0,142,142,132,,,0.996,1133.6241314000217,1133.924580299994,1133.924580299994,1134.1077410000144,1134.1077410000144,None,up,1134.1077410000144,None,1134.1077410000144,1135.0901587000117,0.22892100003082305,None,2.582299100002274,,,,,,,,,43,001,2020_Jan_03_1049,untitled,3.1.0,60.06395606998162,
193,G,N,0,R,N,193GN000RN,HRN,0,143,143,224,,,1.1480000000000001,1136.8999765000772,1137.1880734000588,1137.1880734000588,1137.4047541000182,1137.4213892000262,None,None,1137.4213892000262,None,1137.4213892000262,1138.5538805000251,0.19314560003113002,None,,,,,,,,,,43,001,2020_Jan_03_1049,untitled,3.1.0,60.06395606998162,
426,_4,M,45,L,N,426_4M045LN,HLN,0,144,144,169,,,0.9390000000000001,1141.116076800041,1141.4022685000673,1141.4022685000673,1141.6177610000595,1141.634210200049,1141.116076800041,down,1141.634210200049,None,1141.634210200049,1142.5668686000863,0.19936799991410226,None,2.7158512000460178,,,,,,,,,43,001,2020_Jan_03_1049,untitled,3.1.0,60.06395606998162,
398,_4,M,225,R,N,398_4M225RN,HRN,0,145,145,165,,,0.919,1144.569303700002,1144.865019000019,1144.865019000019,1145.0644652000628,1145.0820915000513,None,down,1145.0820915000513,None,1145.0820915000513,1145.9808450000128,0.2061149999499321,None,2.581776099978015,,,,,,,,,43,001,2020_Jan_03_1049,untitled,3.1.0,60.06395606998162,
043,R,M,90,L,N,043RM090LN,HLN,0,146,146,106,,,0.791,1147.8849519001087,1148.1783417999977,1148.1783417999977,1148.3784043000778,1148.3950092000887,None,down,1148.3950092000887,None,1148.3950092000887,1149.1780154000735,0.20749679999426007,None,2.516078699962236,,,,,,,,,43,001,2020_Jan_03_1049,untitled,3.1.0,60.06395606998162,
259,_2,N,90,R,N,259_2N090RN,HRN,0,147,147,242,,,0.762,1151.1371574000223,1151.4260677000275,1151.4260677000275,1151.6255906000733,1151.6423330000835,None,up,1151.6423330000835,None,1151.6423330000835,1152.3915990000824,0.20954339997842908,None,2.099411700037308,,,,,,,,,43,001,2020_Jan_03_1049,untitled,3.1.0,60.06395606998162,
_,_4,M,0,_,_,__4M000__,N,0,148,148,32,,,0.861,1153.9799146000296,1154.2732475000666,1154.2732475000666,1154.4565077000298,1154.4731793000828,None,down,1154.4731793000828,None,1154.4731793000828,1155.3226314000785,0.2254125999752432,None,2.2829508000286296,,,,,,,,,43,001,2020_Jan_03_1049,untitled,3.1.0,60.06395606998162,
_,_5,M,45,_,_,__5M045__,N,0,149,149,41,,,0.804,1156.9704373000422,1157.270753000048,1157.270753000048,1157.470429200097,1157.4871753000189,None,down,1157.4871753000189,None,1157.4871753000189,1158.269890399999,0.20025630004238337,None,2.565677299979143,,,,,,,,,43,001,2020_Jan_03_1049,untitled,3.1.0,60.06395606998162,
386,_4,N,45,R,N,386_4N045RN,HRN,0,150,150,257,,,1.343,1160.2772013000213,1160.5676491000922,1160.5676491000922,1160.7676836000755,1160.7842342000222,None,up,1160.7842342000222,None,1160.7842342000222,1162.1161199000198,0.21037810004781932,None,2.865313700051047,,,,,,,,,43,001,2020_Jan_03_1049,untitled,3.1.0,60.06395606998162,
_,F,M,45,_,_,_FM045__,N,0,151,151,1,,,1.168,1163.8315936001018,1164.13132210006,1164.13132210006,1164.3649976000888,1164.381310600089,None,down,1164.381310600089,None,1164.381310600089,1165.5302171000512,0.1695157999638468,None,2.2829626000020653,,,,,,,,,43,001,2020_Jan_03_1049,untitled,3.1.0,60.06395606998162,
232,G,N,315,L,N,232GN315LN,HLN,0,152,152,239,,,1.303,1166.8690931000747,1167.1622178000398,1167.1622178000398,1167.3784459000453,1167.3958353000926,None,up,1167.3958353000926,None,1167.3958353000926,1168.6776182000758,0.19291640003211796,None,2.698337999987416,,,,,,,,,43,001,2020_Jan_03_1049,untitled,3.1.0,60.06395606998162,
228,G,N,135,L,N,228GN135LN,HLN,0,153,153,235,,,1.315,1170.3019359000027,1170.5925035000546,1170.5925035000546,1170.8086556000635,1170.8254070000257,None,up,1170.8254070000257,None,1170.8254070000257,1172.1243081000866,0.19459400000050664,None,2.5028163000242785,,,,,,,,,43,001,2020_Jan_03_1049,untitled,3.1.0,60.06395606998162,
014,R,M,225,R,N,014RM225RN,HRN,0,154,154,101,,,1.379,1173.5562977000372,1173.8562358000781,1173.8562358000781,1174.056124499999,1174.056124499999,None,down,1174.056124499999,None,1174.056124499999,1175.4380586000625,0.21066109999082983,None,3.0316264000721276,,,,,,,,,43,001,2020_Jan_03_1049,untitled,3.1.0,60.06395606998162,
040,R,N,315,L,N,040RN315LN,HLN,0,155,155,207,,,1.157,1177.2929097000742,1177.5862069000723,1177.5862069000723,1177.8028229000047,1177.8193384000333,None,up,1177.8193384000333,None,1177.8193384000333,1178.9531980000902,0.19333879998885095,None,2.4493193000089377,,,,,,,,,43,001,2020_Jan_03_1049,untitled,3.1.0,60.06395606998162,
260,_2,N,135,R,N,260_2N135RN,HRN,0,156,156,243,,,1.262,1180.5056058000773,1180.8000029000686,1180.8000029000686,1180.9834211000707,1181.0003302000696,None,up,1181.0003302000696,None,1181.0003302000696,1182.2489226000616,0.22399570001289248,None,2.5823761000065133,,,,,,,,,43,001,2020_Jan_03_1049,untitled,3.1.0,60.06395606998162,
267,_2,M,90,R,N,267_2M090RN,HRN,0,157,157,146,,,0.8250000000000001,1183.772604100057,1184.063847500016,1184.063847500016,1184.2972258999944,1184.3137988999952,None,down,1184.3137988999952,None,1184.3137988999952,1185.1303296000697,0.176851800060831,None,2.2170447999378666,,,,,,,,,43,001,2020_Jan_03_1049,untitled,3.1.0,60.06395606998162,
420,_4,N,135,L,N,420_4N135LN,HLN,0,158,158,267,,,1.354,1186.7447778000496,1187.0446827000706,1187.0446827000706,1187.2444223000202,1187.261223300011,None,up,1187.261223300011,None,1187.261223300011,1188.6099656000733,0.20101069996599108,None,3.049404100049287,,,,,,,,,43,001,2020_Jan_03_1049,untitled,3.1.0,60.06395606998162,
_,_2,M,315,_,_,__2M315__,N,0,159,159,31,,,1.313,1190.5200581999961,1190.808051,1190.808051,1191.0243599000387,1191.0411965000676,None,None,1191.0411965000676,None,1191.0411965000676,1192.339961700025,0.19621590001042932,None,,,,,,,,,,43,001,2020_Jan_03_1049,untitled,3.1.0,60.06395606998162,
042,R,M,45,L,N,042RM045LN,HLN,0,160,160,105,,,1.078,1194.7994986000704,1195.0876231000293,1195.0876231000293,1195.220961800078,1195.2375869000098,1194.7994986000704,down,1195.2375869000098,None,1195.2375869000098,1196.3036155001028,0.2823509000008926,None,2.532758599962108,,,,,,,,,43,001,2020_Jan_03_1049,untitled,3.1.0,60.06395606998162,
200,G,N,315,R,N,200GN315RN,HRN,0,161,161,231,,,1.068,1197.9971196000697,1198.2862163000973,1198.2862163000973,1198.4846175001003,1198.5016276000533,None,up,1198.5016276000533,None,1198.5016276000533,1199.5505980000598,0.21394420007709414,None,2.2984210000140592,,,,,,,,,43,001,2020_Jan_03_1049,untitled,3.1.0,60.06395606998162,
_,_2,N,180,_,_,__2N180__,N,0,162,162,76,,,1.0070000000000001,1201.0354847999988,1201.332529700012,1201.332529700012,1201.515163000091,1201.5320850000717,None,down,1201.5320850000717,None,1201.5320850000717,1202.531235500006,0.22240760002750903,None,2.499944300041534,,,,,,,,,43,001,2020_Jan_03_1049,untitled,3.1.0,60.06395606998162,
002,R,N,45,R,N,002RN045RN,HRN,0,163,163,193,,,1.383,1204.2452558000805,1204.545962800039,1204.545962800039,1204.746311300085,1204.7627690000227,None,up,1204.7627690000227,None,1204.7627690000227,1206.1277739000507,0.19935449992772192,None,2.7158918000059202,,,,,,,,,43,001,2020_Jan_03_1049,untitled,3.1.0,60.06395606998162,
170,F,M,45,L,N,170FM045LN,HLN,0,164,164,121,,,1.369,1208.109242400038,1208.109242400038,1208.109242400038,1208.4092915999936,1208.4092915999936,None,down,1208.4092915999936,None,1208.4092915999936,1209.558567100088,0.6175780000630766,None,2.4164700000546873,,,,,,,,,43,001,2020_Jan_03_1049,untitled,3.1.0,60.06395606998162,
233,G,M,0,L,N,233GM000LN,HLN,0,165,165,136,,,1.323,1211.03912760003,1211.340181400068,1211.340181400068,1211.540190000087,1211.556735799997,None,down,1211.556735799997,None,1211.556735799997,1212.8720499000046,0.20118750003166497,None,2.6822764999233186,,,,,,,,,43,001,2020_Jan_03_1049,untitled,3.1.0,60.06395606998162,
262,_2,N,225,R,N,262_2N225RN,HRN,0,166,166,245,,,1.334,1214.4395881000673,1214.7372788999928,1214.7372788999928,1214.9534709000727,1214.9704093000619,None,up,1214.9704093000619,None,1214.9704093000619,1216.286558700027,0.18683969997800887,None,2.6493970999727026,,,,,,,,,43,001,2020_Jan_03_1049,untitled,3.1.0,60.06395606998162,
_,_4,N,225,_,_,__4N225__,N,0,167,167,85,,,1.131,1217.8265800999943,1218.1175766000524,1218.1175766000524,1218.3339682000224,1218.350710000028,None,up,1218.350710000028,None,1218.350710000028,1219.466678500059,0.19340059999376535,None,3.1154699000762776,,,,,,,,,43,001,2020_Jan_03_1049,untitled,3.1.0,60.06395606998162,
487,_5,N,270,L,N,487_5N270LN,HLN,0,168,168,286,,,0.799,1221.6700433000224,1221.9648561000358,1221.9648561000358,1222.180490900064,1222.1972052000929,None,up,1222.1972052000929,None,1222.1972052000929,1222.9799261000007,0.19140090001747012,None,2.7666261999402195,,,,,,,,,43,001,2020_Jan_03_1049,untitled,3.1.0,60.06395606998162,
013,R,M,180,R,N,013RM180RN,HRN,0,169,169,100,,,1.048,1225.1769498001086,1225.477619900019,1225.477619900019,1225.6774310000474,1225.6943561000517,None,down,1225.6943561000517,None,1225.6943561000517,1226.727261400083,0.1988808000460267,None,2.5666717999847606,,,,,,,,,43,001,2020_Jan_03_1049,untitled,3.1.0,60.06395606998162,
464,_5,M,315,R,N,464_5M315RN,HRN,0,170,170,183,,,0.915,1228.5574000000488,1228.8580614000093,1228.8580614000093,1228.974743800005,1228.998179400107,None,down,1228.998179400107,None,1228.998179400107,1229.890819500084,0.28278990008402616,None,2.394325500004925,,,,,,,,,43,001,2020_Jan_03_1049,untitled,3.1.0,60.06395606998162,
390,_4,N,225,R,N,390_4N225RN,HRN,0,171,171,261,,,0.932,1231.619677000097,1231.9070808000397,1231.9070808000397,1232.1055316000711,1232.1219578000018,None,up,1232.1219578000018,None,1232.1219578000018,1233.0380418000277,0.21208239998668432,None,2.134075300069526,,,,,,,,,43,001,2020_Jan_03_1049,untitled,3.1.0,60.06395606998162,
_,_2,N,90,_,_,__2N090__,N,0,172,172,74,,,0.8280000000000001,1234.4571686000563,1234.7531716000522,1234.7531716000522,1234.9693644000217,1234.9864007000579,None,up,1234.9864007000579,None,1234.9864007000579,1235.8021670000162,0.18853839999064803,None,1.865791599964723,,,,,,,,,43,001,2020_Jan_03_1049,untitled,3.1.0,60.06395606998162,
_,G,M,180,_,_,_GM180__,N,0,173,173,12,,,1.07,1237.0505471000215,1237.3507039000979,1237.3507039000979,1237.567842700053,1237.5841589000775,None,down,1237.5841589000775,None,1237.5841589000775,1238.6328957000514,0.18626340001355857,None,2.982368899974972,,,,,,,,,43,001,2020_Jan_03_1049,untitled,3.1.0,60.06395606998162,
_,G,N,180,_,_,_GN180__,N,0,174,174,60,,,1.387,1240.7593401001068,1241.0481771000195,1241.0481771000195,1241.2810853000265,1241.2974196000723,None,up,1241.2974196000723,None,1241.2974196000723,1242.6793835000135,0.1801333000184968,None,2.8658332999330014,,,,,,,,,43,001,2020_Jan_03_1049,untitled,3.1.0,60.06395606998162,
_,F,N,180,_,_,_FN180__,N,0,175,175,52,,,1.399,1244.386423900025,1244.677534300019,1244.677534300019,1244.8776694000699,1244.8942365000257,None,down,1244.8942365000257,None,1244.8942365000257,1246.276262300089,0.21025720005854964,None,3.2998793000588194,,,,,,,,,43,001,2020_Jan_03_1049,untitled,3.1.0,60.06395606998162,
_,_5,M,90,_,_,__5M090__,N,0,176,176,42,,,0.869,1248.4955422000494,1248.7907557000872,1248.7907557000872,1248.9074316000333,1248.926138100098,None,up,1248.926138100098,None,1248.926138100098,1249.7732191000832,0.2884870999259874,None,2.6470358999213204,,,,,,,,,43,001,2020_Jan_03_1049,untitled,3.1.0,60.06395606998162,
234,G,M,45,L,N,234GM045LN,HLN,0,177,177,137,,,0.772,1251.761200100067,1252.0544839000795,1252.0544839000795,1252.2876556999981,1252.3042807000456,None,down,1252.3042807000456,None,1252.3042807000456,1253.070041500032,0.17454050004016608,None,2.8170458000386134,,,,,,,,,43,001,2020_Jan_03_1049,untitled,3.1.0,60.06395606998162,
_,_2,N,135,_,_,__2N135__,N,0,178,178,75,,,1.101,1255.4209821000695,1255.7183649000945,1255.7183649000945,1255.8353313000407,1255.8522050000029,None,up,1255.8522050000029,None,1255.8522050000029,1256.9345498000039,0.2856480999616906,None,3.0672777999425307,,,,,,,,,43,001,2020_Jan_03_1049,untitled,3.1.0,60.06395606998162,
_,G,M,0,_,_,_GM000__,N,0,179,179,8,,,1.156,1259.1236363000935,1259.4147996000247,1259.4147996000247,1259.6479647000087,1259.6479647000087,None,down,1259.6479647000087,None,1259.6479647000087,1260.7974167000502,0.18553689995314926,None,2.515712699969299,,,,,,,,,43,001,2020_Jan_03_1049,untitled,3.1.0,60.06395606998162,
165,F,N,180,L,N,165FN180LN,HLN,0,180,180,220,,,0.898,1262.462407700019,1262.7617201000685,1262.7617201000685,1262.8788136000512,1262.8953370000236,None,down,1262.8953370000236,None,1262.8953370000236,1263.7775628000963,0.2847032999852672,None,3.0348330000415444,,,,,,,,,43,001,2020_Jan_03_1049,untitled,3.1.0,60.06395606998162,
421,_4,N,180,L,N,421_4N180LN,HLN,0,181,181,268,,,0.776,1266.1393719000043,1266.441945800092,1266.441945800092,1266.6419140000362,1266.658997700084,None,down,1266.658997700084,None,1266.658997700084,1267.425383200054,0.1958835000405088,None,3.232080399990082,,,,,,,,,43,001,2020_Jan_03_1049,untitled,3.1.0,60.06395606998162,
195,G,N,90,R,N,195GN090RN,HRN,0,182,182,226,,,1.17,1270.1785920000402,1270.4715039000148,1270.4715039000148,1270.6049867999973,1270.6217073000735,None,up,1270.6217073000735,None,1270.6217073000735,1271.7703357000137,0.27526100003160536,None,2.751173499971628,,,,,,,,,43,001,2020_Jan_03_1049,untitled,3.1.0,60.06395606998162,
168,F,N,315,L,N,168FN315LN,HLN,0,183,183,223,,,1.08,1273.5968610000564,1273.8853155000834,1273.8853155000834,1274.102232400095,1274.102232400095,None,up,1274.102232400095,None,1274.102232400095,1275.167804100085,0.20601910003460944,None,2.566688199993223,,,,,,,,,43,001,2020_Jan_03_1049,untitled,3.1.0,60.06395606998162,
015,R,M,270,R,N,015RM270RN,HRN,0,184,184,102,,,1.2690000000000001,1276.8700693000574,1277.1659962000558,1277.1659962000558,1277.3823794000782,1277.3992965000216,None,down,1277.3992965000216,None,1277.3992965000216,1278.647997800028,0.18849800003226846,None,3.1824662000872195,,,,,,,,,43,001,2020_Jan_03_1049,untitled,3.1.0,60.06395606998162,
206,G,M,225,R,N,206GM225RN,HRN,0,185,185,133,,,0.906,1280.7895458000712,1281.079185700044,1281.079185700044,1281.295792400022,1281.313473300077,None,down,1281.313473300077,None,1281.313473300077,1282.2113853000337,0.19428519997745752,None,3.098511599935591,,,,,,,,,43,001,2020_Jan_03_1049,untitled,3.1.0,60.06395606998162,
130,F,N,45,R,N,130FN045RN,HRN,0,186,186,209,,,1.177,1284.628045600024,1284.9260313000996,1284.9260313000996,1285.1257199000102,1285.1423992000055,None,up,1285.1423992000055,None,1285.1423992000055,1286.3080847000238,0.20258899999316782,None,2.4839915999909863,,,,,,,,,43,001,2020_Jan_03_1049,untitled,3.1.0,60.06395606998162,
_,R,N,180,_,_,_RN180__,N,0,187,187,68,,,1.035,1287.8406788000138,1288.1397427000338,1288.1397427000338,1288.339557700092,1288.356377499993,None,down,1288.356377499993,None,1288.356377499993,1289.3720584000694,0.20137250004336238,None,2.9485350000904873,,,,,,,,,43,001,2020_Jan_03_1049,untitled,3.1.0,60.06395606998162,
299,_2,M,90,L,N,299_2M090LN,HLN,0,188,188,154,,,0.9430000000000001,1291.5728083000286,1291.8762666000985,1291.8762666000985,1292.0202291000169,1292.0362934001023,None,down,1292.0362934001023,None,1292.0362934001023,1292.9688097001053,0.2557463999837637,None,2.900993700022809,,,,,,,,,43,001,2020_Jan_03_1049,untitled,3.1.0,60.06395606998162,
_,R,N,45,_,_,_RN045__,N,0,189,189,65,,,1.223,1295.2328176000156,1295.5331944000209,1295.5331944000209,1295.650107500027,1295.666629100102,None,up,1295.666629100102,None,1295.666629100102,1296.8820613001008,0.2827471001073718,None,2.6498230000725016,,,,,,,,,43,001,2020_Jan_03_1049,untitled,3.1.0,60.06395606998162,
_,G,M,135,_,_,_GM135__,N,0,190,190,11,,,0.979,1298.504796900088,1298.797315300093,1298.797315300093,1299.0302584000165,1299.046861300012,None,down,1299.046861300012,None,1299.046861300012,1300.0126443000045,0.17564289993606508,None,2.849139300058596,,,,,,,,,43,001,2020_Jan_03_1049,untitled,3.1.0,60.06395606998162,
460,_5,M,135,R,N,460_5M135RN,HRN,0,191,191,179,,,0.846,1302.1119065000676,1302.4102264000103,1302.4102264000103,1302.6102966000326,1302.627414500108,None,down,1302.627414500108,None,1302.627414500108,1303.4606945000123,0.2032831999240443,None,2.6997069999342784,,,,,,,,,43,001,2020_Jan_03_1049,untitled,3.1.0,60.06395606998162,
_,F,M,180,_,_,_FM180__,N,0,192,192,4,,,0.88,1305.52437930007,1305.8241323000984,1305.8241323000984,1306.0410190999974,1306.057443000027,None,None,1306.057443000027,None,1306.057443000027,1306.9248040000675,0.1845966000109911,None,,,,,,,,,,43,001,2020_Jan_03_1049,untitled,3.1.0,60.06395606998162,
046,R,M,225,L,N,046RM225LN,HLN,0,193,193,109,,,1.249,1309.8416841001017,1310.1371827000985,1310.1371827000985,1310.237616600003,1310.2538698000135,1309.8416841001017,down,1310.2538698000135,None,1310.2538698000135,1311.4861011001049,0.3101397999562323,None,3.433444599970244,,,,,,,,,43,001,2020_Jan_03_1049,untitled,3.1.0,60.06395606998162,
_,G,N,315,_,_,_GN315__,N,0,194,194,63,,,1.18,1313.8719383000862,1314.1670180000365,1314.1670180000365,1314.4009716000874,1314.4170807000482,None,up,1314.4170807000482,None,1314.4170807000482,1315.5825145000126,0.1725600000936538,None,2.981502900016494,,,,,,,,,43,001,2020_Jan_03_1049,untitled,3.1.0,60.06395606998162,
_,G,N,135,_,_,_GN135__,N,0,195,195,59,,,0.855,1317.5827733000042,1317.880424800096,1317.880424800096,1318.1134485000512,1318.130031400011,None,up,1318.130031400011,None,1318.130031400011,1318.9795506000519,0.17144980002194643,None,2.5986710999859497,,,,,,,,,43,001,2020_Jan_03_1049,untitled,3.1.0,60.06395606998162,
_,G,M,315,_,_,_GM315__,N,0,196,196,15,,,1.215,1320.9444454000331,1321.2441788000287,1321.2441788000287,1321.4449484000215,1321.4606610001065,None,down,1321.4606610001065,None,1321.4606610001065,1322.659658000106,0.20243850001133978,None,2.469292600057088,,,,,,,,,43,001,2020_Jan_03_1049,untitled,3.1.0,60.06395606998162,
175,F,M,270,L,N,175FM270LN,HLN,0,197,197,126,,,1.1520000000000001,1324.1492847000482,1324.4414324000245,1324.4414324000245,1324.657856500009,1324.657856500009,None,down,1324.657856500009,None,1324.657856500009,1325.806834200048,0.20307349995709956,None,2.766576899914071,,,,,,,,,43,001,2020_Jan_03_1049,untitled,3.1.0,60.06395606998162,
163,F,N,90,L,N,163FN090LN,HLN,0,198,198,218,,,1.346,1327.625722900033,1327.9221117000561,1327.9221117000561,1328.1384139000438,1328.1553143000929,None,up,1328.1553143000929,None,1328.1553143000929,1329.4869552000891,0.18887509999331087,None,3.115064700017683,,,,,,,,,43,001,2020_Jan_03_1049,untitled,3.1.0,60.06395606998162,
483,_5,N,90,L,N,483_5N090LN,HLN,0,199,199,282,,,0.9510000000000001,1331.4854210000485,1331.7848911000183,1331.7848911000183,1331.9849834000925,1332.0022496000165,None,down,1332.0022496000165,None,1332.0022496000165,1332.9351610000012,0.2024033999769017,None,2.7659343999112025,,,,,,,,,43,001,2020_Jan_03_1049,untitled,3.1.0,60.06395606998162,
491,_5,M,90,L,N,491_5M090LN,HLN,0,200,200,186,,,1.278,1334.9751529000932,1335.2652850000886,1335.2652850000886,1335.481647400069,1335.4984767000424,None,None,1335.4984767000424,None,1335.4984767000424,1336.764307500096,0.19392909994348884,None,,,,,,,,,,43,001,2020_Jan_03_1049,untitled,3.1.0,60.06395606998162,
496,_5,M,315,L,N,496_5M315LN,HLN,0,201,201,191,,,0.739,1339.1451934000943,1339.4446421000175,1339.4446421000175,1339.6779963000445,1339.6946676000953,1339.1451934000943,down,1339.6946676000953,None,1339.6946676000953,1340.4106948000845,0.17165670008398592,None,2.9822044000029564,,,,,,,,,43,001,2020_Jan_03_1049,untitled,3.1.0,60.06395606998162,
392,_4,N,315,R,N,392_4N315RN,HRN,0,202,202,263,,,0.995,1342.8937312000198,1343.192003400065,1343.192003400065,1343.392127100029,1343.4105724000838,None,up,1343.4105724000838,None,1343.4105724000838,1344.3908304000506,0.20324529998470098,None,2.197556099970825,,,,,,,,,43,001,2020_Jan_03_1049,untitled,3.1.0,60.06395606998162,
169,F,M,0,L,N,169FM000LN,HLN,0,203,203,120,,,0.973,1345.8135311000515,1346.1057701000245,1346.1057701000245,1346.3221666000318,1346.3389257000526,None,down,1346.3389257000526,None,1346.3389257000526,1347.3046017000452,0.19275839999318123,None,2.4156886000419036,,,,,,,,,43,001,2020_Jan_03_1049,untitled,3.1.0,60.06395606998162,
167,F,N,270,L,N,167FN270LN,HLN,0,204,204,222,,,0.906,1348.9481708999956,1349.236609100015,1349.236609100015,1349.469419100089,1349.4863606001018,None,up,1349.4863606001018,None,1349.4863606001018,1350.3855147000868,0.18166979996021837,None,2.3490775999380276,,,,,,,,,43,001,2020_Jan_03_1049,untitled,3.1.0,60.06395606998162,
_,_4,N,90,_,_,__4N090__,N,0,205,205,82,,,1.304,1352.0541130000493,1352.3503113000188,1352.3503113000188,1352.550498800003,1352.5675753999967,None,up,1352.5675753999967,None,1352.5675753999967,1353.8658107999945,0.2058004999998957,None,2.6489207999547943,,,,,,,,,43,001,2020_Jan_03_1049,untitled,3.1.0,60.06395606998162,
484,_5,N,135,L,N,484_5N135LN,HLN,0,206,206,283,,,1.228,1355.4045082000084,1355.6974801000906,1355.6974801000906,1355.9313071999932,1355.9500582000474,None,None,1355.9500582000474,None,1355.9500582000474,1357.1622613000218,0.1761008999310434,None,,,,,,,,,,43,001,2020_Jan_03_1049,untitled,3.1.0,60.06395606998162,
_,_4,M,90,_,_,__4M090__,N,0,207,207,34,,,1.294,1359.5842745000264,1359.877212200081,1359.877212200081,1360.1269674000796,1360.1435618000105,1359.5842745000264,down,1360.1435618000105,None,1360.1435618000105,1361.4258859000402,0.16167589998804033,None,2.682909099967219,,,,,,,,,43,001,2020_Jan_03_1049,untitled,3.1.0,60.06395606998162,
133,F,N,180,R,N,133FN180RN,HRN,0,208,208,212,,,0.969,1363.0536358000245,1363.357469700044,1363.357469700044,1363.5406679000007,1363.557132700109,None,up,1363.557132700109,None,1363.557132700109,1364.5062519001076,0.2148231000173837,None,3.082838900038041,,,,,,,,,43,001,2020_Jan_03_1049,untitled,3.1.0,60.06395606998162,
006,R,N,225,R,N,006RN225RN,HRN,0,209,209,197,,,1.064,1366.8386677000672,1367.1372603001073,1367.1372603001073,1367.353715400095,1367.3708154000342,None,up,1367.3708154000342,None,1367.3708154000342,1368.4199831000296,0.18677440006285906,None,2.6652836999855936,,,,,,,,,43,001,2020_Jan_03_1049,untitled,3.1.0,60.06395606998162,
459,_5,M,90,R,N,459_5M090RN,HRN,0,210,210,178,,,1.3940000000000001,1370.222370600095,1370.5175928000826,1370.5175928000826,1370.7509528000373,1370.767991800094,None,down,1370.767991800094,None,1370.767991800094,1372.1498285999987,0.17283259995747358,None,3.398094000061974,,,,,,,,,43,001,2020_Jan_03_1049,untitled,3.1.0,60.06395606998162,
449,_5,N,0,R,N,449_5N000RN,HRN,0,211,211,272,,,1.161,1374.3974841000745,1374.6971936000045,1374.6971936000045,1374.8805717000505,1374.8973288000561,None,up,1374.8973288000561,None,1374.8973288000561,1376.046187400003,0.21799270005431026,None,2.8152694000164047,,,,,,,,,43,001,2020_Jan_03_1049,untitled,3.1.0,60.06395606998162,
161,F,N,0,L,N,161FN000LN,HLN,0,212,212,216,,,1.202,1377.8940750000766,1378.1942760000238,1378.1942760000238,1378.4281493000453,1378.444373400067,None,up,1378.444373400067,None,1378.444373400067,1379.6378044000594,0.16909039998427033,None,2.650282199960202,,,,,,,,,43,001,2020_Jan_03_1049,untitled,3.1.0,60.06395606998162,
304,_2,M,315,L,N,304_2M315LN,HLN,0,213,213,159,,,1.304,1381.2962050000206,1381.5916456000414,1381.5916456000414,1381.8081873001065,1381.824565100018,None,down,1381.824565100018,None,1381.824565100018,1383.123557300074,0.18866830004844815,None,2.9822712000459433,,,,,,,,,43,001,2020_Jan_03_1049,untitled,3.1.0,60.06395606998162,
201,G,M,0,R,N,201GM000RN,HRN,0,214,214,128,,,0.988,1385.0180105000036,1385.3065815001028,1385.3065815001028,1385.5215572000016,1385.5383178000338,None,down,1385.5383178000338,None,1385.5383178000338,1386.520402800059,0.19778460008092225,None,2.133874300052412,,,,,,,,,43,001,2020_Jan_03_1049,untitled,3.1.0,60.06395606998162,
144,F,M,315,R,N,144FM315RN,HRN,0,215,215,119,,,1.3940000000000001,1387.859801200102,1388.152166999993,1388.152166999993,1388.385498000076,1388.4021933000768,None,down,1388.4021933000768,None,1388.4021933000768,1389.7849060000153,0.17544969997834414,None,2.6004305999958888,,,,,,,,,43,001,2020_Jan_03_1049,untitled,3.1.0,60.06395606998162,
300,_2,M,135,L,N,300_2M135LN,HLN,0,216,216,155,,,1.245,1391.215694100014,1391.5158684001071,1391.5158684001071,1391.7159695000155,1391.7326777999988,None,down,1391.7326777999988,None,1391.7326777999988,1392.9654928999953,0.20030689996201545,None,3.06666310003493,,,,,,,,,43,001,2020_Jan_03_1049,untitled,3.1.0,60.06395606998162,
_,_4,M,270,_,_,__4M270__,N,0,217,217,38,,,1.088,1394.9969944000477,1395.2961569000036,1395.2961569000036,1395.5126492000418,1395.5292837000452,None,up,1395.5292837000452,None,1395.5292837000452,1396.6116934000747,0.18526140006724745,None,3.066775100072846,,,,,,,,,43,001,2020_Jan_03_1049,untitled,3.1.0,60.06395606998162,
_,_2,M,225,_,_,__2M225__,N,0,218,218,29,,,0.883,1398.8680004000198,1399.1594898001058,1399.1594898001058,1399.3093294000719,1399.3261719000293,None,None,1399.3261719000293,None,1399.3261719000293,1400.1919215000235,0.2587143999990076,None,,,,,,,,,,43,001,2020_Jan_03_1049,untitled,3.1.0,60.06395606998162,
008,R,N,315,R,N,008RN315RN,HRN,0,219,219,199,,,0.705,1403.012210600078,1403.306426400086,1403.306426400086,1403.5056582000107,1403.5222297,1403.012210600078,up,1403.5222297,None,1403.5222297,1404.204973999993,0.20913149998523295,None,2.6675316999899223,,,,,,,,,43,001,2020_Jan_03_1049,untitled,3.1.0,60.06395606998162,
129,F,N,0,R,N,129FN000RN,HRN,0,220,220,208,,,1.3960000000000001,1406.400903300033,1406.6871326999972,1406.6871326999972,1406.9028090001084,1406.9207756000105,None,up,1406.9207756000105,None,1406.9207756000105,1408.3014907001052,0.1965644999872893,None,2.4991720999823883,,,,,,,,,43,001,2020_Jan_03_1049,untitled,3.1.0,60.06395606998162,
171,F,M,90,L,N,171FM090LN,HLN,0,221,221,122,,,1.31,1409.6389711000957,1409.9334164001048,1409.9334164001048,1410.1334938000655,1410.1500426999992,None,down,1410.1500426999992,None,1410.1500426999992,1411.4487110000337,0.20656189997680485,None,2.749165399931371,,,,,,,,,43,001,2020_Jan_03_1049,untitled,3.1.0,60.06395606998162,
425,_4,M,0,L,N,425_4M000LN,HLN,0,222,222,168,,,0.979,1413.1425410000375,1413.4309246001067,1413.4309246001067,1413.6135174999945,1413.6301483000861,None,down,1413.6301483000861,None,1413.6301483000861,1414.5958645000355,0.2284486999269575,None,2.216731399996206,,,,,,,,,43,001,2020_Jan_03_1049,untitled,3.1.0,60.06395606998162,
199,G,N,270,R,N,199GN270RN,HRN,0,223,223,230,,,0.872,1416.0749318000162,1416.3775056001032,1416.3775056001032,1416.5611768000526,1416.579134700005,None,up,1416.579134700005,None,1416.579134700005,1417.4336416000733,0.215629699989222,None,2.1302845999598503,,,,,,,,,43,001,2020_Jan_03_1049,untitled,3.1.0,60.06395606998162,
_,F,M,135,_,_,_FM135__,N,0,224,224,3,,,0.755,1418.9132407000288,1419.2086168000242,1419.2086168000242,1419.4251091000624,1419.4425017000176,None,down,1419.4425017000176,None,1419.4425017000176,1420.1742464000126,0.19117170001845807,None,2.1149695001076907,,,,,,,,,43,001,2020_Jan_03_1049,untitled,3.1.0,60.06395606998162,
037,R,N,180,L,N,037RN180LN,HLN,0,225,225,204,,,1.3880000000000001,1421.819934500032,1422.122498300043,1422.122498300043,1422.2738756000763,1422.2916870000772,None,up,1422.2916870000772,None,1422.2916870000772,1423.6711030000588,0.2505176999839023,None,2.9475132999941707,,,,,,,,,43,001,2020_Jan_03_1049,untitled,3.1.0,60.06395606998162,
_,_2,M,180,_,_,__2M180__,N,0,226,226,28,,,1.1260000000000001,1425.4185626000399,1425.7199446000159,1425.7199446000159,1425.9527033000486,1425.9695199000416,None,None,1425.9695199000416,None,1425.9695199000416,1427.0851804000558,0.16709869995247573,None,,,,,,,,,,43,001,2020_Jan_03_1049,untitled,3.1.0,60.06395606998162,
492,_5,M,135,L,N,492_5M135LN,HLN,0,227,227,187,,,0.808,1429.6171625000425,1429.9162700000452,1429.9162700000452,1430.1490064000245,1430.1656935000792,1429.6171625000425,down,1430.1656935000792,None,1430.1656935000792,1430.9485039000865,0.17294920003041625,None,2.9659918000688776,,,,,,,,,43,001,2020_Jan_03_1049,untitled,3.1.0,60.06395606998162,
010,R,M,45,R,N,010RM045RN,HRN,0,228,228,97,,,0.929,1433.3887033000356,1433.6794218000723,1433.6794218000723,1433.8459429000504,1433.8624747000868,None,down,1433.8624747000868,None,1433.8624747000868,1434.778569300077,0.24355720006860793,None,2.565840599942021,,,,,,,,,43,001,2020_Jan_03_1049,untitled,3.1.0,60.06395606998162,
_,R,M,45,_,_,_RM045__,N,0,229,229,17,,,1.2510000000000001,1436.6348293001065,1436.9276878000237,1436.9276878000237,1437.1430686000967,1437.160324800061,None,down,1437.160324800061,None,1437.160324800061,1438.391896200017,0.19299120001960546,None,2.8314244999783114,,,,,,,,,43,001,2020_Jan_03_1049,untitled,3.1.0,60.06395606998162,
239,G,M,270,L,N,239GM270LN,HLN,0,230,230,142,,,0.922,1440.205109200091,1440.5048409000738,1440.5048409000738,1440.7066292000236,1440.7230492000235,None,down,1440.7230492000235,None,1440.7230492000235,1441.639018600108,0.1978326999815181,None,2.701575299957767,,,,,,,,,43,001,2020_Jan_03_1049,untitled,3.1.0,60.06395606998162,
490,_5,M,45,L,N,490_5M045LN,HLN,0,231,231,185,,,0.8210000000000001,1443.6392301000888,1443.9370072000893,1443.9370072000893,1444.1536027000984,1444.1536027000984,None,down,1444.1536027000984,None,1444.1536027000984,1444.969654800021,0.1975467000156641,None,2.6166559000266716,,,,,,,,,43,001,2020_Jan_03_1049,untitled,3.1.0,60.06395606998162,
208,G,M,315,R,N,208GM315RN,HRN,0,232,232,135,,,1.37,1446.977133700042,1447.2672704000724,1447.2672704000724,1447.483758800081,1447.5005579000572,None,None,1447.5005579000572,None,1447.5005579000572,1448.8666225000052,0.19235040002968162,None,,,,,,,,,,43,001,2020_Jan_03_1049,untitled,3.1.0,60.06395606998162,
_,_4,M,180,_,_,__4M180__,N,0,233,233,36,,,1.109,1451.1727561000735,1451.4639114000602,1451.4639114000602,1451.6806143000722,1451.6969132000813,1451.1727561000735,down,1451.6969132000813,None,1451.6969132000813,1452.7960692000343,0.19301329995505512,None,2.8002531999954954,,,,,,,,,43,001,2020_Jan_03_1049,untitled,3.1.0,60.06395606998162,
198,G,N,225,R,N,198GN225RN,HRN,0,234,234,229,,,1.368,1454.7018331000581,1454.9940628000768,1454.9940628000768,1455.2105043000774,1455.2271366000641,None,up,1455.2271366000641,None,1455.2271366000641,1456.5767418000614,0.19121379998978227,None,2.667442800011486,,,,,,,,,43,001,2020_Jan_03_1049,untitled,3.1.0,60.06395606998162,
_,R,N,135,_,_,_RN135__,N,0,235,235,67,,,0.747,1458.1124528000364,1458.407689900021,1458.407689900021,1458.607548900065,1458.624534600065,None,up,1458.624534600065,None,1458.624534600065,1459.3572278000647,0.20417580008506775,None,1.9660096999723464,,,,,,,,,43,001,2020_Jan_03_1049,untitled,3.1.0,60.06395606998162,
461,_5,M,180,R,N,461_5M180RN,HRN,0,236,236,180,,,1.353,1460.7782000000589,1461.0719757000916,1461.0719757000916,1461.3054028000915,1461.3219500000123,None,down,1461.3219500000123,None,1461.3219500000123,1462.6542289000936,0.17553839995525777,None,2.849111399962567,,,,,,,,,43,001,2020_Jan_03_1049,untitled,3.1.0,60.06395606998162,
_,R,M,270,_,_,_RM270__,N,0,237,237,22,,,0.994,1464.3622310000937,1464.6522066000616,1464.6522066000616,1464.8852626000298,1464.9022238000762,None,down,1464.9022238000762,None,1464.9022238000762,1465.8843132000184,0.17784489993937314,None,2.964926899992861,,,,,,,,,43,001,2020_Jan_03_1049,untitled,3.1.0,60.06395606998162,
172,F,M,135,L,N,172FM135LN,HLN,0,238,238,123,,,1.1320000000000001,1468.056027200073,1468.3487460000906,1468.3487460000906,1468.5821129000979,1468.598736200016,None,down,1468.598736200016,None,1468.598736200016,1469.7143404000672,0.17713850003201514,None,2.684015900013037,,,,,,,,,43,001,2020_Jan_03_1049,untitled,3.1.0,60.06395606998162,
034,R,N,45,L,N,034RN045LN,HLN,0,239,239,201,,,1.175,1471.5762606000062,1471.8776066000573,1471.8776066000573,1471.9959494000068,1472.0128976000706,None,up,1472.0128976000706,None,1472.0128976000706,1473.1784680000274,0.2815181000623852,None,2.381831599981524,,,,,,,,,43,001,2020_Jan_03_1049,untitled,3.1.0,60.06395606998162,
463,_5,M,270,R,N,463_5M270RN,HRN,0,240,240,182,,,1.34,1474.6609338000417,1474.9601141000167,1474.9601141000167,1475.1095643000444,1475.126414300059,None,down,1475.126414300059,None,1475.126414300059,1476.4585438000504,0.254173900000751,None,2.631676399963908,,,,,,,,,43,001,2020_Jan_03_1049,untitled,3.1.0,60.06395606998162,
301,_2,M,180,L,N,301_2M180LN,HLN,0,241,241,156,,,1.087,1477.9408605000935,1478.2397545001004,1478.2397545001004,1478.4734543000814,1478.4898576000705,None,down,1478.4898576000705,None,1478.4898576000705,1479.5561269000173,0.1698156000347808,None,3.0496600000187755,,,,,,,,,43,001,2020_Jan_03_1049,untitled,3.1.0,60.06395606998162,
455,_5,N,270,R,N,455_5N270RN,HRN,0,242,242,278,,,1.223,1481.7292204000987,1482.020481600077,1482.020481600077,1482.2534343000734,1482.2701678000158,None,up,1482.2701678000158,None,1482.2701678000158,1483.4862078001024,0.17778050003107637,None,2.667118899989873,,,,,,,,,43,001,2020_Jan_03_1049,untitled,3.1.0,60.06395606998162,
_,_5,N,180,_,_,__5N180__,N,0,243,243,92,,,0.922,1485.1514108000556,1485.4505986000877,1485.4505986000877,1485.6505622999975,1485.6670890999958,None,up,1485.6670890999958,None,1485.6670890999958,1486.583490799996,0.19976029999088496,None,2.252090199966915,,,,,,,,,43,001,2020_Jan_03_1049,untitled,3.1.0,60.06395606998162,
_,_5,N,45,_,_,__5N045__,N,0,244,244,89,,,0.919,1488.2356070000678,1488.5313303000294,1488.5313303000294,1488.648196700029,1488.648196700029,None,up,1488.648196700029,None,1488.648196700029,1489.5642694000853,0.29602560005150735,None,2.0669787999941036,,,,,,,,,43,001,2020_Jan_03_1049,untitled,3.1.0,60.06395606998162,
036,R,N,135,L,N,036RN135LN,HLN,0,245,245,203,,,0.753,1490.9378699000226,1491.2292878000299,1491.2292878000299,1491.4288063000422,1491.445663999999,None,up,1491.445663999999,None,1491.445663999999,1492.1781559000956,0.20936549990437925,None,1.8516197999706492,,,,,,,,,43,001,2020_Jan_03_1049,untitled,3.1.0,60.06395606998162,
_,_4,M,135,_,_,__4M135__,N,0,246,246,35,,,0.983,1493.5331762999995,1493.8269105000654,1493.8269105000654,1494.0266380000394,1494.0266380000394,None,down,1494.0266380000394,None,1494.0266380000394,1495.0092237000354,0.21974520001094788,None,2.1838578999741003,,,,,,,,,43,001,2020_Jan_03_1049,untitled,3.1.0,60.06395606998162,
_,R,N,0,_,_,_RN000__,N,0,247,247,64,,,0.858,1496.5348716001026,1496.8240090000909,1496.8240090000909,1496.9255129999947,1496.9416138000088,None,up,1496.9416138000088,None,1496.9416138000088,1497.7902035000734,0.3121215000282973,None,2.0155231000389904,,,,,,,,,43,001,2020_Jan_03_1049,untitled,3.1.0,60.06395606998162,
_,_4,N,45,_,_,__4N045__,N,0,248,248,81,,,1.182,1499.181622000062,1499.471934100031,1499.471934100031,1499.6719889000524,1499.6884775999933,None,up,1499.6884775999933,None,1499.6884775999933,1500.854027400026,0.210597199969925,None,2.3158001999836415,,,,,,,,,43,001,2020_Jan_03_1049,untitled,3.1.0,60.06395606998162,
_,G,N,225,_,_,_GN225__,N,0,249,249,61,,,0.708,1502.2145849000663,1502.502816000022,1502.502816000022,1502.7190755000338,1502.735717200092,None,up,1502.735717200092,None,1502.735717200092,1503.436686500092,0.19683009991422296,None,2.3993793999543414,,,,,,,,,43,001,2020_Jan_03_1049,untitled,3.1.0,60.06395606998162,
164,F,N,135,L,N,164FN135LN,HLN,0,250,250,219,,,0.843,1505.3531048001023,1505.6499197999947,1505.6499197999947,1505.8494657000992,1505.8663339000195,None,up,1505.8663339000195,None,1505.8663339000195,1506.6993304000935,0.2042717000003904,None,2.0330374999903142,,,,,,,,,43,001,2020_Jan_03_1049,untitled,3.1.0,60.06395606998162,
_,R,N,270,_,_,_RN270__,N,0,251,251,70,,,0.766,1508.0901853000978,1508.3804963000584,1508.3804963000584,1508.6143355000531,1508.6305594000733,None,up,1508.6305594000733,None,1508.6305594000733,1509.3797095000045,0.17881169996690005,None,2.2493532999651507,,,,,,,,,43,001,2020_Jan_03_1049,untitled,3.1.0,60.06395606998162,
_,F,N,0,_,_,_FN000__,N,0,252,252,48,,,0.8280000000000001,1511.1661886000074,1511.4615077000344,1511.4615077000344,1511.5945516000502,1511.611242200015,None,up,1511.611242200015,None,1511.611242200015,1512.429624700104,0.27291800000239164,None,1.7993323999689892,,,,,,,,,43,001,2020_Jan_03_1049,untitled,3.1.0,60.06395606998162,
_,G,M,225,_,_,_GM225__,N,0,253,253,13,,,0.717,1513.5993585000979,1513.8924753000028,1513.8924753000028,1514.1259424000746,1514.1426163000287,None,down,1514.1426163000287,None,1514.1426163000287,1514.8418969000923,0.17667079996317625,None,1.8664756999351084,,,,,,,,,43,001,2020_Jan_03_1049,untitled,3.1.0,60.06395606998162,
494,_5,M,225,L,N,494_5M225LN,HLN,0,254,254,189,,,1.31,1516.216756900074,1516.50687510008,1516.50687510008,1516.7234853000846,1516.7402733000927,None,up,1516.7402733000927,None,1516.7402733000927,1518.03885370004,0.1946301000425592,None,2.916179099935107,,,,,,,,,43,001,2020_Jan_03_1049,untitled,3.1.0,60.06395606998162,
423,_4,N,270,L,N,423_4N270LN,HLN,0,255,255,270,,,1.029,1519.8644951001043,1520.1539536000928,1520.1539536000928,1520.370395700098,1520.38696230005,None,up,1520.38696230005,None,1520.38696230005,1521.4028243001085,0.19355890003498644,None,2.3817377999657765,,,,,,,,,43,001,2020_Jan_03_1049,untitled,3.1.0,60.06395606998162,
_,F,M,270,_,_,_FM270__,N,0,256,256,6,,,0.785,1522.9679146000417,1523.2683892000932,1523.2683892000932,1523.4842095000204,1523.5011189000215,None,down,1523.5011189000215,None,1523.5011189000215,1524.2668553000549,0.18624629999976605,None,1.9161763000302017,,,,,,,,,43,001,2020_Jan_03_1049,untitled,3.1.0,60.06395606998162,
_,_4,M,45,_,_,__4M045__,N,0,257,257,33,,,1.3820000000000001,1525.6306994000915,1525.9321933001047,1525.9321933001047,1526.1317991000833,1526.1486998000182,None,down,1526.1486998000182,None,1526.1486998000182,1527.514160700026,0.19946070003788918,None,2.915638400008902,,,,,,,,,43,001,2020_Jan_03_1049,untitled,3.1.0,60.06395606998162,
264,_2,N,315,R,N,264_2N315RN,HRN,0,258,258,247,,,1.062,1529.2700299000135,1529.5622851999942,1529.5622851999942,1529.7786524000112,1529.795622900012,None,up,1529.795622900012,None,1529.795622900012,1530.8444354000967,0.19314810005016625,None,3.0666751998942345,,,,,,,,,43,001,2020_Jan_03_1049,untitled,3.1.0,60.06395606998162,
462,_5,M,225,R,N,462_5M225RN,HRN,0,259,259,181,,,0.736,1533.055764400051,1533.3589150001062,1533.3589150001062,1533.5755983000854,1533.5924511000048,None,up,1533.5924511000048,None,1533.5924511000048,1534.3080074000172,0.1815188000909984,None,2.6652398000005633,,,,,,,,,43,001,2020_Jan_03_1049,untitled,3.1.0,60.06395606998162,
424,_4,N,315,L,N,424_4N315LN,HLN,0,260,260,271,,,1.387,1536.448855200084,1536.7393642000388,1536.7393642000388,1536.972567500081,1536.9891189000336,None,up,1536.9891189000336,None,1536.9891189000336,1538.3547023000428,0.17909220000728965,None,2.5165914999088272,,,,,,,,,43,001,2020_Jan_03_1049,untitled,3.1.0,60.06395606998162,
011,R,M,90,R,N,011RM090RN,HRN,0,261,261,98,,,0.971,1539.7264863000019,1540.0199983000057,1540.0199983000057,1540.21974030009,1540.236481100088,None,down,1540.236481100088,None,1540.236481100088,1541.2023159000091,0.2068319000536576,None,2.8486709999851882,,,,,,,,,43,001,2020_Jan_03_1049,untitled,3.1.0,60.06395606998162,
289,_2,N,0,L,N,289_2N000LN,HLN,0,262,262,248,,,1.06,1543.3268673000857,1543.6166953000939,1543.6166953000939,1543.8004961000988,1543.816630700021,None,up,1543.816630700021,None,1543.816630700021,1544.8655215000035,0.22698190005030483,None,2.2334928000345826,,,,,,,,,43,001,2020_Jan_03_1049,untitled,3.1.0,60.06395606998162,
_,_2,M,270,_,_,__2M270__,N,0,263,263,30,,,1.2710000000000001,1546.2540240000235,1546.5472890000092,1546.5472890000092,1546.7641584000085,1546.7805468000006,None,down,1546.7805468000006,None,1546.7805468000006,1548.0462174999993,0.18970200000330806,None,3.182302799890749,,,,,,,,,43,001,2020_Jan_03_1049,untitled,3.1.0,60.06395606998162,
_,G,N,0,_,_,_GN000__,N,0,264,264,56,,,0.986,1550.1539117000066,1550.4439400000265,1550.4439400000265,1550.6771121000638,1550.6940306000179,None,up,1550.6940306000179,None,1550.6940306000179,1551.6597253000364,0.1790065000532195,None,2.0324001000262797,,,,,,,,,43,001,2020_Jan_03_1049,untitled,3.1.0,60.06395606998162,
033,R,N,0,L,N,033RN000LN,HLN,0,265,265,200,,,1.336,1552.9202028000727,1553.2083161000628,1553.2083161000628,1553.441246100003,1553.4581850999966,None,up,1553.4581850999966,None,1553.4581850999966,1554.773410200025,0.1775904999813065,None,2.2166901000309736,,,,,,,,,43,001,2020_Jan_03_1049,untitled,3.1.0,60.06395606998162,
430,_4,M,225,L,N,430_4M225LN,HLN,0,266,266,173,,,0.8290000000000001,1556.0350204000715,1556.3226502001053,1556.3226502001053,1556.388990700012,1556.4056074999971,None,down,1556.4056074999971,None,1556.4056074999971,1557.2216795000713,0.34601780003868043,None,2.268222299986519,,,,,,,,,43,001,2020_Jan_03_1049,untitled,3.1.0,60.06395606998162,
174,F,M,225,L,N,174FM225LN,HLN,0,267,267,125,,,1.354,1558.9028794000624,1559.2221584999934,1559.2221584999934,1559.3861950000282,1559.4031431000913,None,down,1559.4031431000913,None,1559.4031431000913,1560.751523700077,0.21618190000299364,None,2.55021689995192,,,,,,,,,43,001,2020_Jan_03_1049,untitled,3.1.0,60.06395606998162,
_,_5,M,270,_,_,__5M270__,N,0,268,268,46,,,1.2750000000000001,1562.2546094000572,1562.550488500041,1562.550488500041,1562.6668406000827,1562.6834652000107,None,up,1562.6834652000107,None,1562.6834652000107,1563.9493113000644,0.2872984000714496,None,3.0152501999400556,,,,,,,,,43,001,2020_Jan_03_1049,untitled,3.1.0,60.06395606998162,
_,_2,N,225,_,_,__2N225__,N,0,269,269,77,,,0.716,1565.9013370000757,1566.1968471000437,1566.1968471000437,1566.4132094000233,1566.4300428000279,None,up,1566.4300428000279,None,1566.4300428000279,1567.12966960005,0.18889580003451556,None,2.2493071000790223,,,,,,,,,43,001,2020_Jan_03_1049,untitled,3.1.0,60.06395606998162,
_,R,N,225,_,_,_RN225__,N,0,270,270,69,,,1.276,1568.8876688000746,1569.1774811000796,1569.1774811000796,1569.3945113000227,1569.4108037000988,None,up,1569.4108037000988,None,1569.4108037000988,1570.676267700037,0.19556650007143617,None,2.7161037999903783,,,,,,,,,43,001,2020_Jan_03_1049,untitled,3.1.0,60.06395606998162,
207,G,M,270,R,N,207GM270RN,HRN,0,271,271,134,,,1.235,1572.3287596000591,1572.6247738000238,1572.6247738000238,1572.8412443000125,1572.8585057000164,None,down,1572.8585057000164,None,1572.8585057000164,1574.0735086000059,0.18854250002186745,None,2.66479770001024,,,,,,,,,43,001,2020_Jan_03_1049,untitled,3.1.0,60.06395606998162,
290,_2,N,45,L,N,290_2N045LN,HLN,0,272,272,249,,,1.048,1575.707756100106,1576.0050933000166,1576.0050933000166,1576.2380082000745,1576.254999900004,None,up,1576.254999900004,None,1576.254999900004,1577.2876511000795,0.1718997999560088,None,2.2006433000788093,,,,,,,,,43,001,2020_Jan_03_1049,untitled,3.1.0,60.06395606998162,
257,_2,N,0,R,N,257_2N000RN,HRN,0,273,273,240,,,1.014,1578.6777756999945,1578.969456300023,1578.969456300023,1579.1692565000849,1579.1857631000457,None,up,1579.1857631000457,None,1579.1857631000457,1580.1847374000354,0.20949509995989501,None,1.9169610000681132,,,,,,,,,43,001,2020_Jan_03_1049,untitled,3.1.0,60.06395606998162,
296,_2,N,315,L,N,296_2N315LN,HLN,0,274,274,255,,,1.145,1581.3068130000029,1581.6002993000438,1581.6002993000438,1581.8167624000926,1581.8334865000797,None,up,1581.8334865000797,None,1581.8334865000797,1582.9662074000807,0.19109520001802593,None,2.015838999999687,,,,,,,,,43,001,2020_Jan_03_1049,untitled,3.1.0,60.06395606998162,
266,_2,M,45,R,N,266_2M045RN,HRN,0,275,275,145,,,1.081,1584.0482156000799,1584.3475581000093,1584.3475581000093,1584.5643615000881,1584.5811973999953,None,down,1584.5811973999953,None,1584.5811973999953,1585.6466349000111,0.18734380009118468,None,3.0817107999464497,,,,,,,,,43,001,2020_Jan_03_1049,untitled,3.1.0,60.06395606998162,
_,F,N,225,_,_,_FN225__,N,0,276,276,53,,,1.092,1587.973545200075,1588.260982100037,1588.260982100037,1588.3774984000484,1588.394341600011,None,up,1588.394341600011,None,1588.394341600011,1589.4768161000684,0.2960660000098869,None,3.081572200055234,,,,,,,,,43,001,2020_Jan_03_1049,untitled,3.1.0,60.06395606998162,
269,_2,M,180,R,N,269_2M180RN,HRN,0,277,277,148,,,0.923,1591.660187600064,1591.9576017000945,1591.9576017000945,1592.1908650000114,1592.2074737000512,None,up,1592.2074737000512,None,1592.2074737000512,1593.1232234000927,0.1710867000510916,None,3.098714900086634,,,,,,,,,43,001,2020_Jan_03_1049,untitled,3.1.0,60.06395606998162,
132,F,N,135,R,N,132FN135RN,HRN,0,278,278,211,,,0.866,1595.5090784000931,1595.8046014000429,1595.8046014000429,1596.0209083000664,1596.0375944999978,None,up,1596.0375944999978,None,1596.0375944999978,1596.887120700092,0.19084200006909668,None,2.249219199991785,,,,,,,,,43,001,2020_Jan_03_1049,untitled,3.1.0,60.06395606998162,
136,F,N,315,R,N,136FN315RN,HRN,0,279,279,215,,,1.16,1598.497037300025,1598.7869211001089,1598.7869211001089,1599.0018026001053,1599.018382600043,None,up,1599.018382600043,None,1599.018382600043,1600.167571100057,0.19755479996092618,None,2.7659932000096887,,,,,,,,,43,001,2020_Jan_03_1049,untitled,3.1.0,60.06395606998162,
_,R,M,0,_,_,_RM000__,N,0,280,280,16,,,1.397,1601.9999537999975,1602.2990878000855,1602.2990878000855,1602.4985391000519,1602.5228625000454,None,down,1602.5228625000454,None,1602.5228625000454,1603.8975397000322,0.20280700002331287,None,2.359794400050305,,,,,,,,,43,001,2020_Jan_03_1049,untitled,3.1.0,60.06395606998162,
137,F,M,0,R,N,137FM000RN,HRN,0,281,281,112,,,0.919,1605.1067583000986,1605.396195200039,1605.396195200039,1605.5960434000008,1605.6130008000182,None,down,1605.6130008000182,None,1605.6130008000182,1606.5122213000432,0.21123899996746331,None,1.9667142000980675,,,,,,,,,43,001,2020_Jan_03_1049,untitled,3.1.0,60.06395606998162,
394,_4,M,45,R,N,394_4M045RN,HRN,0,282,282,161,,,0.759,1607.7730859000003,1608.0619914000854,1608.0619914000854,1608.2936629001051,1608.3103198000463,None,down,1608.3103198000463,None,1608.3103198000463,1609.0597353000194,0.18087109993211925,None,1.8826994999544695,,,,,,,,,43,001,2020_Jan_03_1049,untitled,3.1.0,60.06395606998162,
_,_2,M,45,_,_,__2M045__,N,0,283,283,25,,,0.8190000000000001,1610.3787219000515,1610.6751010000007,1610.6751010000007,1610.9078907000367,1610.9263338000746,None,down,1610.9263338000746,None,1610.9263338000746,1611.723769400036,0.17388679995201528,None,2.2640113999368623,,,,,,,,,43,001,2020_Jan_03_1049,untitled,3.1.0,60.06395606998162,
_,F,M,225,_,_,_FM225__,N,0,284,284,5,,,1.264,1613.4586485000327,1613.7552198000485,1613.7552198000485,1613.9054555000039,1613.9229989000596,None,down,1613.9229989000596,None,1613.9229989000596,1615.1706026000902,0.25468820007517934,None,2.3667006000177935,,,,,,,,,43,001,2020_Jan_03_1049,untitled,3.1.0,60.06395606998162,
005,R,N,180,R,N,005RN180RN,HRN,0,285,285,196,,,0.881,1616.5885286000557,1616.8859918999951,1616.8859918999951,1617.0028838000726,1617.0193804000737,None,up,1617.0193804000737,None,1617.0193804000737,1617.885351200006,0.285785699961707,None,2.416748199961148,,,,,,,,,43,001,2020_Jan_03_1049,untitled,3.1.0,60.06395606998162,
419,_4,N,90,L,N,419_4N090LN,HLN,0,286,286,266,,,0.89,1619.654407300055,1619.9500925000757,1619.9500925000757,1620.1498715000926,1620.1664355000248,None,up,1620.1664355000248,None,1620.1664355000248,1621.0494077000767,0.20566419989336282,None,2.3336649999255314,,,,,,,,,43,001,2020_Jan_03_1049,untitled,3.1.0,60.06395606998162,
298,_2,M,45,L,N,298_2M045LN,HLN,0,287,287,153,,,1.1420000000000001,1622.8173783000093,1623.1142408000305,1623.1142408000305,1623.213865900063,1623.235368900001,None,down,1623.235368900001,None,1623.235368900001,1624.3629579000408,0.30324370006565005,None,2.7278156999964267,,,,,,,,,43,001,2020_Jan_03_1049,untitled,3.1.0,60.06395606998162,
,,,,,,,,,,,,,,,,,,,,,,,,,,,,,1625.9796511000022,None,1635.852938600001,None,1642.1314176000888,None,1647.9087897000136,None,,,,,,,
