Number,Letter,type,Orientation,human,face_type,image,picture,trials.thisRepN,trials.thisTrialN,trials.thisN,trials.thisIndex,text.started,text.stopped,stimulus_duration,CROSS.started,CROSS.stopped,BLANK.started,BLANK.stopped,TEST.started,TEST.stopped,key_JUDGE.keys,key_JUDGE.rt,key_JUDGE.started,key_JUDGE.stopped,image_2.started,image_2.stopped,ISI.started,ISI.stopped,q1.started,q1.stopped,q2.started,q2.stopped,q3.started,q3.stopped,text_2.started,text_2.stopped,participant,session,date,expName,psychopyVersion,frameRate,
_,F,M,135,_,_,_FM135__,N,0,0,0,3,424.8555436000461,None,1.35,448.93143200001214,448.93143200001214,448.93143200001214,449.0636311999988,449.0802095000399,None,down,3.2457674000179395,449.0802095000399,None,449.0802095000399,450.2929564000806,0.5364891999633983,None,,,,,,,,,44,001,2020_Jan_03_1117,untitled,3.1.0,59.827326379097755,
_,F,M,225,_,_,_FM225__,N,0,1,1,5,,,1.326,452.65459140005987,453.0239500000607,453.0239500000607,453.05738560005557,453.05738560005557,None,down,3.4157622000202537,453.05738560005557,None,453.05738560005557,454.37259320006706,0.30558340006973594,None,,,,,,,,,44,001,2020_Jan_03_1117,untitled,3.1.0,59.827326379097755,
_,F,M,45,_,_,_FM045__,N,0,2,2,1,,,1.367,456.72566070000175,457.0208554000128,457.0208554000128,457.1873157999944,457.2054497000063,None,down,3.280222799978219,457.2054497000063,None,457.2054497000063,458.5534717000555,0.23683060007169843,None,,,,,,,,,44,001,2020_Jan_03_1117,untitled,3.1.0,59.827326379097755,
387,_4,N,90,R,N,387_4N090RN,HRN,0,3,3,258,,,1.0070000000000001,460.764679600019,461.06675900006667,461.06675900006667,461.1999067000579,461.2168135000393,None,up,2.3158817999064922,461.2168135000393,None,461.2168135000393,462.21636620000936,0.2662062000017613,None,,,,,,,,,44,001,2020_Jan_03_1117,untitled,3.1.0,59.827326379097755,
_,_4,N,0,_,_,__4N000__,N,0,4,4,80,,,1.045,463.833105500089,464.13123649999034,464.13123649999034,464.2473903000355,464.2642535000341,None,up,1.8675376999890432,464.2642535000341,None,464.2642535000341,465.2965161000611,0.2867738999193534,None,,,,,,,,,44,001,2020_Jan_03_1117,untitled,3.1.0,59.827326379097755,
016,R,M,315,R,N,016RM315RN,HRN,0,5,5,103,,,1.343,466.3789592999965,466.6787453000434,466.6787453000434,466.84509519999847,466.86183670000173,None,down,2.600225899950601,466.86183670000173,None,466.86183670000173,468.1947441000957,0.2336246999911964,None,,,,,,,,,44,001,2020_Jan_03_1117,untitled,3.1.0,59.827326379097755,
201,G,M,0,R,N,201GM000RN,HRN,0,6,6,128,,,1.2630000000000001,469.69879819999915,469.99252530001104,469.99252530001104,470.175888900063,470.19380040001124,None,None,,470.19380040001124,None,470.19380040001124,471.4415424000472,0.22367289999965578,None,,,,,,,,,44,001,2020_Jan_03_1117,untitled,3.1.0,59.827326379097755,
491,_5,M,90,L,N,491_5M090LN,HLN,0,7,7,186,,,0.73,473.9383007000433,474.2390013000695,474.2390013000695,474.37179530004505,474.3888830000069,473.9383007000433,down,2.1334818999748677,474.3888830000069,None,474.3888830000069,475.1067091000732,0.2708333000773564,None,,,,,,,,,44,001,2020_Jan_03_1117,untitled,3.1.0,59.827326379097755,
162,F,N,45,L,N,162FN045LN,HLN,0,8,8,217,,,1.064,476.82577880006284,477.1195686000865,477.1195686000865,477.237133000046,477.2556159000378,None,up,1.997540200012736,477.2556159000378,None,477.2556159000378,478.3017135000555,0.2904252000153065,None,,,,,,,,,44,001,2020_Jan_03_1117,untitled,3.1.0,59.827326379097755,
265,_2,M,0,R,N,265_2M000RN,HRN,0,9,9,144,,,0.9,479.56449470005464,479.85150340001564,479.85150340001564,479.96690520003904,479.98382660001516,None,down,2.166981299989857,479.98382660001516,None,479.98382660001516,480.8658262999961,0.2976139000384137,None,,,,,,,,,44,001,2020_Jan_03_1117,untitled,3.1.0,59.827326379097755,
193,G,N,0,R,N,193GN000RN,HRN,0,10,10,224,,,0.9540000000000001,482.36821009998675,482.66430480009876,482.66430480009876,482.88602090009954,482.88602090009954,None,up,1.9787451999727637,482.88602090009954,None,482.88602090009954,483.8301749000093,0.19838760001584888,None,,,,,,,,,44,001,2020_Jan_03_1117,untitled,3.1.0,59.827326379097755,
272,_2,M,315,R,N,272_2M315RN,HRN,0,11,11,151,,,0.79,485.10381800006144,485.3954100999981,485.3954100999981,485.5786344000371,485.5958364000544,None,up,3.1993277000728995,485.5958364000544,None,485.5958364000544,486.3783637000015,0.22493250004481524,None,,,,,,,,,44,001,2020_Jan_03_1117,untitled,3.1.0,59.827326379097755,
258,_2,N,45,R,N,258_2N045RN,HRN,0,12,12,241,,,1.051,489.1029304000549,489.3919347000774,489.3919347000774,489.5084777000593,489.52505310007837,None,up,2.184601999935694,489.52505310007837,None,489.52505310007837,490.55880190001335,0.2926092999987304,None,,,,,,,,,44,001,2020_Jan_03_1117,untitled,3.1.0,59.827326379097755,
233,G,M,0,L,N,233GM000LN,HLN,0,13,13,136,,,0.875,492.04755920008756,492.33955230005085,492.33955230005085,492.4227303999942,492.44007660006173,None,down,1.9655526999849826,492.44007660006173,None,492.44007660006173,493.3065573000349,0.32345689996145666,None,,,,,,,,,44,001,2020_Jan_03_1117,untitled,3.1.0,59.827326379097755,
_,F,N,270,_,_,_FN270__,N,0,14,14,54,,,1.161,494.70963160006795,495.0040194999892,495.0040194999892,495.1207130000694,495.1376285000006,None,up,2.5493735999334604,495.1376285000006,None,495.1376285000006,496.28606140008196,0.29090990009717643,None,,,,,,,,,44,001,2020_Jan_03_1117,untitled,3.1.0,59.827326379097755,
195,G,N,90,R,N,195GN090RN,HRN,0,15,15,226,,,1.0,497.9092165000038,498.20109730004333,498.20109730004333,498.40088209998794,498.4174321000464,None,up,1.9832115999888629,498.4174321000464,None,498.4174321000464,499.3998504000483,0.20914049993734807,None,,,,,,,,,44,001,2020_Jan_03_1117,untitled,3.1.0,59.827326379097755,
_,_5,N,315,_,_,__5N315__,N,0,16,16,95,,,1.108,500.72427680005785,501.0153173999861,501.0153173999861,501.1162959000794,501.1322945000138,None,up,1.8995209999848157,501.1322945000138,None,501.1322945000138,502.23206160007976,0.30858660000376403,None,,,,,,,,,44,001,2020_Jan_03_1117,untitled,3.1.0,59.827326379097755,
260,_2,N,135,R,N,260_2N135RN,HRN,0,17,17,243,,,0.753,503.3119657000061,503.61326920008287,503.61326920008287,503.7468502999982,503.7654305000324,None,up,1.7637806999264285,503.7654305000324,None,503.7654305000324,504.4962451000465,0.2663460000185296,None,,,,,,,,,44,001,2020_Jan_03_1117,untitled,3.1.0,59.827326379097755,
_,_5,N,225,_,_,__5N225__,N,0,18,18,93,,,0.926,505.7309269000543,506.0287126000039,506.0287126000039,506.2459070000332,506.2637788000284,None,up,2.147481399937533,506.2637788000284,None,506.2637788000284,507.177813300048,0.188747699954547,None,,,,,,,,,44,001,2020_Jan_03_1117,untitled,3.1.0,59.827326379097755,
035,R,N,90,L,N,035RN090LN,HLN,0,19,19,202,,,0.928,508.7337740000803,509.0250191000523,509.0250191000523,509.1248476000037,509.14170300005935,None,up,1.6831285000080243,509.14170300005935,None,509.14170300005935,510.0572968000779,0.31025710003450513,None,,,,,,,,,44,001,2020_Jan_03_1117,untitled,3.1.0,59.827326379097755,
138,F,M,45,R,N,138FM045RN,HRN,0,20,20,113,,,1.188,511.0442482000217,511.33943920000456,511.33943920000456,511.5393908000551,511.5562569000758,None,down,2.116481399978511,511.5562569000758,None,511.5562569000758,512.738507400034,0.20667959994170815,None,,,,,,,,,44,001,2020_Jan_03_1117,untitled,3.1.0,59.827326379097755,
270,_2,M,225,R,N,270_2M225RN,HRN,0,21,21,149,,,1.129,513.8999527000124,514.1889719000319,514.1889719000319,514.3875569000375,514.4038015000988,None,None,,514.4038015000988,None,514.4038015000988,515.519524400006,0.21269640000537038,None,,,,,,,,,44,001,2020_Jan_03_1117,untitled,3.1.0,59.827326379097755,
202,G,M,45,R,N,202GM045RN,HRN,0,22,22,129,,,1.172,518.1084438000107,518.4002049000701,518.4002049000701,518.5840273000067,518.6020702000242,518.1084438000107,down,2.29867429996375,518.6020702000242,None,518.6020702000242,519.7491091000848,0.2300301999785006,None,,,,,,,,,44,001,2020_Jan_03_1117,untitled,3.1.0,59.827326379097755,
_,G,N,270,_,_,_GN270__,N,0,23,23,62,,,0.779,521.2335525000235,521.5313543000957,521.5313543000957,521.615384100005,521.6327180000953,None,up,1.9998379999306053,521.6327180000953,None,521.6327180000953,522.3965397999855,0.31923180003650486,None,,,,,,,,,44,001,2020_Jan_03_1117,untitled,3.1.0,59.827326379097755,
417,_4,N,0,L,N,417_4N000LN,HLN,0,24,24,264,,,0.976,523.9361020000651,524.2283013000851,524.2283013000851,524.345172500005,524.3620374000166,None,up,1.6501948999939486,524.3620374000166,None,524.3620374000166,525.3274872000329,0.2902651000767946,None,,,,,,,,,44,001,2020_Jan_03_1117,untitled,3.1.0,59.827326379097755,
_,R,M,180,_,_,_RM180__,N,0,25,25,20,,,1.149,526.3463238000404,526.6476090000942,526.6476090000942,526.7263662000187,526.7428944000276,None,None,,526.7428944000276,None,526.7428944000276,527.875366399996,0.3196168999420479,None,,,,,,,,,44,001,2020_Jan_03_1117,untitled,3.1.0,59.827326379097755,
_,_4,N,135,_,_,__4N135__,N,0,26,26,83,,,0.783,530.4261254000012,530.7230686000548,530.7230686000548,530.9227851000614,530.9393605000805,530.4261254000012,up,1.7662649999838322,530.9393605000805,None,530.9393605000805,531.7055075000972,0.20739260001573712,None,,,,,,,,,44,001,2020_Jan_03_1117,untitled,3.1.0,59.827326379097755,
295,_2,N,270,L,N,295_2N270LN,HLN,0,27,27,254,,,1.133,533.0152251000982,533.3064439999871,533.3064439999871,533.4205910000019,533.437892200076,None,up,1.9493973999051377,533.437892200076,None,533.437892200076,534.553006400005,0.29553369991481304,None,,,,,,,,,44,001,2020_Jan_03_1117,untitled,3.1.0,59.827326379097755,
_,R,M,90,_,_,_RM090__,N,0,28,28,18,,,1.036,535.5678358000005,535.8680409000954,535.8680409000954,536.1012163000414,536.1191421000985,None,down,2.182707399944775,536.1191421000985,None,536.1191421000985,537.1346484000096,0.16903150000143796,None,,,,,,,,,44,001,2020_Jan_03_1117,untitled,3.1.0,59.827326379097755,
418,_4,N,45,L,N,418_4N045LN,HLN,0,29,29,265,,,0.907,538.5643699000357,538.8658589000115,538.8658589000115,539.0158291000407,539.0322543000802,None,up,1.717269100015983,539.0322543000802,None,539.0322543000802,539.9314876000863,0.24829420004971325,None,,,,,,,,,44,001,2020_Jan_03_1117,untitled,3.1.0,59.827326379097755,
206,G,M,225,R,N,206GM225RN,HRN,0,30,30,133,,,0.854,540.9612523000687,541.2634791000746,541.2634791000746,541.4632524000481,541.4802502000239,None,down,2.799180500092916,541.4802502000239,None,541.4802502000239,542.3292425000109,0.19853920000605285,None,,,,,,,,,44,001,2020_Jan_03_1117,untitled,3.1.0,59.827326379097755,
302,_2,M,225,L,N,302_2M225LN,HLN,0,31,31,157,,,1.374,544.4992923000827,544.7935796000529,544.7935796000529,544.993476600037,545.0104017000413,None,up,3.114851300022565,545.0104017000413,None,545.0104017000413,546.3759476999985,0.20583250001072884,None,,,,,,,,,44,001,2020_Jan_03_1117,untitled,3.1.0,59.827326379097755,
010,R,M,45,R,N,010RM045RN,HRN,0,32,32,97,,,0.725,548.4304652999854,548.7239132000832,548.7239132000832,548.8407414000249,548.8584749000147,None,down,2.680475299945101,548.8584749000147,None,548.8584749000147,549.5729887000052,0.2916237999452278,None,,,,,,,,,44,001,2020_Jan_03_1117,untitled,3.1.0,59.827326379097755,
298,_2,M,45,L,N,298_2M045LN,HLN,0,33,33,153,,,1.306,551.7286490000552,552.0207442000974,552.0207442000974,552.2560072999913,552.2754467000486,None,None,,552.2754467000486,None,552.2754467000486,553.5692439000122,0.1772431000135839,None,,,,,,,,,44,001,2020_Jan_03_1117,untitled,3.1.0,59.827326379097755,
131,F,N,90,R,N,131FN090RN,HRN,0,34,34,210,,,1.352,555.9620591000421,556.2653169000987,556.2653169000987,556.4502025000984,556.4670471000718,555.9620591000421,up,2.2995781999779865,556.4670471000718,None,556.4670471000718,557.7990891000954,0.2160629000281915,None,,,,,,,,,44,001,2020_Jan_03_1117,untitled,3.1.0,59.827326379097755,
482,_5,N,45,L,N,482_5N045LN,HLN,0,35,35,281,,,1.203,559.0780177999986,559.3659158000955,559.3659158000955,559.4812705999939,559.4975656000897,None,up,1.9830079999519512,559.4975656000897,None,559.4975656000897,560.6966139000142,0.29721519991289824,None,,,,,,,,,44,001,2020_Jan_03_1117,untitled,3.1.0,59.827326379097755,
129,F,N,0,R,N,129FN000RN,HRN,0,36,36,208,,,0.838,561.704293900053,561.9956966000609,561.9956966000609,562.1953932000324,562.212501400034,None,up,1.46685880003497,562.212501400034,None,562.212501400034,563.0294609999983,0.20969430007971823,None,,,,,,,,,44,001,2020_Jan_03_1117,untitled,3.1.0,59.827326379097755,
_,G,N,180,_,_,_GN180__,N,0,37,37,60,,,0.787,563.9942832000088,564.293736300082,564.293736300082,564.3936527000042,564.41032860009,None,up,2.7152170999906957,564.41032860009,None,564.41032860009,565.1780493000988,0.3020060999551788,None,,,,,,,,,44,001,2020_Jan_03_1117,untitled,3.1.0,59.827326379097755,
_,F,M,180,_,_,_FM180__,N,0,38,38,4,,,1.235,567.4405727999983,567.7407616000855,567.7407616000855,567.8406853000633,567.8576120000798,None,up,3.2815232999855652,567.8576120000798,None,567.8576120000798,569.0736383000622,0.3008059000130743,None,,,,,,,,,44,001,2020_Jan_03_1117,untitled,3.1.0,59.827326379097755,
453,_5,N,180,R,N,453_5N180RN,HRN,0,39,39,276,,,1.292,571.3764850000152,571.6702727000229,571.6702727000229,571.8533691000193,571.8716726000421,None,up,2.8154491999885067,571.8716726000421,None,571.8716726000421,573.1525477000978,0.22235900000669062,None,,,,,,,,,44,001,2020_Jan_03_1117,untitled,3.1.0,59.827326379097755,
303,_2,M,270,L,N,303_2M270LN,HLN,0,40,40,158,,,1.117,574.8977439000737,575.2005550999893,575.2005550999893,575.4004228000995,575.4172178000445,None,up,2.3833572000730783,575.4172178000445,None,575.4172178000445,576.5158901000395,0.19718699995428324,None,,,,,,,,,44,001,2020_Jan_03_1117,untitled,3.1.0,59.827326379097755,
_,_2,M,315,_,_,__2M315__,N,0,41,41,31,,,1.304,578.0152302000206,578.3143367000157,578.3143367000157,578.5151655999944,578.5329343000194,None,None,,578.5329343000194,None,578.5329343000194,579.8299994000699,0.20160370005760342,None,,,,,,,,,44,001,2020_Jan_03_1117,untitled,3.1.0,59.827326379097755,
296,_2,N,315,L,N,296_2N315LN,HLN,0,42,42,255,,,1.2770000000000001,582.2016857999843,582.4939717000816,582.4939717000816,582.7110677000601,582.7282003000146,582.2016857999843,up,3.0311133000068367,582.7282003000146,None,582.7282003000146,583.9788641000632,0.1958322999998927,None,,,,,,,,,44,001,2020_Jan_03_1117,untitled,3.1.0,59.827326379097755,
483,_5,N,90,L,N,483_5N090LN,HLN,0,43,43,282,,,1.088,585.9511176000815,586.2409139000811,586.2409139000811,586.4739358000224,586.4908403999871,None,up,2.000952799920924,586.4908403999871,None,586.4908403999871,587.5565734000411,0.18038100004196167,None,,,,,,,,,44,001,2020_Jan_03_1117,untitled,3.1.0,59.827326379097755,
423,_4,N,270,L,N,423_4N270LN,HLN,0,44,44,270,,,1.149,588.7605197000084,589.0552855000133,589.0552855000133,589.2218378999969,589.2218378999969,None,up,2.182327500078827,589.2218378999969,None,589.2218378999969,590.3709036000073,0.2505919000832364,None,,,,,,,,,44,001,2020_Jan_03_1117,untitled,3.1.0,59.827326379097755,
006,R,N,225,R,N,006RN225RN,HRN,0,45,45,197,,,1.016,591.7159728000406,592.0042022000998,592.0042022000998,592.1190500000957,592.135927000083,None,up,2.0155079000396654,592.135927000083,None,592.135927000083,593.1351159000769,0.29951869999058545,None,,,,,,,,,44,001,2020_Jan_03_1117,untitled,3.1.0,59.827326379097755,
392,_4,N,315,R,N,392_4N315RN,HRN,0,46,46,263,,,1.158,594.3714192000916,594.6669964999892,594.6669964999892,594.8675010000588,594.8846191000193,None,up,1.9168711000820622,594.8846191000193,None,594.8846191000193,596.0333974000532,0.20189839997328818,None,,,,,,,,,44,001,2020_Jan_03_1117,untitled,3.1.0,59.827326379097755,
_,R,N,0,_,_,_RN000__,N,0,47,47,64,,,0.896,597.0457313000225,597.3478305999888,597.3478305999888,597.5144859000575,597.5313720999984,None,up,1.4708729999838397,597.5313720999984,None,597.5313720999984,598.4135983000742,0.22853309998754412,None,,,,,,,,,44,001,2020_Jan_03_1117,untitled,3.1.0,59.827326379097755,
009,R,M,0,R,N,009RM000RN,HRN,0,48,48,96,,,1.364,599.2793381999945,599.5794043000787,599.5794043000787,599.7293758000014,599.745912100072,None,down,2.1175976999802515,599.745912100072,None,599.745912100072,601.0947346000466,0.2566253000404686,None,,,,,,,,,44,001,2020_Jan_03_1117,untitled,3.1.0,59.827326379097755,
197,G,N,180,R,N,197GN180RN,HRN,0,49,49,228,,,1.229,602.1092405000236,602.4103026000084,602.4103026000084,602.5765187999932,602.5932940000203,None,up,2.5697593999793753,602.5932940000203,None,602.5932940000203,603.8093117000535,0.230087099946104,None,,,,,,,,,44,001,2020_Jan_03_1117,untitled,3.1.0,59.827326379097755,
429,_4,M,180,L,N,429_4M180LN,HLN,0,50,50,172,,,1.061,605.4749349000631,605.7739508000668,605.7739508000668,605.8905574000673,605.9073432000587,None,up,1.9186848000390455,605.9073432000587,None,605.9073432000587,606.9562576999888,0.2911992999725044,None,,,,,,,,,44,001,2020_Jan_03_1117,untitled,3.1.0,59.827326379097755,
454,_5,N,225,R,N,454_5N225RN,HRN,0,51,51,277,,,0.754,608.0533544000937,608.3403374000918,608.3403374000918,608.5392731000902,608.5575611999957,None,up,1.5643310999730602,608.5575611999957,None,608.5575611999957,609.3039844000014,0.21264029992744327,None,,,,,,,,,44,001,2020_Jan_03_1117,untitled,3.1.0,59.827326379097755,
464,_5,M,315,R,N,464_5M315RN,HRN,0,52,52,183,,,1.062,610.466967400047,610.7695991999935,610.7695991999935,610.8366370000876,610.8541057000402,None,down,3.064153700019233,610.8541057000402,None,610.8541057000402,611.9019252000144,0.33042739995289594,None,,,,,,,,,44,001,2020_Jan_03_1117,untitled,3.1.0,59.827326379097755,
301,_2,M,180,L,N,301_2M180LN,HLN,0,53,53,156,,,1.2650000000000001,614.2819278000388,614.5832304999931,614.5832304999931,614.6333364000311,614.65210940002,None,up,2.9300983999855816,614.65210940002,None,614.65210940002,615.8985174000263,0.3488688999786973,None,,,,,,,,,44,001,2020_Jan_03_1117,untitled,3.1.0,59.827326379097755,
045,R,M,180,L,N,045RM180LN,HLN,0,54,54,108,,,1.1,617.8976875999942,618.1969060000265,618.1969060000265,618.2964271000819,618.3130837000208,None,None,,618.3130837000208,None,618.3130837000208,619.3956936000613,0.3029508999316022,None,,,,,,,,,44,001,2020_Jan_03_1117,untitled,3.1.0,59.827326379097755,
_,R,M,315,_,_,_RM315__,N,0,55,55,23,,,1.171,621.9994803000009,622.2927408000687,622.2927408000687,622.4931490999879,622.5093463000376,621.9994803000009,down,2.132717499975115,622.5093463000376,None,622.5093463000376,623.6583283999935,0.21119619999080896,None,,,,,,,,,44,001,2020_Jan_03_1117,untitled,3.1.0,59.827326379097755,
_,_5,M,0,_,_,__5M000__,N,0,56,56,40,,,1.338,624.8373955000425,625.1258802000666,625.1258802000666,625.3570701000281,625.3735563000664,None,down,2.650789299979806,625.3735563000664,None,625.3735563000664,626.7061088000191,0.18201280001085252,None,,,,,,,,,44,001,2020_Jan_03_1117,untitled,3.1.0,59.827326379097755,
015,R,M,270,R,N,015RM270RN,HRN,0,57,57,102,,,1.155,628.2648309000069,628.5564756999956,628.5564756999956,628.7373028000584,628.7539339000359,None,down,2.633328799973242,628.7539339000359,None,628.7539339000359,629.8871180000715,0.22624050010927022,None,,,,,,,,,44,001,2020_Jan_03_1117,untitled,3.1.0,59.827326379097755,
_,R,M,135,_,_,_RM135__,N,0,58,58,19,,,1.0090000000000001,631.6121259999927,631.9010261000367,631.9010261000367,632.1009199999971,632.1176486000186,None,down,2.648893699981272,632.1176486000186,None,632.1176486000186,633.1168603000697,0.21235849999357015,None,,,,,,,,,44,001,2020_Jan_03_1117,untitled,3.1.0,59.827326379097755,
_,_5,M,180,_,_,__5M180__,N,0,59,59,44,,,0.73,635.0650078000035,635.364886000054,635.364886000054,635.4810574000003,635.4978631000267,None,up,2.3159580999054015,635.4978631000267,None,635.4978631000267,636.2141093000537,0.2848493999335915,None,,,,,,,,,44,001,2020_Jan_03_1117,untitled,3.1.0,59.827326379097755,
262,_2,N,225,R,N,262_2N225RN,HRN,0,60,60,245,,,1.18,638.0406907000579,638.3286653000396,638.3286653000396,638.5296906000003,638.5468239000766,None,up,2.1161900999723002,638.5468239000766,None,638.5468239000766,639.7107944000745,0.21308739995583892,None,,,,,,,,,44,001,2020_Jan_03_1117,untitled,3.1.0,59.827326379097755,
391,_4,N,270,R,N,391_4N270RN,HRN,0,61,61,262,,,0.719,640.9006077999948,641.1933235999895,641.1933235999895,641.376631500083,641.3940264000557,None,up,1.8498510000063106,641.3940264000557,None,641.3940264000557,642.0929378999863,0.22262900008354336,None,,,,,,,,,44,001,2020_Jan_03_1117,untitled,3.1.0,59.827326379097755,
_,_2,N,135,_,_,__2N135__,N,0,62,62,75,,,1.224,643.4767782000126,643.7739601000212,643.7739601000212,643.9571352000348,643.9740069000982,None,up,2.9160602999618277,643.9740069000982,None,643.9740069000982,645.1914529000642,0.2169333000201732,None,,,,,,,,,44,001,2020_Jan_03_1117,untitled,3.1.0,59.827326379097755,
227,G,N,90,L,N,227GN090LN,HLN,0,63,63,234,,,1.212,647.2040549000958,647.5041794000426,647.5041794000426,647.6040355000878,647.6206158000277,None,up,2.1341182999312878,647.6206158000277,None,647.6206158000277,648.8193727000616,0.3005055000539869,None,,,,,,,,,44,001,2020_Jan_03_1117,untitled,3.1.0,59.827326379097755,
494,_5,M,225,L,N,494_5M225LN,HLN,0,64,64,189,,,1.272,649.9813610999845,650.2696984000504,650.2696984000504,650.4680395000614,650.484892000095,None,up,2.16615029994864,650.484892000095,None,650.484892000095,651.7508189000655,0.21306420001201332,None,,,,,,,,,44,001,2020_Jan_03_1117,untitled,3.1.0,59.827326379097755,
386,_4,N,45,R,N,386_4N045RN,HRN,0,65,65,257,,,1.361,652.8765691000735,653.1674713999964,653.1674713999964,653.365699200076,653.3825306000654,None,up,2.0501590999774635,653.3825306000654,None,653.3825306000654,654.7312836000929,0.21135690005030483,None,,,,,,,,,44,001,2020_Jan_03_1117,untitled,3.1.0,59.827326379097755,
238,G,M,225,L,N,238GM225LN,HLN,0,66,66,141,,,1.2610000000000001,655.6580399000086,655.9486297999974,655.9486297999974,656.147255100077,656.1661006000359,None,down,3.3786068999907,656.1661006000359,None,656.1661006000359,657.4130731000332,0.21289660001639277,None,,,,,,,,,44,001,2020_Jan_03_1117,untitled,3.1.0,59.827326379097755,
239,G,M,270,L,N,239GM270LN,HLN,0,67,67,142,,,0.778,659.7265868000686,660.0261555000907,660.0261555000907,660.2596814000281,660.2765133000212,None,down,2.2661468000151217,660.2765133000212,None,660.2765133000212,661.0435214000754,0.16931280004791915,None,,,,,,,,,44,001,2020_Jan_03_1117,untitled,3.1.0,59.827326379097755,
_,_4,M,315,_,_,__4M315__,N,0,68,68,39,,,1.096,662.7618362000212,663.0570344000589,663.0570344000589,663.2570069000358,663.2735489000333,None,up,2.566134700085968,663.2735489000333,None,663.2735489000333,664.35638630006,0.20600629993714392,None,,,,,,,,,44,001,2020_Jan_03_1117,untitled,3.1.0,59.827326379097755,
001,R,N,0,R,N,001RN000RN,HRN,0,69,69,192,,,0.887,666.1654529999942,666.4544087999966,666.4544087999966,666.5543188999873,666.5709956000792,None,up,1.616711699985899,666.5709956000792,None,666.5709956000792,667.4366158000194,0.30968449998181313,None,,,,,,,,,44,001,2020_Jan_03_1117,untitled,3.1.0,59.827326379097755,
_,_2,N,45,_,_,__2N045__,N,0,70,70,73,,,1.397,668.4023095000302,668.7023112000898,668.7023112000898,668.9020154000027,668.9188734000782,None,up,2.3159462000476196,668.9188734000782,None,668.9188734000782,670.3007975000655,0.19931300007738173,None,,,,,,,,,44,001,2020_Jan_03_1117,untitled,3.1.0,59.827326379097755,
208,G,M,315,R,N,208GM315RN,HRN,0,71,71,135,,,1.242,671.5333548000781,671.832737000077,671.832737000077,671.9493936999934,671.966255000094,None,down,2.8325429999968037,671.966255000094,None,671.966255000094,673.1996721000178,0.2834696000209078,None,,,,,,,,,44,001,2020_Jan_03_1117,untitled,3.1.0,59.827326379097755,
432,_4,M,315,L,N,432_4M315LN,HLN,0,72,72,175,,,1.312,674.9999520999845,675.2963467000518,675.2963467000518,675.5129875000566,675.529627299984,None,up,2.917261300026439,675.529627299984,None,675.529627299984,676.8299088000786,0.18273790006060153,None,,,,,,,,,44,001,2020_Jan_03_1117,untitled,3.1.0,59.827326379097755,
044,R,M,135,L,N,044RM135LN,HLN,0,73,73,107,,,1.3940000000000001,678.7852555999998,679.0765562000452,679.0765562000452,679.1614019999979,679.1782827000134,None,down,2.8968243999406695,679.1782827000134,None,679.1782827000134,680.5585862000007,0.3264867999823764,None,,,,,,,,,44,001,2020_Jan_03_1117,untitled,3.1.0,59.827326379097755,
_,_5,N,135,_,_,__5N135__,N,0,74,74,91,,,0.742,682.300419999985,682.5909662999911,682.5909662999911,682.7899041000055,682.8075836000498,None,up,3.231946300016716,682.8075836000498,None,682.8075836000498,683.5398075000849,0.2126429999480024,None,,,,,,,,,44,001,2020_Jan_03_1117,untitled,3.1.0,59.827326379097755,
_,F,N,315,_,_,_FN315__,N,0,75,75,55,,,0.9530000000000001,686.2744414000772,686.5700241000159,686.5700241000159,686.7531776000978,686.7703718000557,None,up,2.501139000058174,686.7703718000557,None,686.7703718000557,687.7036239000736,0.22154629998840392,None,,,,,,,,,44,001,2020_Jan_03_1117,untitled,3.1.0,59.827326379097755,
428,_4,M,135,L,N,428_4M135LN,HLN,0,76,76,171,,,0.994,689.5159661000362,689.8173878000816,689.8173878000816,689.9842008000705,690.000956700067,None,down,2.5164113000500947,690.000956700067,None,690.000956700067,690.9827166000614,0.23053499998059124,None,,,,,,,,,44,001,2020_Jan_03_1117,untitled,3.1.0,59.827326379097755,
175,F,M,270,L,N,175FM270LN,HLN,0,77,77,126,,,1.0010000000000001,692.8163110000314,693.1145361000672,693.1145361000672,693.2308853000868,693.2484669000842,None,down,2.4148085999768227,693.2484669000842,None,693.2484669000842,694.230195500073,0.28618010005448014,None,,,,,,,,,44,001,2020_Jan_03_1117,untitled,3.1.0,59.827326379097755,
200,G,N,315,R,N,200GN315RN,HRN,0,78,78,231,,,1.185,695.8706513000652,696.1623859000392,696.1623859000392,696.3780263999943,696.3950290000066,None,up,2.0513971999753267,696.3950290000066,None,696.3950290000066,697.5622913000407,0.19437519996427,None,,,,,,,,,44,001,2020_Jan_03_1117,untitled,3.1.0,59.827326379097755,
_,F,N,90,_,_,_FN090__,N,0,79,79,50,,,0.81,698.7865022000624,699.0759319000645,699.0759319000645,699.1604929000605,699.1788215000415,None,up,2.1634593999478966,699.1788215000415,None,699.1788215000415,699.9759527000133,0.3264656000537798,None,,,,,,,,,44,001,2020_Jan_03_1117,untitled,3.1.0,59.827326379097755,
234,G,M,45,L,N,234GM045LN,HLN,0,80,80,137,,,1.058,701.629030900076,701.9238723000744,701.9238723000744,702.0572395999916,702.0749360000482,None,down,2.148736899951473,702.0749360000482,None,702.0749360000482,703.122565900092,0.2718393000541255,None,,,,,,,,,44,001,2020_Jan_03_1117,untitled,3.1.0,59.827326379097755,
456,_5,N,315,R,N,456_5N315RN,HRN,0,81,81,279,,,1.337,704.4739895000821,704.7711623000214,704.7711623000214,704.9376033000881,704.9548489000881,None,up,3.182035900070332,704.9548489000881,None,704.9548489000881,706.2865577000193,0.23521379998419434,None,,,,,,,,,44,001,2020_Jan_03_1117,untitled,3.1.0,59.827326379097755,
_,_2,N,90,_,_,__2N090__,N,0,82,82,74,,,0.875,708.3995288000442,708.7189847000409,708.7189847000409,708.8444436000427,708.8602699000621,None,up,2.8557300999527797,708.8602699000621,None,708.8602699000621,709.7332938000327,0.2491370999487117,None,,,,,,,,,44,001,2020_Jan_03_1117,untitled,3.1.0,59.827326379097755,
458,_5,M,45,R,N,458_5M045RN,HRN,0,83,83,177,,,0.9440000000000001,711.905019100057,712.1977554000914,712.1977554000914,712.4306423000526,712.4485944000771,None,down,3.1818879999918863,712.4485944000771,None,712.4485944000771,713.379884700058,0.1774855999974534,None,,,,,,,,,44,001,2020_Jan_03_1117,untitled,3.1.0,59.827326379097755,
_,_2,M,0,_,_,__2M000__,N,0,84,84,24,,,0.906,715.8298884000396,716.1273468000581,716.1273468000581,716.3440013000509,716.3607280000579,None,down,3.1671379000181332,716.3607280000579,None,716.3607280000579,717.2600146000041,0.18717019993346184,None,,,,,,,,,44,001,2020_Jan_03_1117,untitled,3.1.0,59.827326379097755,
398,_4,M,225,R,N,398_4M225RN,HRN,0,85,85,165,,,1.205,719.72262460005,720.0248365000589,720.0248365000589,720.2415737000993,720.2590941000963,None,None,,720.2590941000963,None,720.2590941000963,721.4562774000224,0.1826439000433311,None,,,,,,,,,44,001,2020_Jan_03_1117,untitled,3.1.0,59.827326379097755,
463,_5,M,270,R,N,463_5M270RN,HRN,0,86,86,182,,,1.354,724.066151700099,724.3549531000899,724.3549531000899,724.4372228999855,724.4545579000842,724.066151700099,down,3.030908999964595,724.4545579000842,None,724.4545579000842,725.7858999000164,0.3329032000619918,None,,,,,,,,,44,001,2020_Jan_03_1117,untitled,3.1.0,59.827326379097755,
_,_5,M,45,_,_,__5M045__,N,0,87,87,41,,,0.912,727.6990758000175,728.0005320000928,728.0005320000928,728.2005833000876,728.2176270000637,None,down,2.4992278999416158,728.2176270000637,None,728.2176270000637,729.1163328000112,0.2013569000409916,None,,,,,,,,,44,001,2020_Jan_03_1117,untitled,3.1.0,59.827326379097755,
139,F,M,90,R,N,139FM090RN,HRN,0,88,88,114,,,1.33,730.9330975000048,731.2309595000697,731.2309595000697,731.4312534000492,731.4560770000098,None,down,2.425917499931529,731.4560770000098,None,731.4560770000098,732.7628383000847,0.2024995000101626,None,,,,,,,,,44,001,2020_Jan_03_1117,untitled,3.1.0,59.827326379097755,
_,G,N,135,_,_,_GN135__,N,0,89,89,59,,,0.7010000000000001,734.1172626999905,734.4114463999867,734.4114463999867,734.5950013000984,734.6120785000967,None,up,2.4328734000446275,734.6120785000967,None,734.6120785000967,735.3119314000942,0.22013780009001493,None,,,,,,,,,44,001,2020_Jan_03_1117,untitled,3.1.0,59.827326379097755,
140,F,M,135,R,N,140FM135RN,HRN,0,90,90,115,,,1.0030000000000001,737.2884978000075,737.5761916000629,737.5761916000629,737.7588060999988,737.775849500089,None,down,2.287273099995218,737.775849500089,None,737.775849500089,738.7739925000351,0.22797840007115155,None,,,,,,,,,44,001,2020_Jan_03_1117,untitled,3.1.0,59.827326379097755,
_,R,N,180,_,_,_RN180__,N,0,91,91,68,,,1.362,740.3130931000924,740.6058133000042,740.6058133000042,740.7894533000654,740.7894533000654,None,up,2.9996758999768645,740.7894533000654,None,740.7894533000654,742.1382735000225,0.23600209993310273,None,,,,,,,,,44,001,2020_Jan_03_1117,untitled,3.1.0,59.827326379097755,
037,R,N,180,L,N,037RN180LN,HLN,0,92,92,204,,,1.1380000000000001,744.1046171000926,744.4027000000933,744.4027000000933,744.5026033000322,744.5196566000814,None,up,2.9152230999898165,744.5196566000814,None,744.5196566000814,745.6514606000856,0.3014259999617934,None,,,,,,,,,44,001,2020_Jan_03_1117,untitled,3.1.0,59.827326379097755,
167,F,N,270,L,N,167FN270LN,HLN,0,93,93,222,,,1.286,747.7150241000345,748.014551200089,748.014551200089,748.1495134000434,748.1677273000823,None,up,2.733633999945596,748.1677273000823,None,748.1677273000823,749.4316922000144,0.26646019995678216,None,,,,,,,,,44,001,2020_Jan_03_1117,untitled,3.1.0,59.827326379097755,
495,_5,M,270,L,N,495_5M270LN,HLN,0,94,94,190,,,0.838,751.1150449000997,751.4136008000933,751.4136008000933,751.6133352000033,751.630248600035,None,down,1.9839156999951228,751.630248600035,None,751.630248600035,752.4631672000978,0.1996008000569418,None,,,,,,,,,44,001,2020_Jan_03_1117,untitled,3.1.0,59.827326379097755,
_,R,N,45,_,_,_RN045__,N,0,95,95,65,,,1.063,753.8297691000625,754.1275989999995,754.1275989999995,754.327692000079,754.3444101000205,None,up,1.868797400034964,754.3444101000205,None,754.3444101000205,755.3947315000696,0.20072650001384318,None,,,,,,,,,44,001,2020_Jan_03_1117,untitled,3.1.0,59.827326379097755,
452,_5,N,135,R,N,452_5N135RN,HRN,0,96,96,275,,,1.2570000000000001,756.4195652999915,756.7087484000949,756.7087484000949,756.9252441000426,756.9421082000481,None,up,3.38204759999644,756.9421082000481,None,756.9421082000481,758.1912691000616,0.1921779999975115,None,,,,,,,,,44,001,2020_Jan_03_1117,untitled,3.1.0,59.827326379097755,
462,_5,M,225,R,N,462_5M225RN,HRN,0,97,97,181,,,0.753,760.5375289000804,760.8381483000703,760.8381483000703,761.038198400056,761.0550094000064,None,down,2.732553399982862,761.0550094000064,None,761.0550094000064,761.7875911000883,0.2014740000013262,None,,,,,,,,,44,001,2020_Jan_03_1117,untitled,3.1.0,59.827326379097755,
170,F,M,45,L,N,170FM045LN,HLN,0,98,98,121,,,0.995,763.9708436999936,764.2686382000102,764.2686382000102,764.5027189000975,764.5209167000139,None,down,2.597791900043376,764.5209167000139,None,764.5209167000139,765.5010381999891,0.1715216999873519,None,,,,,,,,,44,001,2020_Jan_03_1117,untitled,3.1.0,59.827326379097755,
289,_2,N,0,L,N,289_2N000LN,HLN,0,99,99,248,,,1.308,767.4393694000319,767.7329364999896,767.7329364999896,767.8330848000478,767.8502662000246,None,up,2.5984049000544474,767.8502662000246,None,767.8502662000246,769.1478624000447,0.30523279996123165,None,,,,,,,,,44,001,2020_Jan_03_1117,untitled,3.1.0,59.827326379097755,
_,_5,N,45,_,_,__5N045__,N,0,100,100,89,,,1.363,770.8015951000853,771.1208152000327,771.1208152000327,771.1658159000799,771.1851416000864,None,up,2.178898199927062,771.1851416000864,None,771.1851416000864,772.5283393000718,0.3393409999553114,None,,,,,,,,,44,001,2020_Jan_03_1117,untitled,3.1.0,59.827326379097755,
_,F,M,270,_,_,_FM270__,N,0,101,101,6,,,1.1320000000000001,773.6712869000621,773.9604235000443,773.9604235000443,774.0771746000974,774.093821000075,None,down,2.265938499942422,774.093821000075,None,774.093821000075,775.209167700028,0.2936757999705151,None,,,,,,,,,44,001,2020_Jan_03_1117,untitled,3.1.0,59.827326379097755,
492,_5,M,135,L,N,492_5M135LN,HLN,0,102,102,187,,,1.113,776.5775843000738,776.8744785999879,776.8744785999879,777.0759564000182,777.0924245000351,None,down,2.3816628999775276,777.0924245000351,None,777.0924245000351,778.190072300029,0.20468690001871437,None,,,,,,,,,44,001,2020_Jan_03_1117,untitled,3.1.0,59.827326379097755,
424,_4,N,315,L,N,424_4N315LN,HLN,0,103,103,271,,,1.11,779.6908071000362,779.9884969000705,779.9884969000705,780.1881913000252,780.2060901999939,None,down,2.747793799964711,780.2060901999939,None,780.2060901999939,781.3042785000289,0.2038703999714926,None,,,,,,,,,44,001,2020_Jan_03_1117,untitled,3.1.0,59.827326379097755,
489,_5,M,0,L,N,489_5M000LN,HLN,0,104,104,184,,,0.73,783.2062812000513,783.5024923000019,783.5024923000019,783.6688562000636,783.6861578000244,None,down,2.182226400007494,783.6861578000244,None,783.6861578000244,784.4017349000787,0.2375806999625638,None,,,,,,,,,44,001,2020_Jan_03_1117,untitled,3.1.0,59.827326379097755,
136,F,N,315,R,N,136FN315RN,HRN,0,105,105,215,,,1.379,786.1117503000423,786.4015793000581,786.4015793000581,786.5836486000335,786.6009992000181,None,up,2.348699999973178,786.6009992000181,None,786.6009992000181,787.9645449999953,0.22719799994956702,None,,,,,,,,,44,001,2020_Jan_03_1117,untitled,3.1.0,59.827326379097755,
047,R,M,270,L,N,047RM270LN,HLN,0,106,106,110,,,1.318,789.1518673000392,789.4466325000394,789.4466325000394,789.6630040000891,789.6796748000197,None,down,2.9163274000165984,789.6796748000197,None,789.6796748000197,790.9785449000774,0.1891577000496909,None,,,,,,,,,44,001,2020_Jan_03_1117,untitled,3.1.0,59.827326379097755,
291,_2,N,90,L,N,291_2N090LN,HLN,0,107,107,250,,,1.2510000000000001,792.827104200027,793.1267663000617,793.1267663000617,793.3101344000315,793.3271468000021,None,up,2.166192500037141,793.3271468000021,None,793.3271468000021,794.5587496000808,0.21867810003459454,None,,,,,,,,,44,001,2020_Jan_03_1117,untitled,3.1.0,59.827326379097755,
396,_4,M,135,R,N,396_4M135RN,HRN,0,108,108,163,,,0.781,795.7142251000041,796.0077341999859,796.0077341999859,796.2074549000245,796.224671700038,None,down,2.533634899999015,796.224671700038,None,796.224671700038,796.9905666999985,0.20655340002849698,None,,,,,,,,,44,001,2020_Jan_03_1117,untitled,3.1.0,59.827326379097755,
427,_4,M,90,L,N,427_4M090LN,HLN,0,109,109,170,,,0.733,799.0185597999953,799.3070947000524,799.3070947000524,799.4720107000321,799.488984500058,None,down,1.8163027999689803,799.488984500058,None,799.488984500058,800.2057688999921,0.24371870001778007,None,,,,,,,,,44,001,2020_Jan_03_1117,untitled,3.1.0,59.827326379097755,
036,R,N,135,L,N,036RN135LN,HLN,0,110,110,203,,,0.863,801.5149149000645,801.8050624000607,801.8050624000607,802.0206936000613,802.0407105000922,None,up,1.9292436999967322,802.0407105000922,None,802.0407105000922,802.8859420000808,0.19472150004003197,None,,,,,,,,,44,001,2020_Jan_03_1117,untitled,3.1.0,59.827326379097755,
_,_4,M,90,_,_,__4M090__,N,0,111,111,34,,,0.753,804.180067300098,804.4684963000473,804.4684963000473,804.6833707999904,804.7002494999906,None,down,2.4327548999572173,804.7002494999906,None,804.7002494999906,805.4334247000515,0.19655930006410927,None,,,,,,,,,44,001,2020_Jan_03_1117,untitled,3.1.0,59.827326379097755,
485,_5,N,180,L,N,485_5N180LN,HLN,0,112,112,284,,,1.039,807.410201300052,807.6990218000719,807.6990218000719,807.8472846000222,807.8647858999902,None,up,3.0176048999419436,807.8647858999902,None,807.8647858999902,808.8970730000874,0.2612901000538841,None,,,,,,,,,44,001,2020_Jan_03_1117,untitled,3.1.0,59.827326379097755,
_,_5,N,180,_,_,__5N180__,N,0,113,113,92,,,0.935,811.1623859000392,811.4453976000659,811.4453976000659,811.5949966000626,811.6125437000301,None,up,2.1991434999508783,811.6125437000301,None,811.6125437000301,812.5438259000657,0.24893559992779046,None,,,,,,,,,44,001,2020_Jan_03_1117,untitled,3.1.0,59.827326379097755,
173,F,M,180,L,N,173FM180LN,HLN,0,114,114,124,,,1.344,814.0819123000838,814.3753132000566,814.3753132000566,814.5256311000558,814.5428751000436,None,up,3.215502099948935,814.5428751000436,None,814.5428751000436,815.8742883000523,0.25498259998857975,None,,,,,,,,,44,001,2020_Jan_03_1117,untitled,3.1.0,59.827326379097755,
_,F,M,0,_,_,_FM000__,N,0,115,115,0,,,1.066,817.9919554000953,818.288111400092,818.288111400092,818.4728239000542,818.4901204000926,None,down,2.6821201000129804,818.4901204000926,None,818.4901204000926,819.5371701000258,0.21803960006218404,None,,,,,,,,,44,001,2020_Jan_03_1117,untitled,3.1.0,59.827326379097755,
385,_4,N,0,R,N,385_4N000RN,HRN,0,116,116,256,,,1.088,821.3735302999848,821.6687384000979,821.6687384000979,821.8851464000763,821.9018860000651,None,up,1.8995784000726417,821.9018860000651,None,821.9018860000651,822.9842733000405,0.18865939998067915,None,,,,,,,,,44,001,2020_Jan_03_1117,untitled,3.1.0,59.827326379097755,
388,_4,N,135,R,N,388_4N135RN,HRN,0,117,117,259,,,1.357,824.0106230000965,824.2997823000187,824.2997823000187,824.5162183000939,824.5330808000872,None,up,2.599123799940571,824.5330808000872,None,824.5330808000872,825.8816681000171,0.19529920001514256,None,,,,,,,,,44,001,2020_Jan_03_1117,untitled,3.1.0,59.827326379097755,
461,_5,M,180,R,N,461_5M180RN,HRN,0,118,118,180,,,1.033,827.3542050000979,827.6469160000561,827.6469160000561,827.8470645000925,827.8645676000742,None,up,2.5159112999681383,827.8645676000742,None,827.8645676000742,828.8789149000077,0.20864859991706908,None,,,,,,,,,44,001,2020_Jan_03_1117,untitled,3.1.0,59.827326379097755,
_,R,N,135,_,_,_RN135__,N,0,119,119,67,,,0.736,830.5970377000049,830.894183000084,830.894183000084,831.0944450000534,831.1116598000517,None,up,1.6321676999796182,831.1116598000517,None,831.1116598000517,831.8427812000737,0.2018423000117764,None,,,,,,,,,44,001,2020_Jan_03_1117,untitled,3.1.0,59.827326379097755,
039,R,N,270,L,N,039RN270LN,HLN,0,120,120,206,,,0.852,833.1003237999976,833.4167229000013,833.4167229000013,833.4603941000532,833.4774050000124,None,up,1.9475059999385849,833.4774050000124,None,833.4774050000124,834.3079444000032,0.34076190006453544,None,,,,,,,,,44,001,2020_Jan_03_1117,untitled,3.1.0,59.827326379097755,
_,_4,M,270,_,_,__4M270__,N,0,121,121,38,,,0.803,835.6286762000527,835.9228389000054,835.9228389000054,836.1396214000415,836.1574892000062,None,down,1.9807774999644607,836.1574892000062,None,836.1574892000062,836.9385875000153,0.19196219998411834,None,,,,,,,,,44,001,2020_Jan_03_1117,untitled,3.1.0,59.827326379097755,
174,F,M,225,L,N,174FM225LN,HLN,0,122,122,125,,,1.365,838.3556237000739,838.6541014000541,838.6541014000541,838.8537563000573,838.8709255000576,None,down,3.032001500017941,838.8709255000576,None,838.8709255000576,840.2194488000823,0.20417909999378026,None,,,,,,,,,44,001,2020_Jan_03_1117,untitled,3.1.0,59.827326379097755,
_,_4,M,225,_,_,__4M225__,N,0,123,123,37,,,1.17,842.1098006000975,842.4007436000975,842.4007436000975,842.61718140007,842.6340037999908,None,up,2.599724799976684,842.6340037999908,None,842.6340037999908,843.7828188000713,0.19240920001175255,None,,,,,,,,,44,001,2020_Jan_03_1117,untitled,3.1.0,59.827326379097755,
_,F,N,180,_,_,_FN180__,N,0,124,124,52,,,0.8310000000000001,845.5476581000257,845.8479456000496,845.8479456000496,845.9482468999922,845.9647213000571,None,up,2.365005200030282,845.9647213000571,None,845.9647213000571,846.7808793000877,0.2968719999771565,None,,,,,,,,,44,001,2020_Jan_03_1117,untitled,3.1.0,59.827326379097755,
496,_5,M,315,L,N,496_5M315LN,HLN,0,125,125,191,,,0.743,848.5964395999908,848.8949417000404,848.8949417000404,849.1024351000087,849.1024351000087,None,down,1.9919786000391468,849.1024351000087,None,849.1024351000087,849.8024260000093,0.25186740001663566,None,,,,,,,,,44,001,2020_Jan_03_1117,untitled,3.1.0,59.827326379097755,
426,_4,M,45,L,N,426_4M045LN,HLN,0,126,126,169,,,0.78,851.3011076000985,851.5945128999883,851.5945128999883,851.8115318000782,851.8291035000002,None,down,2.8793759000254795,851.8291035000002,None,851.8291035000002,852.5920622000704,0.19350549997761846,None,,,,,,,,,44,001,2020_Jan_03_1117,untitled,3.1.0,59.827326379097755,
267,_2,M,90,R,N,267_2M090RN,HRN,0,127,127,146,,,1.153,855.0176228000782,855.3093314000871,855.3093314000871,855.4235915000318,855.4433089999948,None,down,2.6460777000756934,855.4433089999948,None,855.4433089999948,856.5715788000962,0.29472460004035383,None,,,,,,,,,44,001,2020_Jan_03_1117,untitled,3.1.0,59.827326379097755,
459,_5,M,90,R,N,459_5M090RN,HRN,0,128,128,178,,,1.303,858.3285734000383,858.6205098000355,858.6205098000355,858.8032369000139,858.8201159000164,None,down,2.4828852999489754,858.8201159000164,None,858.8201159000164,860.1183386000339,0.2218962999759242,None,,,,,,,,,44,001,2020_Jan_03_1117,untitled,3.1.0,59.827326379097755,
484,_5,N,135,L,N,484_5N135LN,HLN,0,129,129,283,,,1.289,861.5431926000165,861.8339750000741,861.8339750000741,862.0172160000075,862.0340820000274,None,up,2.305800399975851,862.0340820000274,None,862.0340820000274,863.315778200049,0.2247661999426782,None,,,,,,,,,44,001,2020_Jan_03_1117,untitled,3.1.0,59.827326379097755,
_,R,N,225,_,_,_RN225__,N,0,130,130,69,,,1.1380000000000001,864.6700508000795,864.9666183000663,864.9666183000663,865.0641031000996,865.0807873000158,None,up,2.31623439991381,865.0807873000158,None,865.0807873000158,866.1979978000745,0.3073099999455735,None,,,,,,,,,44,001,2020_Jan_03_1117,untitled,3.1.0,59.827326379097755,
_,G,N,90,_,_,_GN090__,N,0,131,131,58,,,0.8220000000000001,867.6985631000716,867.9947993000969,867.9947993000969,868.1115173000144,868.1281709000468,None,up,1.9829637999646366,868.1281709000468,None,868.1281709000468,868.9442534000846,0.2885126000037417,None,,,,,,,,,44,001,2020_Jan_03_1117,untitled,3.1.0,59.827326379097755,
232,G,N,315,L,N,232GN315LN,HLN,0,132,132,239,,,0.755,870.3418439000379,870.642766600009,870.642766600009,870.8256139000878,870.84279470006,None,up,2.0002487000310794,870.84279470006,None,870.84279470006,871.5916374000954,0.2175793000496924,None,,,,,,,,,44,001,2020_Jan_03_1117,untitled,3.1.0,59.827326379097755,
196,G,N,135,R,N,196GN135RN,HRN,0,133,133,227,,,1.123,873.0499277000781,873.3403640000615,873.3403640000615,873.5566683000652,873.5735515999841,None,up,2.5656280999537557,873.5735515999841,None,873.5735515999841,874.6893853000365,0.19439650001004338,None,,,,,,,,,44,001,2020_Jan_03_1117,untitled,3.1.0,59.827326379097755,
419,_4,N,90,L,N,419_4N090LN,HLN,0,134,134,266,,,1.063,876.4078093999997,876.7041335999966,876.7041335999966,876.8540182000725,876.8708906000247,None,down,2.43397430004552,876.8708906000247,None,876.8708906000247,877.9204009000678,0.25491759995929897,None,,,,,,,,,44,001,2020_Jan_03_1117,untitled,3.1.0,59.827326379097755,
450,_5,N,45,R,N,450_5N045RN,HRN,0,135,135,273,,,1.381,879.6396445999853,879.934909200063,879.934909200063,880.0183046000311,880.0353185000131,None,up,2.1344708999386057,880.0353185000131,None,880.0353185000131,881.3996283999877,0.3201228999532759,None,,,,,,,,,44,001,2020_Jan_03_1117,untitled,3.1.0,59.827326379097755,
_,_4,N,315,_,_,__4N315__,N,0,136,136,87,,,1.1340000000000001,882.3881163999904,882.6822044000728,882.6822044000728,882.8819610000355,882.8986418000422,None,down,2.316379399970174,882.8986418000422,None,882.8986418000422,884.0151802999899,0.20329260011203587,None,,,,,,,,,44,001,2020_Jan_03_1117,untitled,3.1.0,59.827326379097755,
_,R,M,0,_,_,_RM000__,N,0,137,137,16,,,1.2650000000000001,885.4319353000028,885.7292226999998,885.7292226999998,885.9291269000387,885.9458082000492,None,down,2.332725999993272,885.9458082000492,None,885.9458082000492,887.2174509000033,0.202511899988167,None,,,,,,,,,44,001,2020_Jan_03_1117,untitled,3.1.0,59.827326379097755,
290,_2,N,45,L,N,290_2N045LN,HLN,0,138,138,249,,,1.169,888.5027272000443,888.7934345999965,888.7934345999965,888.9935201000189,889.0101173000876,None,up,2.9675894000101835,889.0101173000876,None,889.0101173000876,890.1613657000707,0.2090073999715969,None,,,,,,,,,44,001,2020_Jan_03_1117,untitled,3.1.0,59.827326379097755,
_,_5,M,225,_,_,__5M225__,N,0,139,139,45,,,1.0170000000000001,892.3210782000097,892.6085175999906,892.6085175999906,892.6901651000371,892.7069701000582,None,None,,892.7069701000582,None,892.7069701000582,893.7063658999978,0.3276721000438556,None,,,,,,,,,44,001,2020_Jan_03_1117,untitled,3.1.0,59.827326379097755,
176,F,M,315,L,N,176FM315LN,HLN,0,140,140,127,,,1.1400000000000001,896.3761534000514,896.6698316000402,896.6698316000402,896.9029824000318,896.9029824000318,896.3761534000514,down,2.0996088000247255,896.9029824000318,None,896.9029824000318,898.0357557000825,0.1861337999580428,None,,,,,,,,,44,001,2020_Jan_03_1117,untitled,3.1.0,59.827326379097755,
133,F,N,180,R,N,133FN180RN,HRN,0,141,141,212,,,1.307,899.2067273000721,899.5007189000025,899.5007189000025,899.7172936000861,899.7339110000758,None,up,2.667436599964276,899.7339110000758,None,899.7339110000758,901.0328922000481,0.1895348000107333,None,,,,,,,,,44,001,2020_Jan_03_1117,untitled,3.1.0,59.827326379097755,
_,_4,M,45,_,_,__4M045__,N,0,142,142,33,,,1.028,902.6070551000303,902.8976041000569,902.8976041000569,903.1146386000328,903.1308160000481,None,down,2.2018578000133857,903.1308160000481,None,903.1308160000481,904.1468694000505,0.19311049999669194,None,,,,,,,,,44,001,2020_Jan_03_1117,untitled,3.1.0,59.827326379097755,
422,_4,N,225,L,N,422_4N225LN,HLN,0,143,143,269,,,0.992,905.5514588000951,905.8451442000223,905.8451442000223,906.0451187000144,906.0618440000108,None,up,2.38422000000719,906.0618440000108,None,906.0618440000108,907.044988000067,0.20646840007975698,None,,,,,,,,,44,001,2020_Jan_03_1117,untitled,3.1.0,59.827326379097755,
_,F,M,315,_,_,_FM315__,N,0,144,144,7,,,0.8,908.8062317000004,909.1071618000278,909.1071618000278,909.162071900093,909.1800678999862,None,down,1.7521565000060946,909.1800678999862,None,909.1800678999862,909.9583009000635,0.3438618000363931,None,,,,,,,,,44,001,2020_Jan_03_1117,untitled,3.1.0,59.827326379097755,
_,_2,M,45,_,_,__2M045__,N,0,145,145,25,,,1.3960000000000001,911.2007933000568,911.4904480000259,911.4904480000259,911.6576864999952,911.6741691000061,None,down,2.9313869000179693,911.6741691000061,None,911.6741691000061,913.0554868000327,0.2472000999841839,None,,,,,,,,,44,001,2020_Jan_03_1117,untitled,3.1.0,59.827326379097755,
164,F,N,135,L,N,164FN135LN,HLN,0,146,146,219,,,1.09,914.8812329000793,915.1729592999909,915.1729592999909,915.3198883000296,915.336787700071,None,up,2.0659732000203803,915.336787700071,None,915.336787700071,916.4191396000097,0.26347340003121644,None,,,,,,,,,44,001,2020_Jan_03_1117,untitled,3.1.0,59.827326379097755,
_,F,N,45,_,_,_FN045__,N,0,147,147,49,,,0.8220000000000001,917.694575700094,917.9844711000333,917.9844711000333,918.1176906999899,918.1346137000946,None,up,1.4170992999570444,918.1346137000946,None,918.1346137000946,918.9507133000297,0.2778824999695644,None,,,,,,,,,44,001,2020_Jan_03_1117,untitled,3.1.0,59.827326379097755,
230,G,N,225,L,N,230GN225LN,HLN,0,148,148,237,,,1.115,919.7414947000798,920.0327458000975,920.0327458000975,920.2657457999885,920.2824845000869,None,up,2.216197400004603,920.2824845000869,None,920.2824845000869,921.3814768000739,0.17709760006982833,None,,,,,,,,,44,001,2020_Jan_03_1117,untitled,3.1.0,59.827326379097755,
194,G,N,45,R,N,194GN045RN,HRN,0,149,149,225,,,1.391,922.7278280000901,923.0159923000028,923.0159923000028,923.2140508000739,923.2307614000747,None,up,2.133248000056483,923.2307614000747,None,923.2307614000747,924.6127947000787,0.21265100000891834,None,,,,,,,,,44,001,2020_Jan_03_1117,untitled,3.1.0,59.827326379097755,
013,R,M,180,R,N,013RM180RN,HRN,0,150,150,100,,,0.9450000000000001,925.7169902999885,926.0107857000548,926.0107857000548,926.0778097000439,926.0944932000712,None,down,3.1167586999945343,926.0944932000712,None,926.0944932000712,927.0278973000823,0.3376096000429243,None,,,,,,,,,44,001,2020_Jan_03_1117,untitled,3.1.0,59.827326379097755,
012,R,M,135,R,N,012RM135RN,HRN,0,151,151,99,,,0.726,929.3984703000169,929.6909122000216,929.6909122000216,929.9240091000684,929.9406245000428,None,down,1.7844353000400588,929.9406245000428,None,929.9406245000428,930.6564507000148,0.17500010004732758,None,,,,,,,,,44,001,2020_Jan_03_1117,untitled,3.1.0,59.827326379097755,
014,R,M,225,R,N,014RM225RN,HRN,0,152,152,101,,,0.738,931.9314675000496,932.2220319000771,932.2220319000771,932.4384426000761,932.4551684000762,None,down,2.0987644999986514,932.4551684000762,None,932.4551684000762,933.1730305000674,0.19331739994231611,None,,,,,,,,,44,001,2020_Jan_03_1117,untitled,3.1.0,59.827326379097755,
263,_2,N,270,R,N,263_2N270RN,HRN,0,153,153,246,,,0.777,934.7567989000818,935.053013500059,935.053013500059,935.269613899989,935.2868528000545,None,up,1.8490368000930175,935.2868528000545,None,935.2868528000545,936.0391341000795,0.19091349991504103,None,,,,,,,,,44,001,2020_Jan_03_1117,untitled,3.1.0,59.827326379097755,
449,_5,N,0,R,N,449_5N000RN,HRN,0,154,154,272,,,0.842,937.3565165000036,937.6510494000977,937.6510494000977,937.851086000097,937.8679391000187,None,up,1.4844102000351995,937.8679391000187,None,937.8679391000187,938.7009163000621,0.2076147000771016,None,,,,,,,,,44,001,2020_Jan_03_1117,untitled,3.1.0,59.827326379097755,
_,G,M,45,_,_,_GM045__,N,0,155,155,9,,,0.984,939.6704243000131,939.9657057999866,939.9657057999866,940.0660767999943,940.0826981000137,None,down,2.150694999960251,940.0826981000137,None,940.0826981000137,941.047842000029,0.30345959996338934,None,,,,,,,,,44,001,2020_Jan_03_1117,untitled,3.1.0,59.827326379097755,
_,_2,N,315,_,_,__2N315__,N,0,156,156,79,,,0.9380000000000001,942.5250194000546,942.8129431999987,942.8129431999987,942.9460907999892,942.9626738000661,None,up,1.8832081999862567,942.9626738000661,None,942.9626738000661,943.8962034999859,0.27302149997558445,None,,,,,,,,,44,001,2020_Jan_03_1117,untitled,3.1.0,59.827326379097755,
399,_4,M,270,R,N,399_4M270RN,HRN,0,157,157,166,,,0.9550000000000001,945.0350944000529,945.3273975000484,945.3273975000484,945.5602824999951,945.5771885000868,None,down,1.8838514999952167,945.5771885000868,None,945.5771885000868,946.5262660000008,0.17634719994384795,None,,,,,,,,,44,001,2020_Jan_03_1117,untitled,3.1.0,59.827326379097755,
040,R,N,315,L,N,040RN315LN,HLN,0,158,158,207,,,0.865,947.674636800075,947.9749326000456,947.9749326000456,948.1748642000603,948.1919958000071,None,up,1.7501247000182047,948.1919958000071,None,948.1919958000071,949.0412061000243,0.20059449994005263,None,,,,,,,,,44,001,2020_Jan_03_1117,untitled,3.1.0,59.827326379097755,
431,_4,M,270,L,N,431_4M270LN,HLN,0,159,159,174,,,1.243,950.1609865000937,950.4563122000545,950.4563122000545,950.6561370000709,950.6729136999929,None,down,2.1995996999321505,950.6729136999929,None,950.6729136999929,951.9050900000148,0.20356229995377362,None,,,,,,,,,44,001,2020_Jan_03_1117,untitled,3.1.0,59.827326379097755,
_,_2,M,90,_,_,__2M090__,N,0,160,160,26,,,1.3820000000000001,953.0737553000217,953.370401800028,953.370401800028,953.5868729000213,953.603666900075,None,down,2.5168752999743447,953.603666900075,None,953.603666900075,954.9694683999987,0.18783350009471178,None,,,,,,,,,44,001,2020_Jan_03_1117,untitled,3.1.0,59.827326379097755,
_,G,M,315,_,_,_GM315__,N,0,161,161,15,,,0.868,956.3907416000729,956.6840635000262,956.6840635000262,956.8340786000481,956.8506455000024,None,down,2.3327804999426007,956.8506455000024,None,956.8506455000024,957.7021068000467,0.25614249997306615,None,,,,,,,,,44,001,2020_Jan_03_1117,untitled,3.1.0,59.827326379097755,
_,R,N,270,_,_,_RN270__,N,0,162,162,70,,,0.7010000000000001,959.4974916999927,959.79824620008,959.79824620008,959.8979094000533,959.9147305000806,None,up,1.6344201000174507,959.9147305000806,None,959.9147305000806,960.5976577000692,0.30155430000741035,None,,,,,,,,,44,001,2020_Jan_03_1117,untitled,3.1.0,59.827326379097755,
_,R,N,315,_,_,_RN315__,N,0,163,163,71,,,1.395,961.7602883999934,962.0627277999884,962.0627277999884,962.262828100007,962.2796593999956,None,up,2.0496378999669105,962.2796593999956,None,962.2796593999956,963.6616663000314,0.19764520006719977,None,,,,,,,,,44,001,2020_Jan_03_1117,untitled,3.1.0,59.827326379097755,
168,F,N,315,L,N,168FN315LN,HLN,0,164,164,223,,,0.9570000000000001,964.537321700016,964.827048300067,964.827048300067,965.0434949999908,965.0603261000942,None,up,2.1841405000304803,965.0603261000942,None,965.0603261000942,966.0093647000613,0.1954857000382617,None,,,,,,,,,44,001,2020_Jan_03_1117,untitled,3.1.0,59.827326379097755,
137,F,M,0,R,N,137FM000RN,HRN,0,165,165,112,,,1.043,967.4687929000938,967.7580553999869,967.7580553999869,967.9577311000321,967.975059300079,None,down,1.7671272000297904,967.975059300079,None,967.975059300079,969.0076352000469,0.20977439999114722,None,,,,,,,,,44,001,2020_Jan_03_1117,untitled,3.1.0,59.827326379097755,
240,G,M,315,L,N,240GM315LN,HLN,0,166,166,143,,,1.341,970.1265909000067,970.422959699994,970.422959699994,970.4560523000546,970.4741751000984,None,down,2.4153254999546334,970.4741751000984,None,970.4741751000984,971.8054038999835,0.3693358999444172,None,,,,,,,,,44,001,2020_Jan_03_1117,untitled,3.1.0,59.827326379097755,
_,G,M,225,_,_,_GM225__,N,0,167,167,13,,,1.072,973.1364956999896,973.4371094000526,973.4371094000526,973.6033450000687,973.6214670999907,None,down,2.7647369999904186,973.6214670999907,None,973.6214670999907,974.6846066000871,0.22908259998075664,None,,,,,,,,,44,001,2020_Jan_03_1117,untitled,3.1.0,59.827326379097755,
172,F,M,135,L,N,172FM135LN,HLN,0,168,168,123,,,0.9420000000000001,976.546917000087,976.8482641000301,976.8482641000301,977.0992136000423,977.1158922000322,None,down,2.284184699994512,977.1158922000322,None,977.1158922000322,978.048393700039,0.1490948999999091,None,,,,,,,,,44,001,2020_Jan_03_1117,untitled,3.1.0,59.827326379097755,
144,F,M,315,R,N,144FM315RN,HRN,0,169,169,119,,,1.154,979.537219800055,979.8301408000989,979.8301408000989,980.1136145000346,980.1302715000929,None,down,2.7005349999526516,980.1302715000929,None,980.1302715000929,981.2634084000019,0.12626990000717342,None,,,,,,,,,44,001,2020_Jan_03_1117,untitled,3.1.0,59.827326379097755,
134,F,N,225,R,N,134FN225RN,HRN,0,170,170,213,,,0.845,983.1151598000433,983.410630300059,983.410630300059,983.5614381000632,983.5614381000632,None,up,2.5832173000089824,983.5614381000632,None,983.5614381000632,984.3947900000494,0.2649636999703944,None,,,,,,,,,44,001,2020_Jan_03_1117,untitled,3.1.0,59.827326379097755,
400,_4,M,315,R,N,400_4M315RN,HRN,0,171,171,167,,,1.026,986.4377566000912,986.7266745000379,986.7266745000379,986.8750867000781,986.8928144000238,None,down,2.530565300025046,986.8928144000238,None,986.8928144000238,987.8905080000404,0.2694528999272734,None,,,,,,,,,44,001,2020_Jan_03_1117,untitled,3.1.0,59.827326379097755,
264,_2,N,315,R,N,264_2N315RN,HRN,0,172,172,247,,,0.761,989.569004500052,989.8716936000856,989.8716936000856,990.1386400000192,990.1552581000142,None,up,1.9492556999903172,990.1552581000142,None,990.1552581000142,990.9050048000645,0.13443510001525283,None,,,,,,,,,44,001,2020_Jan_03_1117,untitled,3.1.0,59.827326379097755,
169,F,M,0,L,N,169FM000LN,HLN,0,173,173,120,,,0.8150000000000001,992.3311573000392,992.6193256000988,992.6193256000988,992.819209300098,992.8358932000119,None,down,1.9000514999497682,992.8358932000119,None,992.8358932000119,993.6350978000555,0.21232220006641,None,,,,,,,,,44,001,2020_Jan_03_1117,untitled,3.1.0,59.827326379097755,
_,_5,M,90,_,_,__5M090__,N,0,174,174,42,,,0.982,995.0274980000686,995.3171401000582,995.3171401000582,995.4506906000897,995.4671010000166,None,down,2.3845993999857455,995.4671010000166,None,995.4671010000166,996.432761700009,0.27711320004891604,None,,,,,,,,,44,001,2020_Jan_03_1117,untitled,3.1.0,59.827326379097755,
269,_2,M,180,R,N,269_2M180RN,HRN,0,175,175,148,,,1.02,998.0515180000803,998.3478695000522,998.3478695000522,998.5651064000558,998.5838767000241,None,down,3.3296361999819055,998.5838767000241,None,998.5838767000241,999.5968819000991,0.1872024000622332,None,,,,,,,,,44,001,2020_Jan_03_1117,untitled,3.1.0,59.827326379097755,
293,_2,N,180,L,N,293_2N180LN,HLN,0,176,176,252,,,0.9530000000000001,1002.1308982000919,1002.4276750000427,1002.4276750000427,1002.6277094000252,1002.6447145000566,None,up,1.9679055999731645,1002.6447145000566,None,1002.6447145000566,1003.5772824999876,0.20336599997244775,None,,,,,,,,,44,001,2020_Jan_03_1117,untitled,3.1.0,59.827326379097755,
390,_4,N,225,R,N,390_4N225RN,HRN,0,177,177,261,,,1.037,1004.8865400000941,1005.1778500000946,1005.1778500000946,1005.3421856000787,1005.3421856000787,None,up,1.9007549999514595,1005.3421856000787,None,1005.3421856000787,1006.3744145000819,0.2526147000025958,None,,,,,,,,,44,001,2020_Jan_03_1117,untitled,3.1.0,59.827326379097755,
002,R,N,45,R,N,002RN045RN,HRN,0,178,178,193,,,0.749,1007.4531584000215,1007.7416926000733,1007.7416926000733,1007.9561152000679,1007.9728035000153,None,up,1.5010369999799877,1007.9728035000153,None,1007.9728035000153,1008.7055051000789,0.19710330001544207,None,,,,,,,,,44,001,2020_Jan_03_1117,untitled,3.1.0,59.827326379097755,
_,_5,N,90,_,_,__5N090__,N,0,179,179,90,,,0.877,1009.6797919000965,1009.9711543000303,1009.9711543000303,1010.1874072999926,1010.2044267000165,None,up,1.783479900099337,1010.2044267000165,None,1010.2044267000165,1011.0701187000377,0.19256550003774464,None,,,,,,,,,44,001,2020_Jan_03_1117,untitled,3.1.0,59.827326379097755,
266,_2,M,45,R,N,266_2M045RN,HRN,0,180,180,145,,,1.107,1012.2115665000165,1012.5022556000622,1012.5022556000622,1012.7018043000717,1012.7186189000495,None,down,2.4161000000312924,1012.7186189000495,None,1012.7186189000495,1013.8187825999921,0.20911569998133928,None,,,,,,,,,44,001,2020_Jan_03_1117,untitled,3.1.0,59.827326379097755,
_,_4,M,135,_,_,__4M135__,N,0,181,181,35,,,0.734,1015.3457212999929,1015.63485640008,1015.63485640008,1015.8495546000777,1015.8659347000066,None,down,2.916425700066611,1015.8659347000066,None,1015.8659347000066,1016.5817336000036,0.19710930006112903,None,,,,,,,,,44,001,2020_Jan_03_1117,untitled,3.1.0,59.827326379097755,
033,R,N,0,L,N,033RN000LN,HLN,0,182,182,200,,,1.1380000000000001,1019.0701301000081,1019.3626627000049,1019.3626627000049,1019.4959839000367,1019.5127089000307,None,up,1.867250300012529,1019.5127089000307,None,1019.5127089000307,1020.646633700002,0.2738830999005586,None,,,,,,,,,44,001,2020_Jan_03_1117,untitled,3.1.0,59.827326379097755,
207,G,M,270,R,N,207GM270RN,HRN,0,183,183,134,,,1.0050000000000001,1021.580982799991,1021.8773319000611,1021.8773319000611,1022.0937230000272,1022.1103869000217,None,down,2.5997250000946224,1022.1103869000217,None,1022.1103869000217,1023.1096362000098,0.18929240002762526,None,,,,,,,,,44,001,2020_Jan_03_1117,untitled,3.1.0,59.827326379097755,
_,G,M,270,_,_,_GM270__,N,0,184,184,14,,,1.042,1024.9188918999862,1025.2076634000987,1025.2076634000987,1025.4241571000312,1025.440811800072,None,down,2.1162270000204444,1025.440811800072,None,1025.440811800072,1026.4731229000026,0.19616779999341816,None,,,,,,,,,44,001,2020_Jan_03_1117,untitled,3.1.0,59.827326379097755,
143,F,M,270,R,N,143FM270RN,HRN,0,185,185,118,,,1.371,1027.7701716000447,1028.071973800077,1028.071973800077,1028.2717409000034,1028.2886142000789,None,down,2.91815169993788,1028.2886142000789,None,1028.2886142000789,1029.6542486000108,0.20042839995585382,None,,,,,,,,,44,001,2020_Jan_03_1117,untitled,3.1.0,59.827326379097755,
299,_2,M,90,L,N,299_2M090LN,HLN,0,186,186,154,,,1.385,1031.4266838000622,1031.7186713999836,1031.7186713999836,1031.9189771000529,1031.9358484999975,None,down,2.5494965000543743,1031.9358484999975,None,1031.9358484999975,1033.31751600001,0.20695569994859397,None,,,,,,,,,44,001,2020_Jan_03_1117,untitled,3.1.0,59.827326379097755,
_,_2,M,180,_,_,__2M180__,N,0,187,187,28,,,1.373,1034.7333849000279,1035.0328379999846,1035.0328379999846,1035.1996125000296,1035.2176305000903,None,down,2.930739299976267,1035.2176305000903,None,1035.2176305000903,1036.593140700017,0.2321198999416083,None,,,,,,,,,44,001,2020_Jan_03_1117,untitled,3.1.0,59.827326379097755,
487,_5,N,270,L,N,487_5N270LN,HLN,0,188,188,286,,,0.755,1038.3448112000478,1038.64600529999,1038.64600529999,1038.8624147000955,1038.8792748000706,None,up,2.1330227999715135,1038.8792748000706,None,1038.8792748000706,1039.6280814000638,0.18367930001113564,None,,,,,,,,,44,001,2020_Jan_03_1117,untitled,3.1.0,59.827326379097755,
041,R,M,0,L,N,041RM000LN,HLN,0,189,189,104,,,1.187,1041.2383577000583,1041.5269649000838,1041.5269649000838,1041.7266391000012,1041.7433823000174,None,down,2.0829964000731707,1041.7433823000174,None,1041.7433823000174,1042.9086533000227,0.2135268000420183,None,,,,,,,,,44,001,2020_Jan_03_1117,untitled,3.1.0,59.827326379097755,
199,G,N,270,R,N,199GN270RN,HRN,0,190,190,230,,,1.122,1044.0460545000387,1044.341433600057,1044.341433600057,1044.5407660000492,1044.5574676000979,None,up,2.0828660000115633,1044.5574676000979,None,1044.5574676000979,1045.6731701000826,0.20676410000305623,None,,,,,,,,,44,001,2020_Jan_03_1117,untitled,3.1.0,59.827326379097755,
268,_2,M,135,R,N,268_2M135RN,HRN,0,191,191,147,,,1.196,1046.8291751000797,1047.1232198000653,1047.1232198000653,1047.355038800044,1047.3718095000368,None,down,2.2661250000819564,1047.3718095000368,None,1047.3718095000368,1048.5556511000032,0.1760576000669971,None,,,,,,,,,44,001,2020_Jan_03_1117,untitled,3.1.0,59.827326379097755,
_,_5,M,135,_,_,__5M135__,N,0,192,192,43,,,1.335,1049.9578928999836,1050.2527188000968,1050.2527188000968,1050.3521659000544,1050.3689979000483,None,down,2.6322730000829324,1050.3689979000483,None,1050.3689979000483,1051.6863026000792,0.30489229992963374,None,,,,,,,,,44,001,2020_Jan_03_1117,untitled,3.1.0,59.827326379097755,
_,_2,N,225,_,_,__2N225__,N,0,193,193,77,,,1.094,1053.1972280000336,1053.4985587000847,1053.4985587000847,1053.7159687000094,1053.7327784000663,None,up,2.1682531000114977,1053.7327784000663,None,1053.7327784000663,1054.8159266000148,0.1832596999593079,None,,,,,,,,,44,001,2020_Jan_03_1117,untitled,3.1.0,59.827326379097755,
005,R,N,180,R,N,005RN180RN,HRN,0,194,194,196,,,0.704,1056.1898089000024,1056.4803415000206,1056.4803415000206,1056.613561800099,1056.6301526000025,None,up,2.349563500029035,1056.6301526000025,None,1056.6301526000025,1057.3292166000465,0.27610259992070496,None,,,,,,,,,44,001,2020_Jan_03_1117,untitled,3.1.0,59.827326379097755,
261,_2,N,180,R,N,261_2N180RN,HRN,0,195,195,244,,,1.355,1059.2021898000967,1059.4943083000835,1059.4943083000835,1059.6941734000575,1059.7110355000477,None,up,2.2837673000758514,1059.7110355000477,None,1059.7110355000477,1061.0431015000213,0.21037490002345294,None,,,,,,,,,44,001,2020_Jan_03_1117,untitled,3.1.0,59.827326379097755,
_,G,N,0,_,_,_GN000__,N,0,196,196,56,,,0.8250000000000001,1062.284718100098,1062.5750990000088,1062.5750990000088,1062.708521099994,1062.7251558999997,None,up,1.9169888999313116,1062.7251558999997,None,1062.7251558999997,1063.5415313000558,0.2762539000250399,None,,,,,,,,,44,001,2020_Jan_03_1117,untitled,3.1.0,59.827326379097755,
_,_4,N,180,_,_,__4N180__,N,0,197,197,84,,,1.372,1064.8678753999993,1065.1577096000547,1065.1577096000547,1065.3566973000998,1065.373586700065,None,up,2.6645534000126645,1065.373586700065,None,1065.373586700065,1066.7386243999936,0.21064179996028543,None,,,,,,,,,44,001,2020_Jan_03_1117,untitled,3.1.0,59.827326379097755,
034,R,N,45,L,N,034RN045LN,HLN,0,198,198,201,,,1.1420000000000001,1068.3666333000874,1068.654763000086,1068.654763000086,1068.7530023000436,1068.769714700058,None,up,2.034499100060202,1068.769714700058,None,1068.769714700058,1069.9018647000194,0.31380479992367327,None,,,,,,,,,44,001,2020_Jan_03_1117,untitled,3.1.0,59.827326379097755,
304,_2,M,315,L,N,304_2M315LN,HLN,0,199,199,159,,,1.365,1071.012163800071,1071.300841200049,1071.300841200049,1071.5171974000987,1071.534065600019,None,down,2.7503780000843108,1071.534065600019,None,1071.534065600019,1072.8825622000732,0.1936373000498861,None,,,,,,,,,44,001,2020_Jan_03_1117,untitled,3.1.0,59.827326379097755,
166,F,N,225,L,N,166FN225LN,HLN,0,200,200,221,,,1.163,1074.4998721000738,1074.7979309000075,1074.7979309000075,1074.997358600027,1075.014254800044,None,up,2.1002627999987453,1075.014254800044,None,1075.014254800044,1076.1647793999873,0.20248629990965128,None,,,,,,,,,44,001,2020_Jan_03_1117,untitled,3.1.0,59.827326379097755,
_,G,M,135,_,_,_GM135__,N,0,201,201,11,,,1.311,1077.4326033000834,1077.7293709000805,1077.7293709000805,1077.8282186000142,1077.8450892000692,None,down,2.2846102999756113,1077.8450892000692,None,1077.8450892000692,1079.1459476000164,0.3042322000255808,None,,,,,,,,,44,001,2020_Jan_03_1117,untitled,3.1.0,59.827326379097755,
141,F,M,180,R,N,141FM180RN,HRN,0,202,202,116,,,0.721,1080.3635522000259,1080.6597476000898,1080.6597476000898,1080.84293230006,1080.860600200016,None,up,2.777903600013815,1080.860600200016,None,1080.860600200016,1081.5750169000821,0.21946040005423129,None,,,,,,,,,44,001,2020_Jan_03_1117,untitled,3.1.0,59.827326379097755,
198,G,N,225,R,N,198GN225RN,HRN,0,203,203,229,,,1.075,1083.8910287000472,1084.1894694000948,1084.1894694000948,1084.3558953000465,1084.3728074000683,None,up,2.5821366000454873,1084.3728074000683,None,1084.3728074000683,1085.437984600081,0.23508080001920462,None,,,,,,,,,44,001,2020_Jan_03_1117,untitled,3.1.0,59.827326379097755,
_,_2,N,180,_,_,__2N180__,N,0,204,204,76,,,1.065,1087.1699412000598,1087.4549767000135,1087.4549767000135,1087.6697650999995,1087.6864637000253,None,up,2.4324335999554023,1087.6864637000253,None,1087.6864637000253,1088.7356652000453,0.1977080999640748,None,,,,,,,,,44,001,2020_Jan_03_1117,untitled,3.1.0,59.827326379097755,
_,_4,N,270,_,_,__4N270__,N,0,205,205,86,,,0.869,1090.3160767999943,1090.6172248000512,1090.6172248000512,1090.834889800055,1090.853623800096,None,up,1.6147217999678105,1090.853623800096,None,1090.853623800096,1091.7001224000705,0.18525660003069788,None,,,,,,,,,44,001,2020_Jan_03_1117,untitled,3.1.0,59.827326379097755,
_,G,M,0,_,_,_GM000__,N,0,206,206,8,,,0.788,1092.8559056000086,1093.1488302000798,1093.1488302000798,1093.182866999996,1093.2013893000549,None,down,2.1156808000523597,1093.2013893000549,None,1093.2013893000549,1093.9810364000732,0.3702525000553578,None,,,,,,,,,44,001,2020_Jan_03_1117,untitled,3.1.0,59.827326379097755,
490,_5,M,45,L,N,490_5M045LN,HLN,0,207,207,185,,,1.032,1095.5639434000477,1095.8628989000572,1095.8628989000572,1096.029626200092,1096.0468815000495,None,down,2.384150700061582,1096.0468815000495,None,1096.0468815000495,1097.0623459999915,0.23354749998543411,None,,,,,,,,,44,001,2020_Jan_03_1117,untitled,3.1.0,59.827326379097755,
271,_2,M,270,R,N,271_2M270RN,HRN,0,208,208,150,,,0.918,1098.729256600025,1099.047650200082,1099.047650200082,1099.1434741000412,1099.1622611000203,None,down,2.646259000059217,1099.1622611000203,None,1099.1622611000203,1100.0588814000366,0.28351660002954304,None,,,,,,,,,44,001,2020_Jan_03_1117,untitled,3.1.0,59.827326379097755,
_,G,N,45,_,_,_GN045__,N,0,209,209,57,,,1.3900000000000001,1102.0871643000282,1102.3752271000994,1102.3752271000994,1102.5234111000318,1102.540086299996,None,up,2.1330697999801487,1102.540086299996,None,1102.540086299996,1103.9223208000185,0.2646405999548733,None,,,,,,,,,44,001,2020_Jan_03_1117,untitled,3.1.0,59.827326379097755,
205,G,M,180,R,N,205GM180RN,HRN,0,210,210,132,,,1.105,1104.9870089000324,1105.2877013999969,1105.2877013999969,1105.3876141000073,1105.4044722000835,None,down,1.866745000006631,1105.4044722000835,None,1105.4044722000835,1106.5036029000767,0.3001378000481054,None,,,,,,,,,44,001,2020_Jan_03_1117,untitled,3.1.0,59.827326379097755,
228,G,N,135,L,N,228GN135LN,HLN,0,211,211,235,,,1.305,1107.4721781000262,1107.769086400047,1107.769086400047,1107.9854440999916,1108.0022354000248,None,up,2.285181100014597,1108.0022354000248,None,1108.0022354000248,1109.3022708999924,0.18783900002017617,None,,,,,,,,,44,001,2020_Jan_03_1117,untitled,3.1.0,59.827326379097755,
048,R,M,315,L,N,048RM315LN,HLN,0,212,212,111,,,1.141,1110.4966384000145,1110.7852242999943,1110.7852242999943,1110.999884900055,1111.0168742000824,None,down,2.0831650000764057,1111.0168742000824,None,1111.0168742000824,1112.1489334000507,0.19530779996421188,None,,,,,,,,,44,001,2020_Jan_03_1117,untitled,3.1.0,59.827326379097755,
297,_2,M,0,L,N,297_2M000LN,HLN,0,213,213,152,,,0.877,1113.3409670999972,1113.6305848000338,1113.6305848000338,1113.813598100096,1113.8303055000724,None,down,2.865875900024548,1113.8303055000724,None,1113.8303055000724,1114.6970226999838,0.22553649998735636,None,,,,,,,,,44,001,2020_Jan_03_1117,untitled,3.1.0,59.827326379097755,
_,_2,M,135,_,_,__2M135__,N,0,214,214,27,,,0.866,1116.893968300079,1117.1939140000613,1117.1939140000613,1117.4105056000408,1117.4278787000803,None,up,2.6985393000068143,1117.4278787000803,None,1117.4278787000803,1118.276838800055,0.18480889999773353,None,,,,,,,,,44,001,2020_Jan_03_1117,untitled,3.1.0,59.827326379097755,
226,G,N,45,L,N,226GN045LN,HLN,0,215,215,233,,,1.391,1120.423126699985,1120.724127600086,1120.724127600086,1120.8409136000555,1120.8581127000507,None,up,2.1172776999883354,1120.8581127000507,None,1120.8581127000507,1122.2398560000584,0.28370349993929267,None,,,,,,,,,44,001,2020_Jan_03_1117,untitled,3.1.0,59.827326379097755,
389,_4,N,180,R,N,389_4N180RN,HRN,0,216,216,260,,,0.841,1123.2013545000227,1123.4900197000243,1123.4900197000243,1123.689855900011,1123.7089382000268,None,up,2.661663500010036,1123.7089382000268,None,1123.7089382000268,1124.5377703000559,0.21218400006182492,None,,,,,,,,,44,001,2020_Jan_03_1117,untitled,3.1.0,59.827326379097755,
_,F,N,225,_,_,_FN225__,N,0,217,217,53,,,0.76,1126.5807528999867,1126.8705808999948,1126.8705808999948,1127.08567280008,1127.1026239000494,None,up,2.2488963999785483,1127.1026239000494,None,1127.1026239000494,1127.8519305000082,0.19573260005563498,None,,,,,,,,,44,001,2020_Jan_03_1117,untitled,3.1.0,59.827326379097755,
_,_5,N,270,_,_,__5N270__,N,0,218,218,94,,,1.3940000000000001,1129.5470302000176,1129.8499407999916,1129.8499407999916,1130.0669802000048,1130.085195700056,None,up,2.0831306000472978,1130.085195700056,None,1130.085195700056,1131.46606840007,0.18114919995423406,None,,,,,,,,,44,001,2020_Jan_03_1117,untitled,3.1.0,59.827326379097755,
_,G,M,180,_,_,_GM180__,N,0,219,219,12,,,0.799,1132.4671207000501,1132.7639781000325,1132.7639781000325,1132.8802415000973,1132.8980015000561,None,down,2.9311693999916315,1132.8980015000561,None,1132.8980015000561,1133.679629500024,0.284208899945952,None,,,,,,,,,44,001,2020_Jan_03_1117,untitled,3.1.0,59.827326379097755,
042,R,M,45,L,N,042RM045LN,HLN,0,220,220,105,,,1.23,1136.0436928999843,1136.3439393000444,1136.3439393000444,1136.5438500000164,1136.5608471999876,None,down,2.199846599949524,1136.5608471999876,None,1136.5608471999876,1137.7763290000148,0.2001266999868676,None,,,,,,,,,44,001,2020_Jan_03_1117,untitled,3.1.0,59.827326379097755,
425,_4,M,0,L,N,425_4M000LN,HLN,0,221,221,168,,,0.723,1138.9777155000484,1139.2745163000654,1139.2745163000654,1139.4755465000635,1139.4914594000438,None,down,1.965882100048475,1139.4914594000438,None,1139.4914594000438,1140.1915605000686,0.20343320001848042,None,,,,,,,,,44,001,2020_Jan_03_1117,untitled,3.1.0,59.827326379097755,
455,_5,N,270,R,N,455_5N270RN,HRN,0,222,222,278,,,1.026,1141.6793615000788,1141.9725669000763,1141.9725669000763,1142.1729657000396,1142.1915411000373,None,up,1.9309910000301898,1142.1915411000373,None,1142.1915411000373,1143.2059206999838,0.20983890001662076,None,,,,,,,,,44,001,2020_Jan_03_1117,untitled,3.1.0,59.827326379097755,
236,G,M,135,L,N,236GM135LN,HLN,0,223,223,139,,,1.345,1144.391962200054,1144.6871188000077,1144.6871188000077,1144.837092300062,1144.853614600026,None,down,2.416595400078222,1144.853614600026,None,1144.853614600026,1146.188533400069,0.2531635999912396,None,,,,,,,,,44,001,2020_Jan_03_1117,untitled,3.1.0,59.827326379097755,
007,R,N,270,R,N,007RN270RN,HRN,0,224,224,198,,,1.055,1147.4861509000184,1147.7838433000725,1147.7838433000725,1147.9837178000016,1148.0004487000406,None,up,1.8009790000505745,1148.0004487000406,None,1148.0004487000406,1149.049696400063,0.20383730006869882,None,,,,,,,,,44,001,2020_Jan_03_1117,untitled,3.1.0,59.827326379097755,
135,F,N,270,R,N,135FN270RN,HRN,0,225,225,214,,,1.1400000000000001,1149.993370500044,1150.283815300092,1150.283815300092,1150.5149008000735,1150.5315461000428,None,up,1.834220000077039,1150.5315461000428,None,1150.5315461000428,1151.6638639000012,0.18022690003272146,None,,,,,,,,,44,001,2020_Jan_03_1117,untitled,3.1.0,59.827326379097755,
460,_5,M,135,R,N,460_5M135RN,HRN,0,226,226,179,,,1.069,1152.5455511000473,1152.8461546000326,1152.8461546000326,1153.0794956000755,1153.096034700051,None,down,2.2504958000499755,1153.096034700051,None,1153.096034700051,1154.1453235000372,0.1654229999985546,None,,,,,,,,,44,001,2020_Jan_03_1117,untitled,3.1.0,59.827326379097755,
451,_5,N,90,R,N,451_5N090RN,HRN,0,227,227,274,,,0.903,1155.5777782000368,1155.876856900053,1155.876856900053,1156.0608860000502,1156.077815100085,None,up,1.8480830000480637,1156.077815100085,None,1156.077815100085,1156.9601817000657,0.21747269993647933,None,,,,,,,,,44,001,2020_Jan_03_1117,untitled,3.1.0,59.827326379097755,
_,_2,M,225,_,_,__2M225__,N,0,228,228,29,,,0.717,1158.175077300053,1158.475912300055,1158.475912300055,1158.6422667000443,1158.6599588000681,None,down,2.1981572000076994,1158.6599588000681,None,1158.6599588000681,1159.3576494000154,0.23439660004805773,None,,,,,,,,,44,001,2020_Jan_03_1117,untitled,3.1.0,59.827326379097755,
394,_4,M,45,R,N,394_4M045RN,HRN,0,229,229,161,,,1.29,1161.0763737000525,1161.3728418000974,1161.3728418000974,1161.5738011000212,1161.5928893000819,None,down,2.3456632000161335,1161.5928893000819,None,1161.5928893000819,1162.870680000051,0.20338319998700172,None,,,,,,,,,44,001,2020_Jan_03_1117,untitled,3.1.0,59.827326379097755,
003,R,N,90,R,N,003RN090RN,HRN,0,230,230,194,,,0.9500000000000001,1164.2218873000238,1164.519073600066,1164.519073600066,1164.6521769000683,1164.6697564000497,None,up,2.082692399970256,1164.6697564000497,None,1164.6697564000497,1165.6015977000352,0.270764600019902,None,,,,,,,,,44,001,2020_Jan_03_1117,untitled,3.1.0,59.827326379097755,
_,_5,N,0,_,_,__5N000__,N,0,231,231,88,,,0.874,1166.941462900024,1167.2336765000364,1167.2336765000364,1167.467010500026,1167.4834764000261,None,up,1.5509975000750273,1167.4834764000261,None,1167.4834764000261,1168.3493595999898,0.17708950000815094,None,,,,,,,,,44,001,2020_Jan_03_1117,untitled,3.1.0,59.827326379097755,
_,G,N,225,_,_,_GN225__,N,0,232,232,61,,,0.782,1169.3314012000337,1169.63139460003,1169.63139460003,1169.7479956999887,1169.7647322000703,None,up,1.733248500037007,1169.7647322000703,None,1169.7647322000703,1170.5307681000559,0.2842730999691412,None,,,,,,,,,44,001,2020_Jan_03_1117,untitled,3.1.0,59.827326379097755,
420,_4,N,135,L,N,420_4N135LN,HLN,0,233,233,267,,,0.8310000000000001,1171.700890899985,1171.9960160000483,1171.9960160000483,1172.212454100023,1172.2293546000728,None,up,2.0840724000008777,1172.2293546000728,None,1172.2293546000728,1173.045963600045,0.19030100002419204,None,,,,,,,,,44,001,2020_Jan_03_1117,untitled,3.1.0,59.827326379097755,
161,F,N,0,L,N,161FN000LN,HLN,0,234,234,216,,,0.899,1174.564588700072,1174.8605672999984,1174.8605672999984,1175.0272343000397,1175.0442612000043,None,up,1.582910199998878,1175.0442612000043,None,1175.0442612000043,1175.9267641000915,0.2343491999199614,None,,,,,,,,,44,001,2020_Jan_03_1117,untitled,3.1.0,59.827326379097755,
_,_4,N,45,_,_,__4N045__,N,0,235,235,81,,,0.874,1176.8492119000293,1177.1419586000266,1177.1419586000266,1177.374145800015,1177.374145800015,None,up,1.4683178999694064,1177.374145800015,None,1177.374145800015,1178.224019000074,0.2063839000184089,None,,,,,,,,,44,001,2020_Jan_03_1117,untitled,3.1.0,59.827326379097755,
430,_4,M,225,L,N,430_4M225LN,HLN,0,236,236,173,,,0.722,1179.0417222999968,1179.339790099999,1179.339790099999,1179.5561386999907,1179.572948200046,None,down,2.317063899943605,1179.572948200046,None,1179.572948200046,1180.2889632000588,0.1861965999705717,None,,,,,,,,,44,001,2020_Jan_03_1117,untitled,3.1.0,59.827326379097755,
203,G,M,90,R,N,203GM090RN,HRN,0,237,237,130,,,1.233,1182.1965003000805,1182.486861600075,1182.486861600075,1182.6034464000259,1182.620273000095,None,down,2.2168678999878466,1182.620273000095,None,1182.620273000095,1183.8358943000203,0.2922059999546036,None,,,,,,,,,44,001,2020_Jan_03_1117,untitled,3.1.0,59.827326379097755,
004,R,N,135,R,N,004RN135RN,HRN,0,238,238,195,,,0.9,1185.0687155000633,1185.368035600055,1185.368035600055,1185.5510869000573,1185.5700958000962,None,up,1.7145593999885023,1185.5700958000962,None,1185.5700958000962,1186.4524361999938,0.21870239998679608,None,,,,,,,,,44,001,2020_Jan_03_1117,untitled,3.1.0,59.827326379097755,
300,_2,M,135,L,N,300_2M135LN,HLN,0,239,239,155,,,1.002,1187.492532900069,1187.7825012000976,1187.7825012000976,1187.9991280999966,1188.01595130004,None,down,2.432513999985531,1188.01595130004,None,1188.01595130004,1188.997923100018,0.1957794000627473,None,,,,,,,,,44,001,2020_Jan_03_1117,untitled,3.1.0,59.827326379097755,
235,G,M,90,L,N,235GM090LN,HLN,0,240,240,138,,,0.861,1190.7747046999866,1191.063035500003,1191.063035500003,1191.163825900061,1191.183064000099,None,down,2.9960111000109464,1191.183064000099,None,1191.183064000099,1192.0285761000123,0.31029359996318817,None,,,,,,,,,44,001,2020_Jan_03_1117,untitled,3.1.0,59.827326379097755,
_,R,M,45,_,_,_RM045__,N,0,241,241,17,,,1.141,1194.3688132000389,1194.6596592999995,1194.6596592999995,1194.8931771999924,1194.9097281000577,None,down,2.034944000071846,1194.9097281000577,None,1194.9097281000577,1196.0417404000182,0.17689379991497844,None,,,,,,,,,44,001,2020_Jan_03_1117,untitled,3.1.0,59.827326379097755,
493,_5,M,180,L,N,493_5M180LN,HLN,0,242,242,188,,,1.1260000000000001,1197.1339971000561,1197.423843900091,1197.423843900091,1197.657062000013,1197.6748181000585,None,None,,1197.6748181000585,None,1197.6748181000585,1198.7892355000367,0.17766659997869283,None,,,,,,,,,44,001,2020_Jan_03_1117,untitled,3.1.0,59.827326379097755,
_,_5,M,270,_,_,__5M270__,N,0,243,243,46,,,1.133,1201.4332431000657,1201.7207043000963,1201.7207043000963,1201.8534264999907,1201.870139000006,1201.4332431000657,down,2.9170156000182033,1201.870139000006,None,1201.870139000006,1202.9856821000576,0.2787031000480056,None,,,,,,,,,44,001,2020_Jan_03_1117,untitled,3.1.0,59.827326379097755,
259,_2,N,90,R,N,259_2N090RN,HRN,0,244,244,242,,,1.371,1205.0200158000225,1205.3174189000856,1205.3174189000856,1205.5006597000174,1205.5175403000321,None,up,2.2166974999709055,1205.5175403000321,None,1205.5175403000321,1206.8822545000585,0.21602739999070764,None,,,,,,,,,44,001,2020_Jan_03_1117,untitled,3.1.0,59.827326379097755,
225,G,N,0,L,N,225GN000LN,HLN,0,245,245,232,,,1.104,1207.9856862000888,1208.281447699992,1208.281447699992,1208.4483049000846,1208.4684165000217,None,up,1.86349459993653,1208.4684165000217,None,1208.4684165000217,1209.5632174999919,0.23546450003050268,None,,,,,,,,,44,001,2020_Jan_03_1117,untitled,3.1.0,59.827326379097755,
397,_4,M,180,R,N,397_4M180RN,HRN,0,246,246,164,,,0.808,1210.5466112000868,1210.84585110005,1210.84585110005,1211.045401600073,1211.0621456000954,None,None,,1211.0621456000954,None,1211.0621456000954,1211.8613596000941,0.20238640008028597,None,,,,,,,,,44,001,2020_Jan_03_1117,untitled,3.1.0,59.827326379097755,
_,_4,M,0,_,_,__4M000__,N,0,247,247,32,,,1.266,1214.708907400025,1215.008913800004,1215.008913800004,1215.242377400049,1215.2585544000613,1214.708907400025,down,2.5824602000648156,1215.2585544000613,None,1215.2585544000613,1216.5072975000367,0.17101489997003227,None,,,,,,,,,44,001,2020_Jan_03_1117,untitled,3.1.0,59.827326379097755,
_,G,N,315,_,_,_GN315__,N,0,248,248,63,,,0.8140000000000001,1218.140356500051,1218.4395209000213,1218.4395209000213,1218.556491299998,1218.5755244999891,None,up,1.780329899978824,1218.5755244999891,None,1218.5755244999891,1219.3727997000096,0.2861989999655634,None,,,,,,,,,44,001,2020_Jan_03_1117,untitled,3.1.0,59.827326379097755,
132,F,N,135,R,N,132FN135RN,HRN,0,249,249,211,,,1.337,1220.5895557000767,1220.8872847000603,1220.8872847000603,1221.0704149000812,1221.0870080000022,None,up,2.2346676000161096,1221.0870080000022,None,1221.0870080000022,1222.4033200000413,0.2184020000277087,None,,,,,,,,,44,001,2020_Jan_03_1117,untitled,3.1.0,59.827326379097755,
_,R,M,225,_,_,_RM225__,N,0,250,250,21,,,0.805,1223.5695506000193,1223.8679248000262,1223.8679248000262,1224.0348672000691,1224.0526346000843,None,down,2.3162530000554398,1224.0526346000843,None,1224.0526346000843,1224.8516220999882,0.23103869997430593,None,,,,,,,,,44,001,2020_Jan_03_1117,untitled,3.1.0,59.827326379097755,
_,_4,N,225,_,_,__4N225__,N,0,251,251,85,,,1.078,1226.6404143000254,1226.9312216000399,1226.9312216000399,1227.0981586000416,1227.0981586000416,None,up,2.2667426000116393,1227.0981586000416,None,1227.0981586000416,1228.165336200036,0.2536516000982374,None,,,,,,,,,44,001,2020_Jan_03_1117,untitled,3.1.0,59.827326379097755,
_,_4,N,90,_,_,__4N090__,N,0,252,252,82,,,0.8300000000000001,1229.5681255999953,1229.862299200031,1229.862299200031,1230.0786188000347,1230.095516600064,None,up,1.5346972999395803,1230.095516600064,None,1230.095516600064,1230.9113591000205,0.19077260000631213,None,,,,,,,,,44,001,2020_Jan_03_1117,untitled,3.1.0,59.827326379097755,
_,R,N,90,_,_,_RN090__,N,0,253,253,66,,,1.06,1231.8462488000514,1232.143604699988,1232.143604699988,1232.3436810000567,1232.3602455999935,None,up,1.6351696000201628,1232.3602455999935,None,1232.3602455999935,1233.409535099985,0.2030955000082031,None,,,,,,,,,44,001,2020_Jan_03_1117,untitled,3.1.0,59.827326379097755,
_,F,N,0,_,_,_FN000__,N,0,254,254,48,,,0.986,1234.3125173000153,1234.6080378000624,1234.6080378000624,1234.707980300067,1234.7252546000527,None,up,1.6171366000780836,1234.7252546000527,None,1234.7252546000527,1235.707657400053,0.303815699997358,None,,,,,,,,,44,001,2020_Jan_03_1117,untitled,3.1.0,59.827326379097755,
393,_4,M,0,R,N,393_4M000RN,HRN,0,255,255,160,,,1.103,1236.5778745000716,1236.8731624000939,1236.8731624000939,1237.0563920000568,1237.0796678999905,None,down,2.5604327999753878,1237.0796678999905,None,1237.0796678999905,1238.1730131000513,0.2199948999332264,None,,,,,,,,,44,001,2020_Jan_03_1117,untitled,3.1.0,59.827326379097755,
043,R,M,90,L,N,043RM090LN,HLN,0,256,256,106,,,0.9,1239.9052686000941,1240.2039137000684,1240.2039137000684,1240.354388799984,1240.3723211000906,None,up,1.9659905000589788,1240.3723211000906,None,1240.3723211000906,1241.268815400079,0.24769089999608696,None,,,,,,,,,44,001,2020_Jan_03_1117,untitled,3.1.0,59.827326379097755,
481,_5,N,0,L,N,481_5N000LN,HLN,0,257,257,280,,,0.836,1242.7174319000915,1243.0186306000687,1243.0186306000687,1243.0520761000225,1243.0706155000953,None,up,1.5308711999095976,1243.0706155000953,None,1243.0706155000953,1243.8857177000027,0.3605117000406608,None,,,,,,,,,44,001,2020_Jan_03_1117,untitled,3.1.0,59.827326379097755,
237,G,M,180,L,N,237GM180LN,HLN,0,258,258,140,,,0.8230000000000001,1244.8285348000936,1245.1160015000496,1245.1160015000496,1245.3163505000994,1245.3324192999862,None,None,,1245.3324192999862,None,1245.3324192999862,1246.1488344999962,0.211483099963516,None,,,,,,,,,44,001,2020_Jan_03_1117,untitled,3.1.0,59.827326379097755,
163,F,N,90,L,N,163FN090LN,HLN,0,259,259,218,,,0.71,1249.0216365000233,1249.3123755000997,1249.3123755000997,1249.511995900073,1249.5289208000759,1249.0216365000233,up,1.3847220999887213,1249.5289208000759,None,1249.5289208000759,1250.2114719999954,0.21352220000699162,None,,,,,,,,,44,001,2020_Jan_03_1117,untitled,3.1.0,59.827326379097755,
142,F,M,225,R,N,142FM225RN,HRN,0,260,260,117,,,1.074,1251.14508450008,1251.4441058000084,1251.4441058000084,1251.6273466000566,1251.644358200021,None,down,2.1993626999901608,1251.644358200021,None,1251.644358200021,1252.7096006000647,0.21831679996103048,None,,,,,,,,,44,001,2020_Jan_03_1117,untitled,3.1.0,59.827326379097755,
_,_2,N,270,_,_,__2N270__,N,0,261,261,78,,,0.99,1254.1128566000843,1254.4078043000773,1254.4078043000773,1254.5576173000736,1254.5744429000188,None,up,2.348829000024125,1254.5744429000188,None,1254.5744429000188,1255.5572092999937,0.25334400008432567,None,,,,,,,,,44,001,2020_Jan_03_1117,untitled,3.1.0,59.827326379097755,
038,R,N,225,L,N,038RN225LN,HLN,0,262,262,205,,,1.114,1257.2041208000155,1257.5048510000343,1257.5048510000343,1257.6379288000753,1257.6547335000942,None,up,2.5336182999890298,1257.6547335000942,None,1257.6547335000942,1258.754814999993,0.2675711999181658,None,,,,,,,,,44,001,2020_Jan_03_1117,untitled,3.1.0,59.827326379097755,
292,_2,N,135,L,N,292_2N135LN,HLN,0,263,263,251,,,1.077,1260.41417740006,1260.7022043000907,1260.7022043000907,1260.9021601000568,1260.9187535000965,None,down,3.1821829000255093,1260.9187535000965,None,1260.9187535000965,1261.9840787000721,0.2103910999139771,None,,,,,,,,,44,001,2020_Jan_03_1117,untitled,3.1.0,59.827326379097755,
294,_2,N,225,L,N,294_2N225LN,HLN,0,264,264,253,,,0.934,1264.3194576000096,1264.6153430000413,1264.6153430000413,1264.815396000049,1264.8324919000734,None,up,1.9648413999238983,1264.8324919000734,None,1264.8324919000734,1265.7479701000266,0.20542249991558492,None,,,,,,,,,44,001,2020_Jan_03_1117,untitled,3.1.0,59.827326379097755,
046,R,M,225,L,N,046RM225LN,HLN,0,265,265,109,,,0.729,1267.0771690000547,1267.3799468000652,1267.3799468000652,1267.5138404000318,1267.5307507000398,None,down,1.9809458999661729,1267.5307507000398,None,1267.5307507000398,1268.2473662000848,0.26779529999475926,None,,,,,,,,,44,001,2020_Jan_03_1117,untitled,3.1.0,59.827326379097755,
011,R,M,90,R,N,011RM090RN,HRN,0,266,266,98,,,1.182,1269.738861800055,1270.0292771999957,1270.0292771999957,1270.2276065000333,1270.2444468000904,None,down,3.1996423000236973,1270.2444468000904,None,1270.2444468000904,1271.4102633000584,0.21303890005219728,None,,,,,,,,,44,001,2020_Jan_03_1117,untitled,3.1.0,59.827326379097755,
165,F,N,180,L,N,165FN180LN,HLN,0,267,267,220,,,0.834,1273.6328722999897,1273.923953599995,1273.923953599995,1274.1578324000584,1274.1760478999931,None,up,2.315664800000377,1274.1760478999931,None,1274.1760478999931,1274.9895556000993,0.17584549996536225,None,,,,,,,,,44,001,2020_Jan_03_1117,untitled,3.1.0,59.827326379097755,
457,_5,M,0,R,N,457_5M000RN,HRN,0,268,268,176,,,1.034,1276.689025800093,1276.9879986000014,1276.9879986000014,1277.2050464000786,1277.2211613000836,None,down,2.5332110000308603,1277.2211613000836,None,1277.2211613000836,1278.2368664999958,0.18411969998851418,None,,,,,,,,,44,001,2020_Jan_03_1117,untitled,3.1.0,59.827326379097755,
130,F,N,45,R,N,130FN045RN,HRN,0,269,269,209,,,1.127,1279.970950499992,1280.2684640000807,1280.2684640000807,1280.468181900098,1280.484946200042,None,up,1.8829828000161797,1280.484946200042,None,1280.484946200042,1281.600746500073,0.20347589999437332,None,,,,,,,,,44,001,2020_Jan_03_1117,untitled,3.1.0,59.827326379097755,
_,_5,M,315,_,_,__5M315__,N,0,270,270,47,,,0.916,1282.5878181000007,1282.8829367000144,1282.8829367000144,1283.0833064999897,1283.1014361000853,None,down,2.130883499979973,1283.1014361000853,None,1283.1014361000853,1283.9994818000123,0.2054573999485001,None,,,,,,,,,44,001,2020_Jan_03_1117,untitled,3.1.0,59.827326379097755,
_,_2,M,270,_,_,__2M270__,N,0,271,271,30,,,0.8220000000000001,1285.4780050000409,1285.7807176000206,1285.7807176000206,1285.9471505000256,1285.9642900000326,None,down,3.2013304999563843,1285.9642900000326,None,1285.9642900000326,1286.7798920000205,0.2291839000536129,None,,,,,,,,,44,001,2020_Jan_03_1117,untitled,3.1.0,59.827326379097755,
171,F,M,90,L,N,171FM090LN,HLN,0,272,272,122,,,0.978,1289.4016525000334,1289.6932974000229,1289.6932974000229,1289.8931793000083,1289.9098680000752,None,down,2.0675974000478163,1289.9098680000752,None,1289.9098680000752,1290.8597959000617,0.21675739996135235,None,,,,,,,,,44,001,2020_Jan_03_1117,untitled,3.1.0,59.827326379097755,
421,_4,N,180,L,N,421_4N180LN,HLN,0,273,273,268,,,1.4000000000000001,1292.2136496000458,1292.5076601000037,1292.5076601000037,1292.6907829000847,1292.7075038000476,None,None,,1292.7075038000476,None,1292.7075038000476,1294.089402200072,0.222811899962835,None,,,,,,,,,44,001,2020_Jan_03_1117,untitled,3.1.0,59.827326379097755,
_,_2,N,0,_,_,__2N000__,N,0,274,274,72,,,1.066,1296.379688300076,1296.670736900065,1296.670736900065,1296.887459599995,1296.9048465000233,1296.379688300076,down,2.6825069000478834,1296.9048465000233,None,1296.9048465000233,1297.9529022000497,0.193348899949342,None,,,,,,,,,44,001,2020_Jan_03_1117,untitled,3.1.0,59.827326379097755,
_,F,M,90,_,_,_FM090__,N,0,275,275,2,,,1.233,1299.8271494000219,1300.1183578000637,1300.1183578000637,1300.3009962000651,1300.3186405000743,None,down,2.299406300066039,1300.3186405000743,None,1300.3186405000743,1301.533317500027,0.2230535999406129,None,,,,,,,,,44,001,2020_Jan_03_1117,untitled,3.1.0,59.827326379097755,
231,G,N,270,L,N,231GN270LN,HLN,0,276,276,238,,,0.777,1302.8370250000153,1303.1321460000472,1303.1321460000472,1303.331788700074,1303.3496651999885,None,up,2.3320770000573248,1303.3496651999885,None,1303.3496651999885,1304.1405088000465,0.20481549995020032,None,,,,,,,,,44,001,2020_Jan_03_1117,untitled,3.1.0,59.827326379097755,
008,R,N,315,R,N,008RN315RN,HRN,0,277,277,199,,,0.901,1305.8630543000763,1306.163372100098,1306.163372100098,1306.3953788999934,1306.4119132000487,None,up,1.6162850999971852,1306.4119132000487,None,1306.4119132000487,1307.294689500006,0.16868510004132986,None,,,,,,,,,44,001,2020_Jan_03_1117,untitled,3.1.0,59.827326379097755,
204,G,M,135,R,N,204GM135RN,HRN,0,278,278,131,,,0.788,1308.2223902000114,1308.528237999999,1308.528237999999,1308.7439206000417,1308.760769500048,None,down,1.9331918000243604,1308.760769500048,None,1308.760769500048,1309.5259878000943,0.18241690006107092,None,,,,,,,,,44,001,2020_Jan_03_1117,untitled,3.1.0,59.827326379097755,
486,_5,N,225,L,N,486_5N225LN,HLN,0,279,279,285,,,1.2790000000000001,1310.8729347999906,1311.1748010000447,1311.1748010000447,1311.4078137000324,1311.4266531000612,None,up,2.680948100052774,1311.4266531000612,None,1311.4266531000612,1312.691590200062,0.1674927999265492,None,,,,,,,,,44,001,2020_Jan_03_1117,untitled,3.1.0,59.827326379097755,
395,_4,M,90,R,N,395_4M090RN,HRN,0,280,280,162,,,0.844,1314.3276487000985,1314.6219071000814,1314.6219071000814,1314.8215857000323,1314.8382992000552,None,down,2.167509700055234,1314.8382992000552,None,1314.8382992000552,1315.6729491000297,0.20595730002969503,None,,,,,,,,,44,001,2020_Jan_03_1117,untitled,3.1.0,59.827326379097755,
488,_5,N,315,L,N,488_5N315LN,HLN,0,281,281,287,,,1.102,1317.2449393999996,1317.5367424000287,1317.5367424000287,1317.7188333000522,1317.7361152000958,None,up,2.2658012999454513,1317.7361152000958,None,1317.7361152000958,1318.8180020999862,0.22320650005713105,None,,,,,,,,,44,001,2020_Jan_03_1117,untitled,3.1.0,59.827326379097755,
_,_4,M,180,_,_,__4M180__,N,0,282,282,36,,,1.301,1320.2217649000231,1320.5171435000375,1320.5171435000375,1320.716301400098,1320.7329763000598,None,up,3.0997510000597686,1320.7329763000598,None,1320.7329763000598,1322.0154843000928,0.2063312999671325,None,,,,,,,,,44,001,2020_Jan_03_1117,untitled,3.1.0,59.827326379097755,
_,F,N,135,_,_,_FN135__,N,0,283,283,51,,,0.879,1324.0304092000006,1324.3297678000527,1324.3297678000527,1324.5464839000488,1324.5630557000404,None,up,1.8004489000886679,1324.5630557000404,None,1324.5630557000404,1325.4296901000198,0.1858867999399081,None,,,,,,,,,44,001,2020_Jan_03_1117,untitled,3.1.0,59.827326379097755,
_,R,M,270,_,_,_RM270__,N,0,284,284,22,,,1.102,1326.5730692000361,1326.8636955000693,1326.8636955000693,1327.0783198000863,1327.0960336000426,None,down,2.031977199949324,1327.0960336000426,None,1327.0960336000426,1328.176467500045,0.19502800004556775,None,,,,,,,,,44,001,2020_Jan_03_1117,untitled,3.1.0,59.827326379097755,
257,_2,N,0,R,N,257_2N000RN,HRN,0,285,285,240,,,1.286,1329.3493262000848,1329.6426117999945,1329.6426117999945,1329.8417400000617,1329.8583177000983,None,up,2.0175451999530196,1329.8583177000983,None,1329.8583177000983,1331.1409286000999,0.20759719994384795,None,,,,,,,,,44,001,2020_Jan_03_1117,untitled,3.1.0,59.827326379097755,
229,G,N,180,L,N,229GN180LN,HLN,0,286,286,236,,,1.219,1332.2202667000238,1332.5209520000499,1332.5209520000499,1332.5897089000791,1332.606648300076,None,up,2.9528356000082567,1332.606648300076,None,1332.606648300076,1333.8222590000369,0.32920490007381886,None,,,,,,,,,44,001,2020_Jan_03_1117,untitled,3.1.0,59.827326379097755,
_,G,M,90,_,_,_GM090__,N,0,287,287,10,,,1.315,1335.950019000098,1336.2525900000473,1336.2525900000473,1336.2860521000111,1336.3026988999918,None,down,2.4350071999942884,1336.3026988999918,None,1336.3026988999918,1337.6014884000178,0.366755299968645,None,,,,,,,,,44,001,2020_Jan_03_1117,untitled,3.1.0,59.827326379097755,
,,,,,,,,,,,,,,,,,,,,,,,,,,,,,1338.762395100086,None,1345.3450923000928,None,1347.294700800092,None,1351.1179268000415,None,,,,,,,
