Number,Letter,type,Orientation,human,face_type,image,picture,trials.thisRepN,trials.thisTrialN,trials.thisN,trials.thisIndex,text.started,text.stopped,stimulus_duration,CROSS.started,CROSS.stopped,BLANK.started,BLANK.stopped,TEST.started,TEST.stopped,key_JUDGE.keys,key_JUDGE.rt,key_JUDGE.started,key_JUDGE.stopped,image_2.started,image_2.stopped,ISI.started,ISI.stopped,q1.started,q1.stopped,q2.started,q2.stopped,q3.started,q3.stopped,text_2.started,text_2.stopped,participant,session,date,expName,psychopyVersion,frameRate
15,R,M,270,R,N,015RM270RN,HRN,0,0,0,102,263.4021251,None,0.838,291.9446913,292.2423696,292.2423696,292.4256028,292.4256028,None,down,2.5657154,292.4256028,None,292.4256028,293.2583669,0.2286526,None,,,,,,,,,45,1,2020_Jan_03_1138,untitled,3.1.0,60.11053127
_,_4,N,135,_,_,__4N135__,N,0,1,1,83,,,1.239,295.3515159,295.6422995,295.6422995,295.7904663,295.8074282,None,None,,295.8074282,None,295.8074282,297.0214793,0.266706,None,,,,,,,,,45,1,2020_Jan_03_1138,untitled,3.1.0,60.11053127
397,_4,M,180,R,N,397_4M180RN,HRN,0,2,2,164,,,1.322,299.4781442,299.7690034,299.7690034,299.9858126,300.0029163,299.4781442,down,2.1655821,300.0029163,None,300.0029163,301.3187298,0.1945102,None,,,,,,,,,45,1,2020_Jan_03_1138,untitled,3.1.0,60.11053127
135,F,N,270,R,N,135FN270RN,HRN,0,3,3,214,,,0.73,302.363313,302.6514103,302.6514103,302.8829023,302.8997042,None,up,1.7843582,302.8997042,None,302.8997042,303.6159553,0.1815941,None,,,,,,,,,45,1,2020_Jan_03_1138,untitled,3.1.0,60.11053127
130,F,N,45,R,N,130FN045RN,HRN,0,4,4,209,,,0.944,304.9071011,305.1977688,305.1977688,305.3975301,305.4147116,None,up,2.9321282,305.4147116,None,305.4147116,306.3466825,0.2099308,None,,,,,,,,,45,1,2020_Jan_03_1138,untitled,3.1.0,60.11053127
385,_4,N,0,R,N,385_4N000RN,HRN,0,5,5,256,,,1.187,308.531321,308.8277868,308.8277868,309.0609539,309.0774879,None,up,2.9167171,309.0774879,None,309.0774879,310.2442163,0.1722675,None,,,,,,,,,45,1,2020_Jan_03_1138,untitled,3.1.0,60.11053127
_,G,N,0,_,_,_GN000__,N,0,6,6,56,,,1.198,312.2097459,312.5084661,312.5084661,312.7091614,312.7250995,None,up,2.9647441,312.7250995,None,312.7250995,313.9075366,0.2007771,None,,,,,,,,,45,1,2020_Jan_03_1138,untitled,3.1.0,60.11053127
195,G,N,90,R,N,195GN090RN,HRN,0,7,7,226,,,1.251,315.8787745,316.1715226,316.1715226,316.4044716,316.4213741,None,up,3.4147762,316.4213741,None,316.4213741,317.653562,0.1762444,None,,,,,,,,,45,1,2020_Jan_03_1138,untitled,3.1.0,60.11053127
_,_4,M,315,_,_,__4M315__,N,0,8,8,39,,,0.821,320.0198834,320.3177835,320.3177835,320.5507429,320.5674481,None,down,2.7661116,320.5674481,None,320.5674481,321.366757,0.1709939,None,,,,,,,,,45,1,2020_Jan_03_1138,untitled,3.1.0,60.11053127
426,_4,M,45,L,N,426_4M045LN,HLN,0,9,9,169,,,1.345,323.5141832,323.8145542,323.8145542,324.0477323,324.0645143,None,None,,324.0645143,None,324.0645143,325.3966912,0.1694988,None,,,,,,,,,45,1,2020_Jan_03_1138,untitled,3.1.0,60.11053127
_,_4,N,225,_,_,__4N225__,N,0,10,10,85,,,1.083,327.721196,328.0115377,328.0115377,328.2441836,328.2611283,327.721196,up,3.1480049,328.2611283,None,328.2611283,329.3275105,0.1817971,None,,,,,,,,,45,1,2020_Jan_03_1138,untitled,3.1.0,60.11053127
34,R,N,45,L,N,034RN045LN,HLN,0,11,11,201,,,1.057,331.5919471,331.8907698,331.8907698,332.1239942,332.1412133,None,up,2.365459,332.1412133,None,332.1412133,333.1899725,0.1703379,None,,,,,,,,,45,1,2020_Jan_03_1138,untitled,3.1.0,60.11053127
163,F,N,90,L,N,163FN090LN,HLN,0,12,12,218,,,1.242,334.7032094,335.004819,335.004819,335.2211421,335.2378715,None,up,2.3328239,335.2378715,None,335.2378715,336.4708797,0.1824517,None,,,,,,,,,45,1,2020_Jan_03_1138,untitled,3.1.0,60.11053127
269,_2,M,180,R,N,269_2M180RN,HRN,0,13,13,148,,,0.96,337.7904909,338.0855444,338.0855444,338.2860441,338.3021967,None,None,,338.3021967,None,338.3021967,339.2514495,0.2051809,None,,,,,,,,,45,1,2020_Jan_03_1138,untitled,3.1.0,60.11053127
_,R,M,180,_,_,_RM180__,N,0,14,14,20,,,1.199,342.0787785,342.3819665,342.3819665,342.4819945,342.4986027,342.0787785,down,2.7171693,342.4986027,None,342.4986027,343.6807048,0.2988628,None,,,,,,,,,45,1,2020_Jan_03_1138,untitled,3.1.0,60.11053127
428,_4,M,135,L,N,428_4M135LN,HLN,0,15,15,171,,,0.777,345.539653,345.8288436,345.8288436,345.9287747,345.945508,None,down,2.1677997,345.945508,None,345.945508,346.7116212,0.3094708,None,,,,,,,,,45,1,2020_Jan_03_1138,untitled,3.1.0,60.11053127
139,F,M,90,R,N,139FM090RN,HRN,0,16,16,114,,,0.824,348.3477571,348.6428882,348.6428882,348.8260696,348.8428526,None,down,2.2665204,348.8428526,None,348.8428526,349.6597651,0.2198433,None,,,,,,,,,45,1,2020_Jan_03_1138,untitled,3.1.0,60.11053127
170,F,M,45,L,N,170FM045LN,HLN,0,17,17,121,,,1.189,351.3469252,351.6403677,351.6403677,351.8236439,351.8405382,None,down,3.0503726,351.8405382,None,351.8405382,353.0071586,0.224462,None,,,,,,,,,45,1,2020_Jan_03_1138,untitled,3.1.0,60.11053127
_,F,M,135,_,_,_FM135__,N,0,18,18,3,,,1.267,355.1895129,355.4870266,355.4870266,355.6036664,355.6204006,None,up,3.2483363,355.6204006,None,355.6204006,356.8692201,0.2851324,None,,,,,,,,,45,1,2020_Jan_03_1138,untitled,3.1.0,60.11053127
232,G,N,315,L,N,232GN315LN,HLN,0,19,19,239,,,0.882,359.0608519,359.351654,359.351654,359.584032,359.6015134,None,up,2.8820482,359.6015134,None,359.6015134,360.4661058,0.1799271,None,,,,,,,,,45,1,2020_Jan_03_1138,untitled,3.1.0,60.11053127
_,G,M,135,_,_,_GM135__,N,0,20,20,11,,,0.831,362.6747603,362.965124,362.965124,363.1976447,363.2147293,None,None,,363.2147293,None,363.2147293,364.0344055,0.178819,None,,,,,,,,,45,1,2020_Jan_03_1138,untitled,3.1.0,60.11053127
162,F,N,45,L,N,162FN045LN,HLN,0,21,21,217,,,1.4,366.9942408,367.2935688,367.2935688,367.3935454,367.4101285,366.9942408,None,,367.4101285,None,367.4101285,368.7930572,0.3036744,None,,,,,,,,,45,1,2020_Jan_03_1138,untitled,3.1.0,60.11053127
264,_2,N,315,R,N,264_2N315RN,HRN,0,22,22,247,,,1.332,371.0859841,371.3882129,371.3882129,371.5901253,371.6066643,371.0859841,up,3.2685226,371.6066643,None,371.6066643,372.9227794,0.2009756,None,,,,,,,,,45,1,2020_Jan_03_1138,untitled,3.1.0,60.11053127
_,R,M,45,_,_,_RM045__,N,0,23,23,17,,,0.817,375.0896445,375.3867851,375.3867851,375.5864964,375.6035656,None,None,,375.6035656,None,375.6035656,376.4033195,0.1989216,None,,,,,,,,,45,1,2020_Jan_03_1138,untitled,3.1.0,60.11053127
301,_2,M,180,L,N,301_2M180LN,HLN,0,24,24,156,,,1.36,379.3093227,379.5992514,379.5992514,379.7841132,379.8006475,379.3093227,up,3.3635869,379.8006475,None,379.8006475,381.1479567,0.2288048,None,,,,,,,,,45,1,2020_Jan_03_1138,untitled,3.1.0,60.11053127
176,F,M,315,L,N,176FM315LN,HLN,0,25,25,127,,,0.915,383.3804065,383.6791535,383.6791535,383.8794512,383.896091,None,down,3.065087,383.896091,None,383.896091,384.7950651,0.2029619,None,,,,,,,,,45,1,2020_Jan_03_1138,untitled,3.1.0,60.11053127
_,F,N,45,_,_,_FN045__,N,0,26,26,49,,,0.946,387.1775985,387.4760361,387.4760361,387.6755204,387.6923618,None,up,2.3668789,387.6923618,None,387.6923618,388.6249624,0.2034116,None,,,,,,,,,45,1,2020_Jan_03_1138,untitled,3.1.0,60.11053127
495,_5,M,270,L,N,495_5M270LN,HLN,0,27,27,190,,,1.023,390.3880229,390.6879097,390.6879097,390.7738139,390.7948732,None,up,3.0779905,390.7948732,None,390.7948732,391.806763,0.313234,None,,,,,,,,,45,1,2020_Jan_03_1138,untitled,3.1.0,60.11053127
5,R,N,180,R,N,005RN180RN,HRN,0,28,28,196,,,1.218,394.0901491,394.3879219,394.3879219,394.5862473,394.6029215,None,up,3.3165271,394.6029215,None,394.6029215,395.8019915,0.2043668,None,,,,,,,,,45,1,2020_Jan_03_1138,untitled,3.1.0,60.11053127
268,_2,M,135,R,N,268_2M135RN,HRN,0,29,29,147,,,0.843,398.1368014,398.4329817,398.4329817,398.6325723,398.6496308,None,up,2.9320626,398.6496308,None,398.6496308,399.4821175,0.2047956,None,,,,,,,,,45,1,2020_Jan_03_1138,untitled,3.1.0,60.11053127
390,_4,N,225,R,N,390_4N225RN,HRN,0,30,30,261,,,1.383,401.7991342,402.0965861,402.0965861,402.296616,402.3131949,None,up,2.8650265,402.3131949,None,402.3131949,403.6788138,0.2035895,None,,,,,,,,,45,1,2020_Jan_03_1138,untitled,3.1.0,60.11053127
_,G,M,315,_,_,_GM315__,N,0,31,31,15,,,0.701,405.370775,405.6606716,405.6606716,405.8933428,405.9105165,None,down,2.3835412,405.9105165,None,405.9105165,406.5931395,0.1803219,None,,,,,,,,,45,1,2020_Jan_03_1138,untitled,3.1.0,60.11053127
161,F,N,0,L,N,161FN000LN,HLN,0,32,32,216,,,0.796,408.4957372,408.7910146,408.7910146,409.0071357,409.0238368,None,up,2.1184834,409.0238368,None,409.0238368,409.8091141,0.189165,None,,,,,,,,,45,1,2020_Jan_03_1138,untitled,3.1.0,60.11053127
172,F,M,135,L,N,172FM135LN,HLN,0,33,33,123,,,1.296,411.3495135,411.6388299,411.6388299,411.8547413,411.871896,None,down,3.2986895,411.871896,None,411.871896,413.1536062,0.1945534,None,,,,,,,,,45,1,2020_Jan_03_1138,untitled,3.1.0,60.11053127
3,R,N,90,R,N,003RN090RN,HRN,0,34,34,194,,,1.093,415.3574674,415.6512671,415.6512671,415.8843874,415.9011098,None,None,,415.9011098,None,415.9011098,416.9836185,0.175285,None,,,,,,,,,45,1,2020_Jan_03_1138,untitled,3.1.0,60.11053127
_,F,N,135,_,_,_FN135__,N,0,35,35,51,,,0.965,419.5915061,419.8808018,419.8808018,420.0819434,420.1038282,419.5915061,up,2.8935792,420.1038282,None,420.1038282,421.0468211,0.2121155,None,,,,,,,,,45,1,2020_Jan_03_1138,untitled,3.1.0,60.11053127
271,_2,M,270,R,N,271_2M270RN,HRN,0,36,36,150,,,1.056,423.2279193,423.5276218,423.5276218,423.710725,423.7274926,None,None,,423.7274926,None,423.7274926,424.7782336,0.2160378,None,,,,,,,,,45,1,2020_Jan_03_1138,untitled,3.1.0,60.11053127
33,R,N,0,L,N,033RN000LN,HLN,0,37,37,200,,,1.248,427.4245196,427.7239307,427.7239307,427.9237733,427.9404588,427.4245196,up,2.7489362,427.9404588,None,427.9404588,429.1728056,0.2029611,None,,,,,,,,,45,1,2020_Jan_03_1138,untitled,3.1.0,60.11053127
140,F,M,135,R,N,140FM135RN,HRN,0,38,38,115,,,1.107,430.9132514,431.2042899,431.2042899,431.4040822,431.4209139,None,None,,431.4209139,None,431.4209139,432.519887,0.2119644,None,,,,,,,,,45,1,2020_Jan_03_1138,untitled,3.1.0,60.11053127
_,_4,N,45,_,_,__4N045__,N,0,39,39,81,,,0.884,435.1344105,435.4339621,435.4339621,435.6005088,435.6172174,435.1344105,up,2.3176054,435.6172174,None,435.6172174,436.4851787,0.2374883,None,,,,,,,,,45,1,2020_Jan_03_1138,untitled,3.1.0,60.11053127
489,_5,M,0,L,N,489_5M000LN,HLN,0,40,40,184,,,1.059,438.5456964,438.5456964,438.5456964,438.8476475,438.8476475,None,down,2.6032697,438.8476475,None,438.8476475,439.7135293,0.5970811,None,,,,,,,,,45,1,2020_Jan_03_1138,untitled,3.1.0,60.11053127
452,_5,N,135,R,N,452_5N135RN,HRN,0,41,41,275,,,0.91,441.6733952,441.961745,441.961745,442.1779983,442.1946571,None,up,2.6999549,442.1946571,None,442.1946571,443.0772196,0.2034156,None,,,,,,,,,45,1,2020_Jan_03_1138,untitled,3.1.0,60.11053127
16,R,M,315,R,N,016RM315RN,HRN,0,42,42,103,,,0.969,445.0837015,445.3756015,445.3756015,445.6084568,445.6251367,None,down,2.4514018,445.6251367,None,445.6251367,446.5744156,0.1750606,None,,,,,,,,,45,1,2020_Jan_03_1138,untitled,3.1.0,60.11053127
_,R,N,225,_,_,_RN225__,N,0,43,43,69,,,1.365,448.259926,448.5558365,448.5558365,448.7899017,448.8061007,None,up,2.9847066,448.8061007,None,448.8061007,450.1552196,0.1714973,None,,,,,,,,,45,1,2020_Jan_03_1138,untitled,3.1.0,60.11053127
303,_2,M,270,L,N,303_2M270LN,HLN,0,44,44,158,,,1.381,451.9843989,452.2866943,452.2866943,452.5034056,452.5209122,None,None,,452.5209122,None,452.5209122,453.8852295,0.1800654,None,,,,,,,,,45,1,2020_Jan_03_1138,untitled,3.1.0,60.11053127
418,_4,N,45,L,N,418_4N045LN,HLN,0,45,45,265,,,0.816,456.2619565,456.5640224,456.5640224,456.7155835,456.7325163,456.2619565,up,1.8497575,456.7325163,None,456.7325163,457.5318116,0.2498125,None,,,,,,,,,45,1,2020_Jan_03_1138,untitled,3.1.0,60.11053127
8,R,N,315,R,N,008RN315RN,HRN,0,46,46,199,,,1.236,458.7891165,459.0798951,459.0798951,459.2964766,459.3131806,None,up,2.7994448,459.3131806,None,459.3131806,460.5284983,0.1927585,None,,,,,,,,,45,1,2020_Jan_03_1138,untitled,3.1.0,60.11053127
486,_5,N,225,L,N,486_5N225LN,HLN,0,47,47,285,,,0.737,462.3129877,462.6100791,462.6100791,462.8275252,462.8452703,None,up,2.5316949,462.8452703,None,462.8452703,463.5598379,0.1874341,None,,,,,,,,,45,1,2020_Jan_03_1138,untitled,3.1.0,60.11053127
36,R,N,135,L,N,036RN135LN,HLN,0,48,48,203,,,1.308,466.006615,466.006615,466.006615,466.3054312,466.3054312,None,up,2.8518368,466.3054312,None,466.3054312,467.4061349,0.6138074,None,,,,,,,,,45,1,2020_Jan_03_1138,untitled,3.1.0,60.11053127
395,_4,M,90,R,N,395_4M090RN,HRN,0,49,49,162,,,0.859,469.3884417,469.6876417,469.6876417,469.8713673,469.8879594,None,down,2.5162474,469.8879594,None,469.8879594,470.7360606,0.217193,None,,,,,,,,,45,1,2020_Jan_03_1138,untitled,3.1.0,60.11053127
463,_5,M,270,R,N,463_5M270RN,HRN,0,50,50,182,,,0.905,472.6832753,472.9843318,472.9843318,473.1177569,473.1348292,None,down,3.4486911,473.1348292,None,473.1348292,474.0333398,0.2665467,None,,,,,,,,,45,1,2020_Jan_03_1138,untitled,3.1.0,60.11053127
_,F,M,0,_,_,_FM000__,N,0,51,51,0,,,1.305,476.8040882,477.0979247,477.0979247,477.2973463,477.3141843,None,None,,477.3141843,None,477.3141843,478.6131125,0.2069106,None,,,,,,,,,45,1,2020_Jan_03_1138,untitled,3.1.0,60.11053127
421,_4,N,180,L,N,421_4N180LN,HLN,0,52,52,268,,,0.903,480.9774781,481.2780321,481.2780321,481.4937599,481.5109282,480.9774781,up,2.4656969,481.5109282,None,481.5109282,482.4098322,0.1829636,None,,,,,,,,,45,1,2020_Jan_03_1138,untitled,3.1.0,60.11053127
_,_4,M,180,_,_,__4M180__,N,0,53,53,36,,,0.798,484.204451,484.4939734,484.4939734,484.6914842,484.7086032,None,down,3.2324022,484.7086032,None,484.7086032,485.4902917,0.2120394,None,,,,,,,,,45,1,2020_Jan_03_1138,untitled,3.1.0,60.11053127
_,_5,N,90,_,_,__5N090__,N,0,54,54,90,,,0.877,488.1270926,488.4213056,488.4213056,488.6541247,488.6709323,None,up,2.3989684,488.6709323,None,488.6709323,489.5366705,0.1746834,None,,,,,,,,,45,1,2020_Jan_03_1138,untitled,3.1.0,60.11053127
491,_5,M,90,L,N,491_5M090LN,HLN,0,55,55,186,,,0.764,491.2889521,491.5847519,491.5847519,491.7850058,491.8020051,None,None,,491.8020051,None,491.8020051,492.5508311,0.2056889,None,,,,,,,,,45,1,2020_Jan_03_1138,untitled,3.1.0,60.11053127
_,_2,M,90,_,_,__2M090__,N,0,56,56,26,,,1.022,495.4949082,495.7963673,495.7963673,495.9814826,495.9977866,495.4949082,None,,495.9977866,None,495.9977866,496.9971388,0.2154483,None,,,,,,,,,45,1,2020_Jan_03_1138,untitled,3.1.0,60.11053127
_,_2,M,135,_,_,__2M135__,N,0,57,57,27,,,1.204,499.6946208,499.9947163,499.9947163,500.1784732,500.1956661,499.6946208,up,3.0311779,500.1956661,None,500.1956661,501.3767737,0.2196067,None,,,,,,,,,45,1,2020_Jan_03_1138,untitled,3.1.0,60.11053127
_,_4,N,0,_,_,__4N000__,N,0,58,58,80,,,1.355,503.4572127,503.7574394,503.7574394,503.9408847,503.9576317,None,None,,503.9576317,None,503.9576317,505.306205,0.2164444,None,,,,,,,,,45,1,2020_Jan_03_1138,untitled,3.1.0,60.11053127
137,F,M,0,R,N,137FM000RN,HRN,0,59,59,112,,,0.916,507.6688357,507.9706557,507.9706557,508.1545119,508.1707099,507.6688357,down,2.0671059,508.1707099,None,508.1707099,509.0694696,0.2179086,None,,,,,,,,,45,1,2020_Jan_03_1138,untitled,3.1.0,60.11053127
270,_2,M,225,R,N,270_2M225RN,HRN,0,60,60,149,,,1.392,510.5649852,510.853144,510.853144,510.9682188,510.9682188,None,None,,510.9682188,None,510.9682188,512.3501886,0.3089944,None,,,,,,,,,45,1,2020_Jan_03_1138,untitled,3.1.0,60.11053127
_,_2,N,135,_,_,__2N135__,N,0,61,61,75,,,0.987,514.6849278,514.9814931,514.9814931,515.1650091,515.1825048,514.6849278,down,2.563631,515.1825048,None,515.1825048,516.1472633,0.2219811,None,,,,,,,,,45,1,2020_Jan_03_1138,untitled,3.1.0,60.11053127
236,G,M,135,L,N,236GM135LN,HLN,0,62,62,139,,,0.778,518.0205364,518.3415175,518.3415175,518.462118,518.4789842,None,None,,518.4789842,None,518.4789842,519.2439935,0.2615466,None,,,,,,,,,45,1,2020_Jan_03_1138,untitled,3.1.0,60.11053127
237,G,M,180,L,N,237GM180LN,HLN,0,63,63,140,,,0.92,522.1415042,522.4412926,522.4412926,522.657588,522.6744042,522.1415042,None,,522.6744042,None,522.6744042,523.5733172,0.1874846,None,,,,,,,,,45,1,2020_Jan_03_1138,untitled,3.1.0,60.11053127
41,R,M,0,L,N,041RM000LN,HLN,0,64,64,104,,,0.869,526.3318006,526.6211082,526.6211082,526.854135,526.8709747,526.3318006,down,1.9661067,526.8709747,None,526.8709747,527.7201361,0.1805056,None,,,,,,,,,45,1,2020_Jan_03_1138,untitled,3.1.0,60.11053127
483,_5,N,90,L,N,483_5N090LN,HLN,0,65,65,282,,,0.762,529.1323829,529.4205322,529.4205322,529.5524389,529.5692674,None,up,1.9989296,529.5692674,None,529.5692674,530.3178596,0.2816149,None,,,,,,,,,45,1,2020_Jan_03_1138,untitled,3.1.0,60.11053127
289,_2,N,0,L,N,289_2N000LN,HLN,0,66,66,248,,,1.073,531.8857532,532.1831558,532.1831558,532.2834915,532.3002928,None,up,2.8990258,532.3002928,None,532.3002928,533.3658194,0.3037616,None,,,,,,,,,45,1,2020_Jan_03_1138,untitled,3.1.0,60.11053127
417,_4,N,0,L,N,417_4N000LN,HLN,0,67,67,264,,,1.008,535.4732256,535.763117,535.763117,535.9127477,535.9297412,None,up,1.8336124,535.9297412,None,535.9297412,536.9285123,0.2605583,None,,,,,,,,,45,1,2020_Jan_03_1138,untitled,3.1.0,60.11053127
_,_2,M,270,_,_,__2M270__,N,0,68,68,30,,,0.892,537.9842724,538.2775519,538.2775519,538.4771031,538.4938386,None,down,2.566705,538.4938386,None,538.4938386,539.3765213,0.2088183,None,,,,,,,,,45,1,2020_Jan_03_1138,untitled,3.1.0,60.11053127
388,_4,N,135,R,N,388_4N135RN,HRN,0,69,69,259,,,1.186,541.2947009,541.5909473,541.5909473,541.7757697,541.7942382,None,up,2.9969763,541.7942382,None,541.7942382,542.957882,0.2207524,None,,,,,,,,,45,1,2020_Jan_03_1138,untitled,3.1.0,60.11053127
_,F,N,315,_,_,_FN315__,N,0,70,70,55,,,1.076,545.0797648,545.3715338,545.3715338,545.5044999,545.521943,None,down,2.9983743,545.521943,None,545.521943,546.5868948,0.2741887,None,,,,,,,,,45,1,2020_Jan_03_1138,untitled,3.1.0,60.11053127
_,G,M,180,_,_,_GM180__,N,0,71,71,12,,,1.174,548.7264406,549.0185791,549.0185791,549.2365272,549.274809,None,None,,549.274809,None,549.274809,550.417174,0.193212,None,,,,,,,,,45,1,2020_Jan_03_1138,untitled,3.1.0,60.11053127
43,R,M,90,L,N,043RM090LN,HLN,0,72,72,106,,,1.134,552.9146541,553.2143601,553.2143601,553.4309696,553.4479202,552.9146541,down,2.8821703,553.4479202,None,553.4479202,554.5638371,0.1867917,None,,,,,,,,,45,1,2020_Jan_03_1138,untitled,3.1.0,60.11053127
134,F,N,225,R,N,134FN225RN,HRN,0,73,73,213,,,1.345,556.5485969,556.844678,556.844678,557.044463,557.0614075,None,up,2.8155627,557.0614075,None,557.0614075,558.3933295,0.2039462,None,,,,,,,,,45,1,2020_Jan_03_1138,untitled,3.1.0,60.11053127
_,R,N,45,_,_,_RN045__,N,0,74,74,65,,,0.923,560.214089,560.5082151,560.5082151,560.5920665,560.6088812,None,up,3.0822689,560.6088812,None,560.6088812,561.5245332,0.3225672,None,,,,,,,,,45,1,2020_Jan_03_1138,untitled,3.1.0,60.11053127
133,F,N,180,R,N,133FN180RN,HRN,0,75,75,212,,,0.977,563.9016287,564.1905396,564.1905396,564.406846,564.4257369,None,up,3.2292763,564.4257369,None,564.4257369,565.3870799,0.1952592,None,,,,,,,,,45,1,2020_Jan_03_1138,untitled,3.1.0,60.11053127
40,R,N,315,L,N,040RN315LN,HLN,0,76,76,207,,,0.869,567.8815557,568.1694322,568.1694322,568.3679004,568.3847129,None,up,2.1494718,568.3847129,None,568.3847129,569.2355471,0.2140521,None,,,,,,,,,45,1,2020_Jan_03_1138,untitled,3.1.0,60.11053127
13,R,M,180,R,N,013RM180RN,HRN,0,77,77,100,,,1.392,570.7593811,571.0487918,571.0487918,571.2490506,571.265532,None,None,,571.265532,None,571.265532,572.6475738,0.2119889,None,,,,,,,,,45,1,2020_Jan_03_1138,untitled,3.1.0,60.11053127
431,_4,M,270,L,N,431_4M270LN,HLN,0,78,78,174,,,1.01,574.9428972,575.2435556,575.2435556,575.4449565,575.4618979,574.9428972,None,,575.4618979,None,575.4618979,576.4615245,0.2005668,None,,,,,,,,,45,1,2020_Jan_03_1138,untitled,3.1.0,60.11053127
_,_4,M,225,_,_,__4M225__,N,0,79,79,37,,,0.893,579.1123448,579.4086505,579.4086505,579.6421469,579.6590608,579.1123448,up,2.2159367,579.6590608,None,579.6590608,580.5418854,0.175636,None,,,,,,,,,45,1,2020_Jan_03_1138,untitled,3.1.0,60.11053127
_,R,N,315,_,_,_RN315__,N,0,80,80,71,,,0.845,582.0873617,582.3890267,582.3890267,582.5889291,582.6057438,None,up,2.1166409,582.6057438,None,582.6057438,583.438043,0.1998976,None,,,,,,,,,45,1,2020_Jan_03_1138,untitled,3.1.0,60.11053127
455,_5,N,270,R,N,455_5N270RN,HRN,0,81,81,278,,,0.732,584.9582026,585.2531485,585.2531485,585.4362673,585.4532658,None,up,2.0492745,585.4532658,None,585.4532658,586.1694616,0.2227535,None,,,,,,,,,45,1,2020_Jan_03_1138,untitled,3.1.0,60.11053127
266,_2,M,45,R,N,266_2M045RN,HRN,0,82,82,145,,,0.981,587.7170894,588.0174936,588.0174936,588.2175576,588.2339729,None,down,2.4199613,588.2339729,None,588.2339729,589.199899,0.2015159,None,,,,,,,,,45,1,2020_Jan_03_1138,untitled,3.1.0,60.11053127
261,_2,N,180,R,N,261_2N180RN,HRN,0,83,83,244,,,1.304,590.8789502,591.181403,591.181403,591.3648546,591.3814301,None,None,,591.3814301,None,591.3814301,592.6804043,0.2116678,None,,,,,,,,,45,1,2020_Jan_03_1138,untitled,3.1.0,60.11053127
_,_5,N,45,_,_,__5N045__,N,0,84,84,89,,,1.172,595.1340301,595.4532361,595.4532361,595.5778959,595.5945061,595.1340301,up,2.2824234,595.5945061,None,595.5945061,596.7601125,0.2534206,None,,,,,,,,,45,1,2020_Jan_03_1138,untitled,3.1.0,60.11053127
_,R,N,90,_,_,_RN090__,N,0,85,85,66,,,0.904,598.0688809,598.3586717,598.3586717,598.5915404,598.6081882,None,up,2.5327301,598.6081882,None,598.6081882,599.4908526,0.1797877,None,,,,,,,,,45,1,2020_Jan_03_1138,untitled,3.1.0,60.11053127
_,F,M,225,_,_,_FM225__,N,0,86,86,5,,,0.719,601.3696304,601.6721265,601.6721265,601.8555091,601.8722595,None,down,3.2168112,601.8722595,None,601.8722595,602.5714135,0.2151548,None,,,,,,,,,45,1,2020_Jan_03_1138,untitled,3.1.0,60.11053127
1,R,N,0,R,N,001RN000RN,HRN,0,87,87,192,,,0.822,605.3847706,605.6836268,605.6836268,605.8018927,605.8187651,None,up,1.9837036,605.8187651,None,605.8187651,606.6349003,0.2814844,None,,,,,,,,,45,1,2020_Jan_03_1138,untitled,3.1.0,60.11053127
235,G,M,90,L,N,235GM090LN,HLN,0,88,88,138,,,0.848,608.041904,608.3331055,608.3331055,608.5162223,608.5329621,None,down,2.6439859,608.5329621,None,608.5329621,609.3651947,0.2223142,None,,,,,,,,,45,1,2020_Jan_03_1138,untitled,3.1.0,60.11053127
297,_2,M,0,L,N,297_2M000LN,HLN,0,89,89,152,,,1.345,611.4109152,611.6981859,611.6981859,611.8965388,611.9131847,None,down,2.4499309,611.9131847,None,611.9131847,613.2455103,0.2182105,None,,,,,,,,,45,1,2020_Jan_03_1138,untitled,3.1.0,60.11053127
430,_4,M,225,L,N,430_4M225LN,HLN,0,90,90,173,,,1.078,614.5527871,614.8441103,614.8441103,615.0775359,615.0942572,None,up,3.0149252,615.0942572,None,615.0942572,616.1596186,0.17708,None,,,,,,,,,45,1,2020_Jan_03_1138,untitled,3.1.0,60.11053127
425,_4,M,0,L,N,425_4M000LN,HLN,0,91,91,168,,,0.8,618.3241531,618.6242829,618.6242829,618.824576,618.8408111,None,down,3.3651878,618.8408111,None,618.8408111,619.6233882,0.2018191,None,,,,,,,,,45,1,2020_Jan_03_1138,untitled,3.1.0,60.11053127
_,_5,M,180,_,_,__5M180__,N,0,92,92,44,,,0.946,622.5010449,622.8019876,622.8019876,622.9204798,622.9372538,None,None,,622.9372538,None,622.9372538,623.8703918,0.2817662,None,,,,,,,,,45,1,2020_Jan_03_1138,untitled,3.1.0,60.11053127
294,_2,N,225,L,N,294_2N225LN,HLN,0,93,93,253,,,0.8,626.6837104,626.9834916,626.9834916,627.1334799,627.149971,626.6837104,up,2.1348339,627.149971,None,627.149971,627.9329308,0.2519846,None,,,,,,,,,45,1,2020_Jan_03_1138,untitled,3.1.0,60.11053127
_,_2,N,225,_,_,__2N225__,N,0,94,94,77,,,1.128,629.5018742,629.7975098,629.7975098,629.9991618,630.0145577,None,up,2.4679115,630.0145577,None,630.0145577,631.1299466,0.2045863,None,,,,,,,,,45,1,2020_Jan_03_1138,untitled,3.1.0,60.11053127
464,_5,M,315,R,N,464_5M315RN,HRN,0,95,95,183,,,0.811,632.6977547,632.9949016,632.9949016,633.1947204,633.2116274,None,down,2.617406,633.2116274,None,633.2116274,634.0105729,0.2027503,None,,,,,,,,,45,1,2020_Jan_03_1138,untitled,3.1.0,60.11053127
_,_5,M,270,_,_,__5M270__,N,0,96,96,46,,,1.372,636.0395619,636.3417931,636.3417931,636.5417026,636.5584367,None,down,3.299116,636.5584367,None,636.5584367,637.9242633,0.1972766,None,,,,,,,,,45,1,2020_Jan_03_1138,untitled,3.1.0,60.11053127
200,G,N,315,R,N,200GN315RN,HRN,0,97,97,231,,,0.935,640.0448728,640.3386104,640.3386104,640.5715767,640.5882412,None,None,,640.5882412,None,640.5882412,641.5052878,0.1751813,None,,,,,,,,,45,1,2020_Jan_03_1138,untitled,3.1.0,60.11053127
6,R,N,225,R,N,006RN225RN,HRN,0,98,98,197,,,1.089,644.2663029,644.5682953,644.5682953,644.7681259,644.7873037,644.2663029,up,2.2632769,644.7873037,None,644.7873037,645.8504875,0.201494,None,,,,,,,,,45,1,2020_Jan_03_1138,untitled,3.1.0,60.11053127
208,G,M,315,R,N,208GM315RN,HRN,0,99,99,135,,,1.232,647.2884567,647.5822646,647.5822646,647.765245,647.783891,None,down,2.2318894,647.783891,None,647.783891,648.9977218,0.2238748,None,,,,,,,,,45,1,2020_Jan_03_1138,untitled,3.1.0,60.11053127
204,G,M,135,R,N,204GM135RN,HRN,0,100,100,131,,,1.346,650.2632479,650.5628128,650.5628128,650.7291306,650.7459014,None,None,,650.7459014,None,650.7459014,652.0787963,0.2356364,None,,,,,,,,,45,1,2020_Jan_03_1138,untitled,3.1.0,60.11053127
393,_4,M,0,R,N,393_4M000RN,HRN,0,101,101,160,,,0.906,654.4429633,654.7428884,654.7428884,654.9261331,654.9431616,654.4429633,up,3.3483856,654.9431616,None,654.9431616,655.8245411,0.220707,None,,,,,,,,,45,1,2020_Jan_03_1138,untitled,3.1.0,60.11053127
_,_5,N,315,_,_,__5N315__,N,0,102,102,95,,,1.213,658.4606729,658.7554769,658.7554769,659.0058544,659.022125,None,up,2.2817202,659.022125,None,659.022125,660.2219082,0.1558039,None,,,,,,,,,45,1,2020_Jan_03_1138,untitled,3.1.0,60.11053127
299,_2,M,90,L,N,299_2M090LN,HLN,0,103,103,154,,,1.083,661.4994912,661.8011658,661.8011658,662.0196824,662.0361885,None,down,3.3154942,662.0361885,None,662.0361885,663.102857,0.1835047,None,,,,,,,,,45,1,2020_Jan_03_1138,untitled,3.1.0,60.11053127
202,G,M,45,R,N,202GM045RN,HRN,0,104,104,129,,,1.205,665.5731781,665.866295,665.866295,666.0661366,666.0838805,None,down,2.9487951,666.0838805,None,666.0838805,667.281518,0.2080232,None,,,,,,,,,45,1,2020_Jan_03_1138,untitled,3.1.0,60.11053127
227,G,N,90,L,N,227GN090LN,HLN,0,105,105,234,,,0.761,669.380409,669.6796424,669.6796424,669.7461176,669.7635022,None,up,1.9664103,669.7635022,None,669.7635022,670.5131612,0.3324697,None,,,,,,,,,45,1,2020_Jan_03_1138,untitled,3.1.0,60.11053127
272,_2,M,315,R,N,272_2M315RN,HRN,0,106,106,151,,,0.777,671.9428666,672.2438432,672.2438432,672.4438763,672.4607807,None,down,2.449232,672.4607807,None,672.4607807,673.2269649,0.1996414,None,,,,,,,,,45,1,2020_Jan_03_1138,untitled,3.1.0,60.11053127
461,_5,M,180,R,N,461_5M180RN,HRN,0,107,107,180,,,1.06,675.1315719,675.4244643,675.4244643,675.6243198,675.6411205,None,up,3.365308,675.6411205,None,675.6411205,676.6902009,0.2088067,None,,,,,,,,,45,1,2020_Jan_03_1138,untitled,3.1.0,60.11053127
262,_2,N,225,R,N,262_2N225RN,HRN,0,108,108,245,,,1.389,679.2231807,679.52075,679.52075,679.7208552,679.7374195,None,up,3.4495719,679.7374195,None,679.7374195,681.119406,0.2020909,None,,,,,,,,,45,1,2020_Jan_03_1138,untitled,3.1.0,60.11053127
10,R,M,45,R,N,010RM045RN,HRN,0,109,109,97,,,0.774,683.3909875,683.6838619,683.6838619,683.900441,683.9172579,None,down,2.6495745,683.9172579,None,683.9172579,684.6835098,0.1909997,None,,,,,,,,,45,1,2020_Jan_03_1138,untitled,3.1.0,60.11053127
386,_4,N,45,R,N,386_4N045RN,HRN,0,110,110,257,,,0.713,686.752878,687.0473724,687.0473724,687.2807947,687.2976838,None,up,1.9167062,687.2976838,None,687.2976838,687.9973939,0.1731199,None,,,,,,,,,45,1,2020_Jan_03_1138,untitled,3.1.0,60.11053127
485,_5,N,180,L,N,485_5N180LN,HLN,0,111,111,284,,,1.052,689.4307177,689.7289542,689.7289542,689.9284251,689.9452104,None,up,2.8328746,689.9452104,None,689.9452104,690.9774508,0.2038001,None,,,,,,,,,45,1,2020_Jan_03_1138,untitled,3.1.0,60.11053127
_,F,N,270,_,_,_FN270__,N,0,112,112,54,,,0.772,693.0849271,693.3754213,693.3754213,693.5086918,693.5086918,None,up,2.3165392,693.5086918,None,693.5086918,694.2748547,0.2887684,None,,,,,,,,,45,1,2020_Jan_03_1138,untitled,3.1.0,60.11053127
_,F,N,180,_,_,_FN180__,N,0,113,113,52,,,0.851,696.0322456,696.3228979,696.3228979,696.5393891,696.5559883,None,up,2.4021069,696.5559883,None,696.5559883,697.3888149,0.1932634,None,,,,,,,,,45,1,2020_Jan_03_1138,untitled,3.1.0,60.11053127
296,_2,N,315,L,N,296_2N315LN,HLN,0,114,114,255,,,1.017,699.1576354,699.4535966,699.4535966,699.6705346,699.6874146,None,None,,699.6874146,None,699.6874146,700.6859847,0.1873272,None,,,,,,,,,45,1,2020_Jan_03_1138,untitled,3.1.0,60.11053127
166,F,N,225,L,N,166FN225LN,HLN,0,115,115,221,,,0.702,703.3607068,703.651917,703.651917,703.8673619,703.8843998,703.3607068,up,1.5151677,703.8843998,None,703.8843998,704.5656422,0.198917,None,,,,,,,,,45,1,2020_Jan_03_1138,untitled,3.1.0,60.11053127
_,F,N,90,_,_,_FN090__,N,0,116,116,50,,,0.791,705.6962955,705.9977457,705.9977457,706.1142532,706.1310683,None,up,1.9823012,706.1310683,None,706.1310683,706.913587,0.2851026,None,,,,,,,,,45,1,2020_Jan_03_1138,untitled,3.1.0,60.11053127
233,G,M,0,L,N,233GM000LN,HLN,0,117,117,136,,,0.731,708.4594074,708.7620669,708.7620669,708.82852,708.8454449,None,down,2.2985673,708.8454449,None,708.8454449,709.5616192,0.3336162,None,,,,,,,,,45,1,2020_Jan_03_1138,untitled,3.1.0,60.11053127
_,_4,N,90,_,_,__4N090__,N,0,118,118,82,,,1.303,711.3664282,711.6593719,711.6593719,711.8597437,711.8761442,None,up,2.3831537,711.8761442,None,711.8761442,713.1583335,0.2094549,None,,,,,,,,,45,1,2020_Jan_03_1138,untitled,3.1.0,60.11053127
45,R,M,180,L,N,045RM180LN,HLN,0,119,119,108,,,0.798,714.510311,714.8067593,714.8067593,714.973697,714.989912,None,down,2.5495167,714.989912,None,714.989912,715.7754909,0.2371632,None,,,,,,,,,45,1,2020_Jan_03_1138,untitled,3.1.0,60.11053127
432,_4,M,315,L,N,432_4M315LN,HLN,0,120,120,175,,,0.983,717.8563636,718.1536923,718.1536923,718.2536503,718.2705496,None,down,3.2981666,718.2705496,None,718.2705496,719.236958,0.3022043,None,,,,,,,,,45,1,2020_Jan_03_1138,untitled,3.1.0,60.11053127
48,R,M,315,L,N,048RM315LN,HLN,0,121,121,111,,,0.76,721.7515164,722.0503948,722.0503948,722.2838072,722.3008602,None,down,2.0826282,722.3008602,None,722.3008602,723.0493701,0.1712289,None,,,,,,,,,45,1,2020_Jan_03_1138,untitled,3.1.0,60.11053127
_,G,M,0,_,_,_GM000__,N,0,122,122,8,,,1.131,724.5821761,724.8814097,724.8814097,725.0985213,725.114682,None,down,2.8313249,725.114682,None,725.114682,726.2303777,0.1865501,None,,,,,,,,,45,1,2020_Jan_03_1138,untitled,3.1.0,60.11053127
_,F,M,45,_,_,_FM045__,N,0,123,123,1,,,0.89,728.1537316,728.4449999,728.4449999,728.661236,728.6782477,None,down,2.0855376,728.6782477,None,728.6782477,729.5607882,0.195702,None,,,,,,,,,45,1,2020_Jan_03_1138,untitled,3.1.0,60.11053127
231,G,N,270,L,N,231GN270LN,HLN,0,124,124,238,,,1.023,730.9871177,731.2759003,731.2759003,731.4762457,731.4938346,None,up,2.3981005,731.4938346,None,731.4938346,732.507971,0.2086729,None,,,,,,,,,45,1,2020_Jan_03_1138,untitled,3.1.0,60.11053127
487,_5,N,270,L,N,487_5N270LN,HLN,0,125,125,286,,,1.201,734.0703412,734.3583073,734.3583073,734.6067728,734.6246165,None,up,2.167134,734.6246165,None,734.6246165,735.8055615,0.1658687,None,,,,,,,,,45,1,2020_Jan_03_1138,untitled,3.1.0,60.11053127
_,_5,M,315,_,_,__5M315__,N,0,126,126,47,,,0.751,737.0290576,737.320464,737.320464,737.5035638,737.5203503,None,down,2.3499034,737.5203503,None,737.5203503,738.2701181,0.223362,None,,,,,,,,,45,1,2020_Jan_03_1138,untitled,3.1.0,60.11053127
_,F,M,270,_,_,_FM270__,N,0,127,127,6,,,0.97,740.0836294,740.368716,740.368716,740.5840943,740.6008359,None,down,2.1858141,740.6008359,None,740.6008359,741.5499339,0.19652,None,,,,,,,,,45,1,2020_Jan_03_1138,untitled,3.1.0,60.11053127
_,G,N,315,_,_,_GN315__,N,0,128,128,63,,,0.799,743.0101863,743.2991847,743.2991847,743.5152383,743.5152383,None,up,3.1662936,743.5152383,None,743.5152383,744.2986531,0.2078256,None,,,,,,,,,45,1,2020_Jan_03_1138,untitled,3.1.0,60.11053127
142,F,M,225,R,N,142FM225RN,HRN,0,129,129,117,,,1.066,746.9270779,747.2289912,747.2289912,747.3953756,747.4131892,None,down,2.2809299,747.4131892,None,747.4131892,748.4610889,0.228805,None,,,,,,,,,45,1,2020_Jan_03_1138,untitled,3.1.0,60.11053127
392,_4,N,315,R,N,392_4N315RN,HRN,0,130,130,263,,,1.035,749.9089193,750.2100884,750.2100884,750.4100499,750.4276908,None,up,1.9653249,750.4276908,None,750.4276908,751.4411481,0.2013454,None,,,,,,,,,45,1,2020_Jan_03_1138,untitled,3.1.0,60.11053127
300,_2,M,135,L,N,300_2M135LN,HLN,0,131,131,155,,,1.195,752.6470989,752.9399972,752.9399972,753.1067169,753.1233285,None,up,3.365488,753.1233285,None,753.1233285,754.3056864,0.2410929,None,,,,,,,,,45,1,2020_Jan_03_1138,untitled,3.1.0,60.11053127
260,_2,N,135,R,N,260_2N135RN,HRN,0,132,132,243,,,0.988,756.7054703,757.0033244,757.0033244,757.2030776,757.219898,None,down,3.0158758,757.219898,None,757.219898,758.2024407,0.2033566,None,,,,,,,,,45,1,2020_Jan_03_1138,untitled,3.1.0,60.11053127
391,_4,N,270,R,N,391_4N270RN,HRN,0,133,133,262,,,1.216,760.4970516,760.8004421,760.8004421,760.9498455,760.967494,None,up,2.2160805,760.967494,None,760.967494,762.1657274,0.2440795,None,,,,,,,,,45,1,2020_Jan_03_1138,untitled,3.1.0,60.11053127
_,_4,N,180,_,_,__4N180__,N,0,134,134,84,,,1.113,763.4327472,763.7307935,763.7307935,763.8975023,763.9144183,None,None,,763.9144183,None,763.9144183,765.0142028,0.2348842,None,,,,,,,,,45,1,2020_Jan_03_1138,untitled,3.1.0,60.11053127
164,F,N,135,L,N,164FN135LN,HLN,0,135,135,219,,,1.098,767.5678773,767.8607275,767.8607275,768.0937099,768.110442,767.5678773,up,2.8153736,768.110442,None,768.110442,769.1926298,0.1802517,None,,,,,,,,,45,1,2020_Jan_03_1138,untitled,3.1.0,60.11053127
399,_4,M,270,R,N,399_4M270RN,HRN,0,136,136,166,,,0.825,771.1282234,771.4238483,771.4238483,771.640431,771.6571618,None,up,2.1507133,771.6571618,None,771.6571618,772.4731445,0.1882364,None,,,,,,,,,45,1,2020_Jan_03_1138,untitled,3.1.0,60.11053127
267,_2,M,90,R,N,267_2M090RN,HRN,0,137,137,146,,,1.116,774.0269134,774.3214287,774.3214287,774.5211146,774.5380768,None,None,,774.5380768,None,774.5380768,775.6373399,0.2058103,None,,,,,,,,,45,1,2020_Jan_03_1138,untitled,3.1.0,60.11053127
398,_4,M,225,R,N,398_4M225RN,HRN,0,138,138,165,,,1.236,778.2357228,778.5348781,778.5348781,778.7182023,778.7358111,778.2357228,up,2.0663638,778.7358111,None,778.7358111,779.9501754,0.2191592,None,,,,,,,,,45,1,2020_Jan_03_1138,untitled,3.1.0,60.11053127
240,G,M,315,L,N,240GM315LN,HLN,0,139,139,143,,,1.133,781.063793,781.3660686,781.3660686,781.5165421,781.5343049,None,down,2.5635779,781.5343049,None,781.5343049,782.6642699,0.2453606,None,,,,,,,,,45,1,2020_Jan_03_1138,untitled,3.1.0,60.11053127
_,_2,N,315,_,_,__2N315__,N,0,140,140,79,,,1.285,784.2792681,784.5790625,784.5790625,784.8122592,784.8289962,None,up,2.7988981,784.8289962,None,784.8289962,786.0945453,0.1694737,None,,,,,,,,,45,1,2020_Jan_03_1138,untitled,3.1.0,60.11053127
457,_5,M,0,R,N,457_5M000RN,HRN,0,141,141,176,,,1.228,787.8424533,788.1429036,788.1429036,788.3426988,788.3601181,None,down,2.4510807,788.3601181,None,788.3601181,789.5751375,0.2021851,None,,,,,,,,,45,1,2020_Jan_03_1138,untitled,3.1.0,60.11053127
459,_5,M,90,R,N,459_5M090RN,HRN,0,142,142,178,,,1.134,791.0541683,791.356758,791.356758,791.5400389,791.5400389,None,up,3.0501496,791.5400389,None,791.5400389,792.6720633,0.2260957,None,,,,,,,,,45,1,2020_Jan_03_1138,untitled,3.1.0,60.11053127
14,R,M,225,R,N,014RM225RN,HRN,0,143,143,101,,,1.108,794.8292446,795.1202325,795.1202325,795.3038959,795.320967,None,down,2.531154,795.320967,None,795.320967,796.4188451,0.2245991,None,,,,,,,,,45,1,2020_Jan_03_1138,untitled,3.1.0,60.11053127
_,R,M,90,_,_,_RM090__,N,0,144,144,18,,,1.375,798.0350691,798.3336377,798.3336377,798.5669277,798.5836198,None,down,3.2484746,798.5836198,None,798.5836198,799.9491376,0.1707183,None,,,,,,,,,45,1,2020_Jan_03_1138,untitled,3.1.0,60.11053127
458,_5,M,45,R,N,458_5M045RN,HRN,0,145,145,177,,,1.047,802.0368678,802.3303828,802.3303828,802.5466988,802.5639857,None,None,,802.5639857,None,802.5639857,803.5961767,0.1912952,None,,,,,,,,,45,1,2020_Jan_03_1138,untitled,3.1.0,60.11053127
197,G,N,180,R,N,197GN180RN,HRN,0,146,146,228,,,1.12,806.2533092,806.5431734,806.5431734,806.7430783,806.7600583,806.2533092,up,2.8512879,806.7600583,None,806.7600583,807.8597697,0.2143931,None,,,,,,,,,45,1,2020_Jan_03_1138,untitled,3.1.0,60.11053127
44,R,M,135,L,N,044RM135LN,HLN,0,147,147,107,,,1.282,809.9511634,810.2409034,810.2409034,810.3235575,810.3403316,None,None,,810.3403316,None,810.3403316,811.6057734,0.3247165,None,,,,,,,,,45,1,2020_Jan_03_1138,untitled,3.1.0,60.11053127
_,_4,N,315,_,_,__4N315__,N,0,148,148,87,,,1.329,814.0077049,814.3032982,814.3032982,814.5362931,814.5529602,814.0077049,up,2.2170919,814.5529602,None,814.5529602,815.8687286,0.1764859,None,,,,,,,,,45,1,2020_Jan_03_1138,untitled,3.1.0,60.11053127
_,_2,N,90,_,_,__2N090__,N,0,149,149,74,,,1.382,816.9964454,817.2841939,817.2841939,817.5012651,817.5012651,None,up,2.9668461,817.5012651,None,817.5012651,818.8826348,0.2075832,None,,,,,,,,,45,1,2020_Jan_03_1138,untitled,3.1.0,60.11053127
_,_2,M,0,_,_,__2M000__,N,0,150,150,24,,,1.247,820.6905157,820.9807338,820.9807338,821.197416,821.197416,None,down,2.9484628,821.197416,None,821.197416,822.4293055,0.2059563,None,,,,,,,,,45,1,2020_Jan_03_1138,untitled,3.1.0,60.11053127
_,F,N,0,_,_,_FN000__,N,0,151,151,48,,,1.05,824.368987,824.6612563,824.6612563,824.8613898,824.8782069,None,up,1.967626,824.8782069,None,824.8782069,825.9102659,0.2101023,None,,,,,,,,,45,1,2020_Jan_03_1138,untitled,3.1.0,60.11053127
450,_5,N,45,R,N,450_5N045RN,HRN,0,152,152,273,,,0.923,827.1158488,827.4085098,827.4085098,827.5753884,827.5753884,None,up,2.2335269,827.5753884,None,827.5753884,828.4919987,0.2530106,None,,,,,,,,,45,1,2020_Jan_03_1138,untitled,3.1.0,60.11053127
_,_2,N,180,_,_,__2N180__,N,0,153,153,76,,,0.929,830.0133604,830.3057581,830.3057581,830.5224304,830.5390825,None,up,2.5669254,830.5390825,None,830.5390825,831.4548955,0.1914667,None,,,,,,,,,45,1,2020_Jan_03_1138,untitled,3.1.0,60.11053127
_,R,M,135,_,_,_RM135__,N,0,154,154,19,,,0.824,833.314629,833.6035156,833.6035156,833.8196279,833.8361929,None,down,1.9841607,833.8361929,None,833.8361929,834.6523172,0.195306,None,,,,,,,,,45,1,2020_Jan_03_1138,untitled,3.1.0,60.11053127
203,G,M,90,R,N,203GM090RN,HRN,0,155,155,130,,,1.087,836.0319062,836.3188821,836.3188821,836.5339661,836.5504549,None,down,2.5333623,836.5504549,None,836.5504549,837.6167902,0.197481,None,,,,,,,,,45,1,2020_Jan_03_1138,untitled,3.1.0,60.11053127
46,R,M,225,L,N,046RM225LN,HLN,0,156,156,109,,,1.325,839.301934,839.5981287,839.5981287,839.7982424,839.8157995,None,down,3.3143902,839.8157995,None,839.8157995,841.1305824,0.2023126,None,,,,,,,,,45,1,2020_Jan_03_1138,untitled,3.1.0,60.11053127
304,_2,M,315,L,N,304_2M315LN,HLN,0,157,157,159,,,1.352,843.3568034,843.6471551,843.6471551,843.8454913,843.8629778,None,down,3.046445,843.8629778,None,843.8629778,845.1940058,0.212997,None,,,,,,,,,45,1,2020_Jan_03_1138,untitled,3.1.0,60.11053127
302,_2,M,225,L,N,302_2M225LN,HLN,0,158,158,157,,,1.039,847.1158173,847.4079358,847.4079358,847.6247319,847.6408409,None,down,2.7164154,847.6408409,None,847.6408409,848.6734948,0.1931774,None,,,,,,,,,45,1,2020_Jan_03_1138,untitled,3.1.0,60.11053127
_,R,N,270,_,_,_RN270__,N,0,159,159,70,,,1.223,850.5719075,850.871458,850.871458,851.0710931,851.0878587,None,up,2.2188119,851.0878587,None,851.0878587,852.3034459,0.2020723,None,,,,,,,,,45,1,2020_Jan_03_1138,untitled,3.1.0,60.11053127
481,_5,N,0,L,N,481_5N000LN,HLN,0,160,160,280,,,0.707,853.5498622,853.8370259,853.8370259,854.0354781,854.0354781,None,up,2.0330985,854.0354781,None,854.0354781,854.734838,0.2251653,None,,,,,,,,,45,1,2020_Jan_03_1138,untitled,3.1.0,60.11053127
_,_5,N,225,_,_,__5N225__,N,0,161,161,93,,,0.807,856.3088755,856.6002203,856.6002203,856.7839124,856.8018822,None,up,2.0139013,856.8018822,None,856.8018822,857.5987638,0.2247742,None,,,,,,,,,45,1,2020_Jan_03_1138,untitled,3.1.0,60.11053127
37,R,N,180,L,N,037RN180LN,HLN,0,162,162,204,,,1.22,859.1456613,859.4667606,859.4667606,859.5308168,859.5499341,None,up,2.6812438,859.5499341,None,859.5499341,860.7632775,0.3145351,None,,,,,,,,,45,1,2020_Jan_03_1138,untitled,3.1.0,60.11053127
298,_2,M,45,L,N,298_2M045LN,HLN,0,163,163,153,,,1.195,862.4531458,862.745,862.745,862.9444905,862.9617871,None,down,2.7981212,862.9617871,None,862.9617871,864.1430918,0.2081596,None,,,,,,,,,45,1,2020_Jan_03_1138,untitled,3.1.0,60.11053127
141,F,M,180,R,N,141FM180RN,HRN,0,164,164,116,,,0.989,865.9974948,866.2913004,866.2913004,866.4744145,866.4911607,None,down,2.6332875,866.4911607,None,866.4911607,867.473513,0.223774,None,,,,,,,,,45,1,2020_Jan_03_1138,untitled,3.1.0,60.11053127
2,R,N,45,R,N,002RN045RN,HRN,0,165,165,193,,,1.076,869.3312548,869.6216755,869.6216755,869.8384244,869.8549271,None,up,1.8342762,869.8549271,None,869.8549271,870.9211161,0.1919749,None,,,,,,,,,45,1,2020_Jan_03_1138,untitled,3.1.0,60.11053127
456,_5,N,315,R,N,456_5N315RN,HRN,0,166,166,279,,,0.999,871.9489078,872.2380242,872.2380242,872.4025406,872.419527,None,up,1.9661718,872.419527,None,872.419527,873.4024615,0.244785,None,,,,,,,,,45,1,2020_Jan_03_1138,untitled,3.1.0,60.11053127
490,_5,M,45,L,N,490_5M045LN,HLN,0,167,167,185,,,1.396,874.6260236,874.9172863,874.9172863,875.1014955,875.1197199,None,None,,875.1197199,None,875.1197199,876.4988917,0.2244818,None,,,,,,,,,45,1,2020_Jan_03_1138,untitled,3.1.0,60.11053127
389,_4,N,180,R,N,389_4N180RN,HRN,0,168,168,260,,,0.771,878.7971271,879.0963897,879.0963897,879.2965443,879.3132693,878.7971271,up,2.3659842,879.3132693,None,879.3132693,880.0620873,0.2054634,None,,,,,,,,,45,1,2020_Jan_03_1138,untitled,3.1.0,60.11053127
449,_5,N,0,R,N,449_5N000RN,HRN,0,169,169,272,,,1.398,881.8862045,882.1770762,882.1770762,882.3937069,882.4104234,None,up,2.16817,882.4104234,None,882.4104234,883.7926342,0.1953669,None,,,,,,,,,45,1,2020_Jan_03_1138,untitled,3.1.0,60.11053127
_,G,M,270,_,_,_GM270__,N,0,170,170,14,,,0.713,884.8082197,885.1083,885.1083,885.2912776,885.3090925,None,down,2.5004152,885.3090925,None,885.3090925,886.0078237,0.2161719,None,,,,,,,,,45,1,2020_Jan_03_1138,untitled,3.1.0,60.11053127
_,_2,N,0,_,_,__2N000__,N,0,171,171,72,,,0.852,888.0339995,888.3234846,888.3234846,888.521755,888.5386635,None,up,2.1053579,888.5386635,None,888.5386635,889.3879402,0.2097699,None,,,,,,,,,45,1,2020_Jan_03_1138,untitled,3.1.0,60.11053127
167,F,N,270,L,N,167FN270LN,HLN,0,172,172,222,,,1.013,890.957771,891.2526821,891.2526821,891.3694333,891.3694333,None,up,1.8661225,891.3694333,None,891.3694333,892.3847969,0.297301,None,,,,,,,,,45,1,2020_Jan_03_1138,untitled,3.1.0,60.11053127
_,_4,M,135,_,_,__4M135__,N,0,173,173,35,,,1.241,893.4341642,893.7340656,893.7340656,893.9502982,893.9670154,None,up,2.8182728,893.9670154,None,893.9670154,895.1996202,0.1861587,None,,,,,,,,,45,1,2020_Jan_03_1138,untitled,3.1.0,60.11053127
138,F,M,45,R,N,138FM045RN,HRN,0,174,174,113,,,1.353,897.0069605,897.297497,897.297497,897.5141488,897.5141488,None,down,2.8491895,897.5141488,None,897.5141488,898.8634867,0.2052424,None,,,,,,,,,45,1,2020_Jan_03_1138,untitled,3.1.0,60.11053127
293,_2,N,180,L,N,293_2N180LN,HLN,0,175,175,252,,,1.051,900.5688443,900.8609414,900.8609414,901.0775114,901.094152,None,up,2.1007717,901.094152,None,901.094152,902.1271821,0.1918934,None,,,,,,,,,45,1,2020_Jan_03_1138,untitled,3.1.0,60.11053127
420,_4,N,135,L,N,420_4N135LN,HLN,0,176,176,267,,,0.871,903.4287809,903.7252287,903.7252287,903.9087621,903.9273791,None,up,2.6782903,903.9273791,None,903.9273791,904.7921055,0.2169001,None,,,,,,,,,45,1,2020_Jan_03_1138,untitled,3.1.0,60.11053127
193,G,N,0,R,N,193GN000RN,HRN,0,177,177,224,,,0.764,906.8806687,907.172034,907.172034,907.3221749,907.3389359,None,up,1.8164162,907.3389359,None,907.3389359,908.0881988,0.2598739,None,,,,,,,,,45,1,2020_Jan_03_1138,untitled,3.1.0,60.11053127
143,F,M,270,R,N,143FM270RN,HRN,0,178,178,118,,,1.328,909.3649584,909.6533244,909.6533244,909.869818,909.8866133,None,down,2.2489457,909.8866133,None,909.8866133,911.2018975,0.1967224,None,,,,,,,,,45,1,2020_Jan_03_1138,untitled,3.1.0,60.11053127
131,F,N,90,R,N,131FN090RN,HRN,0,179,179,210,,,0.73,912.3535291,912.6506706,912.6506706,912.8504409,912.8673846,None,up,1.866661,912.8673846,None,912.8673846,913.5834328,0.2053667,None,,,,,,,,,45,1,2020_Jan_03_1138,untitled,3.1.0,60.11053127
_,_2,M,180,_,_,__2M180__,N,0,180,180,28,,,1.332,914.9509258,915.248614,915.248614,915.4482913,915.4652467,None,up,2.8163667,915.4652467,None,915.4652467,916.7825941,0.2040772,None,,,,,,,,,45,1,2020_Jan_03_1138,untitled,3.1.0,60.11053127
_,_5,M,90,_,_,__5M090__,N,0,181,181,42,,,1.351,918.5299224,918.8287659,918.8287659,918.995464,919.0124104,None,down,3.0749213,919.0124104,None,919.0124104,920.3444593,0.2336642,None,,,,,,,,,45,1,2020_Jan_03_1138,untitled,3.1.0,60.11053127
229,G,N,180,L,N,229GN180LN,HLN,0,182,182,236,,,0.858,922.3374178,922.6260517,922.6260517,922.8083857,922.8250771,None,down,2.3995181,922.8250771,None,922.8250771,923.6576727,0.23487,None,,,,,,,,,45,1,2020_Jan_03_1138,untitled,3.1.0,60.11053127
_,G,N,225,_,_,_GN225__,N,0,183,183,61,,,1.001,925.4443232,925.7390287,925.7390287,925.9392391,925.9558008,None,up,2.0992788,925.9558008,None,925.9558008,926.938056,0.2079609,None,,,,,,,,,45,1,2020_Jan_03_1138,untitled,3.1.0,60.11053127
259,_2,N,90,R,N,259_2N090RN,HRN,0,184,184,242,,,0.717,928.2764854,928.5700199,928.5700199,928.7701599,928.7890993,None,up,2.7136139,928.7890993,None,928.7890993,929.4861518,0.207533,None,,,,,,,,,45,1,2020_Jan_03_1138,untitled,3.1.0,60.11053127
387,_4,N,90,R,N,387_4N090RN,HRN,0,185,185,258,,,0.953,931.7009272,932.0003567,932.0003567,932.217,932.2335715,None,up,1.9005537,932.2335715,None,932.2335715,933.166106,0.1853129,None,,,,,,,,,45,1,2020_Jan_03_1138,untitled,3.1.0,60.11053127
424,_4,N,315,L,N,424_4N315LN,HLN,0,186,186,271,,,0.842,934.3765802,934.6650695,934.6650695,934.8485236,934.8661179,None,up,2.0149297,934.8661179,None,934.8661179,935.6980548,0.2274217,None,,,,,,,,,45,1,2020_Jan_03_1138,untitled,3.1.0,60.11053127
265,_2,M,0,R,N,265_2M000RN,HRN,0,187,187,144,,,1.364,937.1360682,937.4297837,937.4297837,937.5961592,937.613007,None,down,2.7171339,937.613007,None,937.613007,938.9611355,0.2394506,None,,,,,,,,,45,1,2020_Jan_03_1138,untitled,3.1.0,60.11053127
_,G,M,90,_,_,_GM090__,N,0,188,188,10,,,0.857,940.5589084,940.8598612,940.8598612,941.042483,941.0593775,None,down,2.266445,941.0593775,None,941.0593775,941.9088722,0.216002,None,,,,,,,,,45,1,2020_Jan_03_1138,untitled,3.1.0,60.11053127
_,R,N,180,_,_,_RN180__,N,0,189,189,68,,,0.738,943.5431984,943.8402657,943.8402657,944.0399243,944.0565543,None,up,1.9003084,944.0565543,None,944.0565543,944.7915257,0.2046628,None,,,,,,,,,45,1,2020_Jan_03_1138,untitled,3.1.0,60.11053127
295,_2,N,270,L,N,295_2N270LN,HLN,0,190,190,254,,,0.807,946.1648368,946.4546339,946.4546339,946.6710238,946.6878299,None,up,1.9351202,946.6878299,None,946.6878299,947.4870823,0.1947258,None,,,,,,,,,45,1,2020_Jan_03_1138,untitled,3.1.0,60.11053127
144,F,M,315,R,N,144FM315RN,HRN,0,191,191,119,,,0.984,948.8493906,949.1524909,949.1524909,949.336068,949.3529045,None,down,1.8167929,949.3529045,None,949.3529045,950.3186326,0.214002,None,,,,,,,,,45,1,2020_Jan_03_1138,untitled,3.1.0,60.11053127
168,F,N,315,L,N,168FN315LN,HLN,0,192,192,223,,,1.392,951.4284138,951.717212,951.717212,951.8835725,951.9002614,None,up,2.133514,951.9002614,None,951.9002614,953.288496,0.2427406,None,,,,,,,,,45,1,2020_Jan_03_1138,untitled,3.1.0,60.11053127
39,R,N,270,L,N,039RN270LN,HLN,0,193,193,206,,,1.051,954.3010708,954.5973056,954.5973056,954.7471103,954.7641791,None,up,1.7996452,954.7641791,None,954.7641791,955.7973302,0.2499607,None,,,,,,,,,45,1,2020_Jan_03_1138,untitled,3.1.0,60.11053127
_,_4,N,270,_,_,__4N270__,N,0,194,194,86,,,0.947,956.7659475,957.0618453,957.0618453,957.2784352,957.2954104,None,up,1.8662543,957.2954104,None,957.2954104,958.2288035,0.18933,None,,,,,,,,,45,1,2020_Jan_03_1138,untitled,3.1.0,60.11053127
35,R,N,90,L,N,035RN090LN,HLN,0,195,195,202,,,1.093,959.3797854,959.6761945,959.6761945,959.8763576,959.8930435,None,up,2.332665,959.8930435,None,959.8930435,960.9749623,0.2053644,None,,,,,,,,,45,1,2020_Jan_03_1138,untitled,3.1.0,60.11053127
136,F,N,315,R,N,136FN315RN,HRN,0,196,196,215,,,1.383,962.4583515,962.7569066,962.7569066,962.9400234,962.9569176,None,up,2.2157426,962.9569176,None,962.9569176,964.3229844,0.2184637,None,,,,,,,,,45,1,2020_Jan_03_1138,untitled,3.1.0,60.11053127
132,F,N,135,R,N,132FN135RN,HRN,0,197,197,211,,,1.338,965.4468167,965.7379349,965.7379349,965.8879888,965.9050453,None,up,2.9826352,965.9050453,None,965.9050453,967.2370585,0.2585236,None,,,,,,,,,45,1,2020_Jan_03_1138,untitled,3.1.0,60.11053127
_,G,N,45,_,_,_GN045__,N,0,198,198,57,,,1.281,969.1824317,969.4825482,969.4825482,969.6365122,969.6365122,None,up,2.1140744,969.6365122,None,969.6365122,970.8834443,0.2798347,None,,,,,,,,,45,1,2020_Jan_03_1138,untitled,3.1.0,60.11053127
_,_2,M,315,_,_,__2M315__,N,0,199,199,31,,,1.098,971.9803262,972.282149,972.282149,972.4651835,972.4820087,None,down,2.1488199,972.4820087,None,972.4820087,973.5641624,0.2173527,None,,,,,,,,,45,1,2020_Jan_03_1138,untitled,3.1.0,60.11053127
239,G,M,270,L,N,239GM270LN,HLN,0,200,200,142,,,1.349,974.8627297,975.1626806,975.1626806,975.3464756,975.3627686,None,down,3.0324244,975.3627686,None,975.3627686,976.6947196,0.2173871,None,,,,,,,,,45,1,2020_Jan_03_1138,untitled,3.1.0,60.11053127
_,_2,N,45,_,_,__2N045__,N,0,201,201,73,,,1.101,978.5935523,978.8928015,978.8928015,979.1094122,979.1259412,None,up,2.1167158,979.1259412,None,979.1259412,980.2094365,0.1860579,None,,,,,,,,,45,1,2020_Jan_03_1138,untitled,3.1.0,60.11053127
_,G,N,270,_,_,_GN270__,N,0,202,202,62,,,1.107,984.5462297,984.5462297,984.5462297,984.5462297,984.5462297,None,None,,984.5462297,None,984.5462297,984.5462297,3.2808145,None,,,,,,,,,45,1,2020_Jan_03_1138,untitled,3.1.0,60.11053127
11,R,M,90,R,N,011RM090RN,HRN,0,203,203,98,,,1.336,985.6502596,985.9513413,985.9513413,986.1700271,986.1864946,985.6502596,down,2.3491351,986.1864946,None,986.1864946,987.5017009,0.1857578,None,,,,,,,,,45,1,2020_Jan_03_1138,untitled,3.1.0,60.11053127
129,F,N,0,R,N,129FN000RN,HRN,0,204,204,208,,,0.896,988.7404401,989.0341446,989.0341446,989.2507426,989.2672279,None,up,1.7829278,989.2672279,None,989.2672279,990.1508428,0.1925355,None,,,,,,,,,45,1,2020_Jan_03_1138,untitled,3.1.0,60.11053127
230,G,N,225,L,N,230GN225LN,HLN,0,205,205,237,,,1.352,991.2622353,991.5651991,991.5651991,991.7650243,991.7836066,None,up,3.2305175,991.7836066,None,991.7836066,993.1136693,0.1990559,None,,,,,,,,,45,1,2020_Jan_03_1138,untitled,3.1.0,60.11053127
38,R,N,225,L,N,038RN225LN,HLN,0,206,206,205,,,1.077,995.2246341,995.5119518,995.5119518,995.7279618,995.7447724,None,up,1.8677978,995.7447724,None,995.7447724,996.8115162,0.1967914,None,,,,,,,,,45,1,2020_Jan_03_1138,untitled,3.1.0,60.11053127
484,_5,N,135,L,N,484_5N135LN,HLN,0,207,207,283,,,1.34,997.8747338,998.1766489,998.1766489,998.3262205,998.3427886,None,up,2.6163535,998.3427886,None,998.3427886,999.6754943,0.247211,None,,,,,,,,,45,1,2020_Jan_03_1138,untitled,3.1.0,60.11053127
_,_4,M,45,_,_,__4M045__,N,0,208,208,33,,,0.734,1001.189029,1001.489664,1001.489664,1001.672906,1001.689563,None,down,1.7831408,1001.689563,None,1001.689563,1002.405935,0.2144294,None,,,,,,,,,45,1,2020_Jan_03_1138,untitled,3.1.0,60.11053127
198,G,N,225,R,N,198GN225RN,HRN,0,209,209,229,,,0.85,1003.680735,1003.970867,1003.970867,1004.187393,1004.204257,None,up,1.91736,1004.204257,None,1004.204257,1005.036779,0.1959725,None,,,,,,,,,45,1,2020_Jan_03_1138,untitled,3.1.0,60.11053127
258,_2,N,45,R,N,258_2N045RN,HRN,0,210,210,241,,,1.001,1006.679177,1006.679177,1006.679177,1006.975035,1006.975035,None,up,2.0428358,1006.975035,None,1006.975035,1007.834334,0.5439495,None,,,,,,,,,45,1,2020_Jan_03_1138,untitled,3.1.0,60.11053127
225,G,N,0,L,N,225GN000LN,HLN,0,211,211,232,,,1.181,1009.227639,1009.531096,1009.531096,1009.732884,1009.749498,None,up,2.1330903,1009.749498,None,1009.749498,1010.914906,0.1971601,None,,,,,,,,,45,1,2020_Jan_03_1138,untitled,3.1.0,60.11053127
_,_4,M,90,_,_,__4M090__,N,0,212,212,34,,,1.307,1012.103241,1012.39737,1012.39737,1012.597224,1012.614252,None,None,,1012.614252,None,1012.614252,1013.912284,0.2061113,None,,,,,,,,,45,1,2020_Jan_03_1138,untitled,3.1.0,60.11053127
12,R,M,135,R,N,012RM135RN,HRN,0,213,213,99,,,1.266,1016.36877,1016.659866,1016.659866,1016.79332,1016.80978,1016.36877,down,2.9691281,1016.80978,None,1016.80978,1018.058406,0.2742721,None,,,,,,,,,45,1,2020_Jan_03_1138,untitled,3.1.0,60.11053127
_,G,M,45,_,_,_GM045__,N,0,214,214,9,,,1.299,1019.992201,1020.289923,1020.289923,1020.506685,1020.506685,None,up,2.8661983,1020.506685,None,1020.506685,1021.805844,0.1932114,None,,,,,,,,,45,1,2020_Jan_03_1138,untitled,3.1.0,60.11053127
493,_5,M,180,L,N,493_5M180LN,HLN,0,215,215,188,,,1.226,1023.583992,1023.887011,1023.887011,1024.086709,1024.103536,None,None,,1024.103536,None,1024.103536,1025.319182,0.1985126,None,,,,,,,,,45,1,2020_Jan_03_1138,untitled,3.1.0,60.11053127
201,G,M,0,R,N,201GM000RN,HRN,0,216,216,128,,,1.321,1027.796744,1028.084368,1028.084368,1028.2837,1028.301266,1027.796744,None,,1028.301266,None,1028.301266,1029.598715,0.2159191,None,,,,,,,,,45,1,2020_Jan_03_1138,untitled,3.1.0,60.11053127
454,_5,N,225,R,N,454_5N225RN,HRN,0,217,217,277,,,0.889,1032.05634,1032.347681,1032.347681,1032.497487,1032.497487,1032.05634,up,1.9478917,1032.497487,None,1032.497487,1033.379015,0.2696902,None,,,,,,,,,45,1,2020_Jan_03_1138,untitled,3.1.0,60.11053127
396,_4,M,135,R,N,396_4M135RN,HRN,0,218,218,163,,,1.372,1034.643189,1034.943882,1034.943882,1035.160673,1035.177237,None,down,3.2651409,1035.177237,None,1035.177237,1036.542495,0.1858279,None,,,,,,,,,45,1,2020_Jan_03_1138,untitled,3.1.0,60.11053127
_,R,N,0,_,_,_RN000__,N,0,219,219,64,,,0.86,1038.767856,1039.056984,1039.056984,1039.157179,1039.173648,None,up,1.8176331,1039.173648,None,1039.173648,1040.023185,0.3120369,None,,,,,,,,,45,1,2020_Jan_03_1138,untitled,3.1.0,60.11053127
460,_5,M,135,R,N,460_5M135RN,HRN,0,220,220,179,,,0.804,1041.222751,1041.521436,1041.521436,1041.704847,1041.721494,None,down,3.1152257,1041.721494,None,1041.721494,1042.520989,0.2172535,None,,,,,,,,,45,1,2020_Jan_03_1138,untitled,3.1.0,60.11053127
422,_4,N,225,L,N,422_4N225LN,HLN,0,221,221,269,,,0.71,1045.065206,1045.352349,1045.352349,1045.55213,1045.56942,None,up,2.0657873,1045.56942,None,1045.56942,1046.267698,0.2125402,None,,,,,,,,,45,1,2020_Jan_03_1138,untitled,3.1.0,60.11053127
169,F,M,0,L,N,169FM000LN,HLN,0,222,222,120,,,0.744,1047.942121,1048.232238,1048.232238,1048.348873,1048.365436,None,down,1.7856284,1048.365436,None,1048.365436,1049.098065,0.2917942,None,,,,,,,,,45,1,2020_Jan_03_1138,untitled,3.1.0,60.11053127
196,G,N,135,R,N,196GN135RN,HRN,0,223,223,227,,,0.753,1050.388115,1050.680189,1050.680189,1050.880655,1050.880655,None,up,2.2817456,1050.880655,None,1050.880655,1051.629616,0.2199859,None,,,,,,,,,45,1,2020_Jan_03_1138,untitled,3.1.0,60.11053127
_,F,M,180,_,_,_FM180__,N,0,224,224,4,,,0.956,1053.348521,1053.643879,1053.643879,1053.877405,1053.894204,None,down,2.5989852,1053.894204,None,1053.894204,1054.843303,0.1701171,None,,,,,,,,,45,1,2020_Jan_03_1138,untitled,3.1.0,60.11053127
453,_5,N,180,R,N,453_5N180RN,HRN,0,225,225,276,,,1.111,1056.704284,1056.991244,1056.991244,1057.207695,1057.225012,None,up,2.1997671,1057.225012,None,1057.225012,1058.324252,0.1959323,None,,,,,,,,,45,1,2020_Jan_03_1138,untitled,3.1.0,60.11053127
173,F,M,180,L,N,173FM180LN,HLN,0,226,226,124,,,0.707,1059.680321,1059.972271,1059.972271,1060.140304,1060.158774,None,down,2.9144978,1060.158774,None,1060.158774,1060.855761,0.2401861,None,,,,,,,,,45,1,2020_Jan_03_1138,untitled,3.1.0,60.11053127
_,_2,M,225,_,_,__2M225__,N,0,227,227,29,,,0.789,1063.340204,1063.660887,1063.660887,1063.796896,1063.814006,None,up,2.8887948,1063.814006,None,1063.814006,1064.584828,0.2509642,None,,,,,,,,,45,1,2020_Jan_03_1138,untitled,3.1.0,60.11053127
206,G,M,225,R,N,206GM225RN,HRN,0,228,228,133,,,1.334,1066.985112,1067.28235,1067.28235,1067.415597,1067.432135,None,down,2.8175075,1067.432135,None,1067.432135,1068.747939,0.2702299,None,,,,,,,,,45,1,2020_Jan_03_1138,untitled,3.1.0,60.11053127
_,R,M,315,_,_,_RM315__,N,0,229,229,23,,,0.981,1070.476352,1070.778639,1070.778639,1070.979372,1070.979372,None,down,3.0493923,1070.979372,None,1070.979372,1071.96176,0.2083179,None,,,,,,,,,45,1,2020_Jan_03_1138,untitled,3.1.0,60.11053127
175,F,M,270,L,N,175FM270LN,HLN,0,230,230,126,,,1.269,1074.22313,1074.511815,1074.511815,1074.743026,1074.761255,None,down,2.3484376,1074.761255,None,1074.761255,1076.008795,0.181376,None,,,,,,,,,45,1,2020_Jan_03_1138,untitled,3.1.0,60.11053127
_,_5,N,135,_,_,__5N135__,N,0,231,231,91,,,1.39,1077.345052,1077.640191,1077.640191,1077.823845,1077.840109,None,up,2.6823442,1077.840109,None,1077.840109,1079.223364,0.2222176,None,,,,,,,,,45,1,2020_Jan_03_1138,untitled,3.1.0,60.11053127
234,G,M,45,L,N,234GM045LN,HLN,0,232,232,137,,,1.256,1080.703297,1081.003629,1081.003629,1081.236734,1081.253395,None,down,2.5348408,1081.253395,None,1081.253395,1082.502734,0.168953,None,,,,,,,,,45,1,2020_Jan_03_1138,untitled,3.1.0,60.11053127
_,G,N,135,_,_,_GN135__,N,0,233,233,59,,,1.366,1084.100828,1084.400636,1084.400636,1084.500875,1084.517474,None,up,3.3158121,1084.517474,None,1084.517474,1085.866009,0.299459,None,,,,,,,,,45,1,2020_Jan_03_1138,untitled,3.1.0,60.11053127
42,R,M,45,L,N,042RM045LN,HLN,0,234,234,105,,,1.241,1088.065518,1088.364645,1088.364645,1088.547718,1088.564372,None,down,2.4174963,1088.564372,None,1088.564372,1089.798842,0.2182353,None,,,,,,,,,45,1,2020_Jan_03_1138,untitled,3.1.0,60.11053127
292,_2,N,135,L,N,292_2N135LN,HLN,0,235,235,251,,,1.253,1091.302922,1091.595229,1091.595229,1091.71385,1091.71385,None,up,2.313219,1091.71385,None,1091.71385,1092.96028,0.3016535,None,,,,,,,,,45,1,2020_Jan_03_1138,untitled,3.1.0,60.11053127
_,R,M,225,_,_,_RM225__,N,0,236,236,21,,,1.347,1094.181156,1094.475528,1094.475528,1094.742222,1094.759383,None,None,,1094.759383,None,1094.759383,1096.091249,0.143149,None,,,,,,,,,45,1,2020_Jan_03_1138,untitled,3.1.0,60.11053127
174,F,M,225,L,N,174FM225LN,HLN,0,237,237,125,,,1.336,1098.424462,1098.721831,1098.721831,1098.939846,1098.958108,1098.424462,down,2.1645337,1098.958108,None,1098.958108,1100.271001,0.190895,None,,,,,,,,,45,1,2020_Jan_03_1138,untitled,3.1.0,60.11053127
462,_5,M,225,R,N,462_5M225RN,HRN,0,238,238,181,,,0.899,1101.334006,1101.635763,1101.635763,1101.835578,1101.852461,None,down,2.3669071,1101.852461,None,1101.852461,1102.734536,0.1988425,None,,,,,,,,,45,1,2020_Jan_03_1138,untitled,3.1.0,60.11053127
_,F,M,315,_,_,_FM315__,N,0,239,239,7,,,0.795,1104.463507,1104.749631,1104.749631,1104.93289,1104.949608,None,down,1.651602,1104.949608,None,1104.949608,1105.732375,0.2286099,None,,,,,,,,,45,1,2020_Jan_03_1138,untitled,3.1.0,60.11053127
_,R,M,270,_,_,_RM270__,N,0,240,240,22,,,0.722,1106.836058,1107.131264,1107.131264,1107.314787,1107.331976,None,down,1.5832721,1107.331976,None,1107.331976,1108.046855,0.2197364,None,,,,,,,,,45,1,2020_Jan_03_1138,untitled,3.1.0,60.11053127
_,_5,M,45,_,_,__5M045__,N,0,241,241,41,,,1.046,1109.15539,1109.445787,1109.445787,1109.629129,1109.645614,None,down,2.8493026,1109.645614,None,1109.645614,1110.67944,0.2258356,None,,,,,,,,,45,1,2020_Jan_03_1138,untitled,3.1.0,60.11053127
7,R,N,270,R,N,007RN270RN,HRN,0,242,242,198,,,0.888,1112.702787,1112.992353,1112.992353,1113.208824,1113.225768,None,up,1.9152219,1113.225768,None,1113.225768,1114.108131,0.1936652,None,,,,,,,,,45,1,2020_Jan_03_1138,untitled,3.1.0,60.11053127
291,_2,N,90,L,N,291_2N090LN,HLN,0,243,243,250,,,0.999,1115.361282,1115.656961,1115.656961,1115.856912,1115.873516,None,up,2.7158696,1115.873516,None,1115.873516,1116.856377,0.20769,None,,,,,,,,,45,1,2020_Jan_03_1138,untitled,3.1.0,60.11053127
492,_5,M,135,L,N,492_5M135LN,HLN,0,244,244,187,,,1.177,1118.815636,1119.104246,1119.104246,1119.303602,1119.320276,None,down,2.7340932,1119.320276,None,1119.320276,1120.485816,0.2126426,None,,,,,,,,,45,1,2020_Jan_03_1138,untitled,3.1.0,60.11053127
_,_2,N,270,_,_,__2N270__,N,0,245,245,78,,,1.002,1122.273336,1122.567883,1122.567883,1122.768042,1122.786319,None,up,2.2647431,1122.786319,None,1122.786319,1123.784391,0.2020568,None,,,,,,,,,45,1,2020_Jan_03_1138,untitled,3.1.0,60.11053127
171,F,M,90,L,N,171FM090LN,HLN,0,246,246,122,,,0.734,1125.297936,1125.598291,1125.598291,1125.764789,1125.784017,None,down,1.7005141,1125.784017,None,1125.784017,1126.500949,0.2316389,None,,,,,,,,,45,1,2020_Jan_03_1138,untitled,3.1.0,60.11053127
_,_5,N,0,_,_,__5N000__,N,0,247,247,88,,,1.153,1127.666206,1127.962701,1127.962701,1128.196207,1128.212993,None,up,2.1164727,1128.212993,None,1128.212993,1129.361555,0.1704988,None,,,,,,,,,45,1,2020_Jan_03_1138,untitled,3.1.0,60.11053127
423,_4,N,270,L,N,423_4N270LN,HLN,0,248,248,270,,,1.063,1130.543346,1130.843505,1130.843505,1131.043438,1131.06025,None,up,2.0492882,1131.06025,None,1131.06025,1132.109267,0.2008411,None,,,,,,,,,45,1,2020_Jan_03_1138,untitled,3.1.0,60.11053127
238,G,M,225,L,N,238GM225LN,HLN,0,249,249,141,,,1.042,1133.365872,1133.657857,1133.657857,1133.824143,1133.842437,None,down,2.4144853,1133.842437,None,1133.842437,1134.87345,0.2438815,None,,,,,,,,,45,1,2020_Jan_03_1138,untitled,3.1.0,60.11053127
_,R,N,135,_,_,_RN135__,N,0,250,250,67,,,1.132,1136.474452,1136.771796,1136.771796,1136.97142,1136.988185,None,up,2.4173971,1136.988185,None,1136.988185,1138.104622,0.2041228,None,,,,,,,,,45,1,2020_Jan_03_1138,untitled,3.1.0,60.11053127
47,R,M,270,L,N,047RM270LN,HLN,0,251,251,110,,,1.219,1139.653214,1139.952429,1139.952429,1140.119193,1140.137321,None,down,2.0497862,1140.137321,None,1140.137321,1141.351585,0.2327208,None,,,,,,,,,45,1,2020_Jan_03_1138,untitled,3.1.0,60.11053127
290,_2,N,45,L,N,290_2N045LN,HLN,0,252,252,249,,,1.349,1142.463805,1142.766683,1142.766683,1142.900212,1142.91638,None,up,2.3334199,1142.91638,None,1142.91638,1144.265125,0.2586785,None,,,,,,,,,45,1,2020_Jan_03_1138,untitled,3.1.0,60.11053127
_,_5,M,225,_,_,__5M225__,N,0,253,253,45,,,1.315,1145.460704,1145.749226,1145.749226,1145.963654,1145.980563,None,down,2.765695,1145.980563,None,1145.980563,1147.279194,0.1985013,None,,,,,,,,,45,1,2020_Jan_03_1138,untitled,3.1.0,60.11053127
494,_5,M,225,L,N,494_5M225LN,HLN,0,254,254,189,,,0.91,1148.984586,1149.277486,1149.277486,1149.460879,1149.477329,None,down,2.1332932,1149.477329,None,1149.477329,1150.37679,0.2255827,None,,,,,,,,,45,1,2020_Jan_03_1138,untitled,3.1.0,60.11053127
_,R,M,0,_,_,_RM000__,N,0,255,255,16,,,1.212,1151.863955,1152.158333,1152.158333,1152.324897,1152.342196,None,down,2.4664159,1152.342196,None,1152.342196,1153.541212,0.2382394,None,,,,,,,,,45,1,2020_Jan_03_1138,untitled,3.1.0,60.11053127
_,_2,M,45,_,_,__2M045__,N,0,256,256,25,,,0.81,1155.087459,1155.389115,1155.389115,1155.522668,1155.540127,None,down,2.3824874,1155.540127,None,1155.540127,1156.338314,0.2622415,None,,,,,,,,,45,1,2020_Jan_03_1138,untitled,3.1.0,60.11053127
_,G,M,225,_,_,_GM225__,N,0,257,257,13,,,0.854,1158.190985,1158.510762,1158.510762,1158.63597,1158.653422,None,down,2.7995613,1158.653422,None,1158.653422,1159.502509,0.2509327,None,,,,,,,,,45,1,2020_Jan_03_1138,untitled,3.1.0,60.11053127
9,R,M,0,R,N,009RM000RN,HRN,0,258,258,96,,,0.883,1161.645594,1161.93369,1161.93369,1162.165911,1162.182632,None,down,1.9167444,1162.182632,None,1162.182632,1163.048342,0.1798786,None,,,,,,,,,45,1,2020_Jan_03_1138,untitled,3.1.0,60.11053127
451,_5,N,90,R,N,451_5N090RN,HRN,0,259,259,274,,,1.215,1164.319952,1164.614075,1164.614075,1164.813702,1164.830556,None,up,2.5176176,1164.830556,None,1164.830556,1166.029054,0.2069867,None,,,,,,,,,45,1,2020_Jan_03_1138,untitled,3.1.0,60.11053127
_,_5,N,270,_,_,__5N270__,N,0,260,260,94,,,0.865,1167.584369,1167.877857,1167.877857,1168.060994,1168.077522,None,up,1.917702,1168.077522,None,1168.077522,1168.928124,0.2205919,None,,,,,,,,,45,1,2020_Jan_03_1138,untitled,3.1.0,60.11053127
257,_2,N,0,R,N,257_2N000RN,HRN,0,261,261,240,,,0.939,1170.257688,1170.558909,1170.558909,1170.7101,1170.728645,None,up,2.0809789,1170.728645,None,1170.728645,1171.657878,0.247125,None,,,,,,,,,45,1,2020_Jan_03_1138,untitled,3.1.0,60.11053127
226,G,N,45,L,N,226GN045LN,HLN,0,262,262,233,,,1.316,1173.072803,1173.373688,1173.373688,1173.523558,1173.541139,None,up,2.4977281,1173.541139,None,1173.541139,1174.842766,0.2475182,None,,,,,,,,,45,1,2020_Jan_03_1138,untitled,3.1.0,60.11053127
4,R,N,135,R,N,004RN135RN,HRN,0,263,263,195,,,0.956,1176.241207,1176.537053,1176.537053,1176.753417,1176.770593,None,up,2.1333873,1176.770593,None,1176.770593,1177.703242,0.1901022,None,,,,,,,,,45,1,2020_Jan_03_1138,untitled,3.1.0,60.11053127
_,G,N,180,_,_,_GN180__,N,0,264,264,60,,,0.829,1179.220253,1179.517554,1179.517554,1179.617764,1179.634343,None,up,2.4170511,1179.634343,None,1179.634343,1180.451565,0.3033382,None,,,,,,,,,45,1,2020_Jan_03_1138,untitled,3.1.0,60.11053127
_,F,M,90,_,_,_FM090__,N,0,265,265,2,,,1.113,1182.272647,1182.564772,1182.564772,1182.764594,1182.783856,None,down,2.0978264,1182.783856,None,1182.783856,1183.880985,0.2058931,None,,,,,,,,,45,1,2020_Jan_03_1138,untitled,3.1.0,60.11053127
419,_4,N,90,L,N,419_4N090LN,HLN,0,266,266,266,,,0.727,1185.090893,1185.381342,1185.381342,1185.595972,1185.613138,None,up,1.7336649,1185.613138,None,1185.613138,1186.328579,0.1964496,None,,,,,,,,,45,1,2020_Jan_03_1138,untitled,3.1.0,60.11053127
_,G,N,90,_,_,_GN090__,N,0,267,267,58,,,1.389,1187.580842,1187.877465,1187.877465,1188.060699,1188.07727,None,up,2.4342787,1188.07727,None,1188.07727,1189.459192,0.2187708,None,,,,,,,,,45,1,2020_Jan_03_1138,untitled,3.1.0,60.11053127
482,_5,N,45,L,N,482_5N045LN,HLN,0,268,268,281,,,0.963,1190.713924,1191.007403,1191.007403,1191.223915,1191.240736,None,up,1.9331039,1191.240736,None,1191.240736,1192.190502,0.188251,None,,,,,,,,,45,1,2020_Jan_03_1138,untitled,3.1.0,60.11053127
194,G,N,45,R,N,194GN045RN,HRN,0,269,269,225,,,1.091,1193.400833,1193.689237,1193.689237,1193.888756,1193.905378,None,up,2.0659617,1193.905378,None,1193.905378,1194.987451,0.2141841,None,,,,,,,,,45,1,2020_Jan_03_1138,untitled,3.1.0,60.11053127
199,G,N,270,R,N,199GN270RN,HRN,0,270,270,230,,,0.746,1196.183308,1196.471572,1196.471572,1196.686408,1196.703321,None,up,1.5171022,1196.703321,None,1196.703321,1197.435385,0.1991556,None,,,,,,,,,45,1,2020_Jan_03_1138,untitled,3.1.0,60.11053127
496,_5,M,315,L,N,496_5M315LN,HLN,0,271,271,191,,,1.164,1198.430476,1198.718743,1198.718743,1198.935913,1198.952628,None,down,2.4477755,1198.952628,None,1198.952628,1200.102121,0.1973043,None,,,,,,,,,45,1,2020_Jan_03_1138,untitled,3.1.0,60.11053127
_,_5,N,180,_,_,__5N180__,N,0,272,272,92,,,0.892,1201.629047,1201.931478,1201.931478,1202.115056,1202.132533,None,up,2.6161998,1202.132533,None,1202.132533,1203.014516,0.2149231,None,,,,,,,,,45,1,2020_Jan_03_1138,untitled,3.1.0,60.11053127
228,G,N,135,L,N,228GN135LN,HLN,0,273,273,235,,,1.314,1204.978449,1205.279471,1205.279471,1205.461845,1205.47977,None,up,2.6975982,1205.47977,None,1205.47977,1206.778615,0.2173662,None,,,,,,,,,45,1,2020_Jan_03_1138,untitled,3.1.0,60.11053127
_,_5,M,135,_,_,__5M135__,N,0,274,274,43,,,1.384,1208.367995,1208.658873,1208.658873,1208.892441,1208.909595,None,down,3.2976953,1208.909595,None,1208.909595,1210.274264,0.1788184,None,,,,,,,,,45,1,2020_Jan_03_1138,untitled,3.1.0,60.11053127
400,_4,M,315,R,N,400_4M315RN,HRN,0,275,275,167,,,1.333,1212.422421,1212.722013,1212.722013,1212.922054,1212.938656,None,down,2.5993197,1212.938656,None,1212.938656,1214.253974,0.2014355,None,,,,,,,,,45,1,2020_Jan_03_1138,untitled,3.1.0,60.11053127
165,F,N,180,L,N,165FN180LN,HLN,0,276,276,220,,,0.9,1215.74914,1216.050723,1216.050723,1216.252348,1216.269166,None,up,2.0501431,1216.269166,None,1216.269166,1217.151973,0.199007,None,,,,,,,,,45,1,2020_Jan_03_1138,untitled,3.1.0,60.11053127
_,F,N,225,_,_,_FN225__,N,0,277,277,53,,,1.325,1218.583435,1218.883751,1218.883751,1219.034026,1219.050607,None,up,2.2166927,1219.050607,None,1219.050607,1220.365966,0.2473522,None,,,,,,,,,45,1,2020_Jan_03_1138,untitled,3.1.0,60.11053127
207,G,M,270,R,N,207GM270RN,HRN,0,278,278,134,,,0.719,1221.577478,1221.867552,1221.867552,1221.981375,1221.999427,None,down,2.4808147,1221.999427,None,1221.999427,1222.713038,0.2915373,None,,,,,,,,,45,1,2020_Jan_03_1138,untitled,3.1.0,60.11053127
427,_4,M,90,L,N,427_4M090LN,HLN,0,279,279,170,,,0.905,1224.699646,1224.99455,1224.99455,1225.194417,1225.211183,None,down,2.0672857,1225.211183,None,1225.211183,1226.110553,0.2064371,None,,,,,,,,,45,1,2020_Jan_03_1138,untitled,3.1.0,60.11053127
_,_4,M,270,_,_,__4M270__,N,0,280,280,38,,,0.856,1227.485893,1227.776993,1227.776993,1227.992148,1228.008709,None,down,1.8167735,1228.008709,None,1228.008709,1228.858979,0.1941224,None,,,,,,,,,45,1,2020_Jan_03_1138,untitled,3.1.0,60.11053127
394,_4,M,45,R,N,394_4M045RN,HRN,0,281,281,161,,,1.215,1230.040439,1230.340166,1230.340166,1230.539887,1230.556872,None,down,2.6828652,1230.556872,None,1230.556872,1231.755668,0.2004009,None,,,,,,,,,45,1,2020_Jan_03_1138,untitled,3.1.0,60.11053127
263,_2,N,270,R,N,263_2N270RN,HRN,0,282,282,246,,,0.768,1233.467271,1233.756179,1233.756179,1233.954163,1233.971235,None,up,1.7339062,1233.971235,None,1233.971235,1234.721593,0.2124029,None,,,,,,,,,45,1,2020_Jan_03_1138,untitled,3.1.0,60.11053127
488,_5,N,315,L,N,488_5N315LN,HLN,0,283,283,287,,,0.907,1235.954232,1236.251602,1236.251602,1236.418049,1236.434722,None,up,2.0011698,1236.434722,None,1236.434722,1237.334743,0.2321317,None,,,,,,,,,45,1,2020_Jan_03_1138,untitled,3.1.0,60.11053127
429,_4,M,180,L,N,429_4M180LN,HLN,0,284,284,172,,,1.375,1238.751698,1239.048926,1239.048926,1239.148876,1239.165566,None,down,3.0328604,1239.165566,None,1239.165566,1240.531261,0.30296,None,,,,,,,,,45,1,2020_Jan_03_1138,untitled,3.1.0,60.11053127
205,G,M,180,R,N,205GM180RN,HRN,0,285,285,132,,,1.312,1242.412168,1242.712535,1242.712535,1242.912262,1242.929225,None,down,2.8991609,1242.929225,None,1242.929225,1244.227859,0.2005963,None,,,,,,,,,45,1,2020_Jan_03_1138,untitled,3.1.0,60.11053127
_,_4,M,0,_,_,__4M000__,N,0,286,286,32,,,0.816,1246.021673,1246.309731,1246.309731,1246.542503,1246.559256,None,down,2.0505585,1246.559256,None,1246.559256,1247.358649,0.1786959,None,,,,,,,,,45,1,2020_Jan_03_1138,untitled,3.1.0,60.11053127
_,_5,M,0,_,_,__5M000__,N,0,287,287,40,,,1.261,1248.856659,1249.157377,1249.157377,1249.32357,1249.340879,None,down,2.9323797,1249.340879,None,1249.340879,1250.589448,0.2302543,None,,,,,,,,,45,1,2020_Jan_03_1138,untitled,3.1.0,60.11053127
,,,,,,,,,,,,,,,,,,,,,,,,,,,,,1252.290352,None,1256.250711,None,1259.63182,None,1262.329597,None,,,,,,
