Number,Letter,type,Orientation,human,face_type,image,picture,trials.thisRepN,trials.thisTrialN,trials.thisN,trials.thisIndex,text.started,text.stopped,stimulus_duration,CROSS.started,CROSS.stopped,BLANK.started,BLANK.stopped,TEST.started,TEST.stopped,key_JUDGE.keys,key_JUDGE.started,key_JUDGE.stopped,image_2.started,image_2.stopped,ISI.started,ISI.stopped,key_JUDGE.rt,q1.started,q1.stopped,q2.started,q2.stopped,q3.started,q3.stopped,text_2.started,text_2.stopped,participant,session,date,expName,psychopyVersion,frameRate,
004,R,N,135,R,N,004RN135RN,HRN,0,0,0,195,260.96951799991075,None,1.0130000000000001,308.98379429988563,308.98379429988563,308.98379429988563,309.1421742999228,309.1421742999228,None,None,309.1421742999228,None,309.1421742999228,310.07073069992475,0.497995899990201,None,,,,,,,,,,46,001,2020_Jan_03_1251,untitled,3.1.0,59.91360457997532,
_,F,M,90,_,_,_FM090__,N,0,1,1,2,,,1.188,312.9005724999588,313.2014083999675,313.2014083999675,313.25166289997287,313.268731799908,312.9005724999588,None,313.268731799908,None,313.268731799908,314.44980849989224,0.34447880007792264,None,,,,,,,,,,46,001,2020_Jan_03_1251,untitled,3.1.0,59.91360457997532,
259,_2,N,90,R,N,259_2N090RN,HRN,0,2,2,242,,,1.05,317.1347334999591,317.43071269989014,317.43071269989014,317.4644102999009,317.48080779996235,317.1347334999591,up,317.48080779996235,None,317.48080779996235,318.514157999889,0.3691042000427842,None,2.583833900047466,,,,,,,,,46,001,2020_Jan_03_1251,untitled,3.1.0,59.91360457997532,
008,R,N,315,R,N,008RN315RN,HRN,0,3,3,199,,,1.057,320.3378550999332,320.627978399978,320.627978399978,320.77798319992144,320.79485289996956,None,up,320.79485289996956,None,320.79485289996956,321.84452990000136,0.25793860002886504,None,2.94907139998395,,,,,,,,,46,001,2020_Jan_03_1251,untitled,3.1.0,59.91360457997532,
303,_2,M,270,L,N,303_2M270LN,HLN,0,4,4,158,,,1.04,323.99615359993186,324.2914338998962,324.2914338998962,324.458081599907,324.4746599999489,None,None,324.4746599999489,None,324.4746599999489,325.50692639988847,0.23692940000910312,None,,,,,,,,,,46,001,2020_Jan_03_1251,untitled,3.1.0,59.91360457997532,
_,_4,N,270,_,_,__4N270__,N,0,5,5,86,,,1.375,328.31369879993144,328.6045504999347,328.6045504999347,328.67122259992175,328.6899854999501,328.31369879993144,up,328.6899854999501,None,328.6899854999501,330.0542498999275,0.34133319999091327,None,3.21558429999277,,,,,,,,,46,001,2020_Jan_03_1251,untitled,3.1.0,59.91360457997532,
483,_5,N,90,L,N,483_5N090LN,HLN,0,6,6,282,,,0.705,332.29053809994366,332.5854453999782,332.5854453999782,332.63401309994515,332.6506549998885,None,up,332.6506549998885,None,332.6506549998885,333.3336156998994,0.3643178000347689,None,1.915619399980642,,,,,,,,,46,001,2020_Jan_03_1251,untitled,3.1.0,59.91360457997532,
_,F,N,270,_,_,_FN270__,N,0,7,7,54,,,1.316,334.8871978999814,335.1818304999033,335.1818304999033,335.28165789996274,335.29848409991246,None,up,335.29848409991246,None,335.29848409991246,336.597415599972,0.3085888000205159,None,2.500432299915701,,,,,,,,,46,001,2020_Jan_03_1251,untitled,3.1.0,59.91360457997532,
_,G,M,0,_,_,_GM000__,N,0,8,8,8,,,1.073,338.18040759989526,338.4790290999226,338.4790290999226,338.51244409999344,338.52937509992626,None,down,338.52937509992626,None,338.52937509992626,339.59508119989187,0.36818510002922267,None,2.1834295000880957,,,,,,,,,46,001,2020_Jan_03_1251,untitled,3.1.0,59.91360457997532,
236,G,M,135,L,N,236GM135LN,HLN,0,9,9,139,,,0.88,340.93444349989295,341.2266785999527,341.2266785999527,341.4264478998957,341.44316279992927,None,down,341.44316279992927,None,341.44316279992927,342.3100562999025,0.20821559999603778,None,3.3155392000917345,,,,,,,,,46,001,2020_Jan_03_1251,untitled,3.1.0,59.91360457997532,
_,G,N,180,_,_,_GN180__,N,0,10,10,60,,,1.074,345.09264849999454,345.38958659989294,345.38958659989294,345.4896497000009,345.4896497000009,None,up,345.4896497000009,None,345.4896497000009,346.5554881999269,0.31554620002862066,None,2.8185477999504656,,,,,,,,,46,001,2020_Jan_03_1251,untitled,3.1.0,59.91360457997532,
385,_4,N,0,R,N,385_4N000RN,HRN,0,11,11,256,,,1.383,348.58392469992395,348.88676929997746,348.88676929997746,349.01975749991834,349.03777799999807,None,up,349.03777799999807,None,349.03777799999807,350.4187645999482,0.261858299956657,None,2.383057600003667,,,,,,,,,46,001,2020_Jan_03_1251,untitled,3.1.0,59.91360457997532,
272,_2,M,315,R,N,272_2M315RN,HRN,0,12,12,151,,,1.2510000000000001,351.6195045999484,351.917461099918,351.917461099918,352.13384389993735,352.1504818999674,None,None,352.1504818999674,None,352.1504818999674,353.38270339998417,0.18504920008126646,None,,,,,,,,,,46,001,2020_Jan_03_1251,untitled,3.1.0,59.91360457997532,
140,F,M,135,R,N,140FM135RN,HRN,0,13,13,115,,,0.972,355.9224777999334,356.21401719993446,356.21401719993446,356.33095809991937,356.34745269990526,355.9224777999334,down,356.34745269990526,None,356.34745269990526,None,0.29612199997063726,None,0.0014492999762296677,,,,,,,,,46,001,2020_Jan_03_1251,untitled,3.1.0,59.91360457997532,
490,_5,M,45,L,N,490_5M045LN,HLN,0,14,14,185,,,0.988,356.5675112999743,356.8630436999956,356.8630436999956,357.0630973998923,357.08018089993857,None,down,357.08018089993857,None,357.08018089993857,358.0481023999164,0.20528059999924153,None,2.7830907000461593,,,,,,,,,46,001,2020_Jan_03_1251,untitled,3.1.0,59.91360457997532,
_,F,N,225,_,_,_FN225__,N,0,15,15,53,,,1.093,360.18048089998774,360.47644589992706,360.47644589992706,360.5764727999922,360.5931387998862,None,up,360.5931387998862,None,360.5931387998862,361.6757490999298,0.30290729994885623,None,2.2854412000160664,,,,,,,,,46,001,2020_Jan_03_1251,untitled,3.1.0,59.91360457997532,
_,_2,N,270,_,_,__2N270__,N,0,16,16,78,,,1.368,363.230881699943,363.5237634999212,363.5237634999212,363.60692729998846,363.60692729998846,None,up,363.60692729998846,None,363.60692729998846,364.97235129994806,0.33497530000749975,None,2.649192600045353,,,,,,,,,46,001,2020_Jan_03_1251,untitled,3.1.0,59.91360457997532,
258,_2,N,45,R,N,258_2N045RN,HRN,0,17,17,241,,,0.741,366.45759019989055,366.75444609997794,366.75444609997794,366.9708733999869,366.9872679999098,None,up,366.9872679999098,None,366.9872679999098,367.72122709988616,0.18826090008951724,None,1.7341226999415085,,,,,,,,,46,001,2020_Jan_03_1251,untitled,3.1.0,59.91360457997532,
_,_5,N,225,_,_,__5N225__,N,0,18,18,93,,,0.769,368.9985368999187,369.287406599964,369.287406599964,369.4357512999559,369.4522925999481,None,up,369.4522925999481,None,369.4522925999481,370.2013837998966,0.2633194999070838,None,2.2356737999944016,,,,,,,,,46,001,2020_Jan_03_1251,untitled,3.1.0,59.91360457997532,
202,G,M,45,R,N,202GM045RN,HRN,0,19,19,129,,,1.242,371.88395359995775,372.1828298999462,372.1828298999462,372.41830099991057,372.41830099991057,None,down,372.41830099991057,None,372.41830099991057,373.64877599989995,0.1777581999776885,None,2.597081599989906,,,,,,,,,46,001,2020_Jan_03_1251,untitled,3.1.0,59.91360457997532,
201,G,M,0,R,N,201GM000RN,HRN,0,20,20,128,,,1.235,375.25220339989755,375.54700239992235,375.54700239992235,375.7312515999656,375.7489781999029,None,None,375.7489781999029,None,375.7489781999029,376.9620807999745,0.22064260009210557,None,,,,,,,,,,46,001,2020_Jan_03_1251,untitled,3.1.0,59.91360457997532,
039,R,N,270,L,N,039RN270LN,HLN,0,21,21,206,,,0.983,379.5247426999267,379.8266727000009,379.8266727000009,379.9261201999616,379.942958499887,379.5247426999267,up,379.942958499887,None,379.942958499887,380.9088793999981,0.30265319999307394,None,1.8987918000202626,,,,,,,,,46,001,2020_Jan_03_1251,untitled,3.1.0,59.91360457997532,
_,G,N,45,_,_,_GN045__,N,0,22,22,57,,,0.921,382.0678622999694,382.3576243999414,382.3576243999414,382.5574516999768,382.5740851999726,None,up,382.5740851999726,None,382.5740851999726,383.47312459989917,0.2128175999969244,None,1.7160473999101669,,,,,,,,,46,001,2020_Jan_03_1251,untitled,3.1.0,59.91360457997532,
139,F,M,90,R,N,139FM090RN,HRN,0,23,23,114,,,1.395,384.5608792999992,384.85538609989453,384.85538609989453,385.0052810999332,385.021870699944,None,down,385.021870699944,None,385.021870699944,386.4039030999411,0.25808699999470264,None,2.734320600051433,,,,,,,,,46,001,2020_Jan_03_1251,untitled,3.1.0,59.91360457997532,
_,G,N,0,_,_,_GN000__,N,0,24,24,56,,,0.964,387.98215549997985,388.2688303999603,388.2688303999603,388.4686089999741,388.4854587999871,None,up,388.4854587999871,None,388.4854587999871,389.4346327999374,0.20825789996888489,None,1.7509325999999419,,,,,,,,,46,001,2020_Jan_03_1251,untitled,3.1.0,59.91360457997532,
007,R,N,270,R,N,007RN270RN,HRN,0,25,25,198,,,0.717,390.4765596999787,390.7674249999691,390.7674249999691,390.95056629995815,390.9683675999986,None,up,390.9683675999986,None,390.9683675999986,391.6660435999511,0.2234080999623984,None,1.5979617000557482,,,,,,,,,46,001,2020_Jan_03_1251,untitled,3.1.0,59.91360457997532,
_,G,M,225,_,_,_GM225__,N,0,26,26,13,,,1.052,392.80169110000134,393.0981492999708,393.0981492999708,393.281566599966,393.2990562999621,None,down,393.2990562999621,None,393.2990562999621,394.3328898999607,0.22077130002435297,None,2.4838825999759138,,,,,,,,,46,001,2020_Jan_03_1251,untitled,3.1.0,59.91360457997532,
_,F,N,135,_,_,_FN135__,N,0,27,27,51,,,1.2690000000000001,396.0647909999825,396.3617197999265,396.3617197999265,396.49505579995457,396.51190699997824,None,up,396.51190699997824,None,396.51190699997824,397.76145439990796,0.2677254999289289,None,2.747631200007163,,,,,,,,,46,001,2020_Jan_03_1251,untitled,3.1.0,59.91360457997532,
040,R,N,315,L,N,040RN315LN,HLN,0,28,28,207,,,0.9550000000000001,399.5442602999974,399.84196979994886,399.84196979994886,399.9751339999493,399.99204689997714,None,up,399.99204689997714,None,399.99204689997714,400.9251144999871,0.2728798999451101,None,2.2165013999911025,,,,,,,,,46,001,2020_Jan_03_1251,untitled,3.1.0,59.91360457997532,
_,G,M,315,_,_,_GM315__,N,0,29,29,15,,,1.093,402.52995050000027,402.82281419995707,402.82281419995707,402.92277649999596,402.93929179990664,None,down,402.93929179990664,None,402.93929179990664,404.0224940999178,0.3091335000935942,None,2.550495299976319,,,,,,,,,46,001,2020_Jan_03_1251,untitled,3.1.0,59.91360457997532,
_,_4,M,270,_,_,__4M270__,N,0,30,30,38,,,1.163,405.81978089991026,406.1204465999035,406.1204465999035,406.2035513999872,406.2207410999108,None,down,406.2207410999108,None,406.2207410999108,407.3693535999628,0.3135844999924302,None,2.632673699990846,,,,,,,,,46,001,2020_Jan_03_1251,untitled,3.1.0,59.91360457997532,
_,_2,M,135,_,_,__2M135__,N,0,31,31,27,,,0.794,409.21277199999895,409.5138140999479,409.5138140999479,409.5687843998894,409.5881127999164,None,down,409.5881127999164,None,409.5881127999164,410.36660239996854,0.3438057000748813,None,2.811003700015135,,,,,,,,,46,001,2020_Jan_03_1251,untitled,3.1.0,59.91360457997532,
203,G,M,90,R,N,203GM090RN,HRN,0,32,32,130,,,1.24,412.61784939991776,412.9140870999545,412.9140870999545,413.1147972999606,413.13135239994153,None,None,413.13135239994153,None,413.13135239994153,414.3630077999551,0.206965500023216,None,,,,,,,,,,46,001,2020_Jan_03_1251,untitled,3.1.0,59.91360457997532,
394,_4,M,45,R,N,394_4M045RN,HRN,0,33,33,161,,,1.349,416.8712615999393,417.16065049997997,417.16065049997997,417.3111341999611,417.32734139997046,416.8712615999393,down,417.32734139997046,None,417.32734139997046,418.65934109990485,0.2663053000578657,None,3.065464199986309,,,,,,,,,46,001,2020_Jan_03_1251,untitled,3.1.0,59.91360457997532,
176,F,M,315,L,N,176FM315LN,HLN,0,34,34,127,,,1.077,420.71918429993093,421.0084652999649,421.0084652999649,421.10761239996646,421.1245947999414,None,down,421.1245947999414,None,421.1245947999414,422.1898241000017,0.31280190008692443,None,2.300156500074081,,,,,,,,,46,001,2020_Jan_03_1251,untitled,3.1.0,59.91360457997532,
_,_5,M,315,_,_,__5M315__,N,0,35,35,47,,,0.763,423.6645110999234,423.95436489989515,423.95436489989515,424.13816879992373,424.1551805998897,None,down,424.1551805998897,None,424.1551805998897,424.9048305999022,0.22609930008184165,None,2.864123099949211,,,,,,,,,46,001,2020_Jan_03_1251,untitled,3.1.0,59.91360457997532,
164,F,N,135,L,N,164FN135LN,HLN,0,36,36,219,,,1.151,427.36011689994484,427.65123909991235,427.65123909991235,427.73450499994215,427.7514391998993,None,up,427.7514391998993,None,427.7514391998993,428.88366179994773,0.327391600003466,None,2.100274599972181,,,,,,,,,46,001,2020_Jan_03_1251,untitled,3.1.0,59.91360457997532,
043,R,M,90,L,N,043RM090LN,HLN,0,37,37,106,,,0.973,430.1801774998894,430.48054649995174,430.48054649995174,430.56542089988943,430.5824891999364,None,down,430.5824891999364,None,430.5824891999364,431.5477388999425,0.3152630999684334,None,2.1649722000584006,,,,,,,,,46,001,2020_Jan_03_1251,untitled,3.1.0,59.91360457997532,
457,_5,M,0,R,N,457_5M000RN,HRN,0,38,38,176,,,0.743,433.10737719992176,433.39616959996056,433.39616959996056,433.463086499949,433.4805678999983,None,up,433.4805678999983,None,433.4805678999983,434.2123477999121,0.3475566999986768,None,2.0019803000614047,,,,,,,,,46,001,2020_Jan_03_1251,untitled,3.1.0,59.91360457997532,
129,F,N,0,R,N,129FN000RN,HRN,0,39,39,208,,,1.27,435.837720099953,436.12861499993596,436.12861499993596,436.1937543998938,436.21083829994313,None,up,436.21083829994313,None,436.21083829994313,437.4760108999908,0.34031010000035167,None,2.1018539000069723,,,,,,,,,46,001,2020_Jan_03_1251,untitled,3.1.0,59.91360457997532,
268,_2,M,135,R,N,268_2M135RN,HRN,0,40,40,147,,,1.057,438.5837915999582,438.87470819999,438.87470819999,439.02453099994455,439.04114019998815,None,down,439.04114019998815,None,439.04114019998815,440.09155219991226,0.2558018999407068,None,2.2007321999408305,,,,,,,,,46,001,2020_Jan_03_1251,untitled,3.1.0,59.91360457997532,
143,F,M,270,R,N,143FM270RN,HRN,0,41,41,118,,,1.051,441.5203722999431,441.82217899989337,441.82217899989337,441.9553665999556,441.97196969995275,None,down,441.97196969995275,None,441.97196969995275,443.00481909990776,0.2654569000005722,None,2.3835411000763997,,,,,,,,,46,001,2020_Jan_03_1251,untitled,3.1.0,59.91360457997532,
_,G,M,270,_,_,_GM270__,N,0,42,42,14,,,1.317,444.56978579994757,444.86958939989563,444.86958939989563,445.0693623999832,445.0859504999826,None,down,445.0859504999826,None,445.0859504999826,446.3848688999424,0.20146859996020794,None,2.966648800065741,,,,,,,,,46,001,2020_Jan_03_1251,untitled,3.1.0,59.91360457997532,
269,_2,M,180,R,N,269_2M180RN,HRN,0,43,43,148,,,1.087,448.2818861999549,448.58290639996994,448.58290639996994,448.76624579995405,448.7827975999098,None,down,448.7827975999098,None,448.7827975999098,449.8652071999386,0.21151659998577088,None,2.549172700033523,,,,,,,,,46,001,2020_Jan_03_1251,untitled,3.1.0,59.91360457997532,
266,_2,M,45,R,N,266_2M045RN,HRN,0,44,44,145,,,0.917,451.63475999992806,451.93039629992563,451.93039629992563,452.0470534999622,452.0645170999924,None,None,452.0645170999924,None,452.0645170999924,452.96269799990114,0.28953250008635223,None,,,,,,,,,,46,001,2020_Jan_03_1251,untitled,3.1.0,59.91360457997532,
_,F,N,45,_,_,_FN045__,N,0,45,45,49,,,0.847,455.9607816999778,455.9607816999778,455.9607816999778,456.2607476999983,456.2607476999983,455.9607816999778,up,456.2607476999983,None,456.2607476999983,457.0922136999434,0.4197621000930667,None,2.614901699940674,,,,,,,,,46,001,2020_Jan_03_1251,untitled,3.1.0,59.91360457997532,
_,G,N,315,_,_,_GN315__,N,0,46,46,63,,,1.369,459.1539682999719,459.4548341999762,459.4548341999762,459.5900609999662,459.60658139991574,None,up,459.60658139991574,None,459.60658139991574,460.9552746999543,0.2654290999053046,None,2.5827482000458986,,,,,,,,,46,001,2020_Jan_03_1251,untitled,3.1.0,59.91360457997532,
_,F,N,315,_,_,_FN315__,N,0,47,47,55,,,0.78,462.46454859990627,462.75387869996484,462.75387869996484,462.90383440000005,462.9211311999243,None,up,462.9211311999243,None,462.9211311999243,463.68841079995036,0.26291459996718913,None,1.4840376999927685,,,,,,,,,46,001,2020_Jan_03_1251,untitled,3.1.0,59.91360457997532,
_,_5,N,270,_,_,__5N270__,N,0,48,48,94,,,1.049,464.60335529991426,464.9020758999977,464.9020758999977,465.11913109989837,465.1387246999657,None,up,465.1387246999657,None,465.1387246999657,466.16752069990616,0.1866808000486344,None,1.7475888000335544,,,,,,,,,46,001,2020_Jan_03_1251,untitled,3.1.0,59.91360457997532,
_,_2,M,270,_,_,__2M270__,N,0,49,49,30,,,0.856,467.1180565999821,467.416690699989,467.416690699989,467.6004753999878,467.617887099972,None,down,467.617887099972,None,467.617887099972,468.46642469998915,0.2190624000504613,None,2.067689499934204,,,,,,,,,46,001,2020_Jan_03_1251,untitled,3.1.0,59.91360457997532,
038,R,N,225,L,N,038RN225LN,HLN,0,50,50,205,,,0.865,469.9872441999614,470.28060429997277,470.28060429997277,470.41396839998197,470.41396839998197,None,up,470.41396839998197,None,470.41396839998197,471.2652981999563,0.2825294000795111,None,3.300031799939461,,,,,,,,,46,001,2020_Jan_03_1251,untitled,3.1.0,59.91360457997532,
003,R,N,90,R,N,003RN090RN,HRN,0,51,51,194,,,1.0190000000000001,473.90810569992755,474.208864599932,474.208864599932,474.4269558999222,474.443841899978,None,up,474.443841899978,None,474.443841899978,475.45944269991014,0.1792043000459671,None,2.531576000037603,,,,,,,,,46,001,2020_Jan_03_1251,untitled,3.1.0,59.91360457997532,
036,R,N,135,L,N,036RN135LN,HLN,0,52,52,203,,,1.074,477.16673239995725,477.4580078999279,477.4580078999279,477.69186639995314,477.70922559988685,None,up,477.70922559988685,None,477.70922559988685,478.7730915999273,0.17888229992240667,None,1.8835283999796957,,,,,,,,,46,001,2020_Jan_03_1251,untitled,3.1.0,59.91360457997532,
418,_4,N,45,L,N,418_4N045LN,HLN,0,53,53,265,,,1.278,479.89918139996007,480.1887311999453,480.1887311999453,480.30524439993314,480.3232179998886,None,up,480.3232179998886,None,480.3232179998886,481.58788499992806,0.294342799927108,None,1.948614599998109,,,,,,,,,46,001,2020_Jan_03_1251,untitled,3.1.0,59.91360457997532,
015,R,M,270,R,N,015RM270RN,HRN,0,54,54,102,,,1.096,482.5732034998946,482.87045199994463,482.87045199994463,482.98732569999993,483.0048991999356,None,down,483.0048991999356,None,483.0048991999356,484.0857651999686,0.28924720000941306,None,2.0482195999938995,,,,,,,,,46,001,2020_Jan_03_1251,untitled,3.1.0,59.91360457997532,
196,G,N,135,R,N,196GN135RN,HRN,0,55,55,227,,,0.758,485.2609018998919,485.5506323999725,485.5506323999725,485.76772149989847,485.78425679996144,None,up,485.78425679996144,None,485.78425679996144,486.53412659990136,0.19464140001218766,None,2.20223709999118,,,,,,,,,46,001,2020_Jan_03_1251,untitled,3.1.0,59.91360457997532,
493,_5,M,180,L,N,493_5M180LN,HLN,0,56,56,188,,,1.3820000000000001,488.2717619999312,488.56468379998114,488.56468379998114,488.7147380999522,488.7147380999522,None,down,488.7147380999522,None,488.7147380999522,490.09647709992714,0.2674248000839725,None,3.299881299957633,,,,,,,,,46,001,2020_Jan_03_1251,untitled,3.1.0,59.91360457997532,
_,R,M,315,_,_,_RM315__,N,0,57,57,23,,,1.151,492.30565109988675,492.59439609991387,492.59439609991387,492.7286252999911,492.74501749989577,None,down,492.74501749989577,None,492.74501749989577,493.8763980999356,0.2790110999485478,None,2.0162395000224933,,,,,,,,,46,001,2020_Jan_03_1251,untitled,3.1.0,59.91360457997532,
_,R,M,0,_,_,_RM000__,N,0,58,58,16,,,0.806,495.0522049999563,495.34232319996227,495.34232319996227,495.47526509989984,495.49188649991993,None,down,495.49188649991993,None,495.49188649991993,496.2915448999265,0.277734600007534,None,1.568717100075446,,,,,,,,,46,001,2020_Jan_03_1251,untitled,3.1.0,59.91360457997532,
_,_2,M,180,_,_,__2M180__,N,0,59,59,28,,,1.169,497.27778189990204,497.5739499999909,497.5739499999909,497.77466729993466,497.7929674999323,None,down,497.7929674999323,None,497.7929674999323,498.9562469999073,0.19981049990747124,None,2.2809520999435335,,,,,,,,,46,001,2020_Jan_03_1251,untitled,3.1.0,59.91360457997532,
_,F,M,225,_,_,_FM225__,N,0,60,60,5,,,1.151,500.4683553999057,500.7565761998994,500.7565761998994,500.7874389999779,500.80453779990785,None,down,500.80453779990785,None,500.80453779990785,501.93623519991525,0.3778299998957664,None,3.116643500048667,,,,,,,,,46,001,2020_Jan_03_1251,untitled,3.1.0,59.91360457997532,
135,F,N,270,R,N,135FN270RN,HRN,0,61,61,214,,,1.074,504.2006639998872,504.5011856999481,504.5011856999481,504.6342938999878,504.65108129999135,None,up,504.65108129999135,None,504.65108129999135,505.71712039993145,0.2667464999249205,None,2.0173690000083297,,,,,,,,,46,001,2020_Jan_03_1251,untitled,3.1.0,59.91360457997532,
225,G,N,0,L,N,225GN000LN,HLN,0,62,62,232,,,0.881,506.87356699991506,507.1651428999612,507.1651428999612,507.38165899994783,507.3984488999704,None,up,507.3984488999704,None,507.3984488999704,508.26390149991494,0.19287779997102916,None,1.5858119999757037,,,,,,,,,46,001,2020_Jan_03_1251,untitled,3.1.0,59.91360457997532,
228,G,N,135,L,N,228GN135LN,HLN,0,63,63,235,,,1.229,509.29574889992364,509.59642229997553,509.59642229997553,509.6978161999723,509.7137303999625,None,up,509.7137303999625,None,509.7137303999625,510.9284101999365,0.2988272999646142,None,1.949565100017935,,,,,,,,,46,001,2020_Jan_03_1251,untitled,3.1.0,59.91360457997532,
_,_2,N,315,_,_,__2N315__,N,0,64,64,79,,,1.326,511.9899303999264,512.2785643999232,512.2785643999232,512.3773422999075,512.3947438999312,None,down,512.3947438999312,None,512.3947438999312,513.7137148999609,0.3090526000596583,None,2.765914799994789,,,,,,,,,46,001,2020_Jan_03_1251,untitled,3.1.0,59.91360457997532,
398,_4,M,225,R,N,398_4M225RN,HRN,0,65,65,165,,,1.364,515.5285253999755,515.8243694999255,515.8243694999255,515.8747387999902,515.8915857999818,None,up,515.8915857999818,None,515.8915857999818,517.2400806999067,0.3531140999402851,None,3.3647702999878675,,,,,,,,,46,001,2020_Jan_03_1251,untitled,3.1.0,59.91360457997532,
489,_5,M,0,L,N,489_5M000LN,HLN,0,66,66,184,,,0.758,519.5508391999174,519.8381181999575,519.8381181999575,519.970751899993,519.9875533999875,None,down,519.9875533999875,None,519.9875533999875,520.7364073999925,0.28137390001211315,None,2.1500847999705,,,,,,,,,46,001,2020_Jan_03_1251,untitled,3.1.0,59.91360457997532,
002,R,N,45,R,N,002RN045RN,HRN,0,67,67,193,,,0.717,522.3459919999586,522.6350213999394,522.6350213999394,522.8513256999431,522.8679820999969,None,up,522.8679820999969,None,522.8679820999969,523.5675059999339,0.1955240999814123,None,1.5167690999805927,,,,,,,,,46,001,2020_Jan_03_1251,untitled,3.1.0,59.91360457997532,
452,_5,N,135,R,N,452_5N135RN,HRN,0,68,68,275,,,1.352,524.6610889999429,524.9503740998916,524.9503740998916,525.0993773998925,525.1167241999647,None,up,525.1167241999647,None,525.1167241999647,526.4490139998961,0.2629002999747172,None,2.4652810000116006,,,,,,,,,46,001,2020_Jan_03_1251,untitled,3.1.0,59.91360457997532,
_,F,N,180,_,_,_FN180__,N,0,69,69,52,,,1.21,527.8861350999214,528.1807021999266,528.1807021999266,528.2968216999434,528.3144727998879,None,up,528.3144727998879,None,528.3144727998879,529.5130681999726,0.2913266000105068,None,2.5327337000053376,,,,,,,,,46,001,2020_Jan_03_1251,untitled,3.1.0,59.91360457997532,
419,_4,N,90,L,N,419_4N090LN,HLN,0,70,70,266,,,1.326,531.0899158999091,531.3781171999872,531.3781171999872,531.5606634999858,531.5774347999832,None,up,531.5774347999832,None,531.5774347999832,532.8937669999432,0.2277317000553012,None,2.0852622999809682,,,,,,,,,46,001,2020_Jan_03_1251,untitled,3.1.0,59.91360457997532,
450,_5,N,45,R,N,450_5N045RN,HRN,0,71,71,273,,,0.732,534.0731407999992,534.0731407999992,534.3552813999122,534.391865799902,534.391865799902,None,up,534.391865799902,None,534.391865799902,535.1239606000017,0.3942498000105843,None,1.50046570005361,,,,,,,,,46,001,2020_Jan_03_1251,untitled,3.1.0,59.91360457997532,
399,_4,M,270,R,N,399_4M270RN,HRN,0,72,72,166,,,0.756,536.116864599986,536.4066487998934,536.4066487998934,536.6061358998995,536.6226638999069,None,down,536.6226638999069,None,536.6226638999069,537.373183599906,0.2111867000348866,None,1.6843065000139177,,,,,,,,,46,001,2020_Jan_03_1251,untitled,3.1.0,59.91360457997532,
011,R,M,90,R,N,011RM090RN,HRN,0,73,73,98,,,0.863,538.5125315999612,538.8042176999152,538.8042176999152,539.0207377999322,539.0378847999964,None,down,539.0378847999964,None,539.0378847999964,539.8862985998858,0.1917391000315547,None,2.1159609999740496,,,,,,,,,46,001,2020_Jan_03_1251,untitled,3.1.0,59.91360457997532,
206,G,M,225,R,N,206GM225RN,HRN,0,74,74,133,,,1.02,541.4415040999884,541.7348950000014,541.7348950000014,541.8680375999538,541.8847333999583,None,down,541.8847333999583,None,541.8847333999583,542.8838087999029,0.27514369995333254,None,2.4992600000696257,,,,,,,,,46,001,2020_Jan_03_1251,untitled,3.1.0,59.91360457997532,
167,F,N,270,L,N,167FN270LN,HLN,0,75,75,222,,,0.707,544.6930955999997,544.9826463999925,544.9826463999925,545.0990839999868,545.1177280999254,None,up,545.1177280999254,None,545.1177280999254,545.7991198999807,0.2936930999858305,None,1.6304593000095338,,,,,,,,,46,001,2020_Jan_03_1251,untitled,3.1.0,59.91360457997532,
430,_4,M,225,L,N,430_4M225LN,HLN,0,76,76,173,,,0.796,547.0375375999138,547.3298970999895,547.3298970999895,547.463454999961,547.4800761999795,None,down,547.4800761999795,None,547.4800761999795,548.2631585999625,0.2741653999546543,None,2.1355391000397503,,,,,,,,,46,001,2020_Jan_03_1251,untitled,3.1.0,59.91360457997532,
163,F,N,90,L,N,163FN090LN,HLN,0,77,77,218,,,0.848,549.9307606999064,550.2273298999062,550.2273298999062,550.343931099982,550.343931099982,None,up,550.343931099982,None,550.343931099982,551.1763486999553,0.2989421000238508,None,1.66820039995946,,,,,,,,,46,001,2020_Jan_03_1251,untitled,3.1.0,59.91360457997532,
481,_5,N,0,L,N,481_5N000LN,HLN,0,78,78,280,,,1.1440000000000001,552.2291349999141,552.5255899999756,552.5255899999756,552.7254815999186,552.7423705999972,None,up,552.7423705999972,None,552.7423705999972,553.8741586999968,0.2034173000138253,None,1.8680726999882609,,,,,,,,,46,001,2020_Jan_03_1251,untitled,3.1.0,59.91360457997532,
297,_2,M,0,L,N,297_2M000LN,HLN,0,79,79,152,,,1.1280000000000001,554.8312253999757,555.1231958999997,555.1231958999997,555.323283799924,555.3399193999358,None,down,555.3399193999358,None,555.3399193999358,556.4554742999608,0.20779849996324629,None,2.284732799977064,,,,,,,,,46,001,2020_Jan_03_1251,untitled,3.1.0,59.91360457997532,
_,_5,M,90,_,_,__5M090__,N,0,80,80,42,,,0.899,557.849198199925,558.1376509999391,558.1376509999391,558.3370248998981,558.3538576998981,None,down,558.3538576998981,None,558.3538576998981,559.2360060999636,0.21158829994965345,None,2.7834085000213236,,,,,,,,,46,001,2020_Jan_03_1251,untitled,3.1.0,59.91360457997532,
427,_4,M,90,L,N,427_4M090LN,HLN,0,81,81,170,,,1.198,561.4655321999453,561.7660751999356,561.7660751999356,561.8512695999816,561.868999099941,None,down,561.868999099941,None,561.868999099941,563.049535799888,0.31244600005447865,None,2.80035749997478,,,,,,,,,46,001,2020_Jan_03_1251,untitled,3.1.0,59.91360457997532,
462,_5,M,225,R,N,462_5M225RN,HRN,0,82,82,181,,,1.243,565.0652440999402,565.3640116999159,565.3640116999159,565.3973522998858,565.3973522998858,None,None,565.3973522998858,None,565.3973522998858,566.6300707999617,0.3765608000103384,None,,,,,,,,,,46,001,2020_Jan_03_1251,untitled,3.1.0,59.91360457997532,
_,_5,N,0,_,_,__5N000__,N,0,83,83,88,,,1.189,569.1389808999375,569.4286159999901,569.4286159999901,569.5942319999449,569.6109540999169,569.1389808999375,up,569.6109540999169,None,569.6109540999169,570.776450999896,0.25053980003576726,None,2.1324378999415785,,,,,,,,,46,001,2020_Jan_03_1251,untitled,3.1.0,59.91360457997532,
449,_5,N,0,R,N,449_5N000RN,HRN,0,84,84,272,,,1.2530000000000001,571.9395413999446,572.2416465999559,572.2416465999559,572.4583760999376,572.4751816999633,None,up,572.4751816999633,None,572.4751816999633,573.7076342999935,0.18335840001236647,None,1.8526580999605358,,,,,,,,,46,001,2020_Jan_03_1251,untitled,3.1.0,59.91360457997532,
_,_2,M,315,_,_,__2M315__,N,0,85,85,31,,,0.73,574.6374290999956,574.9394668999594,574.9394668999594,575.039976399974,575.056741099921,None,down,575.056741099921,None,575.056741099921,575.7724205999402,0.29682980000507087,None,2.333926400053315,,,,,,,,,46,001,2020_Jan_03_1251,untitled,3.1.0,59.91360457997532,
431,_4,M,270,L,N,431_4M270LN,HLN,0,86,86,174,,,0.997,577.6552813999588,577.9533866998972,577.9533866998972,578.1040561998961,578.121516999905,None,down,578.121516999905,None,578.121516999905,579.1029317999491,0.24996509996708483,None,2.13800309994258,,,,,,,,,46,001,2020_Jan_03_1251,untitled,3.1.0,59.91360457997532,
261,_2,N,180,R,N,261_2N180RN,HRN,0,87,87,244,,,0.834,580.6385722999694,580.9339703998994,580.9339703998994,580.9840528999921,581.0008302999195,None,up,581.0008302999195,None,581.0008302999195,581.8167232999112,0.3601629000622779,None,2.2516766000771895,,,,,,,,,46,001,2020_Jan_03_1251,untitled,3.1.0,59.91360457997532,
138,F,M,45,R,N,138FM045RN,HRN,0,88,88,113,,,0.86,583.4571662999224,583.7486105998978,583.7486105998978,583.9648257999215,583.9815314000007,None,down,583.9815314000007,None,583.9815314000007,584.8312060999451,0.19140740006696433,None,1.8993582999100909,,,,,,,,,46,001,2020_Jan_03_1251,untitled,3.1.0,59.91360457997532,
271,_2,M,270,R,N,271_2M270RN,HRN,0,89,89,150,,,1.084,586.0733473999426,586.3635280999588,586.3635280999588,586.5959029999794,586.6127838999964,None,down,586.6127838999964,None,586.6127838999964,587.6790194999194,0.1808888999512419,None,3.232889199978672,,,,,,,,,46,001,2020_Jan_03_1251,untitled,3.1.0,59.91360457997532,
290,_2,N,45,L,N,290_2N045LN,HLN,0,90,90,249,,,0.998,590.1536358998856,590.442481999984,590.442481999984,590.5591628999682,590.5762227999512,None,up,590.5762227999512,None,590.5762227999512,591.5590788999107,0.2935715999919921,None,1.7679083999246359,,,,,,,,,46,001,2020_Jan_03_1251,untitled,3.1.0,59.91360457997532,
_,_5,M,225,_,_,__5M225__,N,0,91,91,45,,,1.285,592.6951670999406,592.9914912999375,592.9914912999375,593.0575284999795,593.0745484998915,None,down,593.0745484998915,None,593.0745484998915,594.3556446000002,0.33571639994625,None,3.2476283999858424,,,,,,,,,46,001,2020_Jan_03_1251,untitled,3.1.0,59.91360457997532,
048,R,M,315,L,N,048RM315LN,HLN,0,92,92,111,,,0.7030000000000001,596.6300873999717,596.9201383999316,596.9201383999316,597.0366635998944,597.0534507998964,None,down,597.0534507998964,None,597.0534507998964,597.7374440999702,0.2937923000426963,None,1.5854489000048488,,,,,,,,,46,001,2020_Jan_03_1251,untitled,3.1.0,59.91360457997532,
042,R,M,45,L,N,042RM045LN,HLN,0,93,93,105,,,1.314,598.9017933999421,599.2016826999607,599.2016826999607,599.3512770999223,599.3688260999043,None,down,599.3688260999043,None,599.3688260999043,600.6670882999897,0.247725399909541,None,2.214509699959308,,,,,,,,,46,001,2020_Jan_03_1251,untitled,3.1.0,59.91360457997532,
495,_5,M,270,L,N,495_5M270LN,HLN,0,94,94,190,,,1.198,601.8794510998996,602.1676192999585,602.1676192999585,602.2995986999013,602.3158505999018,None,down,602.3158505999018,None,602.3158505999018,603.4978126999922,0.2829294999828562,None,2.667650599963963,,,,,,,,,46,001,2020_Jan_03_1251,untitled,3.1.0,59.91360457997532,
175,F,M,270,L,N,175FM270LN,HLN,0,95,95,126,,,1.272,605.2140518999659,605.51294029993,605.51294029993,605.6964396999683,605.7139395999257,None,down,605.7139395999257,None,605.7139395999257,606.97828879999,0.21453960007056594,None,2.165503199910745,,,,,,,,,46,001,2020_Jan_03_1251,untitled,3.1.0,59.91360457997532,
302,_2,M,225,L,N,302_2M225LN,HLN,0,96,96,157,,,0.979,608.177150299889,608.4768431999255,608.4768431999255,608.5938516999595,608.6107864999212,None,down,608.6107864999212,None,608.6107864999212,609.5768159999279,0.2818167000077665,None,2.400300699984655,,,,,,,,,46,001,2020_Jan_03_1251,untitled,3.1.0,59.91360457997532,
227,G,N,90,L,N,227GN090LN,HLN,0,97,97,234,,,1.339,611.3491699999431,611.6406842999859,611.6406842999859,611.7406130998861,611.7406130998861,None,up,611.7406130998861,None,611.7406130998861,613.0727645999286,0.3196024000644684,None,2.549280700040981,,,,,,,,,46,001,2020_Jan_03_1251,untitled,3.1.0,59.91360457997532,
045,R,M,180,L,N,045RM180LN,HLN,0,98,98,108,,,1.373,614.6486749999458,614.937828999944,614.937828999944,615.0045104000019,615.0221857998986,None,down,615.0221857998986,None,615.0221857998986,616.3865230999654,0.34423289995174855,None,3.297272099996917,,,,,,,,,46,001,2020_Jan_03_1251,untitled,3.1.0,59.91360457997532,
459,_5,M,90,R,N,459_5M090RN,HRN,0,99,99,178,,,1.042,618.5405446999939,618.8343363999156,618.8343363999156,619.0342792998999,619.0510894999607,None,down,619.0510894999607,None,619.0510894999607,620.0832610999933,0.2056944000069052,None,2.4009189000353217,,,,,,,,,46,001,2020_Jan_03_1251,untitled,3.1.0,59.91360457997532,
195,G,N,90,R,N,195GN090RN,HRN,0,100,100,226,,,1.09,621.7368503999896,622.033311599982,622.033311599982,622.1649574999465,622.181807099958,None,up,622.181807099958,None,622.181807099958,623.2641122998903,0.2706933000590652,None,1.8180540000321344,,,,,,,,,46,001,2020_Jan_03_1251,untitled,3.1.0,59.91360457997532,
482,_5,N,45,L,N,482_5N045LN,HLN,0,101,101,281,,,1.1260000000000001,624.3219464999856,624.6126831999281,624.6126831999281,624.7126611999702,624.72999849997,None,up,624.72999849997,None,624.72999849997,625.8447285000002,0.30644980003125966,None,1.8166706999763846,,,,,,,,,46,001,2020_Jan_03_1251,untitled,3.1.0,59.91360457997532,
491,_5,M,90,L,N,491_5M090LN,HLN,0,102,102,186,,,1.366,626.8344561998965,627.1288064999972,627.1288064999972,627.2605494998861,627.2772413999774,None,down,627.2772413999774,None,627.2772413999774,628.6259843999287,0.2729053000221029,None,2.3343292999779806,,,,,,,,,46,001,2020_Jan_03_1251,untitled,3.1.0,59.91360457997532,
_,_2,N,225,_,_,__2N225__,N,0,103,103,77,,,0.705,629.8138880999759,630.1080153998919,630.1080153998919,630.3244303999236,630.3410205999389,None,up,630.3410205999389,None,630.3410205999389,631.0404984999914,0.18958000000566244,None,2.334251999971457,,,,,,,,,46,001,2020_Jan_03_1251,untitled,3.1.0,59.91360457997532,
240,G,M,315,L,N,240GM315LN,HLN,0,104,104,143,,,0.736,632.9607925999444,633.2553256999236,633.2553256999236,633.3884405998979,633.4050901998999,None,down,633.4050901998999,None,633.4050901998999,634.1379790999927,0.27104099991265684,None,1.7017919999780133,,,,,,,,,46,001,2020_Jan_03_1251,untitled,3.1.0,59.91360457997532,
194,G,N,45,R,N,194GN045RN,HRN,0,105,105,225,,,0.781,635.3260394999525,635.6199702000013,635.6199702000013,635.8200813999865,635.8408188999165,None,up,635.8408188999165,None,635.8408188999165,636.6024731999496,0.2061452999478206,None,1.5980021000141278,,,,,,,,,46,001,2020_Jan_03_1251,untitled,3.1.0,59.91360457997532,
455,_5,N,270,R,N,455_5N270RN,HRN,0,106,106,278,,,0.993,637.6514334999956,637.9512768998975,637.9512768998975,638.1519275999162,638.1702065999852,None,up,638.1702065999852,None,638.1702065999852,639.1502816999564,0.1983819999732077,None,1.8000821999739856,,,,,,,,,46,001,2020_Jan_03_1251,untitled,3.1.0,59.91360457997532,
_,_4,N,180,_,_,__4N180__,N,0,107,107,84,,,0.963,640.2165697999299,640.5155090999324,640.5155090999324,640.7001149998978,640.7001149998978,None,up,640.7001149998978,None,640.7001149998978,641.6486281999387,0.23028199991676956,None,2.6652410000097007,,,,,,,,,46,001,2020_Jan_03_1251,untitled,3.1.0,59.91360457997532,
132,F,N,135,R,N,132FN135RN,HRN,0,108,108,211,,,0.911,643.5580532999011,643.8471948999213,643.8471948999213,644.0790583998896,644.095966199995,None,up,644.095966199995,None,644.095966199995,644.9949104998959,0.18111609993502498,None,1.6681973999366164,,,,,,,,,46,001,2020_Jan_03_1251,untitled,3.1.0,59.91360457997532,
230,G,N,225,L,N,230GN225LN,HLN,0,109,109,237,,,0.809,645.969434699975,646.2605339000002,646.2605339000002,646.4769961999264,646.4935476999963,None,up,646.4935476999963,None,646.4935476999963,647.2929691999452,0.19163369992747903,None,1.5860410999739543,,,,,,,,,46,001,2020_Jan_03_1251,untitled,3.1.0,59.91360457997532,
034,R,N,45,L,N,034RN045LN,HLN,0,110,110,201,,,0.899,648.3779775999719,648.674858699902,648.674858699902,648.8082937999861,648.8082937999861,None,up,648.8082937999861,None,648.8082937999861,649.7073488999158,0.28048499999567866,None,1.5016998999053612,,,,,,,,,46,001,2020_Jan_03_1251,untitled,3.1.0,59.91360457997532,
_,R,M,90,_,_,_RM090__,N,0,111,111,18,,,1.285,650.5254025999457,650.8230825999053,650.8230825999053,651.0228735998971,651.0397257999284,None,down,651.0397257999284,None,651.0397257999284,652.3051959999138,0.19972739997319877,None,2.035304500022903,,,,,,,,,46,001,2020_Jan_03_1251,untitled,3.1.0,59.91360457997532,
035,R,N,90,L,N,035RN090LN,HLN,0,112,112,202,,,1.345,653.2887060999637,653.587693199981,653.587693199981,653.7879256999586,653.8053922998952,None,up,653.8053922998952,None,653.8053922998952,655.1366015999811,0.20008530002087355,None,2.082847199984826,,,,,,,,,46,001,2020_Jan_03_1251,untitled,3.1.0,59.91360457997532,
_,R,N,180,_,_,_RN180__,N,0,113,113,68,,,1.1520000000000001,656.147375099943,656.4361447999254,656.4361447999254,656.6015026998939,656.6184803999495,None,up,656.6184803999495,None,656.6184803999495,657.7529746999498,0.2451598000479862,None,2.6176057000411674,,,,,,,,,46,001,2020_Jan_03_1251,untitled,3.1.0,59.91360457997532,
298,_2,M,45,L,N,298_2M045LN,HLN,0,114,114,153,,,0.851,659.614233499975,659.9150572998915,659.9150572998915,659.9650888999458,659.9650888999458,None,up,659.9650888999458,None,659.9650888999458,660.8152344999835,0.36020039999857545,None,2.1993546000448987,,,,,,,,,46,001,2020_Jan_03_1251,untitled,3.1.0,59.91360457997532,
_,G,N,270,_,_,_GN270__,N,0,115,115,62,,,0.906,662.4646010999568,662.7628319999203,662.7628319999203,662.8791270999936,662.8959667999297,None,up,662.8959667999297,None,662.8959667999297,663.795912399888,0.2859924000222236,None,1.5187107000965625,,,,,,,,,46,001,2020_Jan_03_1251,untitled,3.1.0,59.91360457997532,
174,F,M,225,L,N,174FM225LN,HLN,0,116,116,125,,,0.743,664.649809799972,664.944060199894,664.944060199894,665.1439784999238,665.1439784999238,None,down,665.1439784999238,None,665.1439784999238,665.8770931999898,0.21866450004745275,None,1.6998320000711828,,,,,,,,,46,001,2020_Jan_03_1251,untitled,3.1.0,59.91360457997532,
006,R,N,225,R,N,006RN225RN,HRN,0,117,117,197,,,1.284,667.0898577999324,667.3929282999597,667.3929282999597,667.5594222999644,667.5776951999869,None,up,667.5776951999869,None,667.5776951999869,668.841312799952,0.23297020001336932,None,2.14824230002705,,,,,,,,,46,001,2020_Jan_03_1251,untitled,3.1.0,59.91360457997532,
_,_4,N,225,_,_,__4N225__,N,0,118,118,85,,,1.228,669.9621228999458,670.2569121998968,670.2569121998968,670.4396119999001,670.4567853999324,None,up,670.4567853999324,None,670.4567853999324,671.6718753998866,0.21859599999152124,None,1.8328478999901563,,,,,,,,,46,001,2020_Jan_03_1251,untitled,3.1.0,59.91360457997532,
395,_4,M,90,R,N,395_4M090RN,HRN,0,119,119,162,,,1.18,672.5009763999842,672.788062699954,672.788062699954,673.0048672999255,673.0229741999647,None,down,673.0229741999647,None,673.0229741999647,674.1868564999895,0.19741200003772974,None,2.2306067999452353,,,,,,,,,46,001,2020_Jan_03_1251,untitled,3.1.0,59.91360457997532,
041,R,M,0,L,N,041RM000LN,HLN,0,120,120,104,,,0.839,675.4818555999082,675.7850753999082,675.7850753999082,675.9680448999861,675.9847596999025,None,down,675.9847596999025,None,675.9847596999025,676.8175318998983,0.21523819991853088,None,1.7021071000490338,,,,,,,,,46,001,2020_Jan_03_1251,untitled,3.1.0,59.91360457997532,
289,_2,N,0,L,N,289_2N000LN,HLN,0,121,121,248,,,0.9470000000000001,677.91159839998,678.2000569999218,678.2000569999218,678.4159700999735,678.4328069998883,None,down,678.4328069998883,None,678.4328069998883,679.3648200999014,0.2043981000315398,None,1.698812499991618,,,,,,,,,46,001,2020_Jan_03_1251,untitled,3.1.0,59.91360457997532,
257,_2,N,0,R,N,257_2N000RN,HRN,0,122,122,240,,,1.12,680.3415839999216,680.6319149999181,680.6319149999181,680.8473273999989,680.8648313999875,None,down,680.8648313999875,None,680.8648313999875,681.962446999969,0.19815370009746403,None,1.78319129999727,,,,,,,,,46,001,2020_Jan_03_1251,untitled,3.1.0,59.91360457997532,
292,_2,N,135,L,N,292_2N135LN,HLN,0,123,123,251,,,0.706,682.8969461999368,683.1948666999815,683.1948666999815,683.3621308999136,683.3788608999457,None,up,683.3788608999457,None,683.3788608999457,684.0775217999471,0.23215599998366088,None,2.9996392999310046,,,,,,,,,46,001,2020_Jan_03_1251,untitled,3.1.0,59.91360457997532,
392,_4,N,315,R,N,392_4N315RN,HRN,0,124,124,263,,,1.18,686.6652365999762,686.9588084999705,686.9588084999705,687.092523099971,687.1089833999285,None,up,687.1089833999285,None,687.1089833999285,688.2748648999259,0.27054270007647574,None,1.9513455999549478,,,,,,,,,46,001,2020_Jan_03_1251,untitled,3.1.0,59.91360457997532,
_,_4,M,315,_,_,__4M315__,N,0,125,125,39,,,1.212,689.2988865999505,689.5911725999322,689.5911725999322,689.7732130999211,689.7910260999342,None,down,689.7910260999342,None,689.7910260999342,690.9882148999022,0.22557240002788603,None,2.79761399992276,,,,,,,,,46,001,2020_Jan_03_1251,untitled,3.1.0,59.91360457997532,
_,_2,M,90,_,_,__2M090__,N,0,126,126,26,,,1.294,692.8143877999391,693.1032911998918,693.1032911998918,693.3026861998951,693.3199751999928,None,down,693.3199751999928,None,693.3199751999928,694.6017364999279,0.21079550008289516,None,2.731681299977936,,,,,,,,,46,001,2020_Jan_03_1251,untitled,3.1.0,59.91360457997532,
_,R,N,225,_,_,_RN225__,N,0,127,127,69,,,1.282,696.2513594999909,696.5500829999801,696.5500829999801,696.766372299986,696.7832543998957,None,up,696.7832543998957,None,696.7832543998957,698.0494447998935,0.18607739999424666,None,2.3663298001047224,,,,,,,,,46,001,2020_Jan_03_1251,untitled,3.1.0,59.91360457997532,
264,_2,N,315,R,N,264_2N315RN,HRN,0,128,128,247,,,1.347,699.4621060999343,699.7641245999839,699.7641245999839,699.8643394999672,699.8805875999387,None,down,699.8805875999387,None,699.8805875999387,701.2123947999207,0.2960527000250295,None,2.434430400026031,,,,,,,,,46,001,2020_Jan_03_1251,untitled,3.1.0,59.91360457997532,
_,G,M,45,_,_,_GM045__,N,0,129,129,9,,,0.758,702.6043226999464,702.8942780999932,702.8942780999932,703.0274834999582,703.0443152999505,None,down,703.0443152999505,None,703.0443152999505,703.7939587999135,0.2734045999823138,None,1.8171607000986114,,,,,,,,,46,001,2020_Jan_03_1251,untitled,3.1.0,59.91360457997532,
270,_2,M,225,R,N,270_2M225RN,HRN,0,130,130,149,,,0.848,705.1345580999041,705.4564385999693,705.4564385999693,705.5755762999179,705.5926183999982,None,down,705.5926183999982,None,705.5926183999982,706.4255353999324,0.25568529998417944,None,2.1012202000711113,,,,,,,,,46,001,2020_Jan_03_1251,untitled,3.1.0,59.91360457997532,
267,_2,M,90,R,N,267_2M090RN,HRN,0,131,131,146,,,0.799,707.8899049999891,708.1896700999932,708.1896700999932,708.4066191999009,708.4231622999068,None,down,708.4231622999068,None,708.4231622999068,709.2054372999119,0.18398890004027635,None,3.0010295000392944,,,,,,,,,46,001,2020_Jan_03_1251,untitled,3.1.0,59.91360457997532,
171,F,M,90,L,N,171FM090LN,HLN,0,132,132,122,,,0.856,711.7698838999495,712.054676599917,712.054676599917,712.1363409999758,712.1531864999561,None,down,712.1531864999561,None,712.1531864999561,713.0025308999466,0.33103139989543706,None,1.7850780000444502,,,,,,,,,46,001,2020_Jan_03_1251,untitled,3.1.0,59.91360457997532,
009,R,M,0,R,N,009RM000RN,HRN,0,133,133,96,,,1.311,714.1595438999357,714.4511534998892,714.4511534998892,714.6507444999879,714.6683008999098,None,down,714.6683008999098,None,714.6683008999098,715.9665033998899,0.206953699933365,None,2.1983329999493435,,,,,,,,,46,001,2020_Jan_03_1251,untitled,3.1.0,59.91360457997532,
229,G,N,180,L,N,229GN180LN,HLN,0,134,134,236,,,0.741,717.0949544999748,717.3839734999929,717.3839734999929,717.5825602998957,717.5999232999748,None,up,717.5999232999748,None,717.5999232999748,718.3318560998887,0.2140221999725327,None,1.9823639000533149,,,,,,,,,46,001,2020_Jan_03_1251,untitled,3.1.0,59.91360457997532,
461,_5,M,180,R,N,461_5M180RN,HRN,0,135,135,180,,,1.248,719.8468043999746,720.1459394999547,720.1459394999547,720.2960923999781,720.3145292999689,None,down,720.3145292999689,None,720.3145292999689,721.5443702999037,0.24966069997753948,None,3.380843000020832,,,,,,,,,46,001,2020_Jan_03_1251,untitled,3.1.0,59.91360457997532,
432,_4,M,315,L,N,432_4M315LN,HLN,0,136,136,175,,,0.711,723.9818257999141,724.2758810999803,724.2758810999803,724.408938699984,724.4255914998939,None,down,724.4255914998939,None,724.4255914998939,725.1249744999222,0.27446799993049353,None,2.218642699997872,,,,,,,,,46,001,2020_Jan_03_1251,untitled,3.1.0,59.91360457997532,
_,R,N,315,_,_,_RN315__,N,0,137,137,71,,,1.022,726.8411929999711,727.1397908999352,727.1397908999352,727.3565191999078,727.3733307999792,None,up,727.3733307999792,None,727.3733307999792,728.3890361998929,0.18570419994648546,None,1.8326781000941992,,,,,,,,,46,001,2020_Jan_03_1251,untitled,3.1.0,59.91360457997532,
456,_5,N,315,R,N,456_5N315RN,HRN,0,138,138,279,,,1.196,729.393572299974,729.6882356998976,729.6882356998976,729.9206726999255,729.9373679999262,None,up,729.9373679999262,None,729.9373679999262,731.1195027999347,0.17412849992979318,None,1.9201710000634193,,,,,,,,,46,001,2020_Jan_03_1251,untitled,3.1.0,59.91360457997532,
131,F,N,90,R,N,131FN090RN,HRN,0,139,139,210,,,0.852,732.0824973999988,732.3708868999965,732.3708868999965,732.5691272999393,732.5862043999368,None,up,732.5862043999368,None,732.5862043999368,733.4353464999003,0.2102689000312239,None,1.7158855999587104,,,,,,,,,46,001,2020_Jan_03_1251,untitled,3.1.0,59.91360457997532,
_,F,M,0,_,_,_FM000__,N,0,140,140,0,,,1.3980000000000001,734.6214031999698,734.9163897999097,734.9163897999097,735.0163746998878,735.0338143999688,None,down,735.0338143999688,None,735.0338143999688,736.4158961999929,0.3047535999212414,None,2.24197329999879,,,,,,,,,46,001,2020_Jan_03_1251,untitled,3.1.0,59.91360457997532,
487,_5,N,270,L,N,487_5N270LN,HLN,0,141,141,286,,,0.76,737.4709235999035,737.7639925999101,737.7639925999101,737.9979177999776,738.0152968999464,None,up,738.0152968999464,None,738.0152968999464,738.7466480999719,0.18082249991130084,None,1.5684505000244826,,,,,,,,,46,001,2020_Jan_03_1251,untitled,3.1.0,59.91360457997532,
166,F,N,225,L,N,166FN225LN,HLN,0,142,142,221,,,1.094,739.8982839999953,740.1951803999254,740.1951803999254,740.2951369999209,740.3118581000017,None,up,740.3118581000017,None,740.3118581000017,741.3939955999376,0.3004952999763191,None,1.8162471000105143,,,,,,,,,46,001,2020_Jan_03_1251,untitled,3.1.0,59.91360457997532,
_,_5,M,270,_,_,__5M270__,N,0,143,143,46,,,1.364,742.4396933999378,742.7279468999477,742.7279468999477,742.8429734999081,742.8597285998985,None,down,742.8597285998985,None,742.8597285998985,744.208251999924,0.2977954000234604,None,2.732981999986805,,,,,,,,,46,001,2020_Jan_03_1251,untitled,3.1.0,59.91360457997532,
_,F,M,315,_,_,_FM315__,N,0,144,144,7,,,0.809,745.8762765999418,746.1730815999908,746.1730815999908,746.3073258999502,746.3236941999057,None,down,746.3236941999057,None,746.3236941999057,747.1223931999411,0.26975690003018826,None,1.6852703000186011,,,,,,,,,46,001,2020_Jan_03_1251,untitled,3.1.0,59.91360457997532,
_,_2,N,135,_,_,__2N135__,N,0,145,145,75,,,0.859,748.2905692999484,748.5879886999028,748.5879886999028,748.7382108999882,748.7382108999882,None,up,748.7382108999882,None,748.7382108999882,749.5877065999666,0.2633853000588715,None,2.5663783999625593,,,,,,,,,46,001,2020_Jan_03_1251,untitled,3.1.0,59.91360457997532,
133,F,N,180,R,N,133FN180RN,HRN,0,146,146,212,,,1.354,751.5454977999907,751.8351219999604,751.8351219999604,752.0426158999326,752.0806396999396,None,up,752.0806396999396,None,752.0806396999396,753.3836047999794,0.2259557000361383,None,2.7531663000117987,,,,,,,,,46,001,2020_Jan_03_1251,untitled,3.1.0,59.91360457997532,
_,_2,M,0,_,_,__2M000__,N,0,147,147,24,,,0.715,755.0250693999697,755.3152316999622,755.3152316999622,755.5483428000007,755.5651604998857,None,down,755.5651604998857,None,755.5651604998857,756.2646600999869,0.17823419999331236,None,1.8500255000544712,,,,,,,,,46,001,2020_Jan_03_1251,untitled,3.1.0,59.91360457997532,
170,F,M,45,L,N,170FM045LN,HLN,0,148,148,121,,,1.092,757.6443561998894,757.946524299914,757.946524299914,758.1294714999385,758.1463874999899,None,down,758.1463874999899,None,758.1463874999899,759.2286352999508,0.21578410000074655,None,2.049596199998632,,,,,,,,,46,001,2020_Jan_03_1251,untitled,3.1.0,59.91360457997532,
130,F,N,45,R,N,130FN045RN,HRN,0,149,149,209,,,0.977,760.4035076999571,760.695178499911,760.695178499911,760.9103870999534,760.9270753999008,None,up,760.9270753999008,None,760.9270753999008,761.8929393999279,0.19375510001555085,None,1.732456099940464,,,,,,,,,46,001,2020_Jan_03_1251,untitled,3.1.0,59.91360457997532,
_,_5,N,45,_,_,__5N045__,N,0,150,150,89,,,1.064,762.8703144999454,763.1596083999611,763.1596083999611,763.3754292998929,763.3925507999957,None,up,763.3925507999957,None,763.3925507999957,764.4406862999313,0.1979618000332266,None,1.7989242000039667,,,,,,,,,46,001,2020_Jan_03_1251,untitled,3.1.0,59.91360457997532,
232,G,N,315,L,N,232GN315LN,HLN,0,151,151,239,,,1.244,765.458283899934,765.7563598999986,765.7563598999986,765.9063210999593,765.9231264999835,None,up,765.9231264999835,None,765.9231264999835,767.1561647999333,0.2503267000429332,None,1.9717192000243813,,,,,,,,,46,001,2020_Jan_03_1251,untitled,3.1.0,59.91360457997532,
033,R,N,0,L,N,033RN000LN,HLN,0,152,152,200,,,1.272,768.2912143999711,768.5731296999147,768.587192399893,768.6207580999471,768.6207580999471,None,up,768.6207580999471,None,768.6207580999471,769.8861996999476,0.38123499997891486,None,1.8355115000158548,,,,,,,,,46,001,2020_Jan_03_1251,untitled,3.1.0,59.91360457997532,
460,_5,M,135,R,N,460_5M135RN,HRN,0,153,153,179,,,1.104,770.66267469991,770.9514960999368,770.9514960999368,771.1680618999526,771.1847796998918,None,down,771.1847796998918,None,771.1847796998918,772.2838625999866,0.19219570001587272,None,2.4658020000206307,,,,,,,,,46,001,2020_Jan_03_1251,untitled,3.1.0,59.91360457997532,
_,G,M,135,_,_,_GM135__,N,0,154,154,11,,,0.982,773.8712828999851,774.1652953999583,774.1652953999583,774.365141499904,774.3830841999734,None,down,774.3830841999734,None,774.3830841999734,775.3477319999365,0.20808729995042086,None,2.3991793000604957,,,,,,,,,46,001,2020_Jan_03_1251,untitled,3.1.0,59.91360457997532,
_,R,N,270,_,_,_RN270__,N,0,155,155,70,,,1.248,777.0923693999648,777.380569199915,777.380569199915,777.4959215999115,777.5126880999887,None,up,777.5126880999887,None,777.5126880999887,778.745274099987,0.2972141000209376,None,1.8839746000012383,,,,,,,,,46,001,2020_Jan_03_1251,untitled,3.1.0,59.91360457997532,
293,_2,N,180,L,N,293_2N180LN,HLN,0,156,156,252,,,1.2710000000000001,779.6324077999452,779.9272463999223,779.9272463999223,780.1109992999118,780.1286142999306,None,up,780.1286142999306,None,780.1286142999306,781.3933165998897,0.21969040005933493,None,2.9831466999603435,,,,,,,,,46,001,2020_Jan_03_1251,untitled,3.1.0,59.91360457997532,
_,_4,M,45,_,_,__4M045__,N,0,157,157,33,,,0.756,783.4775364999659,783.7739069999661,783.7739069999661,783.8257831999799,783.8432023999048,None,down,783.8432023999048,None,783.8432023999048,784.5899127000012,0.34869290003553033,None,1.5985583999427035,,,,,,,,,46,001,2020_Jan_03_1251,untitled,3.1.0,59.91360457997532,
464,_5,M,315,R,N,464_5M315RN,HRN,0,158,158,183,,,0.798,785.7884199999971,786.0885043999879,786.0885043999879,786.1550910999067,786.1722571999999,None,down,786.1722571999999,None,786.1722571999999,786.9546377999941,0.3341384999221191,None,2.1157843999098986,,,,,,,,,46,001,2020_Jan_03_1251,untitled,3.1.0,59.91360457997532,
454,_5,N,225,R,N,454_5N225RN,HRN,0,159,159,277,,,0.8240000000000001,788.4810700999806,788.7700687999604,788.7700687999604,789.0025756999385,789.0192018999951,None,up,789.0192018999951,None,789.0192018999951,789.8353561999975,0.18045600003097206,None,1.9833211000077426,,,,,,,,,46,001,2020_Jan_03_1251,untitled,3.1.0,59.91360457997532,
_,_4,N,315,_,_,__4N315__,N,0,160,160,87,,,1.391,791.2268976999912,791.5170852999436,791.5170852999436,791.7169956999132,791.7338192999596,None,up,791.7338192999596,None,791.7338192999596,793.1160357999615,0.21161009999923408,None,2.149074799963273,,,,,,,,,46,001,2020_Jan_03_1251,untitled,3.1.0,59.91360457997532,
396,_4,M,135,R,N,396_4M135RN,HRN,0,161,161,163,,,0.87,794.1505567999557,794.4479350999463,794.4479350999463,794.5977285999106,794.6144660999998,None,up,794.6144660999998,None,794.6144660999998,795.4642382999882,0.25369749998208135,None,2.8173423999687657,,,,,,,,,46,001,2020_Jan_03_1251,untitled,3.1.0,59.91360457997532,
387,_4,N,90,R,N,387_4N090RN,HRN,0,162,162,258,,,0.745,797.6819466999732,797.9788039999548,797.9788039999548,798.1455706999404,798.163158499985,None,up,798.163158499985,None,798.163158499985,798.8968368999194,0.2319932000245899,None,1.9164362999144942,,,,,,,,,46,001,2020_Jan_03_1251,untitled,3.1.0,59.91360457997532,
165,F,N,180,L,N,165FN180LN,HLN,0,163,163,220,,,1.228,800.2909878999926,800.592439699918,800.592439699918,800.7923976999009,800.8089137999341,None,up,800.8089137999341,None,800.8089137999341,802.024650999927,0.19830050005111843,None,2.566669800085947,,,,,,,,,46,001,2020_Jan_03_1251,untitled,3.1.0,59.91360457997532,
168,F,N,315,L,N,168FN315LN,HLN,0,164,164,223,,,1.366,803.5753875999944,803.872847499908,803.872847499908,804.089232499944,804.1059074999066,None,up,804.1059074999066,None,804.1059074999066,805.4555741999066,0.18817719991784543,None,1.9861408999422565,,,,,,,,,46,001,2020_Jan_03_1251,untitled,3.1.0,59.91360457997532,
420,_4,N,135,L,N,420_4N135LN,HLN,0,165,165,267,,,1.248,806.302087899996,806.6038580999011,806.6038580999011,806.8038022998953,806.8209556998918,None,up,806.8209556998918,None,806.8209556998918,808.0555116999894,0.1974208999890834,None,2.165462200064212,,,,,,,,,46,001,2020_Jan_03_1251,untitled,3.1.0,59.91360457997532,
458,_5,M,45,R,N,458_5M045RN,HRN,0,166,166,177,,,1.0230000000000001,809.1970506999642,809.4845365999499,809.4845365999499,809.7010854999535,809.7182896999875,None,down,809.7182896999875,None,809.7182896999875,810.7176495998865,0.1963188999798149,None,2.250987399951555,,,,,,,,,46,001,2020_Jan_03_1251,untitled,3.1.0,59.91360457997532,
141,F,M,180,R,N,141FM180RN,HRN,0,167,167,116,,,0.9570000000000001,812.2090178999351,812.4989152998896,812.4989152998896,812.6836884999648,812.7023223999422,None,down,812.7023223999422,None,812.7023223999422,813.6475733999396,0.22309490002226084,None,2.2161004000809044,,,,,,,,,46,001,2020_Jan_03_1251,untitled,3.1.0,59.91360457997532,
_,_2,N,0,_,_,__2N000__,N,0,168,168,72,,,1.052,815.1745411999291,815.4626151999692,815.4626151999692,815.6291553999763,815.6459434999852,None,up,815.6459434999852,None,815.6459434999852,816.6967284999555,0.23864180000964552,None,1.9681964999763295,,,,,,,,,46,001,2020_Jan_03_1251,untitled,3.1.0,59.91360457997532,
_,_5,N,315,_,_,__5N315__,N,0,169,169,95,,,0.802,817.8292284999043,818.1274069999345,818.1274069999345,818.326939499937,818.3436414999887,None,up,818.3436414999887,None,818.3436414999887,819.1275624999544,0.20075289998203516,None,1.5164465999696404,,,,,,,,,46,001,2020_Jan_03_1251,untitled,3.1.0,59.91360457997532,
_,_4,N,0,_,_,__4N000__,N,0,170,170,80,,,1.237,820.0499051999068,820.3419977999292,820.3419977999292,820.5751271999907,820.5917072999291,None,up,820.5917072999291,None,820.5917072999291,821.8075691999402,0.17767560004722327,None,1.850585600011982,,,,,,,,,46,001,2020_Jan_03_1251,untitled,3.1.0,59.91360457997532,
421,_4,N,180,L,N,421_4N180LN,HLN,0,171,171,268,,,1.315,822.6686131999595,822.9577306999126,822.9577306999126,823.1563860999886,823.172880499973,None,up,823.172880499973,None,823.172880499973,824.472011399921,0.21337440004572272,None,2.4528387000318617,,,,,,,,,46,001,2020_Jan_03_1251,untitled,3.1.0,59.91360457997532,
233,G,M,0,L,N,233GM000LN,HLN,0,172,172,136,,,1.17,825.9495998999337,826.2388021999504,826.2388021999504,826.3369342999067,826.3537521999096,None,down,826.3537521999096,None,826.3537521999096,827.5195202999748,0.3108850000426173,None,2.1499021999770775,,,,,,,,,46,001,2020_Jan_03_1251,untitled,3.1.0,59.91360457997532,
_,_4,N,90,_,_,__4N090__,N,0,173,173,82,,,1.087,828.7284496999346,829.0175087999087,829.0175087999087,829.2171984999441,829.2341032999102,None,up,829.2341032999102,None,829.2341032999102,830.3004916999489,0.2110157998977229,None,1.701664299936965,,,,,,,,,46,001,2020_Jan_03_1251,untitled,3.1.0,59.91360457997532,
_,_4,N,135,_,_,__4N135__,N,0,174,174,83,,,1.343,831.1233226999175,831.4153543999419,831.4153543999419,831.6484722999157,831.6654045999749,None,up,831.6654045999749,None,831.6654045999749,832.9975788999582,0.17575850000139326,None,1.9997841999866068,,,,,,,,,46,001,2020_Jan_03_1251,untitled,3.1.0,59.91360457997532,
_,_4,M,135,_,_,__4M135__,N,0,175,175,35,,,1.2,833.9009884999832,834.1963528998895,834.1963528998895,834.3794322999893,834.396294599981,None,down,834.396294599981,None,834.396294599981,835.5786605998874,0.2216123000252992,None,2.118276000022888,,,,,,,,,46,001,2020_Jan_03_1251,untitled,3.1.0,59.91360457997532,
193,G,N,0,R,N,193GN000RN,HRN,0,176,176,224,,,1.079,836.7462895999197,837.0439513999736,837.0439513999736,837.2272945999866,837.243737099925,None,up,837.243737099925,None,837.243737099925,838.3093873999314,0.21833380009047687,None,1.7347209999570623,,,,,,,,,46,001,2020_Jan_03_1251,untitled,3.1.0,59.91360457997532,
_,_2,M,45,_,_,__2M045__,N,0,177,177,25,,,1.195,839.1918142999057,839.4918761999579,839.4918761999579,839.6939715999179,839.71194129996,None,down,839.71194129996,None,839.71194129996,840.8907419999596,0.1973901999881491,None,2.530003000050783,,,,,,,,,46,001,2020_Jan_03_1251,untitled,3.1.0,59.91360457997532,
423,_4,N,270,L,N,423_4N270LN,HLN,0,178,178,270,,,1.286,842.5590340999188,842.8554648999125,842.8554648999125,842.9561726999236,842.9728073999286,None,up,842.9728073999286,None,842.9728073999286,844.253948199912,0.30256089998874813,None,1.899593000067398,,,,,,,,,46,001,2020_Jan_03_1251,untitled,3.1.0,59.91360457997532,
_,G,M,90,_,_,_GM090__,N,0,179,179,10,,,1.28,845.2192713998957,845.5198368999409,845.5198368999409,845.5867896999698,845.6042355999816,None,down,845.6042355999816,None,845.6042355999816,846.8685451999772,0.3330977000296116,None,2.198336399975233,,,,,,,,,46,001,2020_Jan_03_1251,untitled,3.1.0,59.91360457997532,
198,G,N,225,R,N,198GN225RN,HRN,0,180,180,229,,,1.118,848.0254809999606,848.3173562999582,848.3173562999582,848.5171066999901,848.5337767999154,None,up,848.5337767999154,None,848.5337767999154,849.6330666999565,0.20850249996874481,None,1.9997116000158712,,,,,,,,,46,001,2020_Jan_03_1251,untitled,3.1.0,59.91360457997532,
_,_5,N,90,_,_,__5N090__,N,0,181,181,90,,,1.173,850.7510965999682,851.0484663998941,851.0484663998941,851.2484535999829,851.2649216999998,None,up,851.2649216999998,None,851.2649216999998,852.4305547999684,0.20374360005371273,None,2.28421289997641,,,,,,,,,46,001,2020_Jan_03_1251,untitled,3.1.0,59.91360457997532,
162,F,N,45,L,N,162FN045LN,HLN,0,182,182,217,,,1.121,853.7763066999614,854.06248949992,854.06248949992,854.2622495999094,854.2793858998921,None,up,854.2793858998921,None,854.2793858998921,855.3947293999372,0.2126933999825269,None,1.784770300029777,,,,,,,,,46,001,2020_Jan_03_1251,untitled,3.1.0,59.91360457997532,
486,_5,N,225,L,N,486_5N225LN,HLN,0,183,183,285,,,0.896,856.2866462999955,856.5769375999225,856.5769375999225,856.7784756999463,856.7983090999769,None,up,856.7983090999769,None,856.7983090999769,None,0.21039600006770343,None,0.6792124999919906,,,,,,,,,46,001,2020_Jan_03_1251,untitled,3.1.0,59.91360457997532,
_,R,M,180,_,_,_RM180__,N,0,184,184,20,,,1.139,857.8199374999385,858.1111748999683,858.1111748999683,858.1922681999858,858.209485399886,None,down,858.209485399886,None,858.209485399886,859.341112999944,0.32781410007737577,None,2.565747099928558,,,,,,,,,46,001,2020_Jan_03_1251,untitled,3.1.0,59.91360457997532,
_,F,N,0,_,_,_FN000__,N,0,185,185,48,,,0.786,861.1604166999459,861.4561043999856,861.4561043999856,861.4893519999459,861.5065365999471,None,up,861.5065365999471,None,861.5065365999471,862.272141299909,0.3681703000329435,None,1.40169440000318,,,,,,,,,46,001,2020_Jan_03_1251,untitled,3.1.0,59.91360457997532,
173,F,M,180,L,N,173FM180LN,HLN,0,186,186,124,,,1.05,863.1140931999544,863.4044014998944,863.4044014998944,863.6209481999977,863.637683399953,None,down,863.637683399953,None,863.637683399953,864.6698388999794,0.19244859996251762,None,2.199388499953784,,,,,,,,,46,001,2020_Jan_03_1251,untitled,3.1.0,59.91360457997532,
296,_2,N,315,L,N,296_2N315LN,HLN,0,187,187,255,,,1.115,866.1310870999005,866.4185059999581,866.4185059999581,866.5526643999619,866.5684321000008,None,up,866.5684321000008,None,866.5684321000008,867.6673611999722,0.28084969997871667,None,2.683979699970223,,,,,,,,,46,001,2020_Jan_03_1251,untitled,3.1.0,59.91360457997532,
_,R,N,90,_,_,_RN090__,N,0,188,188,66,,,0.779,869.5812074999558,869.8825092999032,869.8825092999032,869.9653349999571,869.981881899992,None,up,869.981881899992,None,869.981881899992,870.7480187999317,0.3140451000072062,None,2.2158433999866247,,,,,,,,,46,001,2020_Jan_03_1251,untitled,3.1.0,59.91360457997532,
291,_2,N,90,L,N,291_2N090LN,HLN,0,189,189,250,,,0.845,872.4255881999852,872.7144642999629,872.7144642999629,872.9131314998958,872.9296572998865,None,up,872.9296572998865,None,872.9296572998865,873.762966799899,0.21325559995602816,None,1.5336251000408083,,,,,,,,,46,001,2020_Jan_03_1251,untitled,3.1.0,59.91360457997532,
_,F,M,180,_,_,_FM180__,N,0,190,190,4,,,1.1420000000000001,874.7351409998955,875.0275096999248,875.0275096999248,875.1783367999597,875.19472889998,None,down,875.19472889998,None,875.19472889998,876.3273768998915,0.25519580009859055,None,2.5823370000580326,,,,,,,,,46,001,2020_Jan_03_1251,untitled,3.1.0,59.91360457997532,
294,_2,N,225,L,N,294_2N225LN,HLN,0,191,191,253,,,1.375,878.0432238999056,878.3411712999223,878.3411712999223,878.4912407998927,878.5077294999501,None,up,878.5077294999501,None,878.5077294999501,879.8734288999112,0.2495660000713542,None,2.4158550000283867,,,,,,,,,46,001,2020_Jan_03_1251,untitled,3.1.0,59.91360457997532,
301,_2,M,180,L,N,301_2M180LN,HLN,0,192,192,156,,,1.167,881.1157881999388,881.4052561999997,881.4052561999997,881.6383375999285,881.6549364998937,None,None,881.6549364998937,None,881.6549364998937,882.8040530999424,0.17833159992005676,None,,,,,,,,,,46,001,2020_Jan_03_1251,untitled,3.1.0,59.91360457997532,
044,R,M,135,L,N,044RM135LN,HLN,0,193,193,107,,,1.102,885.3459058000008,885.6350769998971,885.6350769998971,885.8344644999597,885.8512073999736,885.3459058000008,down,885.8512073999736,None,885.8512073999736,886.9336565999547,0.21676390001084656,None,2.102721199975349,,,,,,,,,46,001,2020_Jan_03_1251,untitled,3.1.0,59.91360457997532,
_,_4,M,225,_,_,__4M225__,N,0,194,194,37,,,0.71,888.2532362999627,888.5493731999304,888.5493731999304,888.6662247999338,888.6841934999684,None,down,888.6841934999684,None,888.6841934999684,889.3823641999625,0.28503590007312596,None,1.915199999930337,,,,,,,,,46,001,2020_Jan_03_1251,untitled,3.1.0,59.91360457997532,
046,R,M,225,L,N,046RM225LN,HLN,0,195,195,109,,,1.211,890.834071099991,891.1301813999889,891.1301813999889,891.3130759999622,891.330286399927,None,down,891.330286399927,None,891.330286399927,892.5296316999011,0.22098810004536062,None,2.1322489000158384,,,,,,,,,46,001,2020_Jan_03_1251,untitled,3.1.0,59.91360457997532,
014,R,M,225,R,N,014RM225RN,HRN,0,196,196,101,,,1.193,893.7628960999427,894.0607719999971,894.0607719999971,894.1774625999387,894.1940593998879,None,down,894.1940593998879,None,894.1940593998879,895.3763237999519,0.28790090000256896,None,3.1350409999722615,,,,,,,,,46,001,2020_Jan_03_1251,untitled,3.1.0,59.91360457997532,
453,_5,N,180,R,N,453_5N180RN,HRN,0,197,197,276,,,0.993,897.5747534999391,897.8747406998882,897.8747406998882,898.0418373999419,898.0590338999173,None,up,898.0590338999173,None,898.0590338999173,899.0400193999521,0.23121070000343025,None,2.598937999922782,,,,,,,,,46,001,2020_Jan_03_1251,untitled,3.1.0,59.91360457997532,
_,G,M,180,_,_,_GM180__,N,0,198,198,12,,,1.156,900.8851078998996,901.1730416999198,901.1730416999198,901.3711237999378,901.3879354998935,None,down,901.3879354998935,None,901.3879354998935,902.5371030999813,0.21479799994267523,None,2.9652190998895094,,,,,,,,,46,001,2020_Jan_03_1251,untitled,3.1.0,59.91360457997532,
_,R,N,45,_,_,_RN045__,N,0,199,199,65,,,1.342,904.5815769999754,904.8694426999427,904.8694426999427,905.0686040999135,905.0848828000017,None,up,905.0848828000017,None,905.0848828000017,906.4172264999943,0.2124094000319019,None,2.2989310000557452,,,,,,,,,46,001,2020_Jan_03_1251,untitled,3.1.0,59.91360457997532,
172,F,M,135,L,N,172FM135LN,HLN,0,200,200,123,,,1.3860000000000001,907.6476649999386,907.9486377999419,907.9486377999419,908.1167848999612,908.1555276999716,None,down,908.1555276999716,None,908.1555276999716,909.4807639999781,0.24861740006599575,None,3.128165200003423,,,,,,,,,46,001,2020_Jan_03_1251,untitled,3.1.0,59.91360457997532,
_,R,M,45,_,_,_RM045__,N,0,201,201,17,,,1.135,911.4966091999086,911.7956245999085,911.7956245999085,911.9959035998909,912.0121021999512,None,down,912.0121021999512,None,912.0121021999512,913.1275418999139,0.20105250005144626,None,2.3658042999450117,,,,,,,,,46,001,2020_Jan_03_1251,untitled,3.1.0,59.91360457997532,
390,_4,N,225,R,N,390_4N225RN,HRN,0,202,202,261,,,0.909,914.6813630999532,914.9759366998915,914.9759366998915,915.0926385999192,915.1094936999725,None,up,915.1094936999725,None,915.1094936999725,916.0084501999663,0.28899489995092154,None,1.8663791000144556,,,,,,,,,46,001,2020_Jan_03_1251,untitled,3.1.0,59.91360457997532,
237,G,M,180,L,N,237GM180LN,HLN,0,203,203,140,,,0.9570000000000001,917.1935774999438,917.4906423999928,917.4906423999928,917.6925872999709,917.7095600999892,None,down,917.7095600999892,None,917.7095600999892,918.6561601998983,0.20417360006831586,None,2.264478600001894,,,,,,,,,46,001,2020_Jan_03_1251,untitled,3.1.0,59.91360457997532,
200,G,N,315,R,N,200GN315RN,HRN,0,204,204,231,,,0.756,920.2147980999434,920.5048502999125,920.5048502999125,920.6891691999044,920.7075827999506,None,up,920.7075827999506,None,920.7075827999506,921.4546548998915,0.22635440004523844,None,1.6296300999820232,,,,,,,,,46,001,2020_Jan_03_1251,untitled,3.1.0,59.91360457997532,
012,R,M,135,R,N,012RM135RN,HRN,0,205,205,99,,,1.216,922.6368754999712,922.9355973999482,922.9355973999482,923.0529489999171,923.0710046999156,None,down,923.0710046999156,None,923.0710046999156,924.2598814999219,0.287333199987188,None,2.1978811000008136,,,,,,,,,46,001,2020_Jan_03_1251,untitled,3.1.0,59.91360457997532,
391,_4,N,270,R,N,391_4N270RN,HRN,0,206,206,262,,,0.961,925.531391199911,925.833191899932,925.833191899932,925.98307629989,925.9997340999544,None,up,925.9997340999544,None,925.9997340999544,926.9487115999218,0.24829519994091243,None,1.833623200072907,,,,,,,,,46,001,2020_Jan_03_1251,untitled,3.1.0,59.91360457997532,
235,G,M,90,L,N,235GM090LN,HLN,0,207,207,138,,,1.1420000000000001,928.0723348999163,928.3643777999096,928.3643777999096,928.5476059999783,928.5646162999328,None,down,928.5646162999328,None,928.5646162999328,929.6974955999758,0.22406080004293472,None,1.9828235000604764,,,,,,,,,46,001,2020_Jan_03_1251,untitled,3.1.0,59.91360457997532,
393,_4,M,0,R,N,393_4M000RN,HRN,0,208,208,160,,,0.963,930.7799006999703,931.078355699894,931.078355699894,931.2616220999043,931.2785435999976,None,down,931.2785435999976,None,931.2785435999976,932.2275605999166,0.21865759999491274,None,2.2845873999176547,,,,,,,,,46,001,2020_Jan_03_1251,untitled,3.1.0,59.91360457997532,
_,_5,N,135,_,_,__5N135__,N,0,209,209,91,,,1.189,933.7880600999342,934.0760388999479,934.0760388999479,934.2756565999007,934.2925021999981,None,up,934.2925021999981,None,934.2925021999981,935.4750113999471,0.2098833000054583,None,2.5999933999264613,,,,,,,,,46,001,2020_Jan_03_1251,untitled,3.1.0,59.91360457997532,
204,G,M,135,R,N,204GM135RN,HRN,0,210,210,131,,,1.086,937.1224484998966,937.4230656999862,937.4230656999862,937.6061860999325,937.6237308999989,None,down,937.6237308999989,None,937.6237308999989,938.7059860998997,0.21383529994636774,None,2.4846321999793872,,,,,,,,,46,001,2020_Jan_03_1251,untitled,3.1.0,59.91360457997532,
492,_5,M,135,L,N,492_5M135LN,HLN,0,211,211,187,,,1.194,940.3133011999307,940.6033101999201,940.6033101999201,940.8198126999196,940.8365170999896,None,down,940.8365170999896,None,940.8365170999896,942.019765199977,0.1917480000993237,None,3.1506098000099882,,,,,,,,,46,001,2020_Jan_03_1251,untitled,3.1.0,59.91360457997532,
239,G,M,270,L,N,239GM270LN,HLN,0,212,212,142,,,0.795,944.2049098999705,944.5001063999953,944.5001063999953,944.7002192999935,944.7179446999216,None,down,944.7179446999216,None,944.7179446999216,945.4995046999538,0.2035470000701025,None,2.2995708000380546,,,,,,,,,46,001,2020_Jan_03_1251,untitled,3.1.0,59.91360457997532,
_,_4,N,45,_,_,__4N045__,N,0,213,213,81,,,1.18,947.2350795998937,947.5310608999571,947.5310608999571,947.7311647998868,947.7489040999208,None,up,947.7489040999208,None,947.7489040999208,948.9139982999768,0.20436259999405593,None,2.083469499950297,,,,,,,,,46,001,2020_Jan_03_1251,untitled,3.1.0,59.91360457997532,
016,R,M,315,R,N,016RM315RN,HRN,0,214,214,103,,,0.866,950.0666804999346,950.3615420999704,950.3615420999704,950.5451899999753,950.5627285999944,None,down,950.5627285999944,None,950.5627285999944,951.411652199924,0.21942539990413934,None,1.9154180999612436,,,,,,,,,46,001,2020_Jan_03_1251,untitled,3.1.0,59.91360457997532,
_,F,M,45,_,_,_FM045__,N,0,215,215,1,,,1.0,952.7275887998985,953.0261715999804,953.0261715999804,953.1932844999246,953.2105567998951,None,down,953.2105567998951,None,953.2105567998951,954.1914973999374,0.23494960006792098,None,1.8680741999996826,,,,,,,,,46,001,2020_Jan_03_1251,untitled,3.1.0,59.91360457997532,
_,_4,M,180,_,_,__4M180__,N,0,216,216,36,,,0.766,955.3426422999473,955.6401923999656,955.6401923999656,955.8068850999698,955.8068850999698,None,down,955.8068850999698,None,955.8068850999698,956.5731820999645,0.2456011000322178,None,2.518733700038865,,,,,,,,,46,001,2020_Jan_03_1251,untitled,3.1.0,59.91360457997532,
_,R,M,135,_,_,_RM135__,N,0,217,217,19,,,1.268,958.5269171999535,958.8211298999377,958.8211298999377,959.0374692999758,959.05405409995,None,down,959.05405409995,None,959.05405409995,960.3196276999079,0.18875610001850873,None,2.900629800045863,,,,,,,,,46,001,2020_Jan_03_1251,untitled,3.1.0,59.91360457997532,
226,G,N,45,L,N,226GN045LN,HLN,0,218,218,233,,,0.85,962.271993399947,962.5678241999121,962.5678241999121,962.6675951998914,962.6858526999131,None,up,962.6858526999131,None,962.6858526999131,963.5170115999645,0.3032440000679344,None,1.6153087000129744,,,,,,,,,46,001,2020_Jan_03_1251,untitled,3.1.0,59.91360457997532,
208,G,M,315,R,N,208GM315RN,HRN,0,219,219,135,,,1.002,964.5229525999166,964.815636199899,964.815636199899,965.0154476999305,965.0324036999373,None,down,965.0324036999373,None,965.0324036999373,966.0161756000016,0.20784239994827658,None,1.8335326999658719,,,,,,,,,46,001,2020_Jan_03_1251,untitled,3.1.0,59.91360457997532,
263,_2,N,270,R,N,263_2N270RN,HRN,0,220,220,246,,,0.8240000000000001,967.1371121999109,967.4305542999646,967.4305542999646,967.580607599928,967.5989477999974,None,up,967.5989477999974,None,967.5989477999974,968.4135787999257,0.25631950004026294,None,2.049050600035116,,,,,,,,,46,001,2020_Jan_03_1251,untitled,3.1.0,59.91360457997532,
424,_4,N,315,L,N,424_4N315LN,HLN,0,221,221,271,,,1.031,969.8948667999357,970.1951898999978,970.1951898999978,970.36175739998,970.3791778999148,None,up,970.3791778999148,None,970.3791778999148,971.393205499975,0.2310620000353083,None,1.6837479999521747,,,,,,,,,46,001,2020_Jan_03_1251,untitled,3.1.0,59.91360457997532,
234,G,M,45,L,N,234GM045LN,HLN,0,222,222,137,,,1.231,972.3492068999913,972.6423082998954,972.6423082998954,972.7753906999715,972.7923514998984,None,down,972.7923514998984,None,972.7923514998984,974.0076392999617,0.274399800109677,None,2.4823728000046685,,,,,,,,,46,001,2020_Jan_03_1251,untitled,3.1.0,59.91360457997532,
262,_2,N,225,R,N,262_2N225RN,HRN,0,223,223,245,,,1.2530000000000001,975.4894693999086,975.7894731999841,975.7894731999841,975.9892509999918,976.0060839999933,None,up,976.0060839999933,None,976.0060839999933,977.2385929999873,0.20109330001287162,None,2.084780699922703,,,,,,,,,46,001,2020_Jan_03_1251,untitled,3.1.0,59.91360457997532,
001,R,N,0,R,N,001RN000RN,HRN,0,224,224,192,,,1.227,978.3235590999248,978.6206752998987,978.6206752998987,978.8203971999465,978.8203971999465,None,up,978.8203971999465,None,978.8203971999465,980.0359437000006,0.21520209999289364,None,1.8369874999625608,,,,,,,,,46,001,2020_Jan_03_1251,untitled,3.1.0,59.91360457997532,
428,_4,M,135,L,N,428_4M135LN,HLN,0,225,225,171,,,1.1460000000000001,980.894633699907,981.185041599907,981.185041599907,981.3850688999519,981.3850688999519,None,down,981.3850688999519,None,981.3850688999519,982.5175238999072,0.22182370000518858,None,2.1825805000262335,,,,,,,,,46,001,2020_Jan_03_1251,untitled,3.1.0,59.91360457997532,
400,_4,M,315,R,N,400_4M315RN,HRN,0,226,226,167,,,1.201,983.8399981999537,984.1322030998999,984.1322030998999,984.2825810998911,984.2996981999604,None,down,984.2996981999604,None,984.2996981999604,985.481904599932,0.2563643999164924,None,2.3860552000114694,,,,,,,,,46,001,2020_Jan_03_1251,untitled,3.1.0,59.91360457997532,
463,_5,M,270,R,N,463_5M270RN,HRN,0,227,227,182,,,0.926,986.9410887999693,987.2462527999887,987.2462527999887,987.4128592999186,987.4298505999614,None,down,987.4298505999614,None,987.4298505999614,988.3450516999001,0.2339917999925092,None,2.0322075999574736,,,,,,,,,46,001,2020_Jan_03_1251,untitled,3.1.0,59.91360457997532,
231,G,N,270,L,N,231GN270LN,HLN,0,228,228,238,,,1.2610000000000001,989.6485794999171,989.9435302999336,989.9435302999336,990.1769243999152,990.1938472999027,None,up,990.1938472999027,None,990.1938472999027,991.4422325999476,0.17351890006102622,None,2.168089900049381,,,,,,,,,46,001,2020_Jan_03_1251,untitled,3.1.0,59.91360457997532,
010,R,M,45,R,N,010RM045RN,HRN,0,229,229,97,,,1.156,992.5498886998976,992.8413806998869,992.8413806998869,993.074279399938,993.0909988998901,None,down,993.0909988998901,None,993.0909988998901,994.241233699955,0.17632199998479337,None,1.9850753999780864,,,,,,,,,46,001,2020_Jan_03_1251,untitled,3.1.0,59.91360457997532,
295,_2,N,270,L,N,295_2N270LN,HLN,0,230,230,254,,,0.964,995.316997799906,995.6054405999603,995.6054405999603,995.7885413999902,995.805493599968,None,up,995.805493599968,None,995.805493599968,996.7544740999583,0.22729109995998442,None,2.1173184999497607,,,,,,,,,46,001,2020_Jan_03_1251,untitled,3.1.0,59.91360457997532,
_,_2,N,45,_,_,__2N045__,N,0,231,231,73,,,0.768,998.2125448998995,998.50315029989,998.50315029989,998.6365901998943,998.6535972999409,None,down,998.6535972999409,None,998.6535972999409,999.4189608999295,0.2731035000178963,None,1.4331156999105588,,,,,,,,,46,001,2020_Jan_03_1251,untitled,3.1.0,59.91360457997532,
005,R,N,180,R,N,005RN180RN,HRN,0,232,232,196,,,1.106,1000.3185154999373,1000.6176973999245,1000.6176973999245,1000.8015203999821,1000.818801599904,None,up,1000.818801599904,None,1000.818801599904,1001.9162675999105,0.21797529992181808,None,2.6152785000158474,,,,,,,,,46,001,2020_Jan_03_1251,untitled,3.1.0,59.91360457997532,
265,_2,M,0,R,N,265_2M000RN,HRN,0,233,233,144,,,1.381,1003.6238711999031,1003.9147986999014,1003.9147986999014,1004.1478244999889,1004.1647265999345,None,down,1004.1647265999345,None,1004.1647265999345,1005.5301087999251,0.17719029996078461,None,2.432464599958621,,,,,,,,,46,001,2020_Jan_03_1251,untitled,3.1.0,59.91360457997532,
300,_2,M,135,L,N,300_2M135LN,HLN,0,234,234,155,,,0.804,1006.8106136999559,1007.1121165999211,1007.1121165999211,1007.312191999983,1007.3287080998998,None,down,1007.3287080998998,None,1007.3287080998998,1008.1128495999146,0.20093699998687953,None,2.682394100003876,,,,,,,,,46,001,2020_Jan_03_1251,untitled,3.1.0,59.91360457997532,
161,F,N,0,L,N,161FN000LN,HLN,0,235,235,216,,,0.704,1010.2064913999056,1010.4944107999327,1010.4944107999327,1010.7256332999095,1010.7426524999319,None,up,1010.7426524999319,None,1010.7426524999319,1011.4414848999586,0.18104720010887831,None,1.5350716999964789,,,,,,,,,46,001,2020_Jan_03_1251,untitled,3.1.0,59.91360457997532,
484,_5,N,135,L,N,484_5N135LN,HLN,0,236,236,283,,,1.014,1012.4886636999436,1012.7756584999152,1012.7756584999152,1012.9908468999201,1013.0071646999568,None,up,1013.0071646999568,None,1013.0071646999568,1014.0066908999579,0.19571270002052188,None,2.1011881000595167,,,,,,,,,46,001,2020_Jan_03_1251,untitled,3.1.0,59.91360457997532,
_,G,N,225,_,_,_GN225__,N,0,237,237,61,,,1.1400000000000001,1015.3332251999527,1015.6224550999468,1015.6224550999468,1015.821472999989,1015.8383723999141,None,up,1015.8383723999141,None,1015.8383723999141,1016.970213899971,0.21054649993311614,None,2.1688905999762937,,,,,,,,,46,001,2020_Jan_03_1251,untitled,3.1.0,59.91360457997532,
389,_4,N,180,R,N,389_4N180RN,HRN,0,238,238,260,,,1.288,1018.338691999903,1018.6353421999374,1018.6353421999374,1018.7186737000011,1018.7363555999473,None,up,1018.7363555999473,None,1018.7363555999473,1020.0175877999282,0.3133952000644058,None,2.348329500062391,,,,,,,,,46,001,2020_Jan_03_1251,untitled,3.1.0,59.91360457997532,
_,_2,N,90,_,_,__2N090__,N,0,239,239,74,,,1.353,1021.3170629999368,1021.6161906999769,1021.6161906999769,1021.7992061999394,1021.8159376999829,None,up,1021.8159376999829,None,1021.8159376999829,1023.1486913999543,0.21805000002495944,None,2.9186077000340447,,,,,,,,,46,001,2020_Jan_03_1251,untitled,3.1.0,59.91360457997532,
_,_5,M,45,_,_,__5M045__,N,0,240,240,41,,,0.8320000000000001,1024.9556388999335,1025.246191299986,1025.246191299986,1025.4462741999887,1025.462776399916,None,down,1025.462776399916,None,1025.462776399916,1026.2789433998987,0.20689139992464334,None,2.766618900001049,,,,,,,,,46,001,2020_Jan_03_1251,untitled,3.1.0,59.91360457997532,
422,_4,N,225,L,N,422_4N225LN,HLN,0,241,241,269,,,1.182,1028.4576378999045,1028.7438941999571,1028.7438941999571,1028.9429774999153,1028.9598188999807,None,up,1028.9598188999807,None,1028.9598188999807,1030.1260042999638,0.21225840004626662,None,1.9676016999874264,,,,,,,,,46,001,2020_Jan_03_1251,untitled,3.1.0,59.91360457997532,
_,R,N,135,_,_,_RN135__,N,0,242,242,67,,,0.874,1031.2021099999547,1031.4911065999186,1031.4911065999186,1031.6413549999706,1031.6584373998921,None,up,1031.6584373998921,None,1031.6584373998921,1032.5237509999424,0.2604467999190092,None,1.8662397000007331,,,,,,,,,46,001,2020_Jan_03_1251,untitled,3.1.0,59.91360457997532,
_,R,M,270,_,_,_RM270__,N,0,243,243,22,,,0.784,1033.7932924999623,1034.0973200999433,1034.0973200999433,1034.238713699975,1034.255651799962,None,down,1034.255651799962,None,1034.255651799962,1035.020884599886,0.2542401999235153,None,1.633885100018233,,,,,,,,,46,001,2020_Jan_03_1251,untitled,3.1.0,59.91360457997532,
397,_4,M,180,R,N,397_4M180RN,HRN,0,244,244,164,,,1.381,1036.0848738999339,1036.3861805999186,1036.3861805999186,1036.6031663999893,1036.619727699901,None,down,1036.619727699901,None,1036.619727699901,1037.9873042999534,0.18254769989289343,None,3.300551600055769,,,,,,,,,46,001,2020_Jan_03_1251,untitled,3.1.0,59.91360457997532,
142,F,M,225,R,N,142FM225RN,HRN,0,245,245,117,,,0.864,1040.1347087998874,1040.433039699914,1040.433039699914,1040.6328946999274,1040.6497572999215,None,down,1040.6497572999215,None,1040.6497572999215,1041.4987123999745,0.2017152999760583,None,2.166247000102885,,,,,,,,,46,001,2020_Jan_03_1251,untitled,3.1.0,59.91360457997532,
485,_5,N,180,L,N,485_5N180LN,HLN,0,246,246,284,,,0.907,1043.0226116999984,1043.3145036998903,1043.3145036998903,1043.5304410998942,1043.5476927999407,None,up,1043.5476927999407,None,1043.5476927999407,1044.4461260999087,0.19337440002709627,None,2.3323535000672564,,,,,,,,,46,001,2020_Jan_03_1251,untitled,3.1.0,59.91360457997532,
429,_4,M,180,L,N,429_4M180LN,HLN,0,247,247,172,,,0.801,1046.2154835999245,1046.5116999999154,1046.5116999999154,1046.5947283999994,1046.6113077999325,None,down,1046.6113077999325,None,1046.6113077999325,1047.3941221999703,0.32059359992854297,None,3.2516762000741437,,,,,,,,,46,001,2020_Jan_03_1251,untitled,3.1.0,59.91360457997532,
386,_4,N,45,R,N,386_4N045RN,HRN,0,248,248,257,,,1.316,1050.1081656999886,1050.4077322999947,1050.4077322999947,1050.5908662999282,1050.5908662999282,None,up,1050.5908662999282,None,1050.5908662999282,1051.9063578998903,0.22969449998345226,None,2.0002355999313295,,,,,,,,,46,001,2020_Jan_03_1251,untitled,3.1.0,59.91360457997532,
426,_4,M,45,L,N,426_4M045LN,HLN,0,249,249,169,,,1.348,1052.8242219999665,1053.1218674998963,1053.1218674998963,1053.3051152999979,1053.321759799961,None,None,1053.321759799961,None,1053.321759799961,1054.6537124998868,0.22085290006361902,None,,,,,,,,,,46,001,2020_Jan_03_1251,untitled,3.1.0,59.91360457997532,
_,_4,M,0,_,_,__4M000__,N,0,250,250,32,,,0.875,1056.9888200999703,1057.2850997999776,1057.2850997999776,1057.5014846998965,1057.5181687999284,1056.9888200999703,down,1057.5181687999284,None,1057.5181687999284,1058.3840703999158,0.19213380001019686,None,1.9342238999670371,,,,,,,,,46,001,2020_Jan_03_1251,untitled,3.1.0,59.91360457997532,
425,_4,M,0,L,N,425_4M000LN,HLN,0,251,251,168,,,1.034,1059.6473092999076,1059.94897519995,1059.94897519995,1060.1659501999384,1060.1829729999881,None,down,1060.1829729999881,None,1060.1829729999881,1061.1986634999048,0.18286940001416951,None,2.5014507999876514,,,,,,,,,46,001,2020_Jan_03_1251,untitled,3.1.0,59.91360457997532,
144,F,M,315,R,N,144FM315RN,HRN,0,252,252,119,,,0.77,1062.916261699982,1063.2131478999509,1063.2131478999509,1063.4132751999423,1063.4132751999423,None,down,1063.4132751999423,None,1063.4132751999423,1064.1792597998865,0.21209660009481013,None,2.1179663999937475,,,,,,,,,46,001,2020_Jan_03_1251,untitled,3.1.0,59.91360457997532,
488,_5,N,315,L,N,488_5N315LN,HLN,0,253,253,287,,,1.169,1065.7997772999806,1066.0938423998887,1066.0938423998887,1066.2436038999585,1066.2611433999846,None,up,1066.2611433999846,None,1066.2611433999846,1067.4259871999966,0.25270260008983314,None,2.1179256999166682,,,,,,,,,46,001,2020_Jan_03_1251,untitled,3.1.0,59.91360457997532,
260,_2,N,135,R,N,260_2N135RN,HRN,0,254,254,243,,,1.399,1068.6043109999737,1068.892824999988,1068.892824999988,1069.0915183998877,1069.1081200999906,None,up,1069.1081200999906,None,1069.1081200999906,1070.4902501999168,0.2115007999818772,None,2.768739999970421,,,,,,,,,46,001,2020_Jan_03_1251,untitled,3.1.0,59.91360457997532,
169,F,M,0,L,N,169FM000LN,HLN,0,255,255,120,,,1.201,1072.0889206998982,1072.3883584999712,1072.3883584999712,1072.5884321999038,1072.6051852999954,None,down,1072.6051852999954,None,1072.6051852999954,1073.7873062998988,0.19964070001151413,None,2.35079689999111,,,,,,,,,46,001,2020_Jan_03_1251,untitled,3.1.0,59.91360457997532,
417,_4,N,0,L,N,417_4N000LN,HLN,0,256,256,264,,,1.1360000000000001,1075.1749230999267,1075.4691639998928,1075.4691639998928,1075.669086699956,1075.6869905999629,None,up,1075.6869905999629,None,1075.6869905999629,1076.8017005999573,0.20429430005606264,None,1.8997005999553949,,,,,,,,,46,001,2020_Jan_03_1251,untitled,3.1.0,59.91360457997532,
_,R,N,0,_,_,_RN000__,N,0,257,257,64,,,1.287,1077.8703277999302,1078.1670432999963,1078.1670432999963,1078.3003335999092,1078.3175836999435,None,up,1078.3175836999435,None,1078.3175836999435,1079.5995465999003,0.2683433999773115,None,1.966239899978973,,,,,,,,,46,001,2020_Jan_03_1251,untitled,3.1.0,59.91360457997532,
_,_5,M,0,_,_,__5M000__,N,0,258,258,40,,,0.885,1080.5218029998941,1080.8149339999072,1080.8149339999072,1081.0438088999363,1081.0438088999363,None,down,1081.0438088999363,None,1081.0438088999363,1081.8805595999584,0.22463690000586212,None,1.9405276000034064,,,,,,,,,46,001,2020_Jan_03_1251,untitled,3.1.0,59.91360457997532,
_,F,N,90,_,_,_FN090__,N,0,259,259,50,,,0.839,1083.2044033999555,1083.4952865999658,1083.4952865999658,1083.696005399921,1083.7122157999547,None,up,1083.7122157999547,None,1083.7122157999547,1084.5445813999977,0.20693310000933707,None,1.6665112000191584,,,,,,,,,46,001,2020_Jan_03_1251,untitled,3.1.0,59.91360457997532,
304,_2,M,315,L,N,304_2M315LN,HLN,0,260,260,159,,,0.881,1085.6016400998924,1085.8938037999906,1085.8938037999906,1086.0933165999595,1086.1097974999575,None,down,1086.1097974999575,None,1086.1097974999575,1086.977109199972,0.20764999999664724,None,2.1844689999707043,,,,,,,,,46,001,2020_Jan_03_1251,untitled,3.1.0,59.91360457997532,
013,R,M,180,R,N,013RM180RN,HRN,0,261,261,100,,,0.905,1088.5647891999688,1088.8582914998988,1088.8582914998988,1089.0076033999212,1089.024907899904,None,down,1089.024907899904,None,1089.024907899904,1089.922786399955,0.25735620001796633,None,2.1658238999079913,,,,,,,,,46,001,2020_Jan_03_1251,untitled,3.1.0,59.91360457997532,
136,F,N,315,R,N,136FN315RN,HRN,0,262,262,215,,,1.201,1091.3940348998876,1091.689076099894,1091.689076099894,1091.9046504999278,1091.921699599945,None,up,1091.921699599945,None,1091.921699599945,1093.1040861998918,0.19008149998262525,None,1.9846114000538364,,,,,,,,,46,001,2020_Jan_03_1251,untitled,3.1.0,59.91360457997532,
_,F,M,270,_,_,_FM270__,N,0,263,263,6,,,1.289,1094.1678779999493,1094.4695959999226,1094.4695959999226,1094.6193157999078,1094.63609429996,None,down,1094.63609429996,None,1094.63609429996,1095.919372299919,0.24595610005781054,None,2.16619829996489,,,,,,,,,46,001,2020_Jan_03_1251,untitled,3.1.0,59.91360457997532,
496,_5,M,315,L,N,496_5M315LN,HLN,0,264,264,191,,,0.908,1097.0558452999685,1097.350083899917,1097.350083899917,1097.5164927999722,1097.5331799999112,None,down,1097.5331799999112,None,1097.5331799999112,1098.4325425999705,0.2386980999726802,None,1.8501908999169245,,,,,,,,,46,001,2020_Jan_03_1251,untitled,3.1.0,59.91360457997532,
137,F,M,0,R,N,137FM000RN,HRN,0,265,265,112,,,1.221,1099.5725260999752,1099.8644125999417,1099.8644125999417,1100.0987871999387,1100.1143006999046,None,down,1100.1143006999046,None,1100.1143006999046,1101.3300377998967,0.1759968000696972,None,1.9502100000390783,,,,,,,,,46,001,2020_Jan_03_1251,untitled,3.1.0,59.91360457997532,
_,G,N,135,_,_,_GN135__,N,0,266,266,59,,,1.2510000000000001,1102.2834064998897,1102.578759899945,1102.578759899945,1102.778831499978,1102.7955945999129,None,up,1102.7955945999129,None,1102.7955945999129,1104.0275128999492,0.20500800001900643,None,2.1647476000944152,,,,,,,,,46,001,2020_Jan_03_1251,untitled,3.1.0,59.91360457997532,
_,R,M,225,_,_,_RM225__,N,0,267,267,21,,,1.08,1105.1812202999135,1105.476476599928,1105.476476599928,1105.6764197999146,1105.695616699988,None,down,1105.695616699988,None,1105.695616699988,1106.7586801999714,0.20720910001546144,None,2.063186199986376,,,,,,,,,46,001,2020_Jan_03_1251,untitled,3.1.0,59.91360457997532,
047,R,M,270,L,N,047RM270LN,HLN,0,268,268,110,,,0.806,1108.0584398999345,1108.3575798999518,1108.3575798999518,1108.4738650999498,1108.4936366999755,None,down,1108.4936366999755,None,1108.4936366999755,1109.2901960999006,0.2829717000713572,None,1.498696199967526,,,,,,,,,46,001,2020_Jan_03_1251,untitled,3.1.0,59.91360457997532,
_,_2,N,180,_,_,__2N180__,N,0,269,269,76,,,1.204,1110.2301891999086,1110.5219232999953,1110.5219232999953,1110.705202799989,1110.721992299892,None,up,1110.721992299892,None,1110.721992299892,1111.9212247999385,0.22351290006190538,None,2.632807999965735,,,,,,,,,46,001,2020_Jan_03_1251,untitled,3.1.0,59.91360457997532,
205,G,M,180,R,N,205GM180RN,HRN,0,270,270,132,,,1.224,1113.5439972999739,1113.8355836999835,1113.8355836999835,1114.0686636999017,1114.0853016999317,None,down,1114.0853016999317,None,1114.0853016999317,1115.3010358999018,0.17754970001988113,None,2.6351051001111045,,,,,,,,,46,001,2020_Jan_03_1251,untitled,3.1.0,59.91360457997532,
_,F,M,135,_,_,_FM135__,N,0,271,271,3,,,1.32,1116.9142178999027,1117.2010309998877,1117.2010309998877,1117.4326208999846,1117.449258199893,None,down,1117.449258199893,None,1117.449258199893,1118.7649698999012,0.17859579995274544,None,2.3174865000182763,,,,,,,,,46,001,2020_Jan_03_1251,untitled,3.1.0,59.91360457997532,
134,F,N,225,R,N,134FN225RN,HRN,0,272,272,213,,,1.342,1119.9821863999823,1120.2800190999405,1120.2800190999405,1120.4800504999002,1120.4965867999708,None,up,1120.4965867999708,None,1120.4965867999708,1121.8287046999903,0.2017825999064371,None,2.6009013999719173,,,,,,,,,46,001,2020_Jan_03_1251,untitled,3.1.0,59.91360457997532,
451,_5,N,90,R,N,451_5N090RN,HRN,0,273,273,274,,,0.935,1123.2928170999512,1123.5937575999415,1123.5937575999415,1123.8107574998867,1123.8282198999077,None,up,1123.8282198999077,None,1123.8282198999077,1124.74388189998,0.18298859999049455,None,1.6651788000017405,,,,,,,,,46,001,2020_Jan_03_1251,untitled,3.1.0,59.91360457997532,
_,_5,M,135,_,_,__5M135__,N,0,274,274,43,,,1.173,1125.8244938999414,1126.125201699906,1126.125201699906,1126.209268799983,1126.226108499919,None,down,1126.226108499919,None,1126.226108499919,1127.3906674999744,0.31538719998206943,None,2.2876760999206454,,,,,,,,,46,001,2020_Jan_03_1251,untitled,3.1.0,59.91360457997532,
197,G,N,180,R,N,197GN180RN,HRN,0,275,275,228,,,0.785,1128.7929309998872,1129.0886706999736,1129.0886706999736,1129.2388991999906,1129.2388991999906,None,up,1129.2388991999906,None,1129.2388991999906,1130.0212611999596,0.26271070004440844,None,1.8526409000623971,,,,,,,,,46,001,2020_Jan_03_1251,untitled,3.1.0,59.91360457997532,
037,R,N,180,L,N,037RN180LN,HLN,0,276,276,204,,,0.968,1131.3964001999702,1131.6879763999023,1131.6879763999023,1131.8033148999093,1131.820084399893,None,up,1131.820084399893,None,1131.820084399893,1132.7859449998941,0.29064469994045794,None,2.0516848999541253,,,,,,,,,46,001,2020_Jan_03_1251,untitled,3.1.0,59.91360457997532,
388,_4,N,135,R,N,388_4N135RN,HRN,0,277,277,259,,,0.804,1134.0914809999522,1134.3844647998922,1134.3844647998922,1134.5843500999035,1134.6010366999544,None,up,1134.6010366999544,None,1134.6010366999544,1135.4002468999242,0.2067308999830857,None,1.6849178000120446,,,,,,,,,46,001,2020_Jan_03_1251,untitled,3.1.0,59.91360457997532,
494,_5,M,225,L,N,494_5M225LN,HLN,0,278,278,189,,,0.982,1136.509160199901,1136.8013572999043,1136.8013572999043,1136.9998358999146,1137.0165414999938,None,down,1137.0165414999938,None,1137.0165414999938,1137.9827347999671,0.20861450000666082,None,2.6641237000003457,,,,,,,,,46,001,2020_Jan_03_1251,untitled,3.1.0,59.91360457997532,
199,G,N,270,R,N,199GN270RN,HRN,0,279,279,230,,,0.908,1139.9132248999085,1140.2126565999351,1140.2126565999351,1140.396171099972,1140.4140201999107,None,up,1140.4140201999107,None,1140.4140201999107,1141.3120225999737,0.21243329998105764,None,1.7335127000696957,,,,,,,,,46,001,2020_Jan_03_1251,untitled,3.1.0,59.91360457997532,
299,_2,M,90,L,N,299_2M090LN,HLN,0,280,280,154,,,1.319,1142.3817128998926,1142.677415199927,1142.677415199927,1142.860495999921,1142.8775187999709,None,down,1142.8775187999709,None,1142.8775187999709,1144.17845259991,0.21964449994266033,None,2.6501923999749124,,,,,,,,,46,001,2020_Jan_03_1251,untitled,3.1.0,59.91360457997532,
238,G,M,225,L,N,238GM225LN,HLN,0,281,281,141,,,1.369,1145.7787782999221,1146.0740960999392,1146.0740960999392,1146.2408897998976,1146.2573390998878,None,down,1146.2573390998878,None,1146.2573390998878,1147.6223762999289,0.23719450004864484,None,2.3671790999360383,,,,,,,,,46,001,2020_Jan_03_1251,untitled,3.1.0,59.91360457997532,
_,_5,M,180,_,_,__5M180__,N,0,282,282,44,,,0.796,1148.9318348999368,1149.2211125999456,1149.2211125999456,1149.3376937999856,1149.3544129999354,None,down,1149.3544129999354,None,1149.3544129999354,1150.1375761999516,0.2939782999455929,None,2.318183100083843,,,,,,,,,46,001,2020_Jan_03_1251,untitled,3.1.0,59.91360457997532,
_,_5,N,180,_,_,__5N180__,N,0,283,283,92,,,1.016,1151.8805816998938,1152.1685290999012,1152.1685290999012,1152.4019866999006,1152.4019866999006,None,down,1152.4019866999006,None,1152.4019866999006,1153.41760419996,0.19019509991630912,None,1.8185603000456467,,,,,,,,,46,001,2020_Jan_03_1251,untitled,3.1.0,59.91360457997532,
_,_2,M,225,_,_,__2M225__,N,0,284,284,29,,,0.849,1154.4102033999516,1154.701602499932,1154.701602499932,1154.9331550999777,1154.9500285999384,None,down,1154.9500285999384,None,1154.9500285999384,1155.7829729999648,0.17666550003923476,None,2.2165921999840066,,,,,,,,,46,001,2020_Jan_03_1251,untitled,3.1.0,59.91360457997532,
207,G,M,270,R,N,207GM270RN,HRN,0,285,285,134,,,1.092,1157.4776146999793,1157.7804998999927,1157.7804998999927,1157.8806314999238,1157.8982410999015,None,down,1157.8982410999015,None,1157.8982410999015,1158.9798635999905,0.29666289989836514,None,2.226505200029351,,,,,,,,,46,001,2020_Jan_03_1251,untitled,3.1.0,59.91360457997532,
_,_4,M,90,_,_,__4M090__,N,0,286,286,34,,,1.356,1160.3637514999136,1160.6610856999177,1160.6610856999177,1160.8445448999992,1160.861125699943,None,down,1160.861125699943,None,1160.861125699943,1162.193265699898,0.22281680000014603,None,2.168915400048718,,,,,,,,,46,001,2020_Jan_03_1251,untitled,3.1.0,59.91360457997532,
_,G,N,90,_,_,_GN090__,N,0,287,287,58,,,0.862,1163.2354263999732,1163.5254289999139,1163.5254289999139,1163.7420144999633,1163.7589149998967,None,up,1163.7589149998967,None,1163.7589149998967,1164.6079234998906,0.1925963000394404,None,2.0003098000306636,,,,,,,,,46,001,2020_Jan_03_1251,untitled,3.1.0,59.91360457997532,
,,,,,,,,,,,,,,,,,,,,,,,,,,,,,1165.780517499894,None,1169.553930999944,None,1172.5349314999767,None,1175.7767102998914,None,,,,,,,
