Number,Letter,type,Orientation,human,face_type,image,picture,trials.thisRepN,trials.thisTrialN,trials.thisN,trials.thisIndex,text.started,text.stopped,stimulus_duration,CROSS.started,CROSS.stopped,BLANK.started,BLANK.stopped,TEST.started,TEST.stopped,key_JUDGE.keys,key_JUDGE.started,key_JUDGE.stopped,image_2.started,image_2.stopped,ISI.started,ISI.stopped,key_JUDGE.rt,q1.started,q1.stopped,q2.started,q2.stopped,q3.started,q3.stopped,text_2.started,text_2.stopped,participant,session,date,expName,psychopyVersion,frameRate
294,_2,N,225,L,N,294_2N225LN,HLN,0,0,0,253,46.0341841,None,0.705,51.8295099,52.1268159,52.1268159,52.2101515,52.2300627,None,None,52.2300627,None,52.2300627,52.9267812,0.3158409,None,,,,,,,,,,47,1,2020_Jan_03_1559,untitled,3.1.0,60.04628368
197,G,N,180,R,N,197GN180RN,HRN,0,1,1,228,,,0.701,56.1553146,56.4564078,56.4564078,56.5898251,56.5898251,56.1553146,None,56.5898251,None,56.5898251,57.288394,0.2725056,None,,,,,,,,,,47,1,2020_Jan_03_1559,untitled,3.1.0,60.04628368
396,_4,M,135,R,N,396_4M135RN,HRN,0,2,2,163,,,1.137,60.3633877,60.6542945,60.6542945,60.7860054,60.8025089,60.3633877,up,60.8025089,None,60.8025089,None,0.2826788,None,0.1844527,,,,,,,,,47,1,2020_Jan_03_1559,untitled,3.1.0,60.04628368
_,_5,M,135,_,_,__5M135__,N,0,3,3,43,,,0.931,61.2152184,61.5185134,61.5185134,61.7018572,61.7182835,None,down,61.7182835,None,61.7182835,62.6340787,0.2154479,None,2.2999823,,,,,,,,,47,1,2020_Jan_03_1559,untitled,3.1.0,60.04628368
_,R,M,315,_,_,_RM315__,N,0,4,4,23,,,0.953,64.651581,64.9487195,64.9487195,65.0320096,65.0487168,None,down,65.0487168,None,65.0487168,65.9811541,0.3199991,None,2.2832467,,,,,,,,,47,1,2020_Jan_03_1559,untitled,3.1.0,60.04628368
15,R,M,270,R,N,015RM270RN,HRN,0,5,5,102,,,1.27,67.5787572,67.8796356,67.8796356,68.0459487,68.0628116,None,down,68.0628116,None,68.0628116,69.3115089,0.2337281,None,2.5343705,,,,,,,,,47,1,2020_Jan_03_1559,untitled,3.1.0,60.04628368
_,F,N,270,_,_,_FN270__,N,0,6,6,54,,,1.265,70.9439297,71.2433269,71.2433269,71.3101038,71.3273917,None,up,71.3273917,None,71.3273917,72.5755035,0.3320002,None,2.4824086,,,,,,,,,47,1,2020_Jan_03_1559,untitled,3.1.0,60.04628368
11,R,M,90,R,N,011RM090RN,HRN,0,7,7,98,,,1.225,74.1680661,74.4570369,74.4570369,74.5239876,74.5410047,None,up,74.5410047,None,74.5410047,75.7569112,0.3434689,None,2.4813864,,,,,,,,,47,1,2020_Jan_03_1559,untitled,3.1.0,60.04628368
489,_5,M,0,L,N,489_5M000LN,HLN,0,8,8,184,,,1.258,77.4409921,77.4409921,77.4409921,77.7377648,77.754498,None,down,77.754498,None,77.754498,79.0039136,0.4070367,None,2.7161052,,,,,,,,,47,1,2020_Jan_03_1559,untitled,3.1.0,60.04628368
_,G,M,225,_,_,_GM225__,N,0,9,9,13,,,1.162,80.7757962,81.0681003,81.0681003,81.1846116,81.2013091,None,up,81.2013091,None,81.2013091,82.3504489,0.2927559,None,2.6494409,,,,,,,,,47,1,2020_Jan_03_1559,untitled,3.1.0,60.04628368
422,_4,N,225,L,N,422_4N225LN,HLN,0,10,10,269,,,1.167,84.1871457,84.4816998,84.4816998,84.5650093,84.5816987,None,up,84.5816987,None,84.5816987,85.7314033,0.3214418,None,2.2339751,,,,,,,,,47,1,2020_Jan_03_1559,untitled,3.1.0,60.04628368
_,F,N,0,_,_,_FN000__,N,0,11,11,48,,,1.015,87.1655131,87.4627896,87.4627896,87.5294572,87.5462218,None,up,87.5462218,None,87.5462218,88.5458788,0.3332811,None,2.2013709,,,,,,,,,47,1,2020_Jan_03_1559,untitled,3.1.0,60.04628368
14,R,M,225,R,N,014RM225RN,HRN,0,12,12,101,,,0.727,90.0485622,90.3430883,90.3430883,90.4766775,90.4766775,None,up,90.4766775,None,90.4766775,91.192452,0.2823735,None,1.8834457,,,,,,,,,47,1,2020_Jan_03_1559,untitled,3.1.0,60.04628368
239,G,M,270,L,N,239GM270LN,HLN,0,13,13,142,,,0.713,92.6698292,92.9584319,92.9584319,93.0747641,93.0913157,None,None,93.0913157,None,93.0913157,93.7903199,0.2965873,None,,,,,,,,,,47,1,2020_Jan_03_1559,untitled,3.1.0,60.04628368
_,_2,M,270,_,_,__2M270__,N,0,14,14,30,,,0.76,96.7853059,97.088002,97.088002,97.2707316,97.2871553,96.7853059,down,97.2871553,None,97.2871553,98.0363446,0.2188235,None,1.8861309,,,,,,,,,47,1,2020_Jan_03_1559,untitled,3.1.0,60.04628368
_,_4,M,315,_,_,__4M315__,N,0,15,15,39,,,1.094,99.4363793,99.7354068,99.7354068,99.9033842,99.9033842,None,down,99.9033842,None,99.9033842,100.98515,0.2448727,None,2.0486392,,,,,,,,,47,1,2020_Jan_03_1559,untitled,3.1.0,60.04628368
_,F,N,45,_,_,_FN045__,N,0,16,16,49,,,1.277,102.2956884,102.5841081,102.5841081,102.6661122,102.6832815,None,down,102.6832815,None,102.6832815,103.9481054,0.3297279,None,2.0322176,,,,,,,,,47,1,2020_Jan_03_1559,untitled,3.1.0,60.04628368
_,F,M,45,_,_,_FM045__,N,0,17,17,1,,,1.073,104.9124428,105.215471,105.215471,105.4304245,105.4472634,None,down,105.4472634,None,105.4472634,106.5123597,0.1841366,None,2.717019,,,,,,,,,47,1,2020_Jan_03_1559,untitled,3.1.0,60.04628368
_,_4,N,180,_,_,__4N180__,N,0,18,18,84,,,0.939,108.4011658,108.6950683,108.6950683,108.8772261,108.8943601,None,down,108.8943601,None,108.8943601,109.8263149,0.223704,None,2.5658611,,,,,,,,,47,1,2020_Jan_03_1559,untitled,3.1.0,60.04628368
_,_5,N,135,_,_,__5N135__,N,0,19,19,91,,,1.056,111.7618664,112.0577578,112.0577578,112.1742904,112.1910898,None,up,112.1910898,None,112.1910898,113.2399908,0.2876485,None,2.1333526,,,,,,,,,47,1,2020_Jan_03_1559,untitled,3.1.0,60.04628368
263,_2,N,270,R,N,263_2N270RN,HRN,0,20,20,246,,,0.757,115.2283841,115.5212561,115.5212561,115.7385396,115.7558849,None,up,115.7558849,None,115.7558849,116.5042966,0.19123,None,2.1330535,,,,,,,,,47,1,2020_Jan_03_1559,untitled,3.1.0,60.04628368
_,R,M,90,_,_,_RM090__,N,0,21,21,18,,,1.05,118.2527532,118.5522798,118.5522798,118.6023286,118.6188885,None,down,118.6188885,None,118.6188885,119.6516631,0.3470079,None,2.3011658,,,,,,,,,47,1,2020_Jan_03_1559,untitled,3.1.0,60.04628368
457,_5,M,0,R,N,457_5M000RN,HRN,0,22,22,176,,,1.361,121.2713858,121.5660686,121.5660686,121.6497307,121.6497307,None,down,121.6497307,None,121.6497307,122.9979991,0.3299096,None,2.349098,,,,,,,,,47,1,2020_Jan_03_1559,untitled,3.1.0,60.04628368
419,_4,N,90,L,N,419_4N090LN,HLN,0,23,23,266,,,1.009,124.2334675,124.5300788,124.5300788,124.7132739,124.7305807,None,up,124.7305807,None,124.7305807,125.7296145,0.222035,None,2.0656406,,,,,,,,,47,1,2020_Jan_03_1559,untitled,3.1.0,60.04628368
462,_5,M,225,R,N,462_5M225RN,HRN,0,24,24,181,,,0.891,127.1231084,127.4119035,127.4119035,127.5107589,127.5273721,None,down,127.5273721,None,127.5273721,128.4101725,0.3119679,None,2.484875,,,,,,,,,47,1,2020_Jan_03_1559,untitled,3.1.0,60.04628368
_,_5,M,225,_,_,__5M225__,N,0,25,25,45,,,1.228,130.3039215,130.5932246,130.5932246,130.7420371,130.7420371,None,None,130.7420371,None,130.7420371,131.958664,0.2745979,None,,,,,,,,,,47,1,2020_Jan_03_1559,untitled,3.1.0,60.04628368
168,F,N,315,L,N,168FN315LN,HLN,0,26,26,223,,,0.724,134.5732208,134.8715759,134.8715759,134.9384779,134.9550718,134.5732208,up,134.9550718,None,134.9550718,135.6713518,0.3341437,None,2.1014575,,,,,,,,,47,1,2020_Jan_03_1559,untitled,3.1.0,60.04628368
201,G,M,0,R,N,201GM000RN,HRN,0,27,27,128,,,1.229,137.3907398,137.6853646,137.6853646,137.786408,137.786408,None,None,137.786408,None,137.786408,139.0007643,0.3167866,None,,,,,,,,,,47,1,2020_Jan_03_1559,untitled,3.1.0,60.04628368
142,F,M,225,R,N,142FM225RN,HRN,0,28,28,117,,,1.276,141.4707362,141.7648744,141.7648744,141.9814128,141.9980749,141.4707362,up,141.9980749,None,141.9980749,143.2637411,0.1941554,None,2.3509867,,,,,,,,,47,1,2020_Jan_03_1559,untitled,3.1.0,60.04628368
230,G,N,225,L,N,230GN225LN,HLN,0,29,29,237,,,0.771,144.6568746,144.9457846,144.9457846,145.0622179,145.0787663,None,up,145.0787663,None,145.0787663,145.8285768,0.2954109,None,2.3499818,,,,,,,,,47,1,2020_Jan_03_1559,untitled,3.1.0,60.04628368
_,G,N,180,_,_,_GN180__,N,0,30,30,60,,,1.261,147.7674919,148.0599397,148.0599397,148.1428626,148.1596205,None,up,148.1596205,None,148.1596205,149.4085919,0.326594,None,2.2661754,,,,,,,,,47,1,2020_Jan_03_1559,untitled,3.1.0,60.04628368
_,R,M,135,_,_,_RM135__,N,0,31,31,19,,,1.367,150.7604665,151.0568139,151.0568139,151.1401184,151.1568805,None,None,151.1568805,None,151.1568805,152.5064143,0.3178601,None,,,,,,,,,,47,1,2020_Jan_03_1559,untitled,3.1.0,60.04628368
165,F,N,180,L,N,165FN180LN,HLN,0,32,32,220,,,1.067,154.9061262,155.2033729,155.2033729,155.3368685,155.3533515,154.9061262,up,155.3533515,None,155.3533515,156.4026165,0.2740169,None,2.3324971,,,,,,,,,47,1,2020_Jan_03_1559,untitled,3.1.0,60.04628368
_,_5,N,270,_,_,__5N270__,N,0,33,33,94,,,1.392,157.9203463,158.2174317,158.2174317,158.400319,158.4170562,None,up,158.4170562,None,158.4170562,159.7992174,0.2206101,None,2.4838593,,,,,,,,,47,1,2020_Jan_03_1559,untitled,3.1.0,60.04628368
_,_5,N,180,_,_,__5N180__,N,0,34,34,92,,,1.065,161.1111421,161.3988311,161.3988311,161.6142715,161.6310692,None,up,161.6310692,None,161.6310692,162.6802652,0.1973125,None,2.4347463,,,,,,,,,47,1,2020_Jan_03_1559,untitled,3.1.0,60.04628368
37,R,N,180,L,N,037RN180LN,HLN,0,35,35,204,,,1.277,164.3899637,164.6794788,164.6794788,164.778529,164.7958589,None,up,164.7958589,None,164.7958589,166.0603935,0.311972,None,2.9819679,,,,,,,,,47,1,2020_Jan_03_1559,untitled,3.1.0,60.04628368
_,G,N,45,_,_,_GN045__,N,0,36,36,57,,,0.747,168.1455241,168.4423108,168.4423108,168.4921119,168.5098878,None,up,168.5098878,None,168.5098878,169.241261,0.350345,None,1.9663424,,,,,,,,,47,1,2020_Jan_03_1559,untitled,3.1.0,60.04628368
202,G,M,45,R,N,202GM045RN,HRN,0,37,37,129,,,0.931,170.6953661,170.9896899,170.9896899,171.189331,171.2061795,None,down,171.2061795,None,171.2061795,172.1220444,0.2046969,None,2.1164357,,,,,,,,,47,1,2020_Jan_03_1559,untitled,3.1.0,60.04628368
_,_2,N,0,_,_,__2N000__,N,0,38,38,72,,,1.244,173.5446641,173.8375238,173.8375238,174.0370909,174.053561,None,up,174.053561,None,174.053561,175.2862942,0.2090769,None,2.6326077,,,,,,,,,47,1,2020_Jan_03_1559,untitled,3.1.0,60.04628368
299,_2,M,90,L,N,299_2M090LN,HLN,0,39,39,154,,,0.947,176.9236771,177.2174864,177.2174864,177.4006486,177.4173228,None,down,177.4173228,None,177.4173228,178.3498291,0.2255587,None,2.0498346,,,,,,,,,47,1,2020_Jan_03_1559,untitled,3.1.0,60.04628368
491,_5,M,90,L,N,491_5M090LN,HLN,0,40,40,186,,,0.718,179.7598075,180.0485136,180.0485136,180.1822178,180.1990836,None,down,180.1990836,None,180.1990836,180.8979104,0.2782189,None,3.264317,,,,,,,,,47,1,2020_Jan_03_1559,untitled,3.1.0,60.04628368
137,F,M,0,R,N,137FM000RN,HRN,0,41,41,112,,,0.912,183.8477415,184.1450723,184.1450723,184.1788459,184.1954216,None,down,184.1954216,None,184.1954216,185.094012,0.3686486,None,1.8321493,,,,,,,,,47,1,2020_Jan_03_1559,untitled,3.1.0,60.04628368
304,_2,M,315,L,N,304_2M315LN,HLN,0,42,42,159,,,0.744,186.346522,186.6425279,186.6425279,186.7424449,186.7600129,None,down,186.7600129,None,186.7600129,187.4923005,0.3064084,None,2.4344373,,,,,,,,,47,1,2020_Jan_03_1559,untitled,3.1.0,60.04628368
420,_4,N,135,L,N,420_4N135LN,HLN,0,43,43,267,,,1.107,189.3837619,189.6733071,189.6733071,189.906616,189.9233572,None,up,189.9233572,None,189.9233572,191.02208,0.1752403,None,2.2163595,,,,,,,,,47,1,2020_Jan_03_1559,untitled,3.1.0,60.04628368
432,_4,M,315,L,N,432_4M315LN,HLN,0,44,44,175,,,0.772,192.443147,192.7371823,192.7371823,192.8538266,192.8707658,None,down,192.8707658,None,192.8707658,193.636618,0.2890085,None,2.0656858,,,,,,,,,47,1,2020_Jan_03_1559,untitled,3.1.0,60.04628368
_,_5,N,225,_,_,__5N225__,N,0,45,45,93,,,1.342,195.1226898,195.4186671,195.4186671,195.6515783,195.6684362,None,up,195.6684362,None,195.6684362,197.0008594,0.1739763,None,2.3177971,,,,,,,,,47,1,2020_Jan_03_1559,untitled,3.1.0,60.04628368
_,G,M,270,_,_,_GM270__,N,0,46,46,14,,,1.087,198.2567267,198.5492685,198.5492685,198.698865,198.7156846,None,down,198.7156846,None,198.7156846,199.7827251,0.2542126,None,2.1822871,,,,,,,,,47,1,2020_Jan_03_1559,untitled,3.1.0,60.04628368
7,R,N,270,R,N,007RN270RN,HRN,0,47,47,198,,,1.334,201.2417731,201.529469,201.529469,201.6127612,201.6297036,None,down,201.6297036,None,201.6297036,202.9447386,0.329517,None,2.2827594,,,,,,,,,47,1,2020_Jan_03_1559,untitled,3.1.0,60.04628368
487,_5,N,270,L,N,487_5N270LN,HLN,0,48,48,286,,,1.013,204.1356341,204.426983,204.426983,204.6275383,204.6436564,None,up,204.6436564,None,204.6436564,205.6427997,0.2095416,None,1.883194,,,,,,,,,47,1,2020_Jan_03_1559,untitled,3.1.0,60.04628368
41,R,M,0,L,N,041RM000LN,HLN,0,49,49,104,,,1.328,206.8097027,207.1082689,207.1082689,207.2414249,207.2583197,None,down,207.2583197,None,207.2583197,208.5737911,0.2689159,None,2.4181881,,,,,,,,,47,1,2020_Jan_03_1559,untitled,3.1.0,60.04628368
235,G,M,90,L,N,235GM090LN,HLN,0,50,50,138,,,0.793,209.9987154,210.2885885,210.2885885,210.3884945,210.4052124,None,down,210.4052124,None,210.4052124,211.1879819,0.3094758,None,2.1335172,,,,,,,,,47,1,2020_Jan_03_1559,untitled,3.1.0,60.04628368
425,_4,M,0,L,N,425_4M000LN,HLN,0,51,51,168,,,1.338,212.767547,213.0678033,213.0678033,213.2535028,213.2696731,None,down,213.2696731,None,213.2696731,214.6015872,0.2145518,None,2.5678247,,,,,,,,,47,1,2020_Jan_03_1559,untitled,3.1.0,60.04628368
195,G,N,90,R,N,195GN090RN,HRN,0,52,52,226,,,1.06,216.1974741,216.4841803,216.4841803,216.5496896,216.5664806,None,down,216.5664806,None,216.5664806,217.6155409,0.3453193,None,1.883302,,,,,,,,,47,1,2020_Jan_03_1559,untitled,3.1.0,60.04628368
303,_2,M,270,L,N,303_2M270LN,HLN,0,53,53,158,,,1.058,218.6368069,218.9312835,218.9312835,219.164135,219.1808944,None,down,219.1808944,None,219.1808944,220.2301725,0.1747746,None,2.5165976,,,,,,,,,47,1,2020_Jan_03_1559,untitled,3.1.0,60.04628368
46,R,M,225,L,N,046RM225LN,HLN,0,54,54,109,,,1.249,222.0306626,222.3282057,222.3282057,222.411826,222.4280784,None,down,222.4280784,None,222.4280784,223.6606792,0.320387,None,2.599814,,,,,,,,,47,1,2020_Jan_03_1559,untitled,3.1.0,60.04628368
_,_2,M,0,_,_,__2M000__,N,0,55,55,24,,,0.883,225.3453573,225.6418962,225.6418962,225.7418995,225.7590301,None,down,225.7590301,None,225.7590301,226.6248337,0.3042553,None,2.2331786,,,,,,,,,47,1,2020_Jan_03_1559,untitled,3.1.0,60.04628368
130,F,N,45,R,N,130FN045RN,HRN,0,56,56,209,,,1.221,228.3619196,228.6561293,228.6561293,228.7058408,228.7227071,None,up,228.7227071,None,228.7227071,229.9378552,0.3551514,None,2.8318665,,,,,,,,,47,1,2020_Jan_03_1559,untitled,3.1.0,60.04628368
_,_5,N,315,_,_,__5N315__,N,0,57,57,95,,,1.178,231.8546826,232.1528998,232.1528998,232.2695422,232.2861257,None,up,232.2861257,None,232.2861257,233.4518806,0.2853892,None,2.7158355,,,,,,,,,47,1,2020_Jan_03_1559,untitled,3.1.0,60.04628368
_,_5,M,0,_,_,__5M000__,N,0,58,58,40,,,1.251,235.2135212,235.5150494,235.5150494,235.7169781,235.7346391,None,down,235.7346391,None,235.7346391,236.965351,0.1988281,None,2.2475612,,,,,,,,,47,1,2020_Jan_03_1559,untitled,3.1.0,60.04628368
452,_5,N,135,R,N,452_5N135RN,HRN,0,59,59,275,,,0.987,238.2678034,238.5640848,238.5640848,238.6971441,238.7137666,None,up,238.7137666,None,238.7137666,239.6795875,0.2734312,None,2.2162009,,,,,,,,,47,1,2020_Jan_03_1559,untitled,3.1.0,60.04628368
8,R,N,315,R,N,008RN315RN,HRN,0,60,60,199,,,0.888,241.1230276,241.4122213,241.4122213,241.6447371,241.6613587,None,up,241.6613587,None,241.6613587,242.5278231,0.1805926,None,2.1495242,,,,,,,,,47,1,2020_Jan_03_1559,untitled,3.1.0,60.04628368
483,_5,N,90,L,N,483_5N090LN,HLN,0,61,61,282,,,0.722,244.0817651,244.3756896,244.3756896,244.5255697,244.5420079,None,up,244.5420079,None,244.5420079,245.2580142,0.2566184,None,1.7352489,,,,,,,,,47,1,2020_Jan_03_1559,untitled,3.1.0,60.04628368
266,_2,M,45,R,N,266_2M045RN,HRN,0,62,62,145,,,0.954,246.6123259,246.9066865,246.9066865,247.0067441,247.0067441,None,down,247.0067441,None,247.0067441,247.9555157,0.3151592,None,2.3655873,,,,,,,,,47,1,2020_Jan_03_1559,untitled,3.1.0,60.04628368
43,R,M,90,L,N,043RM090LN,HLN,0,63,63,106,,,1.135,249.6601594,249.9541088,249.9541088,250.0870671,250.10404,None,down,250.10404,None,250.10404,251.2197178,0.2750576,None,2.4174216,,,,,,,,,47,1,2020_Jan_03_1559,untitled,3.1.0,60.04628368
484,_5,N,135,L,N,484_5N135LN,HLN,0,64,64,283,,,1.258,252.7223662,253.018038,253.018038,253.2344135,253.2510549,None,up,253.2510549,None,253.2510549,254.5001523,0.1880425,None,2.3356391,,,,,,,,,47,1,2020_Jan_03_1559,untitled,3.1.0,60.04628368
36,R,N,135,L,N,036RN135LN,HLN,0,65,65,203,,,0.956,255.8301734,256.1319813,256.1319813,256.3014651,256.316624,None,up,256.316624,None,256.316624,257.2642542,0.230924,None,2.1641439,,,,,,,,,47,1,2020_Jan_03_1559,untitled,3.1.0,60.04628368
494,_5,M,225,L,N,494_5M225LN,HLN,0,66,66,189,,,1.077,258.80742,259.0958825,259.0958825,259.1960007,259.2125618,None,down,259.2125618,None,259.2125618,260.2782214,0.3122129,None,2.9842039,,,,,,,,,47,1,2020_Jan_03_1559,untitled,3.1.0,60.04628368
289,_2,N,0,L,N,289_2N000LN,HLN,0,67,67,248,,,1.233,262.5045667,262.7931874,262.7931874,262.9096171,262.9259426,None,up,262.9259426,None,262.9259426,264.1418344,0.2954059,None,2.1661758,,,,,,,,,47,1,2020_Jan_03_1559,untitled,3.1.0,60.04628368
490,_5,M,45,L,N,490_5M045LN,HLN,0,68,68,185,,,0.96,265.3051403,265.6069746,265.6069746,265.8069194,265.82416,None,down,265.82416,None,265.82416,266.7728252,0.2012517,None,2.4482352,,,,,,,,,47,1,2020_Jan_03_1559,untitled,3.1.0,60.04628368
35,R,N,90,L,N,035RN090LN,HLN,0,69,69,202,,,0.847,268.4605764,268.7542647,268.7542647,268.9873881,269.0041424,None,up,269.0041424,None,269.0041424,269.8369873,0.1749219,None,1.8018498,,,,,,,,,47,1,2020_Jan_03_1559,untitled,3.1.0,60.04628368
161,F,N,0,L,N,161FN000LN,HLN,0,70,70,216,,,1.055,271.0572344,271.3519525,271.3519525,271.5184997,271.5352187,None,up,271.5352187,None,271.5352187,272.5840157,0.2372143,None,1.7174564,,,,,,,,,47,1,2020_Jan_03_1559,untitled,3.1.0,60.04628368
133,F,N,180,R,N,133FN180RN,HRN,0,71,71,212,,,1.141,273.6260051,273.9172551,273.9172551,273.9672501,273.985602,None,up,273.985602,None,273.985602,275.1161166,0.3583389,None,2.3641135,,,,,,,,,47,1,2020_Jan_03_1559,untitled,3.1.0,60.04628368
_,G,N,225,_,_,_GN225__,N,0,72,72,61,,,0.981,276.6732189,276.9636736,276.9636736,277.0635186,277.0805515,None,up,277.0805515,None,277.0805515,278.0461124,0.3058654,None,2.0666378,,,,,,,,,47,1,2020_Jan_03_1559,untitled,3.1.0,60.04628368
428,_4,M,135,L,N,428_4M135LN,HLN,0,73,73,171,,,0.95,279.4306796,279.7280491,279.7280491,279.8612767,279.8778,None,up,279.8778,None,279.8778,280.8107062,0.2676231,None,2.3176581,,,,,,,,,47,1,2020_Jan_03_1559,untitled,3.1.0,60.04628368
385,_4,N,0,R,N,385_4N000RN,HRN,0,74,74,256,,,1.167,282.4958788,282.7919407,282.7919407,282.9086272,282.9253119,None,up,282.9253119,None,282.9253119,284.0747112,0.2874294,None,2.3657407,,,,,,,,,47,1,2020_Jan_03_1559,untitled,3.1.0,60.04628368
232,G,N,315,L,N,232GN315LN,HLN,0,75,75,239,,,1.288,285.4974083,285.7893481,285.7893481,286.0057597,286.0226791,None,up,286.0226791,None,286.0226791,287.2882961,0.1938816,None,2.4177071,,,,,,,,,47,1,2020_Jan_03_1559,untitled,3.1.0,60.04628368
_,_2,M,225,_,_,__2M225__,N,0,76,76,29,,,1.15,288.6458002,288.9369837,288.9369837,289.153722,289.1707158,None,down,289.1707158,None,289.1707158,290.3029627,0.1928154,None,3.1354938,,,,,,,,,47,1,2020_Jan_03_1559,untitled,3.1.0,60.04628368
421,_4,N,180,L,N,421_4N180LN,HLN,0,77,77,268,,,1.35,292.5683007,292.8665322,292.8665322,293.0333083,293.0501513,None,up,293.0501513,None,293.0501513,294.3817662,0.2419335,None,2.3656121,,,,,,,,,47,1,2020_Jan_03_1559,untitled,3.1.0,60.04628368
_,R,N,45,_,_,_RN045__,N,0,78,78,65,,,0.759,295.7121253,296.0137418,296.0137418,296.1316103,296.1499978,None,up,296.1499978,None,296.1499978,296.8965023,0.2834306,None,1.6471197,,,,,,,,,47,1,2020_Jan_03_1559,untitled,3.1.0,60.04628368
461,_5,M,180,R,N,461_5M180RN,HRN,0,79,79,180,,,1.014,298.0030149,298.2952002,298.2952002,298.5115742,298.5282364,None,up,298.5282364,None,298.5282364,299.5274945,0.1914176,None,2.6337761,,,,,,,,,47,1,2020_Jan_03_1559,untitled,3.1.0,60.04628368
225,G,N,0,L,N,225GN000LN,HLN,0,80,80,232,,,1.172,301.3454301,301.6422317,301.6422317,301.8752999,301.8920275,None,up,301.8920275,None,301.8920275,303.057618,0.1715505,None,2.0355331,,,,,,,,,47,1,2020_Jan_03_1559,untitled,3.1.0,60.04628368
204,G,M,135,R,N,204GM135RN,HRN,0,81,81,131,,,0.836,304.1679622,304.456551,304.456551,304.6397613,304.6565792,None,down,304.6565792,None,304.6565792,305.4897027,0.2264232,None,2.0492854,,,,,,,,,47,1,2020_Jan_03_1559,untitled,3.1.0,60.04628368
240,G,M,315,L,N,240GM315LN,HLN,0,82,82,143,,,0.864,306.9465784,307.2375878,307.2375878,307.4218201,307.4394466,None,down,307.4394466,None,307.4394466,308.2865232,0.2262856,None,1.8974989,,,,,,,,,47,1,2020_Jan_03_1559,untitled,3.1.0,60.04628368
395,_4,M,90,R,N,395_4M090RN,HRN,0,83,83,162,,,0.944,309.6227855,309.91833,309.91833,310.0518004,310.0682945,None,up,310.0682945,None,310.0682945,311.000709,0.2739143,None,1.86607,,,,,,,,,47,1,2020_Jan_03_1559,untitled,3.1.0,60.04628368
34,R,N,45,L,N,034RN045LN,HLN,0,84,84,201,,,0.768,312.152382,312.4493715,312.4493715,312.6494201,312.6659656,None,up,312.6659656,None,312.6659656,313.4154646,0.2061307,None,1.5674161,,,,,,,,,47,1,2020_Jan_03_1559,untitled,3.1.0,60.04628368
429,_4,M,180,L,N,429_4M180LN,HLN,0,85,85,172,,,1.336,314.5316259,314.8307538,314.8307538,314.9471468,314.9638517,None,up,314.9638517,None,314.9638517,316.2797087,0.2852233,None,2.7661485,,,,,,,,,47,1,2020_Jan_03_1559,untitled,3.1.0,60.04628368
167,F,N,270,L,N,167FN270LN,HLN,0,86,86,222,,,0.872,317.9248713,318.2130681,318.2130681,318.4441942,318.4608668,None,up,318.4608668,None,318.4608668,319.327094,0.1821333,None,2.2338767,,,,,,,,,47,1,2020_Jan_03_1559,untitled,3.1.0,60.04628368
_,_2,M,45,_,_,__2M045__,N,0,87,87,25,,,1.398,320.9252021,321.225132,321.225132,321.4084567,321.4255366,None,down,321.4255366,None,321.4255366,322.8078988,0.2163626,None,2.5336274,,,,,,,,,47,1,2020_Jan_03_1559,untitled,3.1.0,60.04628368
_,G,M,135,_,_,_GM135__,N,0,88,88,11,,,1.084,324.2563708,324.5557173,324.5557173,324.6720457,324.6888379,None,down,324.6888379,None,324.6888379,325.7554245,0.2834234,None,2.1820025,,,,,,,,,47,1,2020_Jan_03_1559,untitled,3.1.0,60.04628368
293,_2,N,180,L,N,293_2N180LN,HLN,0,89,89,252,,,0.872,327.161738,327.4532401,327.4532401,327.586894,327.6033978,None,up,327.6033978,None,327.6033978,328.4522726,0.2785951,None,1.7991555,,,,,,,,,47,1,2020_Jan_03_1559,untitled,3.1.0,60.04628368
_,R,M,180,_,_,_RM180__,N,0,90,90,20,,,1.012,329.6264674,329.9175495,329.9175495,330.1178457,330.1340662,None,up,330.1340662,None,330.1340662,331.1333989,0.2105202,None,1.8005354,,,,,,,,,47,1,2020_Jan_03_1559,untitled,3.1.0,60.04628368
453,_5,N,180,R,N,453_5N180RN,HRN,0,91,91,276,,,1.374,332.1339271,332.4320741,332.4320741,332.6487106,332.6663554,None,up,332.6663554,None,332.6663554,334.03147,0.1849108,None,2.2828524,,,,,,,,,47,1,2020_Jan_03_1559,untitled,3.1.0,60.04628368
455,_5,N,270,R,N,455_5N270RN,HRN,0,92,92,278,,,1.031,335.1758991,335.4648373,335.4648373,335.6631208,335.6801193,None,up,335.6801193,None,335.6801193,336.695335,0.2100621,None,1.6497893,,,,,,,,,47,1,2020_Jan_03_1559,untitled,3.1.0,60.04628368
136,F,N,315,R,N,136FN315RN,HRN,0,93,93,215,,,1.062,337.6165982,337.910782,337.910782,338.0441784,338.06126,None,up,338.06126,None,338.06126,339.1008195,0.271658,None,1.7320514,,,,,,,,,47,1,2020_Jan_03_1559,untitled,3.1.0,60.04628368
_,_2,N,90,_,_,__2N090__,N,0,94,94,74,,,1.301,339.9888773,340.277014,340.277014,340.5081918,340.5253904,None,down,340.5253904,None,340.5253904,341.8070517,0.182891,None,2.581839,,,,,,,,,47,1,2020_Jan_03_1559,untitled,3.1.0,60.04628368
_,G,M,180,_,_,_GM180__,N,0,95,95,12,,,1.391,343.3009236,343.590078,343.590078,343.8219893,343.8386632,None,up,343.8386632,None,343.8386632,345.2210736,0.1815147,None,3.2816148,,,,,,,,,47,1,2020_Jan_03_1559,untitled,3.1.0,60.04628368
272,_2,M,315,R,N,272_2M315RN,HRN,0,96,96,151,,,0.706,347.343272,347.6353545,347.6353545,347.8350888,347.8519636,None,down,347.8519636,None,347.8519636,348.5351891,0.2111121,None,1.7004984,,,,,,,,,47,1,2020_Jan_03_1559,untitled,3.1.0,60.04628368
451,_5,N,90,R,N,451_5N090RN,HRN,0,97,97,274,,,0.934,349.8729556,350.1665702,350.1665702,350.2664815,350.2830669,None,up,350.2830669,None,350.2830669,351.1998129,0.3069475,None,2.4511948,,,,,,,,,47,1,2020_Jan_03_1559,untitled,3.1.0,60.04628368
290,_2,N,45,L,N,290_2N045LN,HLN,0,98,98,249,,,0.85,352.9966974,353.297107,353.297107,353.4469738,353.4637122,None,up,353.4637122,None,353.4637122,354.297242,0.2455541,None,1.5847567,,,,,,,,,47,1,2020_Jan_03_1559,untitled,3.1.0,60.04628368
_,R,M,45,_,_,_RM045__,N,0,99,99,17,,,0.802,355.2774704,355.5636101,355.5636101,355.7615864,355.7781786,None,down,355.7781786,None,355.7781786,356.5608888,0.2138233,None,2.2330378,,,,,,,,,47,1,2020_Jan_03_1559,untitled,3.1.0,60.04628368
164,F,N,135,L,N,164FN135LN,HLN,0,100,100,219,,,1.171,358.2025723,358.4925432,358.4925432,358.7261797,358.7424634,None,up,358.7424634,None,358.7424634,359.8912496,0.1794984,None,1.9664452,,,,,,,,,47,1,2020_Jan_03_1559,untitled,3.1.0,60.04628368
193,G,N,0,R,N,193GN000RN,HRN,0,101,101,224,,,0.709,360.9292383,361.2240623,361.2240623,361.4232516,361.4403198,None,up,361.4403198,None,361.4403198,362.1395595,0.2069749,None,1.3175327,,,,,,,,,47,1,2020_Jan_03_1559,untitled,3.1.0,60.04628368
131,F,N,90,R,N,131FN090RN,HRN,0,102,102,210,,,0.973,363.0759348,363.3716857,363.3716857,363.4719402,363.4883775,None,up,363.4883775,None,363.4883775,364.4541933,0.3043063,None,1.6176911,,,,,,,,,47,1,2020_Jan_03_1559,untitled,3.1.0,60.04628368
199,G,N,270,R,N,199GN270RN,HRN,0,103,103,230,,,0.716,365.3275957,365.6197142,365.6197142,365.8194084,365.8362196,None,up,365.8362196,None,365.8362196,366.5361885,0.2035788,None,1.6006522,,,,,,,,,47,1,2020_Jan_03_1559,untitled,3.1.0,60.04628368
393,_4,M,0,R,N,393_4M000RN,HRN,0,104,104,160,,,0.825,367.6903156,367.9845004,367.9845004,368.152217,368.1698827,None,down,368.1698827,None,368.1698827,368.9832707,0.2398653,None,1.7850454,,,,,,,,,47,1,2020_Jan_03_1559,untitled,3.1.0,60.04628368
_,_4,M,45,_,_,__4M045__,N,0,105,105,33,,,1.07,370.2854703,370.5819514,370.5819514,370.6819216,370.6986307,None,down,370.6986307,None,370.6986307,371.7477464,0.3087398,None,1.9348459,,,,,,,,,47,1,2020_Jan_03_1559,untitled,3.1.0,60.04628368
_,R,M,0,_,_,_RM000__,N,0,106,106,16,,,1.179,372.8335123,373.1299833,373.1299833,373.3466257,373.3629708,None,down,373.3629708,None,373.3629708,374.5286348,0.1873347,None,2.2169866,,,,,,,,,47,1,2020_Jan_03_1559,untitled,3.1.0,60.04628368
1,R,N,0,R,N,001RN000RN,HRN,0,107,107,192,,,1.06,375.9119148,376.2105305,376.2105305,376.2936726,376.3104545,None,up,376.3104545,None,376.3104545,377.3594157,0.3186674,None,1.9503411,,,,,,,,,47,1,2020_Jan_03_1559,untitled,3.1.0,60.04628368
391,_4,N,270,R,N,391_4N270RN,HRN,0,108,108,262,,,1.355,378.5694655,378.8584489,378.8584489,378.9750033,378.9913531,None,up,378.9913531,None,378.9913531,380.3409629,0.2956989,None,3.2650199,,,,,,,,,47,1,2020_Jan_03_1559,untitled,3.1.0,60.04628368
_,_2,M,90,_,_,__2M090__,N,0,109,109,26,,,0.95,382.4704673,382.7717026,382.7717026,382.9716247,382.9884738,None,down,382.9884738,None,382.9884738,383.920458,0.1996253,None,2.1643827,,,,,,,,,47,1,2020_Jan_03_1559,untitled,3.1.0,60.04628368
_,_5,M,315,_,_,__5M315__,N,0,110,110,47,,,1.165,385.5054386,385.8020947,385.8020947,385.8687714,385.8853104,None,down,385.8853104,None,385.8853104,387.0345082,0.3377383,None,3.0642914,,,,,,,,,47,1,2020_Jan_03_1559,untitled,3.1.0,60.04628368
138,F,M,45,R,N,138FM045RN,HRN,0,111,111,113,,,0.829,389.1396527,389.4323617,389.4323617,389.6652472,389.6819533,None,down,389.6819533,None,389.6819533,390.4982044,0.1790736,None,1.7833777,,,,,,,,,47,1,2020_Jan_03_1559,untitled,3.1.0,60.04628368
450,_5,N,45,R,N,450_5N045RN,HRN,0,112,112,273,,,0.833,391.7579463,392.0466103,392.0466103,392.1802673,392.1968989,None,up,392.1968989,None,392.1968989,393.0127334,0.2789354,None,2.3155108,,,,,,,,,47,1,2020_Jan_03_1559,untitled,3.1.0,60.04628368
296,_2,N,315,L,N,296_2N315LN,HLN,0,113,113,255,,,0.977,394.7459889,395.0441235,395.0441235,395.2278662,395.2442081,None,down,395.2442081,None,395.2442081,396.2104243,0.2205404,None,3.3828598,,,,,,,,,47,1,2020_Jan_03_1559,untitled,3.1.0,60.04628368
496,_5,M,315,L,N,496_5M315LN,HLN,0,114,114,191,,,1.111,398.8542766,399.1553261,399.1553261,399.3403744,399.3570461,None,down,399.3570461,None,399.3570461,400.4565924,0.2125597,None,2.6823754,,,,,,,,,47,1,2020_Jan_03_1559,untitled,3.1.0,60.04628368
260,_2,N,135,R,N,260_2N135RN,HRN,0,115,115,243,,,1.323,402.2305126,402.5210421,402.5210421,402.7538552,402.7705534,None,up,402.7705534,None,402.7705534,404.0861756,0.1791645,None,2.0337103,,,,,,,,,47,1,2020_Jan_03_1559,untitled,3.1.0,60.04628368
492,_5,M,135,L,N,492_5M135LN,HLN,0,116,116,187,,,1.078,406.0204215,406.31789,406.31789,406.5173095,406.5341572,None,up,406.5341572,None,406.5341572,407.5997155,0.2038633,None,3.1150549,,,,,,,,,47,1,2020_Jan_03_1559,untitled,3.1.0,60.04628368
_,F,N,90,_,_,_FN090__,N,0,117,117,50,,,0.932,409.8844135,410.180819,410.180819,410.3647385,410.3809321,None,up,410.3809321,None,410.3809321,411.2965963,0.2208629,None,2.382827,,,,,,,,,47,1,2020_Jan_03_1559,untitled,3.1.0,60.04628368
170,F,M,45,L,N,170FM045LN,HLN,0,118,118,121,,,0.996,413.0869125,413.3782392,413.3782392,413.4780599,413.4952465,None,down,413.4952465,None,413.4952465,414.477216,0.3093656,None,2.0653252,,,,,,,,,47,1,2020_Jan_03_1559,untitled,3.1.0,60.04628368
_,_4,M,225,_,_,__4M225__,N,0,119,119,37,,,0.889,415.8370896,416.1270432,416.1270432,416.2766673,416.294389,None,down,416.294389,None,416.294389,417.1760262,0.2622741,None,3.3301185,,,,,,,,,47,1,2020_Jan_03_1559,untitled,3.1.0,60.04628368
_,_4,N,225,_,_,__4N225__,N,0,120,120,85,,,0.955,419.8135046,420.1054576,420.1054576,420.3389223,420.3552341,None,up,420.3552341,None,420.3552341,421.3045243,0.1755306,None,1.9180301,,,,,,,,,47,1,2020_Jan_03_1559,untitled,3.1.0,60.04628368
_,R,N,0,_,_,_RN000__,N,0,121,121,64,,,0.872,422.5627512,422.8532299,422.8532299,422.9864377,423.0029429,None,up,423.0029429,None,423.0029429,423.8687963,0.2771345,None,2.3492936,,,,,,,,,47,1,2020_Jan_03_1559,untitled,3.1.0,60.04628368
_,R,N,135,_,_,_RN135__,N,0,122,122,67,,,1.107,425.5704359,425.8672354,425.8672354,426.0680169,426.0874177,None,up,426.0874177,None,426.0874177,427.1827172,0.2035688,None,2.1120556,,,,,,,,,47,1,2020_Jan_03_1559,untitled,3.1.0,60.04628368
_,R,N,315,_,_,_RN315__,N,0,123,123,71,,,0.809,428.4090905,428.6985102,428.6985102,428.9145263,428.9316763,None,down,428.9316763,None,428.9316763,429.7307315,0.1962546,None,2.1997634,,,,,,,,,47,1,2020_Jan_03_1559,untitled,3.1.0,60.04628368
47,R,M,270,L,N,047RM270LN,HLN,0,124,124,110,,,1.376,431.3299595,431.6294377,431.6294377,431.8566524,431.8566524,None,down,431.8566524,None,431.8566524,433.2276988,0.1860801,None,2.5219037,,,,,,,,,47,1,2020_Jan_03_1559,untitled,3.1.0,60.04628368
488,_5,N,315,L,N,488_5N315LN,HLN,0,125,125,287,,,0.938,434.6918421,434.9926337,434.9926337,435.0921936,435.1091435,None,up,435.1091435,None,435.1091435,436.0422488,0.3000249,None,2.51534,,,,,,,,,47,1,2020_Jan_03_1559,untitled,3.1.0,60.04628368
398,_4,M,225,R,N,398_4M225RN,HRN,0,126,126,165,,,1.125,437.8364397,438.1245253,438.1245253,438.3397746,438.3563246,None,down,438.3563246,None,438.3563246,439.4720117,0.1990727,None,2.6181927,,,,,,,,,47,1,2020_Jan_03_1559,untitled,3.1.0,60.04628368
264,_2,N,315,R,N,264_2N315RN,HRN,0,127,127,247,,,0.821,441.2361086,441.5367638,441.5367638,441.6865727,441.7032816,None,up,441.7032816,None,441.7032816,442.519583,0.248445,None,1.9842059,,,,,,,,,47,1,2020_Jan_03_1559,untitled,3.1.0,60.04628368
_,_5,M,90,_,_,__5M090__,N,0,128,128,42,,,1.283,444.0280953,444.3179758,444.3179758,444.401287,444.4178519,None,down,444.4178519,None,444.4178519,445.6836638,0.3248816,None,2.8349594,,,,,,,,,47,1,2020_Jan_03_1559,untitled,3.1.0,60.04628368
_,F,N,225,_,_,_FN225__,N,0,129,129,53,,,1.027,447.5381349,447.8312398,447.8312398,447.9817942,447.9817942,None,up,447.9817942,None,447.9817942,448.9967356,0.2663699,None,2.7981333,,,,,,,,,47,1,2020_Jan_03_1559,untitled,3.1.0,60.04628368
10,R,M,45,R,N,010RM045RN,HRN,0,130,130,97,,,1.139,451.0162579,451.3115751,451.3115751,451.4947334,451.5112752,None,up,451.5112752,None,451.5112752,452.6437137,0.2248024,None,3.0321078,,,,,,,,,47,1,2020_Jan_03_1559,untitled,3.1.0,60.04628368
_,G,N,90,_,_,_GN090__,N,0,131,131,58,,,1.106,454.7406011,455.0415256,455.0415256,455.2582033,455.2753678,None,up,455.2753678,None,455.2753678,456.3734796,0.1839383,None,2.8165788,,,,,,,,,47,1,2020_Jan_03_1559,untitled,3.1.0,60.04628368
_,G,M,90,_,_,_GM090__,N,0,132,132,10,,,0.836,458.4226483,458.7224402,458.7224402,458.8053231,458.8231113,None,down,458.8231113,None,458.8231113,459.638778,0.3172394,None,1.7834236,,,,,,,,,47,1,2020_Jan_03_1559,untitled,3.1.0,60.04628368
417,_4,N,0,L,N,417_4N000LN,HLN,0,133,133,264,,,1.341,460.8619784,461.1534438,461.1534438,461.319867,461.3372393,None,up,461.3372393,None,461.3372393,462.6683734,0.2394172,None,2.4813341,,,,,,,,,47,1,2020_Jan_03_1559,untitled,3.1.0,60.04628368
392,_4,N,315,R,N,392_4N315RN,HRN,0,134,134,263,,,1.151,463.9505145,464.2498896,464.2498896,464.5335064,464.5500256,None,up,464.5500256,None,464.5500256,465.6828204,0.1197741,None,2.0502032,,,,,,,,,47,1,2020_Jan_03_1559,untitled,3.1.0,60.04628368
397,_4,M,180,R,N,397_4M180RN,HRN,0,135,135,164,,,0.968,466.8562742,467.147641,467.147641,467.3143376,467.3309513,None,None,467.3309513,None,467.3309513,468.2800012,0.2435597,None,,,,,,,,,,47,1,2020_Jan_03_1559,untitled,3.1.0,60.04628368
6,R,N,225,R,N,006RN225RN,HRN,0,136,136,197,,,0.757,471.0000953,471.2941596,471.2941596,471.5108283,471.5273611,471.0000953,up,471.5273611,None,471.5273611,472.2599678,0.1941877,None,2.0662548,,,,,,,,,47,1,2020_Jan_03_1559,untitled,3.1.0,60.04628368
_,_5,N,90,_,_,__5N090__,N,0,137,137,90,,,0.808,473.8084244,474.109749,474.109749,474.3084952,474.3249319,None,up,474.3249319,None,474.3249319,475.1247177,0.2016591,None,2.082435,,,,,,,,,47,1,2020_Jan_03_1559,untitled,3.1.0,60.04628368
141,F,M,180,R,N,141FM180RN,HRN,0,138,138,116,,,0.734,476.7368189,477.0237183,477.0237183,477.1221331,477.1387906,None,up,477.1387906,None,477.1387906,477.8550499,0.3145303,None,1.8158953,,,,,,,,,47,1,2020_Jan_03_1559,untitled,3.1.0,60.04628368
228,G,N,135,L,N,228GN135LN,HLN,0,139,139,235,,,1.16,479.2796543,479.5703581,479.5703581,479.6702667,479.6872002,None,up,479.6872002,None,479.6872002,480.8357438,0.3125358,None,2.4152803,,,,,,,,,47,1,2020_Jan_03_1559,untitled,3.1.0,60.04628368
_,_2,N,180,_,_,__2N180__,N,0,140,140,76,,,1.388,482.2895732,482.5843623,482.5843623,482.8172576,482.834765,None,up,482.834765,None,482.834765,484.1994428,0.1744427,None,2.2504472,,,,,,,,,47,1,2020_Jan_03_1559,untitled,3.1.0,60.04628368
5,R,N,180,R,N,005RN180RN,HRN,0,141,141,196,,,1.076,485.3009587,485.5982981,485.5982981,485.7982479,485.8150984,None,up,485.8150984,None,485.8150984,486.8804837,0.202692,None,2.0659951,,,,,,,,,47,1,2020_Jan_03_1559,untitled,3.1.0,60.04628368
45,R,M,180,L,N,045RM180LN,HLN,0,142,142,108,,,1.007,488.1069721,488.3959835,488.3959835,488.5956507,488.6125563,None,down,488.6125563,None,488.6125563,489.612642,0.2123889,None,2.1989413,,,,,,,,,47,1,2020_Jan_03_1559,untitled,3.1.0,60.04628368
_,_2,M,315,_,_,__2M315__,N,0,143,143,31,,,1.369,491.1201724,491.4099542,491.4099542,491.5268814,491.543687,None,down,491.543687,None,491.543687,492.8915578,0.2936409,None,2.7683689,,,,,,,,,47,1,2020_Jan_03_1559,untitled,3.1.0,60.04628368
140,F,M,135,R,N,140FM135RN,HRN,0,144,144,115,,,1.086,494.5861588,494.874004,494.874004,495.0400187,495.0566705,None,up,495.0566705,None,495.0566705,496.123781,0.2527633,None,2.9486226,,,,,,,,,47,1,2020_Jan_03_1559,untitled,3.1.0,60.04628368
_,G,N,315,_,_,_GN315__,N,0,145,145,63,,,0.829,498.2273355,498.5208574,498.5208574,498.7204127,498.7383433,None,None,498.7383433,None,498.7383433,499.5528381,0.2095047,None,,,,,,,,,,47,1,2020_Jan_03_1559,untitled,3.1.0,60.04628368
291,_2,N,90,L,N,291_2N090LN,HLN,0,146,146,250,,,1.399,502.5104551,502.7998699,502.7998699,502.9167831,502.9340424,502.5104551,up,502.9340424,None,502.9340424,504.3160896,0.2899232,None,2.4984432,,,,,,,,,47,1,2020_Jan_03_1559,untitled,3.1.0,60.04628368
196,G,N,135,R,N,196GN135RN,HRN,0,147,147,227,,,1.297,505.6785419,505.9832204,505.9832204,506.1479384,506.1662483,None,up,506.1662483,None,506.1662483,507.4464286,0.2318458,None,2.4302202,,,,,,,,,47,1,2020_Jan_03_1559,untitled,3.1.0,60.04628368
143,F,M,270,R,N,143FM270RN,HRN,0,148,148,118,,,1.198,508.7865963,509.0780902,509.0780902,509.3112934,509.3292927,None,down,509.3292927,None,509.3292927,510.5098003,0.177072,None,2.3813868,,,,,,,,,47,1,2020_Jan_03_1559,untitled,3.1.0,60.04628368
_,G,N,270,_,_,_GN270__,N,0,149,149,62,,,0.933,511.9358662,512.2249972,512.2249972,512.4251103,512.4417577,None,up,512.4417577,None,512.4417577,513.3573206,0.2113616,None,1.7342135,,,,,,,,,47,1,2020_Jan_03_1559,untitled,3.1.0,60.04628368
236,G,M,135,L,N,236GM135LN,HLN,0,150,150,139,,,1.243,514.3727333,514.6727528,514.6727528,514.8894332,514.9060613,None,down,514.9060613,None,514.9060613,516.1391234,0.18406,None,2.3331731,,,,,,,,,47,1,2020_Jan_03_1559,untitled,3.1.0,60.04628368
460,_5,M,135,R,N,460_5M135RN,HRN,0,151,151,179,,,1.006,517.6219464,517.9198535,517.9198535,518.1530943,518.169881,None,down,518.169881,None,518.169881,519.1527527,0.1693271,None,2.7500386,,,,,,,,,47,1,2020_Jan_03_1559,untitled,3.1.0,60.04628368
427,_4,M,90,L,N,427_4M090LN,HLN,0,152,152,170,,,1.151,521.1496896,521.4510596,521.4510596,521.633741,521.6515689,None,down,521.6515689,None,521.6515689,522.7829961,0.2153937,None,2.3823393,,,,,,,,,47,1,2020_Jan_03_1559,untitled,3.1.0,60.04628368
390,_4,N,225,R,N,390_4N225RN,HRN,0,153,153,261,,,0.798,524.2688018,524.5643096,524.5643096,524.7477332,524.7654681,None,up,524.7654681,None,524.7654681,525.5488072,0.2208145,None,2.8810368,,,,,,,,,47,1,2020_Jan_03_1559,untitled,3.1.0,60.04628368
139,F,M,90,R,N,139FM090RN,HRN,0,154,154,114,,,1.053,527.8328663,528.128153,528.128153,528.3609053,528.3776502,None,down,528.3776502,None,528.3776502,529.4099761,0.173893,None,2.1656206,,,,,,,,,47,1,2020_Jan_03_1559,untitled,3.1.0,60.04628368
270,_2,M,225,R,N,270_2M225RN,HRN,0,155,155,149,,,0.938,530.8204469,531.1091024,531.1091024,531.258375,531.2750556,None,up,531.2750556,None,531.2750556,532.1909837,0.2646953,None,3.3146738,,,,,,,,,47,1,2020_Jan_03_1559,untitled,3.1.0,60.04628368
_,_2,N,270,_,_,__2N270__,N,0,156,156,78,,,1.381,534.7767027,535.0714495,535.0714495,535.3047528,535.321576,None,up,535.321576,None,535.321576,536.6874893,0.1734881,None,2.8495607,,,,,,,,,47,1,2020_Jan_03_1559,untitled,3.1.0,60.04628368
169,F,M,0,L,N,169FM000LN,HLN,0,157,157,120,,,1.139,538.4008678,538.7021092,538.7021092,538.8856112,538.9028729,None,down,538.9028729,None,538.9028729,540.0344377,0.2138287,None,2.4353724,,,,,,,,,47,1,2020_Jan_03_1559,untitled,3.1.0,60.04628368
38,R,N,225,L,N,038RN225LN,HLN,0,158,158,205,,,1.248,541.7317685,542.0324938,542.0324938,542.0670996,542.0835826,None,up,542.0835826,None,542.0835826,543.3146564,0.3691968,None,2.2489677,,,,,,,,,47,1,2020_Jan_03_1559,untitled,3.1.0,60.04628368
423,_4,N,270,L,N,423_4N270LN,HLN,0,159,159,270,,,0.74,544.5170928,544.813584,544.813584,545.0462811,545.0634085,None,down,545.0634085,None,545.0634085,545.7958514,0.1728066,None,2.6155603,,,,,,,,,47,1,2020_Jan_03_1559,untitled,3.1.0,60.04628368
_,_4,N,45,_,_,__4N045__,N,0,160,160,81,,,1.352,547.8691418,548.1604767,548.1604767,548.3939028,548.410202,None,up,548.410202,None,548.410202,549.7425151,0.1790297,None,2.149231,,,,,,,,,47,1,2020_Jan_03_1559,untitled,3.1.0,60.04628368
269,_2,M,180,R,N,269_2M180RN,HRN,0,161,161,148,,,0.944,550.7452067,551.0420906,551.0420906,551.2754211,551.294848,None,down,551.294848,None,551.294848,552.2241054,0.1733255,None,2.9298987,,,,,,,,,47,1,2020_Jan_03_1559,untitled,3.1.0,60.04628368
_,_2,N,315,_,_,__2N315__,N,0,162,162,79,,,1.25,554.4819016,554.7719266,554.7719266,554.9382299,554.956258,None,up,554.956258,None,554.956258,556.1867259,0.2409511,None,2.3813992,,,,,,,,,47,1,2020_Jan_03_1559,untitled,3.1.0,60.04628368
237,G,M,180,L,N,237GM180LN,HLN,0,163,163,140,,,0.989,557.5044233,557.8017838,557.8017838,558.0527675,558.0682787,None,up,558.0682787,None,558.0682787,559.050606,0.1531145,None,2.2328359,,,,,,,,,47,1,2020_Jan_03_1559,untitled,3.1.0,60.04628368
426,_4,M,45,L,N,426_4M045LN,HLN,0,164,164,169,,,0.865,560.4923868,560.7831915,560.7831915,561.0159006,561.0323933,None,down,561.0323933,None,561.0323933,561.8815151,0.1794981,None,1.8162735,,,,,,,,,47,1,2020_Jan_03_1559,untitled,3.1.0,60.04628368
48,R,M,315,L,N,048RM315LN,HLN,0,165,165,111,,,1.194,563.0519659,563.3470447,563.3470447,563.5635167,563.5803043,None,down,563.5803043,None,563.5803043,564.7626671,0.1898251,None,2.0996226,,,,,,,,,47,1,2020_Jan_03_1559,untitled,3.1.0,60.04628368
_,F,M,270,_,_,_FM270__,N,0,166,166,6,,,1.007,565.8796258,566.1784098,566.1784098,566.3950136,566.4120094,None,down,566.4120094,None,566.4120094,567.4103022,0.1876512,None,1.8824769,,,,,,,,,47,1,2020_Jan_03_1559,untitled,3.1.0,60.04628368
_,F,M,315,_,_,_FM315__,N,0,167,167,7,,,1.342,568.5273169,568.825582,568.825582,569.0088354,569.0259702,None,down,569.0259702,None,569.0259702,570.3579509,0.2144274,None,2.2827453,,,,,,,,,47,1,2020_Jan_03_1559,untitled,3.1.0,60.04628368
134,F,N,225,R,N,134FN225RN,HRN,0,168,168,213,,,0.934,571.5735018,571.8729626,571.8729626,572.0231095,572.0397162,None,up,572.0397162,None,572.0397162,572.9580734,0.248611,None,1.9172043,,,,,,,,,47,1,2020_Jan_03_1559,untitled,3.1.0,60.04628368
_,R,M,270,_,_,_RM270__,N,0,169,169,22,,,1.002,574.1592419,574.4542831,574.4542831,574.6703952,574.6872017,None,down,574.6872017,None,574.6872017,575.6695971,0.1900926,None,1.6834432,,,,,,,,,47,1,2020_Jan_03_1559,untitled,3.1.0,60.04628368
9,R,M,0,R,N,009RM000RN,HRN,0,170,170,96,,,1.26,576.562286,576.8519192,576.8519192,577.0849617,577.1021915,None,down,577.1021915,None,577.1021915,578.3513139,0.1789796,None,1.9336837,,,,,,,,,47,1,2020_Jan_03_1559,untitled,3.1.0,60.04628368
44,R,M,135,L,N,044RM135LN,HLN,0,171,171,107,,,1.102,579.2511009,579.5495742,579.5495742,579.7493327,579.7666973,None,up,579.7666973,None,579.7666973,580.8484862,0.2029789,None,2.248933,,,,,,,,,47,1,2020_Jan_03_1559,untitled,3.1.0,60.04628368
_,F,M,90,_,_,_FM090__,N,0,172,172,2,,,1.264,582.2320261,582.5303739,582.5303739,582.7308274,582.7474951,None,down,582.7474951,None,582.7474951,583.9955743,0.2030915,None,2.8326724,,,,,,,,,47,1,2020_Jan_03_1559,untitled,3.1.0,60.04628368
258,_2,N,45,R,N,258_2N045RN,HRN,0,173,173,241,,,1.094,585.8346541,586.1297568,586.1297568,586.2937278,586.3104749,None,up,586.3104749,None,586.3104749,587.3923713,0.2406066,None,2.636708,,,,,,,,,47,1,2020_Jan_03_1559,untitled,3.1.0,60.04628368
482,_5,N,45,L,N,482_5N045LN,HLN,0,174,174,281,,,1.184,589.196576,589.4910306,589.4910306,589.674196,589.674196,None,down,589.674196,None,589.674196,590.856517,0.2322594,None,2.6326812,,,,,,,,,47,1,2020_Jan_03_1559,untitled,3.1.0,60.04628368
257,_2,N,0,R,N,257_2N000RN,HRN,0,175,175,240,,,1.354,592.5073947,592.8047906,592.8047906,593.0212557,593.0380647,None,up,593.0380647,None,593.0380647,594.3867103,0.1880094,None,2.5154602,,,,,,,,,47,1,2020_Jan_03_1559,untitled,3.1.0,60.04628368
481,_5,N,0,L,N,481_5N000LN,HLN,0,176,176,280,,,1.185,595.7501666,596.0519833,596.0519833,596.2682418,596.2852184,None,up,596.2852184,None,596.2852184,597.4504939,0.1839967,None,2.1821058,,,,,,,,,47,1,2020_Jan_03_1559,untitled,3.1.0,60.04628368
295,_2,N,270,L,N,295_2N270LN,HLN,0,177,177,254,,,1.33,598.6535145,598.9492235,598.9492235,599.1828576,599.1996365,None,up,599.1996365,None,599.1996365,600.5150298,0.1748597,None,2.0995154,,,,,,,,,47,1,2020_Jan_03_1559,untitled,3.1.0,60.04628368
_,G,N,0,_,_,_GN000__,N,0,178,178,56,,,0.829,601.5525635,601.8468317,601.8468317,602.0133757,602.0300445,None,down,602.0300445,None,602.0300445,602.8456453,0.2379384,None,1.8522753,,,,,,,,,47,1,2020_Jan_03_1559,untitled,3.1.0,60.04628368
_,_2,N,225,_,_,__2N225__,N,0,179,179,77,,,1.004,604.1862897,604.4780027,604.4780027,604.6111683,604.6111683,None,up,604.6111683,None,604.6111683,605.610054,0.2831233,None,1.8661939,,,,,,,,,47,1,2020_Jan_03_1559,untitled,3.1.0,60.04628368
_,_2,N,45,_,_,__2N045__,N,0,180,180,73,,,1.372,606.6598179,606.958981,606.958981,607.1920283,607.2086937,None,up,607.2086937,None,607.2086937,608.574295,0.1700848,None,2.1838528,,,,,,,,,47,1,2020_Jan_03_1559,untitled,3.1.0,60.04628368
459,_5,M,90,R,N,459_5M090RN,HRN,0,181,181,178,,,0.9,609.6142557,609.9065338,609.9065338,610.1067373,610.1229115,None,down,610.1229115,None,610.1229115,611.0054699,0.2091754,None,2.4167334,,,,,,,,,47,1,2020_Jan_03_1559,untitled,3.1.0,60.04628368
495,_5,M,270,L,N,495_5M270LN,HLN,0,182,182,190,,,1.259,612.752107,613.0538815,613.0538815,613.2553823,613.2719063,None,None,613.2719063,None,613.2719063,614.5190934,0.1994237,None,,,,,,,,,,47,1,2020_Jan_03_1559,untitled,3.1.0,60.04628368
233,G,M,0,L,N,233GM000LN,HLN,0,183,183,136,,,0.982,616.9705136,617.2671087,617.2671087,617.45013,617.4671214,616.9705136,down,617.4671214,None,617.4671214,618.4324411,0.2183953,None,3.0314355,,,,,,,,,47,1,2020_Jan_03_1559,untitled,3.1.0,60.04628368
_,R,N,270,_,_,_RN270__,N,0,184,184,70,,,1.016,620.7128556,621.0133143,621.0133143,621.2133012,621.2298975,None,up,621.2298975,None,621.2298975,622.2289514,0.2022077,None,2.1008685,,,,,,,,,47,1,2020_Jan_03_1559,untitled,3.1.0,60.04628368
386,_4,N,45,R,N,386_4N045RN,HRN,0,185,185,257,,,1.015,623.5285873,623.8277401,623.8277401,624.0440424,624.060809,None,up,624.060809,None,624.060809,625.0600977,0.1856213,None,1.7832759,,,,,,,,,47,1,2020_Jan_03_1559,untitled,3.1.0,60.04628368
387,_4,N,90,R,N,387_4N090RN,HRN,0,186,186,258,,,1.254,626.0496178,626.3421858,626.3421858,626.5586959,626.5751692,None,up,626.5751692,None,626.5751692,627.8239262,0.1927703,None,1.9830412,,,,,,,,,47,1,2020_Jan_03_1559,untitled,3.1.0,60.04628368
13,R,M,180,R,N,013RM180RN,HRN,0,187,187,100,,,1.274,628.8013871,629.1048229,629.1048229,629.2729889,629.2898317,None,up,629.2898317,None,629.2898317,630.5557537,0.2299971,None,3.2158607,,,,,,,,,47,1,2020_Jan_03_1559,untitled,3.1.0,60.04628368
203,G,M,90,R,N,203GM090RN,HRN,0,188,188,130,,,1.273,632.7258856,633.0197007,633.0197007,633.219699,633.2365972,None,None,633.2365972,None,633.2365972,634.5015403,0.2053118,None,,,,,,,,,,47,1,2020_Jan_03_1559,untitled,3.1.0,60.04628368
_,F,M,0,_,_,_FM000__,N,0,189,189,0,,,1.054,636.8753967,637.1659598,637.1659598,637.4156906,637.4323057,636.8753967,down,637.4323057,None,637.4323057,638.4649379,0.1654676,None,1.9829547,,,,,,,,,47,1,2020_Jan_03_1559,untitled,3.1.0,60.04628368
226,G,N,45,L,N,226GN045LN,HLN,0,190,190,233,,,1.06,639.7267382,640.0150805,640.0150805,640.1298768,640.1466944,None,up,640.1466944,None,640.1466944,641.1959955,0.2969886,None,2.4317341,,,,,,,,,47,1,2020_Jan_03_1559,untitled,3.1.0,60.04628368
_,_4,N,90,_,_,__4N090__,N,0,191,191,82,,,1.255,642.7892521,643.0774306,643.0774306,643.2939635,643.3105441,None,up,643.3105441,None,643.3105441,644.5427327,0.1975628,None,2.7163664,,,,,,,,,47,1,2020_Jan_03_1559,untitled,3.1.0,60.04628368
132,F,N,135,R,N,132FN135RN,HRN,0,192,192,211,,,1.048,646.2844071,646.5743873,646.5743873,646.7414836,646.758964,None,up,646.758964,None,646.758964,647.790725,0.2443763,None,3.1145997,,,,,,,,,47,1,2020_Jan_03_1559,untitled,3.1.0,60.04628368
198,G,N,225,R,N,198GN225RN,HRN,0,193,193,229,,,1.223,650.1531402,650.4559059,650.4559059,650.588309,650.6069891,None,up,650.6069891,None,650.6069891,651.8200949,0.2659629,None,3.0629205,,,,,,,,,47,1,2020_Jan_03_1559,untitled,3.1.0,60.04628368
418,_4,N,45,L,N,418_4N045LN,HLN,0,194,194,265,,,0.978,653.8701011,654.1678035,654.1678035,654.3844162,654.4009416,None,up,654.4009416,None,654.4009416,655.3667045,0.1876406,None,1.8675313,,,,,,,,,47,1,2020_Jan_03_1559,untitled,3.1.0,60.04628368
42,R,M,45,L,N,042RM045LN,HLN,0,195,195,105,,,0.772,656.4867031,656.7822894,656.7822894,656.9852565,657.000132,None,down,657.000132,None,657.000132,657.765425,0.2057701,None,1.748399,,,,,,,,,47,1,2020_Jan_03_1559,untitled,3.1.0,60.04628368
16,R,M,315,R,N,016RM315RN,HRN,0,196,196,103,,,0.703,658.9523104,659.2467102,659.2467102,659.4634765,659.4798602,None,down,659.4798602,None,659.4798602,660.1625267,0.1889885,None,1.4832171,,,,,,,,,47,1,2020_Jan_03_1559,untitled,3.1.0,60.04628368
292,_2,N,135,L,N,292_2N135LN,HLN,0,197,197,251,,,1.186,661.1559285,661.4446677,661.4446677,661.6794688,661.6949352,None,up,661.6949352,None,661.6949352,662.8604009,0.1792002,None,2.0817014,,,,,,,,,47,1,2020_Jan_03_1559,untitled,3.1.0,60.04628368
12,R,M,135,R,N,012RM135RN,HRN,0,198,198,99,,,0.956,665.0012552,665.2914121,665.2914121,665.491167,665.5080681,None,down,665.5080681,None,665.5080681,666.458499,0.2093369,None,2.816063,,,,,,,,,47,1,2020_Jan_03_1559,untitled,3.1.0,60.04628368
2,R,N,45,R,N,002RN045RN,HRN,0,199,199,193,,,1.309,668.5215801,668.8216629,668.8216629,669.0380999,669.0549236,None,up,669.0549236,None,669.0549236,670.3541149,0.1845859,None,2.4824042,,,,,,,,,47,1,2020_Jan_03_1559,untitled,3.1.0,60.04628368
163,F,N,90,L,N,163FN090LN,HLN,0,200,200,218,,,1.298,671.8391991,672.1353688,672.1353688,672.2521095,672.2688194,None,up,672.2688194,None,672.2688194,673.5511082,0.2893678,None,2.1497107,,,,,,,,,47,1,2020_Jan_03_1559,untitled,3.1.0,60.04628368
227,G,N,90,L,N,227GN090LN,HLN,0,201,201,234,,,0.72,674.6468944,674.9344599,674.9344599,675.1329047,675.1495662,None,up,675.1495662,None,675.1495662,675.8495687,0.2147727,None,1.5831379,,,,,,,,,47,1,2020_Jan_03_1559,untitled,3.1.0,60.04628368
394,_4,M,45,R,N,394_4M045RN,HRN,0,202,202,161,,,0.764,676.9283848,677.2161,677.2161,677.4475469,677.4650226,None,down,677.4650226,None,677.4650226,678.2138965,0.182158,None,1.6508049,,,,,,,,,47,1,2020_Jan_03_1559,untitled,3.1.0,60.04628368
_,_4,N,315,_,_,__4N315__,N,0,203,203,87,,,0.928,679.3548388,679.6459568,679.6459568,679.828857,679.8454158,None,up,679.8454158,None,679.8454158,680.7618506,0.2248611,None,1.7867773,,,,,,,,,47,1,2020_Jan_03_1559,untitled,3.1.0,60.04628368
464,_5,M,315,R,N,464_5M315RN,HRN,0,204,204,183,,,0.96,682.0730349,682.0730349,682.0730349,682.374812,682.374812,None,down,682.374812,None,682.374812,683.3092308,0.4213198,None,1.9346964,,,,,,,,,47,1,2020_Jan_03_1559,untitled,3.1.0,60.04628368
174,F,M,225,L,N,174FM225LN,HLN,0,205,205,125,,,0.989,684.4955996,684.7912373,684.7912373,685.0243325,685.0408171,None,up,685.0408171,None,685.0408171,686.0232589,0.1730554,None,2.0327882,,,,,,,,,47,1,2020_Jan_03_1559,untitled,3.1.0,60.04628368
162,F,N,45,L,N,162FN045LN,HLN,0,206,206,217,,,1.023,687.2642976,687.5552677,687.5552677,687.7883901,687.805149,None,up,687.805149,None,687.805149,688.820673,0.1782664,None,2.399517,,,,,,,,,47,1,2020_Jan_03_1559,untitled,3.1.0,60.04628368
207,G,M,270,R,N,207GM270RN,HRN,0,207,207,134,,,0.942,690.397348,690.6865411,690.6865411,690.9191022,690.9357143,None,down,690.9357143,None,690.9357143,691.8684464,0.1799373,None,2.2661778,,,,,,,,,47,1,2020_Jan_03_1559,untitled,3.1.0,60.04628368
_,F,M,180,_,_,_FM180__,N,0,208,208,4,,,1.283,693.4196515,693.7166888,693.7166888,693.9167103,693.933145,None,None,693.933145,None,693.933145,695.1985807,0.2045098,None,,,,,,,,,,47,1,2020_Jan_03_1559,untitled,3.1.0,60.04628368
_,G,M,315,_,_,_GM315__,N,0,209,209,15,,,0.97,697.6644123,697.9632917,697.9632917,698.1140275,698.1304067,697.6644123,down,698.1304067,None,698.1304067,699.0950742,0.2521194,None,3.114333,,,,,,,,,47,1,2020_Jan_03_1559,untitled,3.1.0,60.04628368
205,G,M,180,R,N,205GM180RN,HRN,0,210,210,132,,,0.933,701.4429241,701.743071,701.743071,701.9596073,701.9760714,None,down,701.9760714,None,701.9760714,702.891982,0.1857038,None,2.2159615,,,,,,,,,47,1,2020_Jan_03_1559,untitled,3.1.0,60.04628368
268,_2,M,135,R,N,268_2M135RN,HRN,0,211,211,147,,,0.756,704.3866396,704.6746454,704.6746454,704.9068722,704.9237747,None,None,704.9237747,None,704.9237747,705.6727707,0.1808133,None,,,,,,,,,,47,1,2020_Jan_03_1559,untitled,3.1.0,60.04628368
_,G,N,135,_,_,_GN135__,N,0,212,212,59,,,0.914,708.6090312,708.9035936,708.9035936,709.1032947,709.1200434,708.6090312,up,709.1200434,None,709.1200434,710.0194886,0.2083042,None,1.9827688,,,,,,,,,47,1,2020_Jan_03_1559,untitled,3.1.0,60.04628368
_,_5,M,180,_,_,__5M180__,N,0,213,213,44,,,0.769,711.4104877,711.701308,711.701308,711.817672,711.8344595,None,up,711.8344595,None,711.8344595,712.5834407,0.2932549,None,2.8317505,,,,,,,,,47,1,2020_Jan_03_1559,untitled,3.1.0,60.04628368
261,_2,N,180,R,N,261_2N180RN,HRN,0,214,214,244,,,1.396,714.844415,715.1461098,715.1461098,715.3810815,715.3980857,None,up,715.3980857,None,715.3980857,716.7799353,0.1665286,None,2.5482943,,,,,,,,,47,1,2020_Jan_03_1559,untitled,3.1.0,60.04628368
_,_4,M,270,_,_,__4M270__,N,0,215,215,38,,,0.979,718.13779,718.4283711,718.4283711,718.6614601,718.6780909,None,down,718.6780909,None,718.6780909,719.6440696,0.1789523,None,2.7342404,,,,,,,,,47,1,2020_Jan_03_1559,untitled,3.1.0,60.04628368
485,_5,N,180,L,N,485_5N180LN,HLN,0,216,216,284,,,1.076,721.6083884,721.9086571,721.9086571,722.1250546,722.1417445,None,up,722.1417445,None,722.1417445,723.207972,0.1831541,None,3.0666278,,,,,,,,,47,1,2020_Jan_03_1559,untitled,3.1.0,60.04628368
431,_4,M,270,L,N,431_4M270LN,HLN,0,217,217,174,,,0.978,725.4594292,725.7557179,725.7557179,725.9217484,725.9388479,None,down,725.9388479,None,725.9388479,726.9049905,0.2353809,None,2.8500456,,,,,,,,,47,1,2020_Jan_03_1559,untitled,3.1.0,60.04628368
206,G,M,225,R,N,206GM225RN,HRN,0,218,218,133,,,1.375,729.0857138,729.3853594,729.3853594,729.5228104,729.5228104,None,down,729.5228104,None,729.5228104,730.8842506,0.2785397,None,2.8792571,,,,,,,,,47,1,2020_Jan_03_1559,untitled,3.1.0,60.04628368
389,_4,N,180,R,N,389_4N180RN,HRN,0,219,219,260,,,1.383,732.5918486,732.8822824,732.8822824,733.1155928,733.1322019,None,up,733.1322019,None,733.1322019,734.4979346,0.1768445,None,2.7002259,,,,,,,,,47,1,2020_Jan_03_1559,untitled,3.1.0,60.04628368
176,F,M,315,L,N,176FM315LN,HLN,0,220,220,127,,,1.318,736.0664014,736.3629262,736.3629262,736.5457702,736.5625601,None,down,736.5625601,None,736.5625601,737.8620459,0.2197719,None,2.6488274,,,,,,,,,47,1,2020_Jan_03_1559,untitled,3.1.0,60.04628368
298,_2,M,45,L,N,298_2M045LN,HLN,0,221,221,153,,,0.861,739.4044771,739.6930387,739.6930387,739.9264077,739.9431083,None,None,739.9431083,None,739.9431083,740.792671,0.1800686,None,,,,,,,,,,47,1,2020_Jan_03_1559,untitled,3.1.0,60.04628368
234,G,M,45,L,N,234GM045LN,HLN,0,222,222,137,,,0.853,743.6208375,743.9226155,743.9226155,744.1246183,744.1437171,743.6208375,down,744.1437171,None,744.1437171,744.9750812,0.2002486,None,2.3961492,,,,,,,,,47,1,2020_Jan_03_1559,untitled,3.1.0,60.04628368
_,_4,N,0,_,_,__4N000__,N,0,223,223,80,,,0.97,746.7235591,747.0199527,747.0199527,747.2535007,747.2697628,None,up,747.2697628,None,747.2697628,748.2190318,0.1717475,None,2.1839033,,,,,,,,,47,1,2020_Jan_03_1559,untitled,3.1.0,60.04628368
144,F,M,315,R,N,144FM315RN,HRN,0,224,224,119,,,0.893,749.6572629,749.9507892,749.9507892,750.1671636,750.1839265,None,down,750.1839265,None,750.1839265,751.0665339,0.1901737,None,1.6519243,,,,,,,,,47,1,2020_Jan_03_1559,untitled,3.1.0,60.04628368
171,F,M,90,L,N,171FM090LN,HLN,0,225,225,122,,,0.915,752.0301453,752.3320791,752.3320791,752.5485969,752.5651613,None,down,752.5651613,None,752.5651613,753.4642977,0.1821481,None,1.7850421,,,,,,,,,47,1,2020_Jan_03_1559,untitled,3.1.0,60.04628368
302,_2,M,225,L,N,302_2M225LN,HLN,0,226,226,157,,,1.177,754.5444781,754.8464937,754.8464937,755.0630602,755.0800316,None,up,755.0800316,None,755.0800316,756.246082,0.1813315,None,2.6497583,,,,,,,,,47,1,2020_Jan_03_1559,untitled,3.1.0,60.04628368
231,G,N,270,L,N,231GN270LN,HLN,0,227,227,238,,,0.994,757.9540023,758.2437093,758.2437093,758.4440773,758.4614279,None,up,758.4614279,None,758.4614279,759.4425889,0.2105964,None,2.3478035,,,,,,,,,47,1,2020_Jan_03_1559,untitled,3.1.0,60.04628368
_,_4,N,135,_,_,__4N135__,N,0,228,228,83,,,1.016,761.0201005,761.3225313,761.3225313,761.5242069,761.541183,None,up,761.541183,None,761.541183,762.5398112,0.1978921,None,2.281928,,,,,,,,,47,1,2020_Jan_03_1559,untitled,3.1.0,60.04628368
262,_2,N,225,R,N,262_2N225RN,HRN,0,229,229,245,,,1.212,764.0081365,764.3048571,764.3048571,764.5381501,764.5547034,None,up,764.5547034,None,764.5547034,765.7538586,0.171774,None,2.7497357,,,,,,,,,47,1,2020_Jan_03_1559,untitled,3.1.0,60.04628368
454,_5,N,225,R,N,454_5N225RN,HRN,0,230,230,277,,,1.036,767.525363,767.818404,767.818404,768.0183649,768.0348912,None,up,768.0348912,None,768.0348912,769.0504808,0.2080767,None,2.5841018,,,,,,,,,47,1,2020_Jan_03_1559,untitled,3.1.0,60.04628368
208,G,M,315,R,N,208GM315RN,HRN,0,231,231,135,,,1.198,770.8034526,771.098997,771.098997,771.332453,771.3496172,None,down,771.3496172,None,771.3496172,772.5316069,0.1718628,None,2.0329783,,,,,,,,,47,1,2020_Jan_03_1559,untitled,3.1.0,60.04628368
175,F,M,270,L,N,175FM270LN,HLN,0,232,232,126,,,1.29,773.634594,773.9299424,773.9299424,774.0966591,774.113184,None,down,774.113184,None,774.113184,775.3954081,0.2366059,None,2.9319476,,,,,,,,,47,1,2020_Jan_03_1559,untitled,3.1.0,60.04628368
_,_5,M,45,_,_,__5M045__,N,0,233,233,41,,,0.936,777.2239602,777.5113107,777.5113107,777.7599026,777.7767651,None,up,777.7767651,None,777.7767651,778.6921917,0.1667333,None,2.6331827,,,,,,,,,47,1,2020_Jan_03_1559,untitled,3.1.0,60.04628368
424,_4,N,315,L,N,424_4N315LN,HLN,0,234,234,271,,,1.016,780.6122137,780.9072766,780.9072766,781.1235532,781.1402429,None,up,781.1402429,None,781.1402429,782.1398247,0.1901158,None,1.8177178,,,,,,,,,47,1,2020_Jan_03_1559,untitled,3.1.0,60.04628368
_,_2,M,180,_,_,__2M180__,N,0,235,235,28,,,0.812,783.2520377,783.5398409,783.5398409,783.671216,783.6882991,None,up,783.6882991,None,783.6882991,784.4878029,0.2810463,None,2.1989511,,,,,,,,,47,1,2020_Jan_03_1559,untitled,3.1.0,60.04628368
_,F,N,180,_,_,_FN180__,N,0,236,236,52,,,0.782,786.1047661,786.4021619,786.4021619,786.6032456,786.62042,None,up,786.62042,None,786.62042,787.3853486,0.2031938,None,2.116042,,,,,,,,,47,1,2020_Jan_03_1559,untitled,3.1.0,60.04628368
463,_5,M,270,R,N,463_5M270RN,HRN,0,237,237,182,,,1.218,788.9651424,789.2666284,789.2666284,789.4499327,789.4669742,None,down,789.4669742,None,789.4669742,790.6819723,0.2141378,None,2.4486406,,,,,,,,,47,1,2020_Jan_03_1559,untitled,3.1.0,60.04628368
_,G,M,45,_,_,_GM045__,N,0,238,238,9,,,0.81,792.2245713,792.5133579,792.5133579,792.6304689,792.6469541,None,down,792.6469541,None,792.6469541,793.4461053,0.2931736,None,3.0008288,,,,,,,,,47,1,2020_Jan_03_1559,untitled,3.1.0,60.04628368
259,_2,N,90,R,N,259_2N090RN,HRN,0,239,239,242,,,0.944,795.9213005,796.2122123,796.2122123,796.3602364,796.3770346,None,up,796.3770346,None,796.3770346,797.309744,0.2616174,None,2.4157414,,,,,,,,,47,1,2020_Jan_03_1559,untitled,3.1.0,60.04628368
_,_5,N,0,_,_,__5N000__,N,0,240,240,88,,,0.819,799.0030772,799.2922781,799.2922781,799.5075536,799.5245277,None,up,799.5245277,None,799.5245277,800.3237422,0.1975032,None,2.4834407,,,,,,,,,47,1,2020_Jan_03_1559,untitled,3.1.0,60.04628368
_,R,N,180,_,_,_RN180__,N,0,241,241,68,,,0.954,802.2854049,802.5863339,802.5863339,802.7218418,802.738781,None,down,802.738781,None,802.738781,803.68754,0.2646664,None,2.0333971,,,,,,,,,47,1,2020_Jan_03_1559,untitled,3.1.0,60.04628368
229,G,N,180,L,N,229GN180LN,HLN,0,242,242,236,,,1.357,805.021789,805.3192067,805.3192067,805.4860051,805.502944,None,up,805.502944,None,805.502944,806.8520623,0.2335474,None,2.2064627,,,,,,,,,47,1,2020_Jan_03_1559,untitled,3.1.0,60.04628368
129,F,N,0,R,N,129FN000RN,HRN,0,243,243,208,,,1.054,807.9965855,808.2833956,808.2833956,808.4331085,808.4496661,None,up,808.4496661,None,808.4496661,809.4822741,0.2693055,None,1.7665335,,,,,,,,,47,1,2020_Jan_03_1559,untitled,3.1.0,60.04628368
456,_5,N,315,R,N,456_5N315RN,HRN,0,244,244,279,,,1.08,810.5176253,810.8147731,810.8147731,810.9314508,810.948743,None,up,810.948743,None,810.948743,812.0135976,0.2859784,None,2.4809971,,,,,,,,,47,1,2020_Jan_03_1559,untitled,3.1.0,60.04628368
430,_4,M,225,L,N,430_4M225LN,HLN,0,245,245,173,,,1.241,813.6173831,813.9116149,813.9116149,814.1448479,814.1613693,None,up,814.1613693,None,814.1613693,815.3944591,0.1737397,None,2.2509536,,,,,,,,,47,1,2020_Jan_03_1559,untitled,3.1.0,60.04628368
486,_5,N,225,L,N,486_5N225LN,HLN,0,246,246,285,,,1.139,816.6427487,816.942377,816.942377,817.1254213,817.1422033,None,up,817.1422033,None,817.1422033,818.2747619,0.2159154,None,2.0012172,,,,,,,,,47,1,2020_Jan_03_1559,untitled,3.1.0,60.04628368
_,_4,M,90,_,_,__4M090__,N,0,247,247,34,,,0.964,819.3836797,819.6739655,819.6739655,819.8567415,819.8738736,None,down,819.8738736,None,819.8738736,820.8220823,0.2264771,None,2.6493207,,,,,,,,,47,1,2020_Jan_03_1559,untitled,3.1.0,60.04628368
400,_4,M,315,R,N,400_4M315RN,HRN,0,248,248,167,,,1.117,822.8226008,823.1400938,823.1400938,823.2373652,823.25449,None,down,823.25449,None,823.25449,824.3688505,0.2798629,None,2.0502419,,,,,,,,,47,1,2020_Jan_03_1559,untitled,3.1.0,60.04628368
_,_2,M,135,_,_,__2M135__,N,0,249,249,27,,,1.135,825.5227061,825.8179018,825.8179018,826.0344754,826.0344754,None,down,826.0344754,None,826.0344754,827.1666809,0.1991167,None,3.2658405,,,,,,,,,47,1,2020_Jan_03_1559,untitled,3.1.0,60.04628368
493,_5,M,180,L,N,493_5M180LN,HLN,0,250,250,188,,,1.364,829.4986132,829.7978516,829.7978516,830.0141914,830.0308017,None,None,830.0308017,None,830.0308017,831.379736,0.1850091,None,,,,,,,,,,47,1,2020_Jan_03_1559,untitled,3.1.0,60.04628368
458,_5,M,45,R,N,458_5M045RN,HRN,0,251,251,177,,,1.078,833.679475,833.9775159,833.9775159,834.2115018,834.2280605,833.679475,down,834.2280605,None,834.2280605,835.2936641,0.1710151,None,3.2475283,,,,,,,,,47,1,2020_Jan_03_1559,untitled,3.1.0,60.04628368
3,R,N,90,R,N,003RN090RN,HRN,0,252,252,194,,,0.712,837.7209625,838.0090981,838.0090981,838.1912257,838.2086355,None,up,838.2086355,None,838.2086355,838.9080496,0.2307523,None,2.6973061,,,,,,,,,47,1,2020_Jan_03_1559,untitled,3.1.0,60.04628368
194,G,N,45,R,N,194GN045RN,HRN,0,253,253,225,,,1.277,841.0876067,841.3879442,841.3879442,841.6207492,841.6373918,None,up,841.6373918,None,841.6373918,842.9036062,0.1693783,None,2.216285,,,,,,,,,47,1,2020_Jan_03_1559,untitled,3.1.0,60.04628368
_,F,N,135,_,_,_FN135__,N,0,254,254,51,,,0.722,844.146086,844.4350674,844.4350674,844.5687196,844.5849549,None,down,844.5849549,None,844.5849549,845.3013316,0.2796624,None,1.9011896,,,,,,,,,47,1,2020_Jan_03_1559,untitled,3.1.0,60.04628368
135,F,N,270,R,N,135FN270RN,HRN,0,255,255,214,,,1.267,846.8060799,847.0996793,847.0996793,847.1995937,847.2160167,None,up,847.2160167,None,847.2160167,848.4648883,0.3053119,None,1.9662375,,,,,,,,,47,1,2020_Jan_03_1559,untitled,3.1.0,60.04628368
_,G,M,0,_,_,_GM000__,N,0,256,256,8,,,1.343,849.4471158,849.7472999,849.7472999,849.8970394,849.9135288,None,down,849.9135288,None,849.9135288,851.2460543,0.2492563,None,3.148834,,,,,,,,,47,1,2020_Jan_03_1559,untitled,3.1.0,60.04628368
_,F,M,135,_,_,_FM135__,N,0,257,257,3,,,0.886,853.2933453,853.5938072,853.5938072,853.7771298,853.7934399,None,down,853.7934399,None,853.7934399,854.6603349,0.2162458,None,2.5329441,,,,,,,,,47,1,2020_Jan_03_1559,untitled,3.1.0,60.04628368
271,_2,M,270,R,N,271_2M270RN,HRN,0,258,258,150,,,1.093,856.7375116,857.0255501,857.0255501,857.2407313,857.2570201,None,down,857.2570201,None,857.2570201,858.3395562,0.1984769,None,2.5824352,,,,,,,,,47,1,2020_Jan_03_1559,untitled,3.1.0,60.04628368
_,F,M,225,_,_,_FM225__,N,0,259,259,5,,,0.778,860.1216616,860.4214587,860.4214587,860.5544993,860.5718966,None,None,860.5718966,None,860.5718966,861.3368865,0.2695649,None,,,,,,,,,,47,1,2020_Jan_03_1559,untitled,3.1.0,60.04628368
399,_4,M,270,R,N,399_4M270RN,HRN,0,260,260,166,,,1.111,864.254422,864.5507949,864.5507949,864.7506615,864.7676395,864.254422,down,864.7676395,None,864.7676395,865.8667939,0.2064265,None,2.1494305,,,,,,,,,47,1,2020_Jan_03_1559,untitled,3.1.0,60.04628368
_,_2,N,135,_,_,__2N135__,N,0,261,261,75,,,1.261,867.1565504,867.4483569,867.4483569,867.6320701,867.6482315,None,up,867.6482315,None,867.6482315,868.8969676,0.224789,None,2.3020055,,,,,,,,,47,1,2020_Jan_03_1559,untitled,3.1.0,60.04628368
_,F,N,315,_,_,_FN315__,N,0,262,262,55,,,0.713,870.3538075,870.6352205,870.6459444,870.6787832,870.6787832,None,up,870.6787832,None,870.6787832,871.3781136,0.3855541,None,1.9011652,,,,,,,,,47,1,2020_Jan_03_1559,untitled,3.1.0,60.04628368
173,F,M,180,L,N,173FM180LN,HLN,0,263,263,124,,,0.856,872.7918736,873.093457,873.093457,873.2931986,873.3097524,None,up,873.3097524,None,873.3097524,874.1592928,0.1977617,None,1.8664962,,,,,,,,,47,1,2020_Jan_03_1559,untitled,3.1.0,60.04628368
_,R,M,225,_,_,_RM225__,N,0,264,264,21,,,0.993,875.3686398,875.6581956,875.6581956,875.8907333,875.9074942,None,down,875.9074942,None,875.9074942,876.8901018,0.1801788,None,2.2160924,,,,,,,,,47,1,2020_Jan_03_1559,untitled,3.1.0,60.04628368
265,_2,M,0,R,N,265_2M000RN,HRN,0,265,265,144,,,0.829,878.3333524,878.6223655,878.6223655,878.838286,878.8550835,None,down,878.8550835,None,878.8550835,879.671736,0.1964462,None,1.8835354,,,,,,,,,47,1,2020_Jan_03_1559,untitled,3.1.0,60.04628368
_,_4,M,180,_,_,__4M180__,N,0,266,266,36,,,1.256,880.9590135,881.2532593,881.2532593,881.4528405,881.4701484,None,None,881.4701484,None,881.4701484,882.7183578,0.2075258,None,,,,,,,,,,47,1,2020_Jan_03_1559,untitled,3.1.0,60.04628368
_,R,N,90,_,_,_RN090__,N,0,267,267,66,,,1.075,885.2164081,885.5163927,885.5163927,885.6491504,885.6667517,885.2164081,up,885.6667517,None,885.6667517,886.7319035,0.2681002,None,2.4478031,,,,,,,,,47,1,2020_Jan_03_1559,untitled,3.1.0,60.04628368
39,R,N,270,L,N,039RN270LN,HLN,0,268,268,206,,,1.281,888.370603,888.6629807,888.6629807,888.8296379,888.8461255,None,up,888.8461255,None,888.8461255,890.1119794,0.2441811,None,1.8990469,,,,,,,,,47,1,2020_Jan_03_1559,untitled,3.1.0,60.04628368
267,_2,M,90,R,N,267_2M090RN,HRN,0,269,269,146,,,0.84,890.9560302,891.2457253,891.2457253,891.4604272,891.4772124,None,down,891.4772124,None,891.4772124,892.3097788,0.1979297,None,2.1668496,,,,,,,,,47,1,2020_Jan_03_1559,untitled,3.1.0,60.04628368
_,_4,N,270,_,_,__4N270__,N,0,270,270,86,,,0.954,893.8532263,894.1427421,894.1427421,894.3580806,894.3762556,None,up,894.3762556,None,894.3762556,895.3076061,0.1974518,None,2.9137443,,,,,,,,,47,1,2020_Jan_03_1559,untitled,3.1.0,60.04628368
300,_2,M,135,L,N,300_2M135LN,HLN,0,271,271,155,,,0.827,897.4909539,897.788422,897.788422,898.005434,898.0225514,None,down,898.0225514,None,898.0225514,898.8379729,0.1874051,None,2.0661404,,,,,,,,,47,1,2020_Jan_03_1559,untitled,3.1.0,60.04628368
238,G,M,225,L,N,238GM225LN,HLN,0,272,272,141,,,1.281,900.4094593,900.7028445,900.7028445,900.9051457,900.924265,None,up,900.924265,None,900.924265,902.185409,0.2072811,None,3.0618775,,,,,,,,,47,1,2020_Jan_03_1559,untitled,3.1.0,60.04628368
172,F,M,135,L,N,172FM135LN,HLN,0,273,273,123,,,1.022,904.2056631,904.4992861,904.4992861,904.6989541,904.7156482,None,down,904.7156482,None,904.7156482,905.7319656,0.2074189,None,2.1993485,,,,,,,,,47,1,2020_Jan_03_1559,untitled,3.1.0,60.04628368
33,R,N,0,L,N,033RN000LN,HLN,0,274,274,200,,,0.703,907.3435951,907.6463977,907.6463977,907.7298335,907.7466106,None,up,907.7466106,None,907.7466106,908.4292438,0.3159712,None,1.6829047,,,,,,,,,47,1,2020_Jan_03_1559,untitled,3.1.0,60.04628368
166,F,N,225,L,N,166FN225LN,HLN,0,275,275,221,,,1.336,909.6239006,909.9130091,909.9130091,910.1442421,910.1609093,None,up,910.1609093,None,910.1609093,911.4765178,0.1821968,None,3.2484858,,,,,,,,,47,1,2020_Jan_03_1559,untitled,3.1.0,60.04628368
388,_4,N,135,R,N,388_4N135RN,HRN,0,276,276,259,,,1.156,913.6296448,913.9245355,913.9245355,914.1243975,914.1411139,None,up,914.1411139,None,914.1411139,915.2899193,0.2038526,None,2.2027906,,,,,,,,,47,1,2020_Jan_03_1559,untitled,3.1.0,60.04628368
449,_5,N,0,R,N,449_5N000RN,HRN,0,277,277,272,,,1.03,916.9339191,917.2240374,917.2240374,917.3738737,917.3738737,None,up,917.3738737,None,917.3738737,918.4036832,0.2696618,None,1.7305169,,,,,,,,,47,1,2020_Jan_03_1559,untitled,3.1.0,60.04628368
_,_5,M,270,_,_,__5M270__,N,0,278,278,46,,,1.135,919.3522723,919.6524797,919.6524797,919.8191457,919.8360864,None,down,919.8360864,None,919.8360864,920.9518948,0.2348222,None,2.4172432,,,,,,,,,47,1,2020_Jan_03_1559,untitled,3.1.0,60.04628368
301,_2,M,180,L,N,301_2M180LN,HLN,0,279,279,156,,,0.757,922.4547094,922.7500082,922.7500082,922.9664857,922.9835147,None,up,922.9835147,None,922.9835147,923.7325279,0.1895589,None,2.8174535,,,,,,,,,47,1,2020_Jan_03_1559,untitled,3.1.0,60.04628368
_,R,N,225,_,_,_RN225__,N,0,280,280,69,,,1.326,926.0212928,926.3136446,926.3136446,926.5134549,926.5301585,None,None,926.5301585,None,926.5301585,927.8457671,0.2076832,None,,,,,,,,,,47,1,2020_Jan_03_1559,untitled,3.1.0,60.04628368
4,R,N,135,R,N,004RN135RN,HRN,0,281,281,195,,,0.825,930.2307182,930.5266347,930.5266347,930.726569,930.7434209,930.2307182,down,930.7434209,None,930.7434209,931.5593848,0.2081356,None,1.720158,,,,,,,,,47,1,2020_Jan_03_1559,untitled,3.1.0,60.04628368
200,G,N,315,R,N,200GN315RN,HRN,0,282,282,231,,,1.282,932.7882273,933.0892322,933.0892322,933.1909684,933.2074217,None,up,933.2074217,None,933.2074217,934.4730681,0.3006586,None,2.0168165,,,,,,,,,47,1,2020_Jan_03_1559,untitled,3.1.0,60.04628368
_,_5,N,45,_,_,__5N045__,N,0,283,283,89,,,1.214,935.4573592,935.7559556,935.7559556,935.9385448,935.955329,None,up,935.955329,None,935.955329,937.1545552,0.2193592,None,2.4490166,,,,,,,,,47,1,2020_Jan_03_1559,untitled,3.1.0,60.04628368
_,_4,M,135,_,_,__4M135__,N,0,284,284,35,,,0.992,938.6254736,938.9191607,938.9191607,939.1192457,939.1356566,None,down,939.1356566,None,939.1356566,940.1179929,0.207908,None,3.0152195,,,,,,,,,47,1,2020_Jan_03_1559,untitled,3.1.0,60.04628368
297,_2,M,0,L,N,297_2M000LN,HLN,0,285,285,152,,,0.862,942.3543661,942.649122,942.649122,942.8656981,942.882966,None,down,942.882966,None,942.882966,943.7317046,0.1904025,None,2.249351,,,,,,,,,47,1,2020_Jan_03_1559,untitled,3.1.0,60.04628368
_,_4,M,0,_,_,__4M000__,N,0,286,286,32,,,1.33,945.3701143,945.6634132,945.6634132,945.847083,945.8635687,None,down,945.8635687,None,945.8635687,947.1786025,0.2229313,None,2.235441,,,,,,,,,47,1,2020_Jan_03_1559,untitled,3.1.0,60.04628368
40,R,N,315,L,N,040RN315LN,HLN,0,287,287,207,,,0.927,948.4053998,948.6954039,948.6954039,948.8108732,948.8285024,None,up,948.8285024,None,948.8285024,949.7432252,0.2906408,None,1.8016577,,,,,,,,,47,1,2020_Jan_03_1559,untitled,3.1.0,60.04628368
,,,,,,,,,,,,,,,,,,,,,,,,,,,,,950.6464289,None,976.7865767,None,1001.732762,None,1009.058555,None,,,,,,
