Number,Letter,type,Orientation,human,face_type,image,picture,trials.thisRepN,trials.thisTrialN,trials.thisN,trials.thisIndex,text.started,text.stopped,stimulus_duration,CROSS.started,CROSS.stopped,BLANK.started,BLANK.stopped,TEST.started,TEST.stopped,key_JUDGE.keys,key_JUDGE.rt,key_JUDGE.started,key_JUDGE.stopped,image_2.started,image_2.stopped,ISI.started,ISI.stopped,q1.started,q1.stopped,q2.started,q2.stopped,q3.started,q3.stopped,text_2.started,text_2.stopped,participant,session,date,expName,psychopyVersion,frameRate
_,_2,N,315,_,_,__2N315__,N,0,0,0,79,376.2726337,None,0.703,422.9803516,423.2672879,423.2672879,423.4819641,423.4986419,None,up,2.4173489,423.4986419,None,423.4986419,424.1812993,0.2047833,None,,,,,,,,,48,1,2020_Jan_03_1626,untitled,3.1.0,60.06922378
429,_4,M,180,L,N,429_4M180LN,HLN,0,1,1,172,,,1.049,426.2936547,426.5962931,426.5962931,426.7290604,426.7455207,None,up,2.565664,426.7455207,None,426.7455207,427.7783911,0.2655114,None,,,,,,,,,48,1,2020_Jan_03_1626,untitled,3.1.0,60.06922378
491,_5,M,90,L,N,491_5M090LN,HLN,0,2,2,186,,,0.82,429.4989055,429.7931084,429.7931084,430.026636,430.0436391,None,down,2.6655104,430.0436391,None,430.0436391,430.8427022,0.1752016,None,,,,,,,,,48,1,2020_Jan_03_1626,untitled,3.1.0,60.06922378
300,_2,M,135,L,N,300_2M135LN,HLN,0,3,3,155,,,1.192,432.8867368,433.1749276,433.1749276,433.4235313,433.4402081,None,down,3.0988502,433.4402081,None,433.4402081,434.6221023,0.1654979,None,,,,,,,,,48,1,2020_Jan_03_1626,untitled,3.1.0,60.06922378
203,G,M,90,R,N,203GM090RN,HRN,0,4,4,130,,,1.258,436.7846821,437.086669,437.086669,437.2532417,437.2698089,None,None,,437.2698089,None,437.2698089,438.5188655,0.2332833,None,,,,,,,,,48,1,2020_Jan_03_1626,untitled,3.1.0,60.06922378
_,_5,N,225,_,_,__5N225__,N,0,5,5,93,,,0.911,440.9205508,441.2162775,441.2162775,441.4494372,441.4664021,440.9205508,up,2.5011954,441.4664021,None,441.4664021,442.3651325,0.1768281,None,,,,,,,,,48,1,2020_Jan_03_1626,untitled,3.1.0,60.06922378
_,R,M,270,_,_,_RM270__,N,0,6,6,22,,,0.919,444.1558463,444.4483921,444.4483921,444.6798926,444.6970496,None,down,2.9817984,444.6970496,None,444.6970496,445.596303,0.1754652,None,,,,,,,,,48,1,2020_Jan_03_1626,untitled,3.1.0,60.06922378
390,_4,N,225,R,N,390_4N225RN,HRN,0,7,7,261,,,1.364,447.855987,448.1442926,448.1442926,448.3934467,448.4100134,None,up,2.8496338,448.4100134,None,448.4100134,449.7488019,0.1654335,None,,,,,,,,,48,1,2020_Jan_03_1626,untitled,3.1.0,60.06922378
_,_4,N,315,_,_,__4N315__,N,0,8,8,87,,,1.094,451.4402828,451.7405612,451.7405612,451.9735192,451.9902363,None,up,2.0831361,451.9902363,None,451.9902363,453.0723664,0.1686295,None,,,,,,,,,48,1,2020_Jan_03_1626,untitled,3.1.0,60.06922378
169,F,M,0,L,N,169FM000LN,HLN,0,9,9,120,,,1.205,454.2983883,454.5879561,454.5879561,454.7877164,454.8044939,None,down,2.7823686,454.8044939,None,454.8044939,456.0033227,0.2116258,None,,,,,,,,,48,1,2020_Jan_03_1626,untitled,3.1.0,60.06922378
492,_5,M,135,L,N,492_5M135LN,HLN,0,10,10,187,,,0.783,457.792672,458.0851879,458.0851879,458.3013465,458.3180778,None,down,2.2836297,458.3180778,None,458.3180778,459.0839635,0.1928015,None,,,,,,,,,48,1,2020_Jan_03_1626,untitled,3.1.0,60.06922378
176,F,M,315,L,N,176FM315LN,HLN,0,11,11,127,,,1.372,461.8363051,462.1317852,462.1317852,462.31467,462.3314821,None,None,,462.3314821,None,462.3314821,463.6965679,0.2195088,None,,,,,,,,,48,1,2020_Jan_03_1626,untitled,3.1.0,60.06922378
_,_4,M,45,_,_,__4M045__,N,0,12,12,33,,,1.138,466.0512191,466.3445951,466.3445951,466.5280999,466.5448728,466.0512191,down,0.1715372,466.5448728,None,466.5448728,None,0.2268305,None,,,,,,,,,48,1,2020_Jan_03_1626,untitled,3.1.0,60.06922378
135,F,N,270,R,N,135FN270RN,HRN,0,13,13,214,,,1.308,466.9505773,467.2435172,467.2435172,467.4435373,467.460142,None,up,2.3990353,467.460142,None,467.460142,468.7440611,0.2141428,None,,,,,,,,,48,1,2020_Jan_03_1626,untitled,3.1.0,60.06922378
458,_5,M,45,R,N,458_5M045RN,HRN,0,14,14,177,,,1.204,470.0708659,470.3591967,470.3591967,470.5739987,470.590944,None,down,2.6662202,470.590944,None,470.590944,471.7738174,0.1992204,None,,,,,,,,,48,1,2020_Jan_03_1626,untitled,3.1.0,60.06922378
299,_2,M,90,L,N,299_2M090LN,HLN,0,15,15,154,,,1.232,473.4590934,473.7545579,473.7545579,473.9709387,473.9878968,None,up,2.9151789,473.9878968,None,473.9878968,475.2033851,0.1900614,None,,,,,,,,,48,1,2020_Jan_03_1626,untitled,3.1.0,60.06922378
302,_2,M,225,L,N,302_2M225LN,HLN,0,16,16,157,,,1.032,477.1165552,477.418174,477.418174,477.6186871,477.6351686,None,None,,477.6351686,None,477.6351686,478.6500355,0.2002537,None,,,,,,,,,48,1,2020_Jan_03_1626,untitled,3.1.0,60.06922378
35,R,N,90,L,N,035RN090LN,HLN,0,17,17,202,,,0.747,481.3272962,481.6295201,481.6295201,481.814345,481.8310227,481.3272962,up,2.3501545,481.8310227,None,481.8310227,482.5634729,0.2160807,None,,,,,,,,,48,1,2020_Jan_03_1626,untitled,3.1.0,60.06922378
226,G,N,45,L,N,226GN045LN,HLN,0,18,18,233,,,0.755,484.3752844,484.6634706,484.6634706,484.8946857,484.9115806,None,up,1.9008082,484.9115806,None,484.9115806,485.6608455,0.1817064,None,,,,,,,,,48,1,2020_Jan_03_1626,untitled,3.1.0,60.06922378
41,R,M,0,L,N,041RM000LN,HLN,0,19,19,104,,,1.303,487.0397544,487.3275385,487.3275385,487.5262233,487.5426298,None,down,2.8153973,487.5426298,None,487.5426298,488.8253465,0.2143325,None,,,,,,,,,48,1,2020_Jan_03_1626,untitled,3.1.0,60.06922378
_,G,N,45,_,_,_GN045__,N,0,20,20,57,,,1.231,490.5634045,490.8563709,490.8563709,491.0728909,491.0895567,None,up,2.3830235,491.0895567,None,491.0895567,492.305483,0.1919407,None,,,,,,,,,48,1,2020_Jan_03_1626,untitled,3.1.0,60.06922378
_,G,N,90,_,_,_GN090__,N,0,21,21,58,,,0.882,493.705178,494.0036601,494.0036601,494.187041,494.2033298,None,up,2.3683317,494.2033298,None,494.2033298,495.0692247,0.2179548,None,,,,,,,,,48,1,2020_Jan_03_1626,untitled,3.1.0,60.06922378
_,R,N,90,_,_,_RN090__,N,0,22,22,66,,,0.722,496.8485626,497.1508828,497.1508828,497.3005439,497.3005439,None,up,1.9661595,497.3005439,None,497.3005439,498.0173697,0.2601667,None,,,,,,,,,48,1,2020_Jan_03_1626,untitled,3.1.0,60.06922378
139,F,M,90,R,N,139FM090RN,HRN,0,23,23,114,,,1.176,499.4834694,499.7818786,499.7818786,499.9819771,499.9982624,None,None,,499.9982624,None,499.9982624,501.1638964,0.2041465,None,,,,,,,,,48,1,2020_Jan_03_1626,untitled,3.1.0,60.06922378
_,_5,M,45,_,_,__5M045__,N,0,24,24,41,,,0.893,503.6533751,503.9450907,503.9450907,504.1780686,504.1945786,503.6533751,down,1.884698,504.1945786,None,504.1945786,505.0772941,0.1787122,None,,,,,,,,,48,1,2020_Jan_03_1626,untitled,3.1.0,60.06922378
301,_2,M,180,L,N,301_2M180LN,HLN,0,25,25,156,,,0.941,506.2843421,506.5762802,506.5762802,506.792293,506.8090391,None,down,2.6160761,506.8090391,None,506.8090391,507.7420443,0.1930232,None,,,,,,,,,48,1,2020_Jan_03_1626,untitled,3.1.0,60.06922378
389,_4,N,180,R,N,389_4N180RN,HRN,0,26,26,260,,,1.38,509.6495489,509.9395857,509.9395857,510.1392772,510.1560096,None,None,,510.1560096,None,510.1560096,511.5268713,0.2102925,None,,,,,,,,,48,1,2020_Jan_03_1626,untitled,3.1.0,60.06922378
_,_2,N,270,_,_,__2N270__,N,0,27,27,78,,,1.371,513.7960009,514.0867483,514.0867483,514.335654,514.3535456,513.7960009,up,2.3164014,514.3535456,None,514.3535456,515.7029318,0.1654939,None,,,,,,,,,48,1,2020_Jan_03_1626,untitled,3.1.0,60.06922378
170,F,M,45,L,N,170FM045LN,HLN,0,28,28,121,,,1.041,516.8908347,517.1831624,517.1831624,517.3996823,517.3996823,None,down,3.0822527,517.3996823,None,517.3996823,518.432073,0.2023398,None,,,,,,,,,48,1,2020_Jan_03_1626,untitled,3.1.0,60.06922378
268,_2,M,135,R,N,268_2M135RN,HRN,0,29,29,147,,,0.954,520.6725573,520.9657675,520.9657675,521.1968957,521.2148758,None,down,1.7655591,521.2148758,None,521.2148758,522.1454727,0.1790498,None,,,,,,,,,48,1,2020_Jan_03_1626,untitled,3.1.0,60.06922378
294,_2,N,225,L,N,294_2N225LN,HLN,0,30,30,253,,,1.288,523.2372952,523.5282267,523.5282267,523.6951044,523.7121371,None,up,2.9319702,523.7121371,None,523.7121371,524.9940829,0.2405717,None,,,,,,,,,48,1,2020_Jan_03_1626,untitled,3.1.0,60.06922378
_,_2,M,270,_,_,__2M270__,N,0,31,31,30,,,1.01,526.8954295,527.1917048,527.1917048,527.358645,527.3768333,None,down,2.314239,527.3768333,None,527.3768333,528.3733564,0.2333978,None,,,,,,,,,48,1,2020_Jan_03_1626,untitled,3.1.0,60.06922378
10,R,M,45,R,N,010RM045RN,HRN,0,32,32,97,,,0.798,529.8911251,530.1887236,530.1887236,530.40512,530.4217009,None,down,2.4335932,530.4217009,None,530.4217009,531.2043623,0.1843394,None,,,,,,,,,48,1,2020_Jan_03_1626,untitled,3.1.0,60.06922378
_,R,M,315,_,_,_RM315__,N,0,33,33,23,,,1.387,533.0689613,533.3693368,533.3693368,533.5689913,533.5858046,None,down,2.5989675,533.5858046,None,533.5858046,534.968138,0.2008468,None,,,,,,,,,48,1,2020_Jan_03_1626,untitled,3.1.0,60.06922378
423,_4,N,270,L,N,423_4N270LN,HLN,0,34,34,270,,,1.164,536.3951091,536.6980009,536.6980009,536.8995359,536.9162792,None,up,1.9697749,536.9162792,None,536.9162792,538.0651919,0.1973678,None,,,,,,,,,48,1,2020_Jan_03_1626,untitled,3.1.0,60.06922378
133,F,N,180,R,N,133FN180RN,HRN,0,35,35,212,,,0.861,539.1183895,539.4143224,539.4143224,539.5974685,539.6140512,None,down,2.9152616,539.6140512,None,539.6140512,540.4634327,0.2183764,None,,,,,,,,,48,1,2020_Jan_03_1626,untitled,3.1.0,60.06922378
_,F,N,135,_,_,_FN135__,N,0,36,36,51,,,0.97,542.766407,543.0609301,543.0609301,543.2437822,543.2610228,None,up,2.2652919,543.2610228,None,543.2610228,544.2097461,0.2198351,None,,,,,,,,,48,1,2020_Jan_03_1626,untitled,3.1.0,60.06922378
417,_4,N,0,L,N,417_4N000LN,HLN,0,37,37,264,,,0.87,545.7159717,546.0080026,546.0080026,546.2413514,546.258114,None,down,2.582832,546.258114,None,546.258114,547.1071182,0.1760977,None,,,,,,,,,48,1,2020_Jan_03_1626,untitled,3.1.0,60.06922378
_,G,M,225,_,_,_GM225__,N,0,38,38,13,,,1.266,549.0464366,549.3388361,549.3388361,549.5549868,549.5716301,None,down,3.0990619,549.5716301,None,549.5716301,550.8228097,0.1919504,None,,,,,,,,,48,1,2020_Jan_03_1626,untitled,3.1.0,60.06922378
_,_5,M,135,_,_,__5M135__,N,0,39,39,43,,,1.363,552.9110119,553.2019458,553.2019458,553.3853613,553.4017309,None,down,2.2996459,553.4017309,None,553.4017309,554.7506844,0.2242664,None,,,,,,,,,48,1,2020_Jan_03_1626,untitled,3.1.0,60.06922378
452,_5,N,135,R,N,452_5N135RN,HRN,0,40,40,275,,,1.191,555.9648938,556.2660025,556.2660025,556.4160154,556.4326533,None,up,3.1827176,556.4326533,None,556.4326533,557.6146497,0.2486687,None,,,,,,,,,48,1,2020_Jan_03_1626,untitled,3.1.0,60.06922378
289,_2,N,0,L,N,289_2N000LN,HLN,0,41,41,248,,,0.861,559.8011981,560.0956989,560.0956989,560.3289193,560.3456991,None,up,1.766156,560.3456991,None,560.3456991,561.1948344,0.1739257,None,,,,,,,,,48,1,2020_Jan_03_1626,untitled,3.1.0,60.06922378
453,_5,N,180,R,N,453_5N180RN,HRN,0,42,42,276,,,0.995,562.330839,562.6268267,562.6268267,562.8267328,562.8436198,None,up,3.348539,562.8436198,None,562.8436198,563.8256537,0.2058649,None,,,,,,,,,48,1,2020_Jan_03_1626,untitled,3.1.0,60.06922378
172,F,M,135,L,N,172FM135LN,HLN,0,43,43,123,,,1.154,566.39439,566.6902639,566.6902639,566.9066294,566.9232685,None,down,3.0819479,566.9232685,None,566.9232685,568.0723722,0.1874706,None,,,,,,,,,48,1,2020_Jan_03_1626,untitled,3.1.0,60.06922378
134,F,N,225,R,N,134FN225RN,HRN,0,44,44,213,,,1.378,570.236553,570.5368748,570.5368748,570.7200042,570.7368029,None,up,2.7985017,570.7368029,None,570.7368029,572.1027105,0.2161759,None,,,,,,,,,48,1,2020_Jan_03_1626,untitled,3.1.0,60.06922378
_,_4,M,180,_,_,__4M180__,N,0,45,45,36,,,1.04,573.8128954,574.1009494,574.1009494,574.2508353,574.2671583,None,up,3.0158592,574.2671583,None,574.2671583,575.2994306,0.2628556,None,,,,,,,,,48,1,2020_Jan_03_1626,untitled,3.1.0,60.06922378
_,R,N,45,_,_,_RN045__,N,0,46,46,65,,,1.251,577.4952789,577.7954504,577.7954504,577.9968754,578.0136126,None,down,2.2338111,578.0136126,None,578.0136126,579.2458976,0.1984468,None,,,,,,,,,48,1,2020_Jan_03_1626,untitled,3.1.0,60.06922378
425,_4,M,0,L,N,425_4M000LN,HLN,0,47,47,168,,,0.772,580.4669699,580.7613351,580.7613351,580.9609498,580.9776408,None,up,2.3685592,580.9776408,None,580.9776408,581.7436573,0.2059633,None,,,,,,,,,48,1,2020_Jan_03_1626,untitled,3.1.0,60.06922378
196,G,N,135,R,N,196GN135RN,HRN,0,48,48,227,,,0.919,583.558941,583.8582913,583.8582913,584.0587891,584.0752463,None,up,2.433919,584.0752463,None,584.0752463,584.9920523,0.1973993,None,,,,,,,,,48,1,2020_Jan_03_1626,untitled,3.1.0,60.06922378
397,_4,M,180,R,N,397_4M180RN,HRN,0,49,49,164,,,1.32,586.8198247,587.1206041,587.1206041,587.2231393,587.2407898,None,up,2.6635082,587.2407898,None,587.2407898,588.5550958,0.2927537,None,,,,,,,,,48,1,2020_Jan_03_1626,untitled,3.1.0,60.06922378
47,R,M,270,L,N,047RM270LN,HLN,0,50,50,110,,,1.281,590.0767011,590.369094,590.369094,590.6191848,590.6358531,None,down,3.2655046,590.6358531,None,590.6358531,591.9018138,0.1583889,None,,,,,,,,,48,1,2020_Jan_03_1626,untitled,3.1.0,60.06922378
422,_4,N,225,L,N,422_4N225LN,HLN,0,51,51,269,,,1.262,594.1048069,594.3994675,594.3994675,594.6159891,594.6330015,None,up,2.5646077,594.6330015,None,594.6330015,595.8813901,0.1904115,None,,,,,,,,,48,1,2020_Jan_03_1626,untitled,3.1.0,60.06922378
269,_2,M,180,R,N,269_2M180RN,HRN,0,52,52,148,,,1.316,597.4549698,597.7463669,597.7463669,597.912823,597.9295611,None,down,3.0329209,597.9295611,None,597.9295611,599.228457,0.2444322,None,,,,,,,,,48,1,2020_Jan_03_1626,untitled,3.1.0,60.06922378
456,_5,N,315,R,N,456_5N315RN,HRN,0,53,53,279,,,0.851,601.1717957,601.461787,601.461787,601.6765257,601.6936378,None,up,2.3165575,601.6936378,None,601.6936378,602.5256253,0.1955788,None,,,,,,,,,48,1,2020_Jan_03_1626,untitled,3.1.0,60.06922378
198,G,N,225,R,N,198GN225RN,HRN,0,54,54,229,,,0.882,604.2113133,604.5072568,604.5072568,604.7243815,604.7435321,None,up,2.1460991,604.7435321,None,604.7435321,605.6064182,0.1876348,None,,,,,,,,,48,1,2020_Jan_03_1626,untitled,3.1.0,60.06922378
_,_5,N,45,_,_,__5N045__,N,0,55,55,89,,,0.948,607.0917028,607.3879207,607.3879207,607.6044986,607.6210482,None,up,2.7820382,607.6210482,None,607.6210482,608.5538075,0.1884561,None,,,,,,,,,48,1,2020_Jan_03_1626,untitled,3.1.0,60.06922378
290,_2,N,45,L,N,290_2N045LN,HLN,0,56,56,249,,,1.213,610.5871487,610.8845708,610.8845708,611.1178088,611.1347256,None,up,2.2839228,611.1347256,None,611.1347256,612.333854,0.172293,None,,,,,,,,,48,1,2020_Jan_03_1626,untitled,3.1.0,60.06922378
449,_5,N,0,R,N,449_5N000RN,HRN,0,57,57,272,,,1.16,613.6259005,613.9152384,613.9152384,614.1319777,614.150155,None,up,1.8176481,614.150155,None,614.150155,615.2976727,0.1951761,None,,,,,,,,,48,1,2020_Jan_03_1626,untitled,3.1.0,60.06922378
40,R,N,315,L,N,040RN315LN,HLN,0,58,58,207,,,1.237,616.1793841,616.4804836,616.4804836,616.6805433,616.6979062,None,up,2.6644053,616.6979062,None,616.6979062,617.9294774,0.1992739,None,,,,,,,,,48,1,2020_Jan_03_1626,untitled,3.1.0,60.06922378
163,F,N,90,L,N,163FN090LN,HLN,0,59,59,218,,,0.914,619.6125203,619.9102409,619.9102409,620.0768454,620.0939257,None,up,1.6665343,620.0939257,None,620.0939257,620.993824,0.234934,None,,,,,,,,,48,1,2020_Jan_03_1626,untitled,3.1.0,60.06922378
392,_4,N,315,R,N,392_4N315RN,HRN,0,60,60,263,,,1.22,621.9515751,622.2418724,622.2418724,622.474699,622.4916949,None,up,1.8651292,622.4916949,None,622.4916949,623.6904982,0.1769152,None,,,,,,,,,48,1,2020_Jan_03_1626,untitled,3.1.0,60.06922378
489,_5,M,0,L,N,489_5M000LN,HLN,0,61,61,184,,,1.076,624.5486186,624.8391578,624.8391578,625.0724731,625.0890631,None,down,2.615799,625.0890631,None,625.0890631,626.1554644,0.1805161,None,,,,,,,,,48,1,2020_Jan_03_1626,untitled,3.1.0,60.06922378
481,_5,N,0,L,N,481_5N000LN,HLN,0,62,62,280,,,0.887,627.9007071,628.2029683,628.2029683,628.4198445,628.4361193,None,up,1.9335454,628.4361193,None,628.4361193,629.3022939,0.1821317,None,,,,,,,,,48,1,2020_Jan_03_1626,untitled,3.1.0,60.06922378
46,R,M,225,L,N,046RM225LN,HLN,0,63,63,109,,,1.4,630.5845479,630.8840783,630.8840783,631.0839106,631.1005988,None,down,3.3325052,631.1005988,None,631.1005988,632.4826888,0.2012726,None,,,,,,,,,48,1,2020_Jan_03_1626,untitled,3.1.0,60.06922378
_,_5,N,90,_,_,__5N090__,N,0,64,64,90,,,1.226,634.657142,634.9474497,634.9474497,635.1469551,635.1636585,None,up,2.1992836,635.1636585,None,635.1636585,636.3794007,0.2096496,None,,,,,,,,,48,1,2020_Jan_03_1626,untitled,3.1.0,60.06922378
16,R,M,315,R,N,016RM315RN,HRN,0,65,65,103,,,1.359,637.5484997,637.8445234,637.8445234,638.0790981,638.0960914,None,down,2.8302003,638.0960914,None,638.0960914,639.4433578,0.1739896,None,,,,,,,,,48,1,2020_Jan_03_1626,untitled,3.1.0,60.06922378
270,_2,M,225,R,N,270_2M225RN,HRN,0,66,66,149,,,0.959,641.1284905,641.4249545,641.4249545,641.6412766,641.6580056,None,None,,641.6580056,None,641.6580056,642.6072001,0.1896482,None,,,,,,,,,48,1,2020_Jan_03_1626,untitled,3.1.0,60.06922378
164,F,N,135,L,N,164FN135LN,HLN,0,67,67,219,,,1.338,645.3328508,645.6217015,645.6217015,645.8380579,645.8548947,645.3328508,up,3.2991243,645.8548947,None,645.8548947,647.1701304,0.1972135,None,,,,,,,,,48,1,2020_Jan_03_1626,untitled,3.1.0,60.06922378
_,_2,M,180,_,_,__2M180__,N,0,68,68,28,,,1.035,648.391696,648.6851545,648.6851545,648.8691213,648.8861292,None,down,3.1993092,648.8861292,None,648.8861292,649.9012417,0.22258,None,,,,,,,,,48,1,2020_Jan_03_1626,untitled,3.1.0,60.06922378
430,_4,M,225,L,N,430_4M225LN,HLN,0,69,69,173,,,1.201,652.3512013,652.6482472,652.6482472,652.7982294,652.8148136,None,None,,652.8148136,None,652.8148136,654.0138096,0.2480769,None,,,,,,,,,48,1,2020_Jan_03_1626,untitled,3.1.0,60.06922378
4,R,N,135,R,N,004RN135RN,HRN,0,70,70,195,,,1.394,656.4769812,656.7779978,656.7779978,657.0111064,657.027759,656.4769812,up,2.5329286,657.027759,None,657.027759,658.4096921,0.1711743,None,,,,,,,,,48,1,2020_Jan_03_1626,untitled,3.1.0,60.06922378
39,R,N,270,L,N,039RN270LN,HLN,0,71,71,206,,,1.316,659.7713039,660.0597154,660.0597154,660.2761715,660.2917941,None,up,2.1168259,660.2917941,None,660.2917941,661.590897,0.1982682,None,,,,,,,,,48,1,2020_Jan_03_1626,untitled,3.1.0,60.06922378
_,F,M,180,_,_,_FM180__,N,0,72,72,4,,,0.805,662.6101328,662.9066326,662.9066326,663.1226497,663.1393239,None,down,2.749508,663.1393239,None,663.1393239,663.9385349,0.1889286,None,,,,,,,,,48,1,2020_Jan_03_1626,untitled,3.1.0,60.06922378
_,G,M,90,_,_,_GM090__,N,0,73,73,10,,,0.707,666.1332885,666.434261,666.434261,666.6037887,666.6205933,None,down,3.0803469,666.6205933,None,666.6205933,667.3202925,0.2290796,None,,,,,,,,,48,1,2020_Jan_03_1626,untitled,3.1.0,60.06922378
393,_4,M,0,R,N,393_4M000RN,HRN,0,74,74,160,,,0.837,669.8742684,670.1663004,670.1663004,670.4161847,670.4329481,None,up,2.8320226,670.4329481,None,670.4329481,671.2492902,0.1611902,None,,,,,,,,,48,1,2020_Jan_03_1626,untitled,3.1.0,60.06922378
432,_4,M,315,L,N,432_4M315LN,HLN,0,75,75,175,,,0.805,673.4405396,673.7301197,673.7301197,673.9796801,673.9963005,None,None,,673.9963005,None,673.9963005,674.7787036,0.1639421,None,,,,,,,,,48,1,2020_Jan_03_1626,untitled,3.1.0,60.06922378
14,R,M,225,R,N,014RM225RN,HRN,0,76,76,101,,,1.34,677.6466714,677.942759,677.942759,678.1768507,678.1940768,677.6466714,down,2.8814127,678.1940768,None,678.1940768,679.5081603,0.1748709,None,,,,,,,,,48,1,2020_Jan_03_1626,untitled,3.1.0,60.06922378
132,F,N,135,R,N,132FN135RN,HRN,0,77,77,211,,,1.008,681.3049529,681.6068036,681.6068036,681.7905884,681.8075888,None,up,1.9336087,681.8075888,None,681.8075888,682.8057283,0.2148177,None,,,,,,,,,48,1,2020_Jan_03_1626,untitled,3.1.0,60.06922378
266,_2,M,45,R,N,266_2M045RN,HRN,0,78,78,145,,,1.152,683.9846487,684.2873781,684.2873781,684.4538395,684.4703685,None,down,3.2153156,684.4703685,None,684.4703685,685.6194482,0.229054,None,,,,,,,,,48,1,2020_Jan_03_1626,untitled,3.1.0,60.06922378
_,_2,M,0,_,_,__2M000__,N,0,79,79,24,,,1.139,687.8871723,688.1836961,688.1836961,688.400385,688.4168346,None,up,3.1822705,688.4168346,None,688.4168346,689.5494654,0.1887148,None,,,,,,,,,48,1,2020_Jan_03_1626,untitled,3.1.0,60.06922378
9,R,M,0,R,N,009RM000RN,HRN,0,80,80,96,,,0.972,691.7728441,692.0640261,692.0640261,692.3134542,692.3303722,None,down,2.5665069,692.3303722,None,692.3303722,693.279347,0.1618553,None,,,,,,,,,48,1,2020_Jan_03_1626,untitled,3.1.0,60.06922378
_,F,N,180,_,_,_FN180__,N,0,81,81,52,,,1.27,695.1498794,695.4449847,695.4449847,695.6112324,695.6280117,None,up,2.4998204,695.6280117,None,695.6280117,696.8933473,0.2370139,None,,,,,,,,,48,1,2020_Jan_03_1626,untitled,3.1.0,60.06922378
303,_2,M,270,L,N,303_2M270LN,HLN,0,82,82,158,,,0.971,698.3952453,698.6926023,698.6926023,698.8433701,698.8632878,None,None,,698.8632878,None,698.8632878,699.8240389,0.2520235,None,,,,,,,,,48,1,2020_Jan_03_1626,untitled,3.1.0,60.06922378
5,R,N,180,R,N,005RN180RN,HRN,0,83,83,196,,,1.197,702.54111,702.8384167,702.8384167,703.0543822,703.0724143,702.54111,up,2.9972671,703.0724143,None,703.0724143,704.2539234,0.1910019,None,,,,,,,,,48,1,2020_Jan_03_1626,untitled,3.1.0,60.06922378
419,_4,N,90,L,N,419_4N090LN,HLN,0,84,84,266,,,1.307,706.2675992,706.5718963,706.5718963,706.7844427,706.8010746,None,up,2.335036,706.8010746,None,706.8010746,708.1003167,0.1856717,None,,,,,,,,,48,1,2020_Jan_03_1626,untitled,3.1.0,60.06922378
_,G,M,45,_,_,_GM045__,N,0,85,85,9,,,1.31,709.3426369,709.6320088,709.6320088,709.8484677,709.8650835,None,down,3.399006,709.8650835,None,709.8650835,711.1638242,0.1929784,None,,,,,,,,,48,1,2020_Jan_03_1626,untitled,3.1.0,60.06922378
_,_2,N,135,_,_,__2N135__,N,0,86,86,75,,,0.764,713.4852073,713.7784364,713.7784364,713.9782815,713.995238,None,down,3.2825762,713.995238,None,713.995238,714.7448129,0.2076104,None,,,,,,,,,48,1,2020_Jan_03_1626,untitled,3.1.0,60.06922378
460,_5,M,135,R,N,460_5M135RN,HRN,0,87,87,179,,,1.155,717.4700878,717.759154,717.759154,717.9913543,718.0080804,None,down,3.2668906,718.0080804,None,718.0080804,719.1570257,0.1800938,None,,,,,,,,,48,1,2020_Jan_03_1626,untitled,3.1.0,60.06922378
200,G,N,315,R,N,200GN315RN,HRN,0,88,88,231,,,1.08,721.4855094,721.7880955,721.7880955,721.9877965,722.004519,None,up,2.1830614,722.004519,None,722.004519,723.0703541,0.1981436,None,,,,,,,,,48,1,2020_Jan_03_1626,untitled,3.1.0,60.06922378
8,R,N,315,R,N,008RN315RN,HRN,0,89,89,199,,,0.719,724.4248891,724.7187233,724.7187233,724.9021911,724.9186808,None,up,2.0504751,724.9186808,None,724.9186808,725.6193555,0.2235344,None,,,,,,,,,48,1,2020_Jan_03_1626,untitled,3.1.0,60.06922378
_,_5,M,180,_,_,__5M180__,N,0,90,90,44,,,1.323,727.2062631,727.4999621,727.4999621,727.6830242,727.6998586,None,None,,727.6998586,None,727.6998586,729.0149799,0.2205992,None,,,,,,,,,48,1,2020_Jan_03_1626,untitled,3.1.0,60.06922378
_,F,N,315,_,_,_FN315__,N,0,91,91,55,,,0.776,731.3731752,731.6628503,731.6628503,731.8957657,731.9124922,731.3731752,up,1.8496022,731.9124922,None,731.9124922,732.6785702,0.1815777,None,,,,,,,,,48,1,2020_Jan_03_1626,untitled,3.1.0,60.06922378
_,R,M,90,_,_,_RM090__,N,0,92,92,18,,,0.905,733.9519338,734.2447011,734.2447011,734.4768204,734.4935854,None,up,2.8672032,734.4935854,None,734.4935854,735.3927858,0.1754851,None,,,,,,,,,48,1,2020_Jan_03_1626,untitled,3.1.0,60.06922378
262,_2,N,225,R,N,262_2N225RN,HRN,0,93,93,245,,,1.02,737.5760786,737.8740694,737.8740694,738.0738034,738.0904904,None,up,2.7170038,738.0904904,None,738.0904904,739.106146,0.2007444,None,,,,,,,,,48,1,2020_Jan_03_1626,untitled,3.1.0,60.06922378
_,_5,N,180,_,_,__5N180__,N,0,94,94,92,,,0.706,741.0201906,741.3212584,741.3212584,741.5211521,741.5378027,None,up,2.1981839,741.5378027,None,741.5378027,742.2375262,0.1994368,None,,,,,,,,,48,1,2020_Jan_03_1626,untitled,3.1.0,60.06922378
_,F,M,0,_,_,_FM000__,N,0,95,95,0,,,0.893,743.9456524,744.2354177,744.2354177,744.4514487,744.4683261,None,down,2.7325449,744.4683261,None,744.4683261,745.3527633,0.1975877,None,,,,,,,,,48,1,2020_Jan_03_1626,untitled,3.1.0,60.06922378
233,G,M,0,L,N,233GM000LN,HLN,0,96,96,136,,,1.354,747.3941548,747.682151,747.682151,747.9153304,747.9318058,None,down,3.0990437,747.9318058,None,747.9318058,749.2641736,0.1800079,None,,,,,,,,,48,1,2020_Jan_03_1626,untitled,3.1.0,60.06922378
142,F,M,225,R,N,142FM225RN,HRN,0,97,97,117,,,1.115,751.2408751,751.5295113,751.5295113,751.7451085,751.7619909,None,down,2.4827824,751.7619909,None,751.7619909,752.8609533,0.1971323,None,,,,,,,,,48,1,2020_Jan_03_1626,untitled,3.1.0,60.06922378
_,R,M,135,_,_,_RM135__,N,0,98,98,19,,,0.796,754.4578261,754.7593065,754.7593065,754.9590624,754.9757725,None,up,2.7825506,754.9757725,None,754.9757725,755.7585427,0.2002491,None,,,,,,,,,48,1,2020_Jan_03_1626,untitled,3.1.0,60.06922378
485,_5,N,180,L,N,485_5N180LN,HLN,0,99,99,284,,,1.041,757.9818089,758.2729515,758.2729515,758.4727371,758.4899319,None,up,2.2570432,758.4899319,None,758.4899319,759.5217102,0.2067201,None,,,,,,,,,48,1,2020_Jan_03_1626,untitled,3.1.0,60.06922378
261,_2,N,180,R,N,261_2N180RN,HRN,0,100,100,244,,,0.807,761.0542958,761.3536631,761.3536631,761.470022,761.4868359,None,up,2.2160604,761.4868359,None,761.4868359,762.2695826,0.288859,None,,,,,,,,,48,1,2020_Jan_03_1626,untitled,3.1.0,60.06922378
225,G,N,0,L,N,225GN000LN,HLN,0,101,101,232,,,0.998,763.9078077,764.2011139,764.2011139,764.4177803,764.4342059,None,None,,764.4342059,None,764.4342059,765.4179961,0.1922488,None,,,,,,,,,48,1,2020_Jan_03_1626,untitled,3.1.0,60.06922378
228,G,N,135,L,N,228GN135LN,HLN,0,102,102,235,,,1.377,768.0864974,768.380701,768.380701,768.6139378,768.6304988,768.0864974,up,3.0170662,768.6304988,None,768.6304988,769.995847,0.1757779,None,,,,,,,,,48,1,2020_Jan_03_1626,untitled,3.1.0,60.06922378
_,_2,N,90,_,_,__2N090__,N,0,103,103,74,,,0.709,771.8310739,772.1274341,772.1274341,772.3608608,772.3774408,None,up,2.46528,772.3774408,None,772.3774408,773.0769028,0.1714278,None,,,,,,,,,48,1,2020_Jan_03_1626,untitled,3.1.0,60.06922378
484,_5,N,135,L,N,484_5N135LN,HLN,0,104,104,283,,,0.905,775.0155116,775.3078287,775.3078287,775.5579119,775.5742908,None,up,1.935804,775.5742908,None,775.5742908,776.4592689,0.1614529,None,,,,,,,,,48,1,2020_Jan_03_1626,untitled,3.1.0,60.06922378
304,_2,M,315,L,N,304_2M315LN,HLN,0,105,105,159,,,0.994,777.7334515,778.0221325,778.0221325,778.2221153,778.238769,None,None,,778.238769,None,778.238769,779.2218197,0.2102405,None,,,,,,,,,48,1,2020_Jan_03_1626,untitled,3.1.0,60.06922378
454,_5,N,225,R,N,454_5N225RN,HRN,0,106,106,277,,,0.935,781.8878656,782.1855737,782.1855737,782.4191158,782.4351008,781.8878656,up,2.3163241,782.4351008,None,782.4351008,783.3507177,0.1743198,None,,,,,,,,,48,1,2020_Jan_03_1626,untitled,3.1.0,60.06922378
_,F,N,225,_,_,_FN225__,N,0,107,107,53,,,0.836,784.9382955,785.2326538,785.2326538,785.4662011,785.482486,None,up,2.1339278,785.482486,None,785.482486,786.2987012,0.1738359,None,,,,,,,,,48,1,2020_Jan_03_1626,untitled,3.1.0,60.06922378
240,G,M,315,L,N,240GM315LN,HLN,0,108,108,143,,,1.043,787.812415,788.1139264,788.1139264,788.3300631,788.3468816,None,down,3.0660007,788.3468816,None,788.3468816,789.3790829,0.1838069,None,,,,,,,,,48,1,2020_Jan_03_1626,untitled,3.1.0,60.06922378
236,G,M,135,L,N,236GM135LN,HLN,0,109,109,139,,,1.339,791.6484483,791.9436287,791.9436287,792.1264801,792.1431686,None,down,2.2152514,792.1431686,None,792.1431686,793.4752842,0.2202298,None,,,,,,,,,48,1,2020_Jan_03_1626,untitled,3.1.0,60.06922378
_,F,M,315,_,_,_FM315__,N,0,110,110,7,,,1.248,795.5457199,795.8401185,795.8401185,796.073062,796.0908939,None,down,2.7002162,796.0908939,None,796.0908939,797.3223889,0.1750183,None,,,,,,,,,48,1,2020_Jan_03_1626,untitled,3.1.0,60.06922378
3,R,N,90,R,N,003RN090RN,HRN,0,111,111,194,,,1.255,798.9909214,799.2871061,799.2871061,799.5036586,799.5203401,None,up,2.6170605,799.5203401,None,799.5203401,800.7691,0.1876455,None,,,,,,,,,48,1,2020_Jan_03_1626,untitled,3.1.0,60.06922378
257,_2,N,0,R,N,257_2N000RN,HRN,0,112,112,240,,,1.318,802.3352187,802.6339835,802.6339835,802.8505006,802.867304,None,up,2.6161188,802.867304,None,802.867304,804.1665568,0.1861345,None,,,,,,,,,48,1,2020_Jan_03_1626,untitled,3.1.0,60.06922378
208,G,M,315,R,N,208GM315RN,HRN,0,113,113,135,,,0.731,805.7211073,806.0142751,806.0142751,806.1974564,806.2145626,None,down,2.2327407,806.2145626,None,806.2145626,806.9307845,0.2226393,None,,,,,,,,,48,1,2020_Jan_03_1626,untitled,3.1.0,60.06922378
295,_2,N,270,L,N,295_2N270LN,HLN,0,114,114,254,,,1.216,808.6507904,808.9450656,808.9450656,809.1617901,809.1783607,None,up,2.1495328,809.1783607,None,809.1783607,810.3776745,0.1912468,None,,,,,,,,,48,1,2020_Jan_03_1626,untitled,3.1.0,60.06922378
43,R,M,90,L,N,043RM090LN,HLN,0,115,115,106,,,1.055,811.5463939,811.8426574,811.8426574,812.0424997,812.059062,None,down,2.8822781,812.059062,None,812.059062,813.1082564,0.2048159,None,,,,,,,,,48,1,2020_Jan_03_1626,untitled,3.1.0,60.06922378
144,F,M,315,R,N,144FM315RN,HRN,0,116,116,119,,,1.078,815.1463041,815.4396298,815.4396298,815.6568017,815.6741058,None,down,3.3970814,815.6741058,None,815.6741058,816.7393083,0.192935,None,,,,,,,,,48,1,2020_Jan_03_1626,untitled,3.1.0,60.06922378
37,R,N,180,L,N,037RN180LN,HLN,0,117,117,204,,,0.836,819.3240699,819.6194056,819.6194056,819.7859128,819.8031285,None,up,2.2147851,819.8031285,None,819.8031285,820.6188882,0.238568,None,,,,,,,,,48,1,2020_Jan_03_1626,untitled,3.1.0,60.06922378
391,_4,N,270,R,N,391_4N270RN,HRN,0,118,118,262,,,0.903,822.2415411,822.5334294,822.5334294,822.733902,822.7515792,None,up,1.9313695,822.7515792,None,822.7515792,823.6330188,0.210836,None,,,,,,,,,48,1,2020_Jan_03_1626,untitled,3.1.0,60.06922378
202,G,M,45,R,N,202GM045RN,HRN,0,119,119,129,,,1.173,824.8890904,825.1812703,825.1812703,825.3975651,825.4142262,None,down,2.8825603,825.4142262,None,825.4142262,826.581439,0.1937754,None,,,,,,,,,48,1,2020_Jan_03_1626,untitled,3.1.0,60.06922378
171,F,M,90,L,N,171FM090LN,HLN,0,120,120,122,,,0.898,828.5089624,828.8114836,828.8114836,829.0108633,829.0282822,None,up,3.3513416,829.0282822,None,829.0282822,829.9103645,0.1986977,None,,,,,,,,,48,1,2020_Jan_03_1626,untitled,3.1.0,60.06922378
267,_2,M,90,R,N,267_2M090RN,HRN,0,121,121,146,,,0.972,832.6055587,832.9076283,832.9076283,833.0908245,833.1076068,None,None,,833.1076068,None,833.1076068,834.0737081,0.2107514,None,,,,,,,,,48,1,2020_Jan_03_1626,untitled,3.1.0,60.06922378
232,G,N,315,L,N,232GN315LN,HLN,0,122,122,239,,,1.325,836.8327725,837.1206409,837.1206409,837.3045064,837.3045064,836.8327725,up,2.5487693,837.3045064,None,837.3045064,838.6208283,0.2405913,None,,,,,,,,,48,1,2020_Jan_03_1626,untitled,3.1.0,60.06922378
_,_4,N,45,_,_,__4N045__,N,0,123,123,81,,,1.043,840.0285392,840.3178516,840.3178516,840.5676276,840.5844347,None,up,2.0324554,840.5844347,None,840.5844347,841.6166623,0.1625495,None,,,,,,,,,48,1,2020_Jan_03_1626,untitled,3.1.0,60.06922378
_,_2,N,45,_,_,__2N045__,N,0,124,124,73,,,0.731,842.8053234,843.0986462,843.0986462,843.3317628,843.3485544,None,up,1.7168124,843.3485544,None,843.3485544,844.0644285,0.1759242,None,,,,,,,,,48,1,2020_Jan_03_1626,untitled,3.1.0,60.06922378
260,_2,N,135,R,N,260_2N135RN,HRN,0,125,125,243,,,0.982,845.2696211,845.5630554,845.5630554,845.7800399,845.7961047,None,None,,845.7961047,None,845.7961047,846.7629854,0.1919811,None,,,,,,,,,48,1,2020_Jan_03_1626,untitled,3.1.0,60.06922378
_,G,M,180,_,_,_GM180__,N,0,126,126,12,,,0.987,849.4488059,849.7431994,849.7431994,849.9761598,849.9933618,849.4488059,None,,849.9933618,None,849.9933618,850.9591479,0.1750921,None,,,,,,,,,48,1,2020_Jan_03_1626,untitled,3.1.0,60.06922378
487,_5,N,270,L,N,487_5N270LN,HLN,0,127,127,286,,,1.353,853.6706533,853.9919777,853.9919777,854.173534,854.1958892,853.6706533,up,2.1582595,854.1958892,None,854.1958892,855.5215178,0.202577,None,,,,,,,,,48,1,2020_Jan_03_1626,untitled,3.1.0,60.06922378
168,F,N,315,L,N,168FN315LN,HLN,0,128,128,223,,,0.729,856.5514708,856.8537413,856.8537413,857.069835,857.0866842,None,up,1.5825236,857.0866842,None,857.0866842,857.8030036,0.1855143,None,,,,,,,,,48,1,2020_Jan_03_1626,untitled,3.1.0,60.06922378
_,_4,N,0,_,_,__4N000__,N,0,129,129,80,,,1.125,858.864683,859.1530022,859.1530022,859.384523,859.4011664,None,up,1.8831199,859.4011664,None,859.4011664,860.517149,0.1836446,None,,,,,,,,,48,1,2020_Jan_03_1626,untitled,3.1.0,60.06922378
_,F,M,135,_,_,_FM135__,N,0,130,130,3,,,1.099,861.491772,861.7826074,861.7826074,861.9989224,862.0155841,None,down,2.7320459,862.0155841,None,862.0155841,863.0979187,0.1953849,None,,,,,,,,,48,1,2020_Jan_03_1626,untitled,3.1.0,60.06922378
11,R,M,90,R,N,011RM090RN,HRN,0,131,131,98,,,1.032,864.953735,865.246444,865.246444,865.462737,865.4797108,None,None,,865.4797108,None,865.4797108,866.495461,0.1929597,None,,,,,,,,,48,1,2020_Jan_03_1626,untitled,3.1.0,60.06922378
424,_4,N,315,L,N,424_4N315LN,HLN,0,132,132,271,,,1.334,869.1439332,869.4436677,869.4436677,869.6984319,869.6984319,869.1439332,up,2.0775905,869.6984319,None,869.6984319,870.991271,0.1864532,None,,,,,,,,,48,1,2020_Jan_03_1626,untitled,3.1.0,60.06922378
_,_4,M,270,_,_,__4M270__,N,0,133,133,38,,,1.147,871.9589512,872.256518,872.256518,872.4897081,872.506321,None,None,,872.506321,None,872.506321,873.638782,0.1699219,None,,,,,,,,,48,1,2020_Jan_03_1626,untitled,3.1.0,60.06922378
398,_4,M,225,R,N,398_4M225RN,HRN,0,134,134,165,,,0.976,876.1835878,876.48626,876.48626,876.6865971,876.7035942,876.1835878,None,,876.7035942,None,876.7035942,877.668561,0.2014838,None,,,,,,,,,48,1,2020_Jan_03_1626,untitled,3.1.0,60.06922378
386,_4,N,45,R,N,386_4N045RN,HRN,0,135,135,257,,,1.124,880.3569967,880.6495381,880.6495381,880.8825638,880.8995142,880.3569967,up,2.1316937,880.8995142,None,880.8995142,882.0160394,0.1776727,None,,,,,,,,,48,1,2020_Jan_03_1626,untitled,3.1.0,60.06922378
6,R,N,225,R,N,006RN225RN,HRN,0,136,136,197,,,1.008,883.2695934,883.563545,883.563545,883.7464672,883.763305,None,up,2.1160669,883.763305,None,883.763305,884.7629407,0.2240999,None,,,,,,,,,48,1,2020_Jan_03_1626,untitled,3.1.0,60.06922378
206,G,M,225,R,N,206GM225RN,HRN,0,137,137,133,,,0.74,886.1086321,886.3960527,886.3960527,886.5948985,886.6124471,None,down,2.5471352,886.6124471,None,886.6124471,887.3606789,0.2099882,None,,,,,,,,,48,1,2020_Jan_03_1626,untitled,3.1.0,60.06922378
239,G,M,270,L,N,239GM270LN,HLN,0,138,138,142,,,1.393,889.3439582,889.6413391,889.6413391,889.8745546,889.8912161,None,down,2.9152219,889.8912161,None,889.8912161,891.2766146,0.1713939,None,,,,,,,,,48,1,2020_Jan_03_1626,untitled,3.1.0,60.06922378
_,_4,M,90,_,_,__4M090__,N,0,139,139,34,,,0.987,893.0136023,893.305014,893.305014,893.5213387,893.538015,None,down,3.2167881,893.538015,None,893.538015,894.5042395,0.1947492,None,,,,,,,,,48,1,2020_Jan_03_1626,untitled,3.1.0,60.06922378
_,_2,N,0,_,_,__2N000__,N,0,140,140,72,,,0.718,896.9824021,897.2699404,897.2699404,897.4682396,897.4857381,None,up,1.8320124,897.4857381,None,897.4857381,898.1840424,0.2117104,None,,,,,,,,,48,1,2020_Jan_03_1626,untitled,3.1.0,60.06922378
_,_5,M,90,_,_,__5M090__,N,0,141,141,42,,,1.192,899.4870195,899.782379,899.782379,900.0322748,900.0489832,None,down,2.6825996,900.0489832,None,900.0489832,901.2324977,0.1572274,None,,,,,,,,,48,1,2020_Jan_03_1626,untitled,3.1.0,60.06922378
42,R,M,45,L,N,042RM045LN,HLN,0,142,142,105,,,1.099,902.9137797,903.2131553,903.2131553,903.4459586,903.4630333,None,down,2.5824314,903.4630333,None,903.4630333,904.5451183,0.1700686,None,,,,,,,,,48,1,2020_Jan_03_1626,untitled,3.1.0,60.06922378
388,_4,N,135,R,N,388_4N135RN,HRN,0,143,143,259,,,1.228,906.2497292,906.5435654,906.5435654,906.7600952,906.776567,None,up,3.2005127,906.776567,None,906.776567,907.9923857,0.190654,None,,,,,,,,,48,1,2020_Jan_03_1626,untitled,3.1.0,60.06922378
272,_2,M,315,R,N,272_2M315RN,HRN,0,144,144,151,,,1.344,910.2169673,910.5067025,910.5067025,910.6896625,910.7065201,None,None,,910.7065201,None,910.7065201,912.0390778,0.2250651,None,,,,,,,,,48,1,2020_Jan_03_1626,untitled,3.1.0,60.06922378
457,_5,M,0,R,N,457_5M000RN,HRN,0,145,145,176,,,1.377,914.3940408,914.6865693,914.6865693,914.8859512,914.9030176,914.3940408,down,2.5007152,914.9030176,None,914.9030176,916.2723217,0.2109175,None,,,,,,,,,48,1,2020_Jan_03_1626,untitled,3.1.0,60.06922378
451,_5,N,90,R,N,451_5N090RN,HRN,0,146,146,274,,,0.812,917.627036,917.9167341,917.9167341,918.1166912,918.1335075,None,up,1.7334949,918.1335075,None,918.1335075,918.9326453,0.208668,None,,,,,,,,,48,1,2020_Jan_03_1626,untitled,3.1.0,60.06922378
_,R,N,315,_,_,_RN315__,N,0,147,147,71,,,1.289,920.078368,920.3661937,920.3661937,920.5809668,920.5978591,None,None,,920.5978591,None,920.5978591,921.8799743,0.1989174,None,,,,,,,,,48,1,2020_Jan_03_1626,untitled,3.1.0,60.06922378
33,R,N,0,L,N,033RN000LN,HLN,0,148,148,200,,,1.37,924.2820637,924.5779336,924.5779336,924.7780013,924.7942686,924.2820637,up,2.0838242,924.7942686,None,924.7942686,926.1431203,0.209196,None,,,,,,,,,48,1,2020_Jan_03_1626,untitled,3.1.0,60.06922378
15,R,M,270,R,N,015RM270RN,HRN,0,149,149,102,,,1.162,927.1677687,927.4586207,927.4586207,927.5916923,927.6084486,None,down,2.46739,927.6084486,None,927.6084486,928.758016,0.2725481,None,,,,,,,,,48,1,2020_Jan_03_1626,untitled,3.1.0,60.06922378
234,G,M,45,L,N,234GM045LN,HLN,0,150,150,137,,,1.159,930.3276795,930.6226841,930.6226841,930.7889809,930.8062457,None,None,,930.8062457,None,930.8062457,931.9570144,0.2357589,None,,,,,,,,,48,1,2020_Jan_03_1626,untitled,3.1.0,60.06922378
292,_2,N,135,L,N,292_2N135LN,HLN,0,151,151,251,,,1.286,934.470786,934.7687996,934.7687996,935.0020146,935.0185714,934.470786,None,,935.0185714,None,935.0185714,936.2850659,0.1744594,None,,,,,,,,,48,1,2020_Jan_03_1626,untitled,3.1.0,60.06922378
197,G,N,180,R,N,197GN180RN,HRN,0,152,152,228,,,0.841,938.6953764,938.9833865,938.9833865,939.1986745,939.2159689,938.6953764,down,2.3820974,939.2159689,None,939.2159689,940.0475459,0.2020585,None,,,,,,,,,48,1,2020_Jan_03_1626,untitled,3.1.0,60.06922378
_,_4,N,90,_,_,__4N090__,N,0,153,153,82,,,0.868,941.8175318,942.112401,942.112401,942.3121576,942.3288024,None,up,1.668097,942.3288024,None,942.3288024,943.1783873,0.2055798,None,,,,,,,,,48,1,2020_Jan_03_1626,untitled,3.1.0,60.06922378
_,R,M,0,_,_,_RM000__,N,0,154,154,16,,,1.304,944.2422901,944.5440336,944.5440336,944.7106228,944.7272052,None,down,2.9520086,944.7272052,None,944.7272052,946.0260749,0.2305336,None,,,,,,,,,48,1,2020_Jan_03_1626,untitled,3.1.0,60.06922378
_,R,N,135,_,_,_RN135__,N,0,155,155,67,,,1.371,948.009987,948.3077866,948.3077866,948.4067884,948.4234881,None,up,3.3992693,948.4234881,None,948.4234881,949.7720914,0.3051261,None,,,,,,,,,48,1,2020_Jan_03_1626,untitled,3.1.0,60.06922378
_,_4,N,225,_,_,__4N225__,N,0,156,156,85,,,0.903,952.1100478,952.2867562,952.2867562,952.5365717,952.5533109,None,up,2.233394,952.5533109,None,952.5533109,953.4356195,0.1589757,None,,,,,,,,,48,1,2020_Jan_03_1626,untitled,3.1.0,60.06922378
258,_2,N,45,R,N,258_2N045RN,HRN,0,157,157,241,,,1.298,954.9818661,955.2841044,955.2841044,955.5006685,955.5171302,None,up,2.0330754,955.5171302,None,955.5171302,956.80058,0.1819812,None,,,,,,,,,48,1,2020_Jan_03_1626,untitled,3.1.0,60.06922378
162,F,N,45,L,N,162FN045LN,HLN,0,158,158,217,,,1.243,957.7688965,958.0652157,958.0652157,958.2655068,958.2820489,None,up,2.016437,958.2820489,None,958.2820489,959.514395,0.2044836,None,,,,,,,,,48,1,2020_Jan_03_1626,untitled,3.1.0,60.06922378
207,G,M,270,R,N,207GM270RN,HRN,0,159,159,134,,,0.979,960.5322272,960.8295405,960.8295405,961.0124724,961.0293499,None,down,3.2319048,961.0293499,None,961.0293499,961.9954796,0.2194799,None,,,,,,,,,48,1,2020_Jan_03_1626,untitled,3.1.0,60.06922378
482,_5,N,45,L,N,482_5N045LN,HLN,0,160,160,281,,,0.948,964.4442566,964.7427433,964.7427433,964.9755412,964.9923969,None,up,1.9504974,964.9923969,None,964.9923969,965.9246972,0.1709526,None,,,,,,,,,48,1,2020_Jan_03_1626,untitled,3.1.0,60.06922378
_,_5,M,270,_,_,__5M270__,N,0,161,161,46,,,0.978,967.1285384,967.4235439,967.4235439,967.657008,967.6736269,None,down,3.198603,967.6736269,None,967.6736269,968.6393609,0.1730329,None,,,,,,,,,48,1,2020_Jan_03_1626,untitled,3.1.0,60.06922378
459,_5,M,90,R,N,459_5M090RN,HRN,0,162,162,178,,,0.721,971.0702684,971.3700285,971.3700285,971.5864686,971.6032802,None,down,2.4660955,971.6032802,None,971.6032802,972.3027129,0.1858598,None,,,,,,,,,48,1,2020_Jan_03_1626,untitled,3.1.0,60.06922378
_,_4,N,135,_,_,__4N135__,N,0,163,163,83,,,1.225,974.2526468,974.5507066,974.5507066,974.7838001,974.8008535,None,up,3.0148795,974.8008535,None,974.8008535,976.0164505,0.1720136,None,,,,,,,,,48,1,2020_Jan_03_1626,untitled,3.1.0,60.06922378
431,_4,M,270,L,N,431_4M270LN,HLN,0,164,164,174,,,1.151,977.9911003,978.2808916,978.2808916,978.5316072,978.5508448,None,down,2.6775882,978.5508448,None,978.5508448,979.6818774,0.1633476,None,,,,,,,,,48,1,2020_Jan_03_1626,untitled,3.1.0,60.06922378
399,_4,M,270,R,N,399_4M270RN,HRN,0,165,165,166,,,1.146,981.4213904,981.7110702,981.7110702,981.9443651,981.9608707,None,down,1.9496593,981.9608707,None,981.9608707,983.0933108,0.1791929,None,,,,,,,,,48,1,2020_Jan_03_1626,untitled,3.1.0,60.06922378
138,F,M,45,R,N,138FM045RN,HRN,0,166,166,113,,,0.794,984.1198536,984.4093913,984.4093913,984.6251333,984.6418938,None,down,2.5156606,984.6418938,None,984.6418938,985.4246009,0.1957839,None,,,,,,,,,48,1,2020_Jan_03_1626,untitled,3.1.0,60.06922378
137,F,M,0,R,N,137FM000RN,HRN,0,167,167,112,,,1.157,987.3549078,987.6559131,987.6559131,987.8722362,987.8890572,None,down,3.2324458,987.8890572,None,987.8890572,989.0380037,0.1848934,None,,,,,,,,,48,1,2020_Jan_03_1626,untitled,3.1.0,60.06922378
_,_5,M,0,_,_,__5M000__,N,0,168,168,40,,,0.941,991.3647767,991.6530562,991.6530562,991.83567,991.852747,None,down,2.6338398,991.852747,None,991.852747,992.7853005,0.2285198,None,,,,,,,,,48,1,2020_Jan_03_1626,untitled,3.1.0,60.06922378
488,_5,N,315,L,N,488_5N315LN,HLN,0,169,169,287,,,1.011,994.7796999,995.0682143,995.0682143,995.2160822,995.2160822,None,up,2.0167096,995.2160822,None,995.2160822,996.2154116,0.2755242,None,,,,,,,,,48,1,2020_Jan_03_1626,untitled,3.1.0,60.06922378
_,_2,N,180,_,_,__2N180__,N,0,170,170,76,,,1.23,997.4457995,997.7473914,997.7473914,997.9467789,997.9634898,None,up,2.865658,997.9634898,None,997.9634898,999.179213,0.2008557,None,,,,,,,,,48,1,2020_Jan_03_1626,untitled,3.1.0,60.06922378
464,_5,M,315,R,N,464_5M315RN,HRN,0,171,171,183,,,1.377,1001.033906,1001.327284,1001.327284,1001.545055,1001.560977,None,down,3.4488804,1001.560977,None,1001.560977,1002.926422,0.1915071,None,,,,,,,,,48,1,2020_Jan_03_1626,untitled,3.1.0,60.06922378
140,F,M,135,R,N,140FM135RN,HRN,0,172,172,115,,,0.709,1005.222974,1005.52372,1005.52372,1005.723593,1005.740228,None,down,2.3996415,1005.740228,None,1005.740228,1006.43999,0.1982506,None,,,,,,,,,48,1,2020_Jan_03_1626,untitled,3.1.0,60.06922378
_,G,M,0,_,_,_GM000__,N,0,173,173,8,,,0.762,1008.383073,1008.688599,1008.688599,1008.854151,1008.870893,None,down,2.516398,1008.870893,None,1008.870893,1009.620136,0.2273069,None,,,,,,,,,48,1,2020_Jan_03_1626,untitled,3.1.0,60.06922378
385,_4,N,0,R,N,385_4N000RN,HRN,0,174,174,256,,,1.223,1011.583087,1011.884639,1011.884639,1012.101096,1012.117916,None,up,2.0006044,1012.117916,None,1012.117916,1013.333449,0.1841973,None,,,,,,,,,48,1,2020_Jan_03_1626,untitled,3.1.0,60.06922378
418,_4,N,45,L,N,418_4N045LN,HLN,0,175,175,265,,,0.942,1014.336917,1014.632677,1014.632677,1014.832135,1014.848792,None,up,1.7851476,1014.848792,None,1014.848792,1015.782739,0.2060792,None,,,,,,,,,48,1,2020_Jan_03_1626,untitled,3.1.0,60.06922378
235,G,M,90,L,N,235GM090LN,HLN,0,176,176,138,,,1.143,1016.863581,1017.163519,1017.163519,1017.363279,1017.363279,None,down,2.5657798,1017.363279,None,1017.363279,1018.495621,0.2130883,None,,,,,,,,,48,1,2020_Jan_03_1626,untitled,3.1.0,60.06922378
_,F,N,270,_,_,_FN270__,N,0,177,177,54,,,1.241,1020.129632,1020.427277,1020.427277,1020.643744,1020.66046,None,up,2.0518391,1020.66046,None,1020.66046,1021.892915,0.1875356,None,,,,,,,,,48,1,2020_Jan_03_1626,untitled,3.1.0,60.06922378
_,_4,N,270,_,_,__4N270__,N,0,178,178,86,,,1.266,1022.951247,1023.241744,1023.241744,1023.425082,1023.441696,None,up,2.1358293,1023.441696,None,1023.441696,1024.690024,0.2252365,None,,,,,,,,,48,1,2020_Jan_03_1626,untitled,3.1.0,60.06922378
_,F,N,90,_,_,_FN090__,N,0,179,179,50,,,1.135,1025.88224,1026.172807,1026.172807,1026.307284,1026.307284,None,up,1.9996722,1026.307284,None,1026.307284,1027.437756,0.2840074,None,,,,,,,,,48,1,2020_Jan_03_1626,untitled,3.1.0,60.06922378
_,_2,M,45,_,_,__2M045__,N,0,180,180,25,,,0.744,1028.549886,1028.838329,1028.838329,1029.019742,1029.036629,None,down,3.0652387,1029.036629,None,1029.036629,1029.769178,0.2302435,None,,,,,,,,,48,1,2020_Jan_03_1626,untitled,3.1.0,60.06922378
229,G,N,180,L,N,229GN180LN,HLN,0,181,181,236,,,0.776,1032.309385,1032.600108,1032.600108,1032.816481,1032.833086,None,up,2.8006229,1032.833086,None,1032.833086,1033.59899,0.1942879,None,,,,,,,,,48,1,2020_Jan_03_1626,untitled,3.1.0,60.06922378
297,_2,M,0,L,N,297_2M000LN,HLN,0,182,182,152,,,1.222,1035.858977,1036.147218,1036.147218,1036.346548,1036.36337,None,down,2.6500235,1036.36337,None,1036.36337,1037.579751,0.2105329,None,,,,,,,,,48,1,2020_Jan_03_1626,untitled,3.1.0,60.06922378
263,_2,N,270,R,N,263_2N270RN,HRN,0,183,183,246,,,1.262,1039.252039,1039.544166,1039.544166,1039.727193,1039.744225,None,up,1.9684254,1039.744225,None,1039.744225,1040.99311,0.2238407,None,,,,,,,,,48,1,2020_Jan_03_1626,untitled,3.1.0,60.06922378
173,F,M,180,L,N,173FM180LN,HLN,0,184,184,124,,,1.298,1042.148546,1042.312759,1042.312759,1042.441429,1042.441429,None,down,2.8836057,1042.441429,None,1042.441429,1043.723571,0.3037379,None,,,,,,,,,48,1,2020_Jan_03_1626,untitled,3.1.0,60.06922378
174,F,M,225,L,N,174FM225LN,HLN,0,185,185,125,,,1.303,1045.517778,1045.805753,1045.805753,1046.038527,1046.054993,None,down,2.8154,1046.054993,None,1046.054993,1047.337373,0.180131,None,,,,,,,,,48,1,2020_Jan_03_1626,untitled,3.1.0,60.06922378
_,_4,M,0,_,_,__4M000__,N,0,186,186,32,,,1.124,1049.071576,1049.368943,1049.368943,1049.585253,1049.6021,None,up,2.6817847,1049.6021,None,1049.6021,1050.718853,0.1892565,None,,,,,,,,,48,1,2020_Jan_03_1626,untitled,3.1.0,60.06922378
486,_5,N,225,L,N,486_5N225LN,HLN,0,187,187,285,,,0.872,1052.48857,1052.782777,1052.782777,1052.999223,1053.016056,None,up,2.0490395,1053.016056,None,1053.016056,1053.881355,0.1923762,None,,,,,,,,,48,1,2020_Jan_03_1626,untitled,3.1.0,60.06922378
387,_4,N,90,R,N,387_4N090RN,HRN,0,188,188,258,,,0.766,1055.296411,1055.596583,1055.596583,1055.7806,1055.8036,None,up,2.1930579,1055.8036,None,1055.8036,1056.545648,0.2163543,None,,,,,,,,,48,1,2020_Jan_03_1626,untitled,3.1.0,60.06922378
490,_5,M,45,L,N,490_5M045LN,HLN,0,189,189,185,,,0.855,1058.223723,1058.512221,1058.512221,1058.711973,1058.727222,None,down,2.132529,1058.727222,None,1058.727222,1059.57628,0.2137892,None,,,,,,,,,48,1,2020_Jan_03_1626,untitled,3.1.0,60.06922378
129,F,N,0,R,N,129FN000RN,HRN,0,190,190,208,,,0.813,1061.047963,1061.341615,1061.341615,1061.575258,1061.59164,None,down,2.0497713,1061.59164,None,1061.59164,1062.390568,0.1768923,None,,,,,,,,,48,1,2020_Jan_03_1626,untitled,3.1.0,60.06922378
44,R,M,135,L,N,044RM135LN,HLN,0,191,191,107,,,0.956,1063.8627,1064.155709,1064.155709,1064.35551,1064.372129,None,None,,1064.372129,None,1064.372129,1065.321271,0.2090289,None,,,,,,,,,48,1,2020_Jan_03_1626,untitled,3.1.0,60.06922378
_,_4,M,315,_,_,__4M315__,N,0,192,192,39,,,1.288,1068.02107,1068.318907,1068.318907,1068.552228,1068.569075,1068.02107,down,2.6837045,1068.569075,None,1068.569075,1069.834188,0.1744674,None,,,,,,,,,48,1,2020_Jan_03_1626,untitled,3.1.0,60.06922378
231,G,N,270,L,N,231GN270LN,HLN,0,193,193,238,,,1.393,1071.499436,1071.799433,1071.799433,1071.965869,1071.9824,None,up,2.6670977,1071.9824,None,1071.9824,1073.404068,0.2313527,None,,,,,,,,,48,1,2020_Jan_03_1626,untitled,3.1.0,60.06922378
461,_5,M,180,R,N,461_5M180RN,HRN,0,194,194,180,,,1.096,1074.852913,1075.146449,1075.146449,1075.362827,1075.379393,None,down,2.9319937,1075.379393,None,1075.379393,1076.464101,0.1909886,None,,,,,,,,,48,1,2020_Jan_03_1626,untitled,3.1.0,60.06922378
495,_5,M,270,L,N,495_5M270LN,HLN,0,195,195,190,,,1.299,1078.509479,1078.809719,1078.809719,1079.026205,1079.043069,None,down,3.3821098,1079.043069,None,1079.043069,1080.32503,0.1859925,None,,,,,,,,,48,1,2020_Jan_03_1626,untitled,3.1.0,60.06922378
199,G,N,270,R,N,199GN270RN,HRN,0,196,196,230,,,0.861,1082.634949,1082.924746,1082.924746,1083.139223,1083.155821,None,up,1.7994783,1083.155821,None,1083.155821,1084.005442,0.1957086,None,,,,,,,,,48,1,2020_Jan_03_1626,untitled,3.1.0,60.06922378
_,G,N,270,_,_,_GN270__,N,0,197,197,62,,,1.207,1085.187494,1085.487492,1085.487492,1085.670948,1085.687456,None,up,2.0823968,1085.687456,None,1085.687456,1086.886576,0.217452,None,,,,,,,,,48,1,2020_Jan_03_1626,untitled,3.1.0,60.06922378
271,_2,M,270,R,N,271_2M270RN,HRN,0,198,198,150,,,1.256,1087.966189,1088.268876,1088.268876,1088.507707,1088.547092,None,down,2.5710844,1088.547092,None,1088.547092,1089.733407,0.1833755,None,,,,,,,,,48,1,2020_Jan_03_1626,untitled,3.1.0,60.06922378
_,G,M,270,_,_,_GM270__,N,0,199,199,14,,,0.895,1091.310623,1091.60036,1091.60036,1091.831695,1091.848278,None,down,2.3994445,1091.848278,None,1091.848278,1092.730791,0.1799076,None,,,,,,,,,48,1,2020_Jan_03_1626,untitled,3.1.0,60.06922378
396,_4,M,135,R,N,396_4M135RN,HRN,0,200,200,163,,,0.966,1094.451285,1094.745633,1094.745633,1094.962207,1094.979003,None,None,,1094.979003,None,1094.979003,1095.928306,0.1907152,None,,,,,,,,,48,1,2020_Jan_03_1626,untitled,3.1.0,60.06922378
_,R,M,180,_,_,_RM180__,N,0,201,201,20,,,1.17,1098.638223,1098.940381,1098.940381,1099.15851,1099.175604,1098.638223,down,2.9657328,1099.175604,None,1099.175604,1100.324992,0.1848901,None,,,,,,,,,48,1,2020_Jan_03_1626,untitled,3.1.0,60.06922378
205,G,M,180,R,N,205GM180RN,HRN,0,202,202,132,,,1.136,1102.379582,1102.672235,1102.672235,1102.855564,1102.872504,None,down,2.7150383,1102.872504,None,1102.872504,1104.005545,0.2224164,None,,,,,,,,,48,1,2020_Jan_03_1626,untitled,3.1.0,60.06922378
394,_4,M,45,R,N,394_4M045RN,HRN,0,203,203,161,,,1.275,1105.775072,1106.069159,1106.069159,1106.302414,1106.319104,None,None,,1106.319104,None,1106.319104,1107.584649,0.1759916,None,,,,,,,,,48,1,2020_Jan_03_1626,untitled,3.1.0,60.06922378
143,F,M,270,R,N,143FM270RN,HRN,0,204,204,118,,,1.259,1109.994831,1110.28362,1110.28362,1110.498694,1110.515341,1109.994831,down,2.2671623,1110.515341,None,1110.515341,1111.764354,0.1999088,None,,,,,,,,,48,1,2020_Jan_03_1626,untitled,3.1.0,60.06922378
_,_2,M,135,_,_,__2M135__,N,0,205,205,27,,,1.299,1113.007002,1113.296191,1113.296191,1113.496108,1113.512782,None,up,3.2499129,1113.512782,None,1113.512782,1114.795496,0.2119716,None,,,,,,,,,48,1,2020_Jan_03_1626,untitled,3.1.0,60.06922378
1,R,N,0,R,N,001RN000RN,HRN,0,206,206,192,,,0.85,1116.992251,1117.292931,1117.292931,1117.476626,1117.4942,None,up,1.8983921,1117.4942,None,1117.4942,1118.325259,0.2154375,None,,,,,,,,,48,1,2020_Jan_03_1626,untitled,3.1.0,60.06922378
13,R,M,180,R,N,013RM180RN,HRN,0,207,207,100,,,1.175,1119.648139,1119.96687,1119.96687,1120.108242,1120.130065,None,down,2.7759254,1120.130065,None,1120.130065,1121.290805,0.2403715,None,,,,,,,,,48,1,2020_Jan_03_1626,untitled,3.1.0,60.06922378
_,R,N,180,_,_,_RN180__,N,0,208,208,68,,,0.84,1123.15787,1123.453821,1123.453821,1123.620642,1123.63722,None,up,1.8628321,1123.63722,None,1123.63722,1124.469914,0.238447,None,,,,,,,,,48,1,2020_Jan_03_1626,untitled,3.1.0,60.06922378
293,_2,N,180,L,N,293_2N180LN,HLN,0,209,209,252,,,1.392,1125.699527,1126.000148,1126.000148,1126.218759,1126.237328,None,up,2.8824743,1126.237328,None,1126.237328,1127.617706,0.1794668,None,,,,,,,,,48,1,2020_Jan_03_1626,untitled,3.1.0,60.06922378
195,G,N,90,R,N,195GN090RN,HRN,0,210,210,226,,,1.037,1129.390711,1129.682257,1129.682257,1129.831691,1129.848591,None,up,2.7813706,1129.848591,None,1129.848591,1130.880646,0.2567562,None,,,,,,,,,48,1,2020_Jan_03_1626,untitled,3.1.0,60.06922378
161,F,N,0,L,N,161FN000LN,HLN,0,211,211,216,,,1.392,1132.852502,1133.145689,1133.145689,1133.345493,1133.362486,None,up,2.0516071,1133.362486,None,1133.362486,1134.744548,0.2088164,None,,,,,,,,,48,1,2020_Jan_03_1626,untitled,3.1.0,60.06922378
265,_2,M,0,R,N,265_2M000RN,HRN,0,212,212,144,,,1.242,1135.690678,1135.994496,1135.994496,1136.14319,1136.14319,None,down,2.6651929,1136.14319,None,1136.14319,1137.375423,0.2583682,None,,,,,,,,,48,1,2020_Jan_03_1626,untitled,3.1.0,60.06922378
_,F,M,270,_,_,_FM270__,N,0,213,213,6,,,1.389,1139.009845,1139.306807,1139.306807,1139.524647,1139.540054,None,down,2.4156642,1139.540054,None,1139.540054,1140.922277,0.1894648,None,,,,,,,,,48,1,2020_Jan_03_1626,untitled,3.1.0,60.06922378
48,R,M,315,L,N,048RM315LN,HLN,0,214,214,111,,,0.72,1142.142927,1142.43749,1142.43749,1142.670465,1142.68717,None,down,2.2156025,1142.68717,None,1142.68717,1143.386465,0.1752766,None,,,,,,,,,48,1,2020_Jan_03_1626,untitled,3.1.0,60.06922378
227,G,N,90,L,N,227GN090LN,HLN,0,215,215,234,,,0.994,1145.123936,1145.41816,1145.41816,1145.618002,1145.634814,None,down,2.2008212,1145.634814,None,1145.634814,1146.61849,0.2082901,None,,,,,,,,,48,1,2020_Jan_03_1626,untitled,3.1.0,60.06922378
_,_4,M,135,_,_,__4M135__,N,0,216,216,35,,,1.052,1148.086631,1148.382436,1148.382436,1148.54932,1148.565929,None,down,2.433439,1148.565929,None,1148.565929,1149.615053,0.2353941,None,,,,,,,,,48,1,2020_Jan_03_1626,untitled,3.1.0,60.06922378
_,_2,M,225,_,_,__2M225__,N,0,217,217,29,,,1.149,1151.339859,1151.629485,1151.629485,1151.714033,1151.730932,None,down,2.499452,1151.730932,None,1151.730932,1152.861819,0.324109,None,,,,,,,,,48,1,2020_Jan_03_1626,untitled,3.1.0,60.06922378
494,_5,M,225,L,N,494_5M225LN,HLN,0,218,218,189,,,1.119,1154.442552,1154.743409,1154.743409,1154.943239,1154.959834,None,down,2.7671793,1154.959834,None,1154.959834,1156.058873,0.1996424,None,,,,,,,,,48,1,2020_Jan_03_1626,untitled,3.1.0,60.06922378
_,F,M,225,_,_,_FM225__,N,0,219,219,5,,,1.271,1157.921674,1158.208595,1158.208595,1158.440036,1158.456631,None,down,2.9819871,1158.456631,None,1158.456631,1159.722236,0.1821832,None,,,,,,,,,48,1,2020_Jan_03_1626,untitled,3.1.0,60.06922378
_,G,M,315,_,_,_GM315__,N,0,220,220,15,,,1.083,1161.632836,1161.922044,1161.922044,1162.153616,1162.170233,None,down,3.3996714,1162.170233,None,1162.170233,1163.23696,0.1827907,None,,,,,,,,,48,1,2020_Jan_03_1626,untitled,3.1.0,60.06922378
165,F,N,180,L,N,165FN180LN,HLN,0,221,221,220,,,0.95,1165.795349,1166.084418,1166.084418,1166.283708,1166.300608,None,up,2.1984966,1166.300608,None,1166.300608,1167.233899,0.2114473,None,,,,,,,,,48,1,2020_Jan_03_1626,untitled,3.1.0,60.06922378
_,_2,M,90,_,_,__2M090__,N,0,222,222,26,,,0.865,1168.679248,1168.981014,1168.981014,1169.214361,1169.230672,None,down,2.6004247,1169.230672,None,1169.230672,1170.079947,0.1688384,None,,,,,,,,,48,1,2020_Jan_03_1626,untitled,3.1.0,60.06922378
462,_5,M,225,R,N,462_5M225RN,HRN,0,223,223,181,,,1.226,1172.089911,1172.311616,1172.311616,1172.544506,1172.561099,None,down,3.0153808,1172.561099,None,1172.561099,1173.776757,0.1797486,None,,,,,,,,,48,1,2020_Jan_03_1626,untitled,3.1.0,60.06922378
_,R,M,225,_,_,_RM225__,N,0,224,224,21,,,1.12,1175.783791,1176.075714,1176.075714,1176.291722,1176.308128,None,down,2.0831756,1176.308128,None,1176.308128,1177.40667,0.1946463,None,,,,,,,,,48,1,2020_Jan_03_1626,untitled,3.1.0,60.06922378
_,F,N,0,_,_,_FN000__,N,0,225,225,48,,,1.164,1178.617672,1178.907953,1178.907953,1179.105848,1179.122766,None,up,2.332298,1179.122766,None,1179.122766,1180.271922,0.2137764,None,,,,,,,,,48,1,2020_Jan_03_1626,untitled,3.1.0,60.06922378
259,_2,N,90,R,N,259_2N090RN,HRN,0,226,226,242,,,1.342,1181.692752,1181.986275,1181.986275,1182.169514,1182.186263,None,down,3.4487612,1182.186263,None,1182.186263,1183.519911,0.2237214,None,,,,,,,,,48,1,2020_Jan_03_1626,untitled,3.1.0,60.06922378
167,F,N,270,L,N,167FN270LN,HLN,0,227,227,222,,,0.77,1185.8163,1186.115764,1186.115764,1186.349256,1186.366411,None,up,1.6656808,1186.366411,None,1186.366411,1187.114581,0.169632,None,,,,,,,,,48,1,2020_Jan_03_1626,untitled,3.1.0,60.06922378
_,G,N,315,_,_,_GN315__,N,0,228,228,63,,,1.289,1188.23396,1188.530449,1188.530449,1188.746868,1188.76364,None,up,2.2992205,1188.76364,None,1188.76364,1190.045789,0.188666,None,,,,,,,,,48,1,2020_Jan_03_1626,untitled,3.1.0,60.06922378
463,_5,M,270,R,N,463_5M270RN,HRN,0,229,229,182,,,1.095,1191.279735,1191.577419,1191.577419,1191.77757,1191.794188,None,down,2.2183096,1191.794188,None,1191.794188,1192.87652,0.204012,None,,,,,,,,,48,1,2020_Jan_03_1626,untitled,3.1.0,60.06922378
298,_2,M,45,L,N,298_2M045LN,HLN,0,230,230,153,,,0.993,1194.262373,1194.559067,1194.559067,1194.725328,1194.74245,None,down,3.4314465,1194.74245,None,1194.74245,1195.725181,0.2360307,None,,,,,,,,,48,1,2020_Jan_03_1626,untitled,3.1.0,60.06922378
296,_2,N,315,L,N,296_2N315LN,HLN,0,231,231,255,,,1.074,1198.408795,1198.706062,1198.706062,1198.889832,1198.929437,None,down,2.8415191,1198.929437,None,1198.929437,1199.970584,0.2217813,None,,,,,,,,,48,1,2020_Jan_03_1626,untitled,3.1.0,60.06922378
_,_2,N,225,_,_,__2N225__,N,0,232,232,77,,,1.166,1201.956778,1202.251755,1202.251755,1202.48498,1202.501778,None,up,1.9991427,1202.501778,None,1202.501778,1203.650473,0.170233,None,,,,,,,,,48,1,2020_Jan_03_1626,untitled,3.1.0,60.06922378
_,G,N,135,_,_,_GN135__,N,0,233,233,59,,,1.213,1204.694807,1204.984504,1204.984504,1205.216137,1205.232924,None,up,2.7016767,1205.232924,None,1205.232924,1206.431432,0.1815446,None,,,,,,,,,48,1,2020_Jan_03_1626,untitled,3.1.0,60.06922378
455,_5,N,270,R,N,455_5N270RN,HRN,0,234,234,278,,,0.927,1208.172738,1208.463297,1208.463297,1208.663028,1208.679628,None,up,1.6501441,1208.679628,None,1208.679628,1209.57911,0.2174236,None,,,,,,,,,48,1,2020_Jan_03_1626,untitled,3.1.0,60.06922378
238,G,M,225,L,N,238GM225LN,HLN,0,235,235,141,,,0.927,1210.576804,1210.878319,1210.878319,1211.044551,1211.061512,None,down,2.7149348,1211.061512,None,1211.061512,1211.977112,0.2324816,None,,,,,,,,,48,1,2020_Jan_03_1626,untitled,3.1.0,60.06922378
230,G,N,225,L,N,230GN225LN,HLN,0,236,236,237,,,1.133,1214.000645,1214.292859,1214.292859,1214.514248,1214.553111,None,up,1.9720076,1214.553111,None,1214.553111,1215.623535,0.2111735,None,,,,,,,,,48,1,2020_Jan_03_1626,untitled,3.1.0,60.06922378
12,R,M,135,R,N,012RM135RN,HRN,0,237,237,99,,,1.187,1216.76716,1217.055834,1217.055834,1217.238899,1217.255526,None,down,2.799835,1217.255526,None,1217.255526,1218.421204,0.229358,None,,,,,,,,,48,1,2020_Jan_03_1626,untitled,3.1.0,60.06922378
483,_5,N,90,L,N,483_5N090LN,HLN,0,238,238,282,,,1.111,1220.269361,1220.569551,1220.569551,1220.769419,1220.785803,None,up,2.3495616,1220.785803,None,1220.785803,1221.885925,0.2010733,None,,,,,,,,,48,1,2020_Jan_03_1626,untitled,3.1.0,60.06922378
_,G,M,135,_,_,_GM135__,N,0,239,239,11,,,0.867,1223.344597,1223.634297,1223.634297,1223.849711,1223.86645,None,down,2.3835618,1223.86645,None,1223.86645,1224.715844,0.1970869,None,,,,,,,,,48,1,2020_Jan_03_1626,untitled,3.1.0,60.06922378
34,R,N,45,L,N,034RN045LN,HLN,0,240,240,201,,,0.838,1226.491509,1226.780966,1226.780966,1226.963714,1226.980321,None,up,1.6169724,1226.980321,None,1226.980321,1227.813536,0.2265112,None,,,,,,,,,48,1,2020_Jan_03_1626,untitled,3.1.0,60.06922378
_,R,N,0,_,_,_RN000__,N,0,241,241,64,,,0.891,1228.826392,1229.128698,1229.128698,1229.311552,1229.328272,None,up,1.9668125,1229.328272,None,1229.328272,1230.212098,0.2152606,None,,,,,,,,,48,1,2020_Jan_03_1626,untitled,3.1.0,60.06922378
130,F,N,45,R,N,130FN045RN,HRN,0,242,242,209,,,1.152,1231.506546,1231.794149,1231.794149,1232.009826,1232.025854,None,up,2.2492401,1232.025854,None,1232.025854,1233.174924,0.1961849,None,,,,,,,,,48,1,2020_Jan_03_1626,untitled,3.1.0,60.06922378
427,_4,M,90,L,N,427_4M090LN,HLN,0,243,243,170,,,0.949,1234.47142,1234.773956,1234.773956,1234.989809,1235.006561,None,down,2.3825504,1235.006561,None,1235.006561,1235.939153,0.1836529,None,,,,,,,,,48,1,2020_Jan_03_1626,untitled,3.1.0,60.06922378
_,_5,N,315,_,_,__5N315__,N,0,244,244,95,,,1.104,1237.572513,1237.870929,1237.870929,1238.10427,1238.12064,None,None,,1238.12064,None,1238.12064,1239.204587,0.1711948,None,,,,,,,,,48,1,2020_Jan_03_1626,untitled,3.1.0,60.06922378
428,_4,M,135,L,N,428_4M135LN,HLN,0,245,245,171,,,0.73,1241.817884,1242.117317,1242.117317,1242.300502,1242.317227,1241.817884,down,2.0506865,1242.317227,None,1242.317227,1243.033549,0.2196342,None,,,,,,,,,48,1,2020_Jan_03_1626,untitled,3.1.0,60.06922378
193,G,N,0,R,N,193GN000RN,HRN,0,246,246,224,,,1.113,1244.609673,1244.898883,1244.898883,1245.08127,1245.098074,None,up,3.3161337,1245.098074,None,1245.098074,1246.199774,0.2266874,None,,,,,,,,,48,1,2020_Jan_03_1626,untitled,3.1.0,60.06922378
166,F,N,225,L,N,166FN225LN,HLN,0,247,247,221,,,0.767,1248.607773,1248.911113,1248.911113,1249.127562,1249.14438,None,up,2.7321353,1249.14438,None,1249.14438,1249.893604,0.1823664,None,,,,,,,,,48,1,2020_Jan_03_1626,untitled,3.1.0,60.06922378
_,G,N,180,_,_,_GN180__,N,0,248,248,60,,,0.904,1252.062243,1252.358089,1252.358089,1252.591041,1252.607736,None,up,2.7991581,1252.607736,None,1252.607736,1253.493177,0.173483,None,,,,,,,,,48,1,2020_Jan_03_1626,untitled,3.1.0,60.06922378
45,R,M,180,L,N,045RM180LN,HLN,0,249,249,108,,,0.97,1255.613915,1255.905063,1255.905063,1256.121501,1256.138246,None,down,2.6152386,1256.138246,None,1256.138246,1257.087087,0.1942071,None,,,,,,,,,48,1,2020_Jan_03_1626,untitled,3.1.0,60.06922378
_,_5,N,0,_,_,__5N000__,N,0,250,250,88,,,0.755,1258.974467,1259.269364,1259.269364,1259.468941,1259.485437,None,up,3.0340781,1259.485437,None,1259.485437,1260.235334,0.2061952,None,,,,,,,,,48,1,2020_Jan_03_1626,untitled,3.1.0,60.06922378
194,G,N,45,R,N,194GN045RN,HRN,0,251,251,225,,,0.939,1262.746607,1263.03346,1263.03346,1263.232102,1263.249742,None,up,2.1833068,1263.249742,None,1263.249742,1264.181473,0.209194,None,,,,,,,,,48,1,2020_Jan_03_1626,untitled,3.1.0,60.06922378
_,_5,M,225,_,_,__5M225__,N,0,252,252,45,,,0.827,1265.61005,1265.913081,1265.913081,1266.146192,1266.163172,None,down,1.9658321,1266.163172,None,1266.163172,1266.978425,0.1650977,None,,,,,,,,,48,1,2020_Jan_03_1626,untitled,3.1.0,60.06922378
421,_4,N,180,L,N,421_4N180LN,HLN,0,253,253,268,,,1.356,1268.333638,1268.627235,1268.627235,1268.843748,1268.860617,None,down,3.2982854,1268.860617,None,1268.860617,1270.209822,0.192751,None,,,,,,,,,48,1,2020_Jan_03_1626,untitled,3.1.0,60.06922378
426,_4,M,45,L,N,426_4M045LN,HLN,0,254,254,169,,,1.035,1272.355936,1272.656964,1272.656964,1272.873563,1272.890216,None,down,2.033108,1272.890216,None,1272.890216,1273.90685,0.1843872,None,,,,,,,,,48,1,2020_Jan_03_1626,untitled,3.1.0,60.06922378
400,_4,M,315,R,N,400_4M315RN,HRN,0,255,255,167,,,0.985,1275.156537,1275.454884,1275.454884,1275.638291,1275.655802,None,down,2.9815639,1275.655802,None,1275.655802,1276.621412,0.217915,None,,,,,,,,,48,1,2020_Jan_03_1626,untitled,3.1.0,60.06922378
395,_4,M,90,R,N,395_4M090RN,HRN,0,256,256,162,,,1.063,1278.848425,1279.149582,1279.149582,1279.351035,1279.368014,None,down,2.4488733,1279.368014,None,1279.368014,1280.417325,0.1987872,None,,,,,,,,,48,1,2020_Jan_03_1626,untitled,3.1.0,60.06922378
420,_4,N,135,L,N,420_4N135LN,HLN,0,257,257,267,,,1.234,1282.073678,1282.298566,1282.298566,1282.531651,1282.548389,None,up,2.133152,1282.548389,None,1282.548389,1283.764115,0.1766377,None,,,,,,,,,48,1,2020_Jan_03_1626,untitled,3.1.0,60.06922378
201,G,M,0,R,N,201GM000RN,HRN,0,258,258,128,,,0.903,1285.886838,1286.178955,1286.178955,1286.395065,1286.411617,None,down,2.8158569,1286.411617,None,1286.411617,1287.294542,0.1923331,None,,,,,,,,,48,1,2020_Jan_03_1626,untitled,3.1.0,60.06922378
36,R,N,135,L,N,036RN135LN,HLN,0,259,259,203,,,1.277,1289.462128,1289.759218,1289.759218,1289.942274,1289.959016,None,down,2.4165018,1289.959016,None,1289.959016,1291.224652,0.2195727,None,,,,,,,,,48,1,2020_Jan_03_1626,untitled,3.1.0,60.06922378
_,G,N,0,_,_,_GN000__,N,0,260,260,56,,,0.996,1292.585568,1292.890618,1292.890618,1293.089955,1293.107151,None,up,2.1153222,1293.107151,None,1293.107151,1294.088836,0.1966329,None,,,,,,,,,48,1,2020_Jan_03_1626,untitled,3.1.0,60.06922378
_,R,M,45,_,_,_RM045__,N,0,261,261,17,,,0.749,1295.43005,1295.720309,1295.720309,1295.93669,1295.953586,None,down,1.7998407,1295.953586,None,1295.953586,1296.687018,0.1946536,None,,,,,,,,,48,1,2020_Jan_03_1626,untitled,3.1.0,60.06922378
_,_5,M,315,_,_,__5M315__,N,0,262,262,47,,,1.041,1297.951268,1298.251538,1298.251538,1298.46784,1298.484595,None,None,,1298.484595,None,1298.484595,1299.517138,0.1839181,None,,,,,,,,,48,1,2020_Jan_03_1626,untitled,3.1.0,60.06922378
291,_2,N,90,L,N,291_2N090LN,HLN,0,263,263,250,,,1.256,1302.147337,1302.447918,1302.447918,1302.664942,1302.681041,1302.147337,up,2.0006101,1302.681041,None,1302.681041,1303.914922,0.1877315,None,,,,,,,,,48,1,2020_Jan_03_1626,untitled,3.1.0,60.06922378
_,G,N,225,_,_,_GN225__,N,0,264,264,61,,,1.097,1304.891125,1305.180606,1305.180606,1305.395471,1305.412137,None,up,2.6503108,1305.412137,None,1305.412137,1306.495299,0.1969286,None,,,,,,,,,48,1,2020_Jan_03_1626,untitled,3.1.0,60.06922378
_,R,N,270,_,_,_RN270__,N,0,265,265,70,,,0.844,1308.290575,1308.593492,1308.593492,1308.776519,1308.795593,None,up,1.9310011,1308.795593,None,1308.795593,1309.624545,0.2131238,None,,,,,,,,,48,1,2020_Jan_03_1626,untitled,3.1.0,60.06922378
493,_5,M,180,L,N,493_5M180LN,HLN,0,266,266,188,,,0.731,1310.925352,1311.223289,1311.223289,1311.440079,1311.456646,None,up,3.0508533,1311.456646,None,1311.456646,1312.172513,0.1833752,None,,,,,,,,,48,1,2020_Jan_03_1626,untitled,3.1.0,60.06922378
2,R,N,45,R,N,002RN045RN,HRN,0,267,267,193,,,0.891,1314.700479,1314.988104,1314.988104,1315.22063,1315.236872,None,up,2.7164963,1315.236872,None,1315.236872,1316.118797,0.1792286,None,,,,,,,,,48,1,2020_Jan_03_1626,untitled,3.1.0,60.06922378
136,F,N,315,R,N,136FN315RN,HRN,0,268,268,215,,,1.204,1318.200189,1318.500306,1318.500306,1318.667066,1318.683666,None,up,1.9179336,1318.683666,None,1318.683666,1319.883232,0.229949,None,,,,,,,,,48,1,2020_Jan_03_1626,untitled,3.1.0,60.06922378
496,_5,M,315,L,N,496_5M315LN,HLN,0,269,269,191,,,0.88,1320.849631,1321.148523,1321.148523,1321.315231,1321.33239,None,down,3.2977739,1321.33239,None,1321.33239,1322.197738,0.2338623,None,,,,,,,,,48,1,2020_Jan_03_1626,untitled,3.1.0,60.06922378
_,_4,N,180,_,_,__4N180__,N,0,270,270,84,,,0.787,1324.90352,1325.194796,1325.194796,1325.361149,1325.361149,None,up,2.7488073,1325.361149,None,1325.361149,1326.144473,0.2530228,None,,,,,,,,,48,1,2020_Jan_03_1626,untitled,3.1.0,60.06922378
_,_5,N,135,_,_,__5N135__,N,0,271,271,91,,,0.864,1328.30184,1328.591614,1328.591614,1328.824773,1328.841488,None,up,2.0159235,1328.841488,None,1328.841488,1329.69091,0.1799986,None,,,,,,,,,48,1,2020_Jan_03_1626,untitled,3.1.0,60.06922378
38,R,N,225,L,N,038RN225LN,HLN,0,272,272,205,,,0.801,1331.065999,1331.355954,1331.355954,1331.57351,1331.589222,None,up,2.5001154,1331.589222,None,1331.589222,1332.371608,0.1962949,None,,,,,,,,,48,1,2020_Jan_03_1626,untitled,3.1.0,60.06922378
450,_5,N,45,R,N,450_5N045RN,HRN,0,273,273,273,,,0.745,1334.298966,1334.588041,1334.588041,1334.802792,1334.819666,None,up,1.5999258,1334.819666,None,1334.819666,1335.552236,0.1975543,None,,,,,,,,,48,1,2020_Jan_03_1626,untitled,3.1.0,60.06922378
237,G,M,180,L,N,237GM180LN,HLN,0,274,274,140,,,0.811,1336.697638,1336.985428,1336.985428,1337.134424,1337.178031,None,down,2.4559639,1337.178031,None,1337.178031,1337.950627,0.2620629,None,,,,,,,,,48,1,2020_Jan_03_1626,untitled,3.1.0,60.06922378
141,F,M,180,R,N,141FM180RN,HRN,0,275,275,116,,,0.935,1339.884786,1340.182555,1340.182555,1340.380224,1340.380224,None,down,2.26751,1340.380224,None,1340.380224,1341.280785,0.2374423,None,,,,,,,,,48,1,2020_Jan_03_1626,untitled,3.1.0,60.06922378
175,F,M,270,L,N,175FM270LN,HLN,0,276,276,126,,,1.179,1342.857409,1343.145616,1343.145616,1343.362309,1343.37879,None,down,2.149618,1343.37879,None,1343.37879,1344.544579,0.1974241,None,,,,,,,,,48,1,2020_Jan_03_1626,untitled,3.1.0,60.06922378
_,_5,N,270,_,_,__5N270__,N,0,277,277,94,,,1.232,1345.745599,1346.043116,1346.043116,1346.242759,1346.259436,None,up,1.9330149,1346.259436,None,1346.259436,1347.475366,0.2034206,None,,,,,,,,,48,1,2020_Jan_03_1626,untitled,3.1.0,60.06922378
_,F,M,45,_,_,_FM045__,N,0,278,278,1,,,0.802,1348.401255,1348.69083,1348.69083,1348.907237,1348.923935,None,down,2.7490279,1348.923935,None,1348.923935,1349.706612,0.1938351,None,,,,,,,,,48,1,2020_Jan_03_1626,untitled,3.1.0,60.06922378
_,F,N,45,_,_,_FN045__,N,0,279,279,49,,,0.858,1351.890656,1352.187934,1352.187934,1352.387608,1352.404545,None,up,1.6510472,1352.404545,None,1352.404545,1353.254037,0.2043627,None,,,,,,,,,48,1,2020_Jan_03_1626,untitled,3.1.0,60.06922378
_,R,N,225,_,_,_RN225__,N,0,280,280,69,,,1.258,1354.300568,1354.602565,1354.602565,1354.769462,1354.785888,None,up,2.6154983,1354.785888,None,1354.785888,1356.036211,0.228622,None,,,,,,,,,48,1,2020_Jan_03_1626,untitled,3.1.0,60.06922378
264,_2,N,315,R,N,264_2N315RN,HRN,0,281,281,247,,,1.097,1357.598283,1357.899258,1357.899258,1358.115746,1358.13251,None,down,2.2830485,1358.13251,None,1358.13251,1359.215811,0.1839161,None,,,,,,,,,48,1,2020_Jan_03_1626,untitled,3.1.0,60.06922378
_,_4,M,225,_,_,__4M225__,N,0,282,282,37,,,1.246,1360.612752,1360.913525,1360.913525,1361.129826,1361.146629,None,down,2.8998381,1361.146629,None,1361.146629,1362.378687,0.1838222,None,,,,,,,,,48,1,2020_Jan_03_1626,untitled,3.1.0,60.06922378
_,F,M,90,_,_,_FM090__,N,0,283,283,2,,,0.755,1364.246211,1364.543772,1364.543772,1364.759991,1364.776708,None,None,,1364.776708,None,1364.776708,1365.52698,0.1838411,None,,,,,,,,,48,1,2020_Jan_03_1626,untitled,3.1.0,60.06922378
_,_2,M,315,_,_,__2M315__,N,0,284,284,31,,,0.972,1368.503402,1368.791342,1368.791342,1368.973576,1368.989876,1368.503402,down,2.633708,1368.989876,None,1368.989876,1369.956092,0.2308246,None,,,,,,,,,48,1,2020_Jan_03_1626,untitled,3.1.0,60.06922378
131,F,N,90,R,N,131FN090RN,HRN,0,285,285,210,,,0.834,1371.947189,1372.238007,1372.238007,1372.338148,1372.354487,None,up,1.6853834,1372.354487,None,1372.354487,1373.169877,0.3091262,None,,,,,,,,,48,1,2020_Jan_03_1626,untitled,3.1.0,60.06922378
204,G,M,135,R,N,204GM135RN,HRN,0,286,286,131,,,1.002,1374.248454,1374.536569,1374.536569,1374.751709,1374.768832,None,down,2.7988115,1374.768832,None,1374.768832,1375.767358,0.1955343,None,,,,,,,,,48,1,2020_Jan_03_1626,untitled,3.1.0,60.06922378
7,R,N,270,R,N,007RN270RN,HRN,0,287,287,198,,,0.705,1377.753121,1378.048419,1378.048419,1378.281436,1378.298173,None,up,1.4835753,1378.298173,None,1378.298173,1378.997604,0.1731116,None,,,,,,,,,48,1,2020_Jan_03_1626,untitled,3.1.0,60.06922378
,,,,,,,,,,,,,,,,,,,,,,,,,,,,,1379.797407,None,1383.910276,None,1386.091333,None,1388.739258,None,,,,,,
