Number,Letter,type,Orientation,human,face_type,image,picture,trials.thisRepN,trials.thisTrialN,trials.thisN,trials.thisIndex,text.started,text.stopped,stimulus_duration,CROSS.started,CROSS.stopped,BLANK.started,BLANK.stopped,TEST.started,TEST.stopped,key_JUDGE.keys,key_JUDGE.rt,key_JUDGE.started,key_JUDGE.stopped,image_2.started,image_2.stopped,ISI.started,ISI.stopped,q1.started,q1.stopped,q2.started,q2.stopped,q3.started,q3.stopped,text_2.started,text_2.stopped,participant,session,date,expName,psychopyVersion,frameRate
386,_4,N,45,R,N,386_4N045RN,HRN,0,0,0,257,336.2443136,None,0.78,380.0378155,380.3403527,380.3403527,380.5578145,380.5578145,None,up,3.4307664,380.5578145,None,380.5578145,381.3229624,0.1909724,None,,,,,,,,,49,1,2020_Jan_03_1714,untitled,3.1.0,60.12028869
170,F,M,45,L,N,170FM045LN,HLN,0,1,1,121,,,0.747,384.2766618,384.5708243,384.5708243,384.7724729,384.7919374,None,up,3.2104145,384.7919374,None,384.7919374,385.5368522,0.1980119,None,,,,,,,,,49,1,2020_Jan_03_1714,untitled,3.1.0,60.12028869
137,F,M,0,R,N,137FM000RN,HRN,0,2,2,112,,,1.322,388.2381748,388.5341263,388.5341263,388.7163961,388.7334111,None,up,2.4323946,388.7334111,None,388.7334111,390.0487462,0.2209608,None,,,,,,,,,49,1,2020_Jan_03_1714,untitled,3.1.0,60.12028869
_,G,M,270,_,_,_GM270__,N,0,3,3,14,,,1.154,391.3694609,391.6639855,391.6639855,391.8803858,391.8971186,None,down,2.6509084,391.8971186,None,391.8971186,393.0461699,0.1907983,None,,,,,,,,,49,1,2020_Jan_03_1714,untitled,3.1.0,60.12028869
294,_2,N,225,L,N,294_2N225LN,HLN,0,4,4,253,,,1.27,394.770351,395.0610603,395.0610603,395.2611163,395.2779216,None,up,2.7156396,395.2779216,None,395.2779216,396.5431981,0.2058366,None,,,,,,,,,49,1,2020_Jan_03_1714,untitled,3.1.0,60.12028869
425,_4,M,0,L,N,425_4M000LN,HLN,0,5,5,168,,,0.968,398.1923977,398.4913342,398.4913342,398.707895,398.7243963,None,up,2.9174412,398.7243963,None,398.7243963,399.6735655,0.1853959,None,,,,,,,,,49,1,2020_Jan_03_1714,untitled,3.1.0,60.12028869
_,_2,N,0,_,_,__2N000__,N,0,6,6,72,,,0.849,401.8360614,402.1231455,402.1231455,402.3547088,402.371233,None,up,1.8179972,402.371233,None,402.371233,403.2040312,0.1806779,None,,,,,,,,,49,1,2020_Jan_03_1714,untitled,3.1.0,60.12028869
394,_4,M,45,R,N,394_4M045RN,HRN,0,7,7,161,,,1.373,404.392659,404.6859316,404.6859316,404.9023712,404.9190918,None,None,,404.9190918,None,404.9190918,406.2846832,0.190928,None,,,,,,,,,49,1,2020_Jan_03_1714,untitled,3.1.0,60.12028869
_,R,M,180,_,_,_RM180__,N,0,8,8,20,,,0.705,408.5947608,408.8847806,408.8847806,409.0990535,409.1154732,408.5947608,up,2.7485954,409.1154732,None,409.1154732,409.7995939,0.199122,None,,,,,,,,,49,1,2020_Jan_03_1714,untitled,3.1.0,60.12028869
_,R,M,270,_,_,_RM270__,N,0,9,9,22,,,0.82,412.078507,412.3795816,412.3795816,412.5792354,412.5963285,None,down,2.3984539,412.5963285,None,412.5963285,413.3949042,0.2010265,None,,,,,,,,,49,1,2020_Jan_03_1714,untitled,3.1.0,60.12028869
2,R,N,45,R,N,002RN045RN,HRN,0,10,10,193,,,1.27,415.18279,415.4836038,415.4836038,415.7119966,415.7317226,None,up,3.2780965,415.7317226,None,415.7317226,416.9754609,0.1756048,None,,,,,,,,,49,1,2020_Jan_03_1714,untitled,3.1.0,60.12028869
421,_4,N,180,L,N,421_4N180LN,HLN,0,11,11,268,,,0.939,419.2577875,419.5563017,419.5563017,419.7227509,419.7393948,None,up,3.3818308,419.7393948,None,419.7393948,420.6719479,0.2302353,None,,,,,,,,,49,1,2020_Jan_03_1714,untitled,3.1.0,60.12028869
36,R,N,135,L,N,036RN135LN,HLN,0,12,12,203,,,1.166,423.3121645,423.602843,423.602843,423.835832,423.852513,None,up,2.7173181,423.852513,None,423.852513,425.0018697,0.1773934,None,,,,,,,,,49,1,2020_Jan_03_1714,untitled,3.1.0,60.12028869
_,G,M,0,_,_,_GM000__,N,0,13,13,8,,,1.191,426.773356,427.066373,427.066373,427.2832163,427.2999621,None,down,2.7981853,427.2999621,None,427.2999621,428.4818286,0.1902703,None,,,,,,,,,49,1,2020_Jan_03_1714,untitled,3.1.0,60.12028869
_,R,N,0,_,_,_RN000__,N,0,14,14,64,,,0.799,430.2909386,430.5803894,430.5803894,430.8147137,430.8366425,None,up,1.9439384,430.8366425,None,430.8366425,431.6123528,0.1801951,None,,,,,,,,,49,1,2020_Jan_03_1714,untitled,3.1.0,60.12028869
496,_5,M,315,L,N,496_5M315LN,HLN,0,15,15,191,,,1.07,432.9968179,433.2945168,433.2945168,433.4940974,433.5108037,None,None,,433.5108037,None,433.5108037,434.5599599,0.2026171,None,,,,,,,,,49,1,2020_Jan_03_1714,untitled,3.1.0,60.12028869
204,G,M,135,R,N,204GM135RN,HRN,0,16,16,131,,,1.186,437.1597664,437.457287,437.457287,437.6903929,437.707129,437.1597664,None,,437.707129,None,437.707129,438.8729427,0.174186,None,,,,,,,,,49,1,2020_Jan_03_1714,untitled,3.1.0,60.12028869
_,R,M,315,_,_,_RM315__,N,0,17,17,23,,,1.258,441.3583638,441.6535579,441.6535579,441.8866187,441.9033835,441.3583638,down,3.0151007,441.9033835,None,441.9033835,443.1525807,0.1743753,None,,,,,,,,,49,1,2020_Jan_03_1714,untitled,3.1.0,60.12028869
46,R,M,225,L,N,046RM225LN,HLN,0,18,18,109,,,1.361,445.105705,445.4004518,445.4004518,445.633289,445.6500933,None,down,2.982765,445.6500933,None,445.6500933,446.9993283,0.1749631,None,,,,,,,,,49,1,2020_Jan_03_1714,untitled,3.1.0,60.12028869
290,_2,N,45,L,N,290_2N045LN,HLN,0,19,19,249,,,0.848,448.8575572,449.1470228,449.1470228,449.3474016,449.3636723,None,up,2.7331876,449.3636723,None,449.3636723,450.1962606,0.2117814,None,,,,,,,,,49,1,2020_Jan_03_1714,untitled,3.1.0,60.12028869
11,R,M,90,R,N,011RM090RN,HRN,0,20,20,98,,,1.126,452.3054807,452.593969,452.593969,452.8106328,452.827316,None,down,2.6155371,452.827316,None,452.827316,453.9431552,0.1959631,None,,,,,,,,,49,1,2020_Jan_03_1714,untitled,3.1.0,60.12028869
15,R,M,270,R,N,015RM270RN,HRN,0,21,21,102,,,1.293,455.6568719,455.9576905,455.9576905,456.157521,456.1741972,None,down,2.4835663,456.1741972,None,456.1741972,457.4565926,0.201275,None,,,,,,,,,49,1,2020_Jan_03_1714,untitled,3.1.0,60.12028869
463,_5,M,270,R,N,463_5M270RN,HRN,0,22,22,182,,,1.368,458.9049,459.2051438,459.2051438,459.3718032,459.3887269,None,down,3.1487247,459.3887269,None,459.3887269,460.7534377,0.2301621,None,,,,,,,,,49,1,2020_Jan_03_1714,untitled,3.1.0,60.12028869
47,R,M,270,L,N,047RM270LN,HLN,0,23,23,110,,,0.872,462.754951,463.0516296,463.0516296,463.2513363,463.2681802,None,down,2.1832856,463.2681802,None,463.2681802,464.1339659,0.2021082,None,,,,,,,,,49,1,2020_Jan_03_1714,untitled,3.1.0,60.12028869
395,_4,M,90,R,N,395_4M090RN,HRN,0,24,24,162,,,0.766,465.6555759,465.9490875,465.9490875,466.1653516,466.1822648,None,down,3.3838976,466.1822648,None,466.1822648,466.9314819,0.1921351,None,,,,,,,,,49,1,2020_Jan_03_1714,untitled,3.1.0,60.12028869
37,R,N,180,L,N,037RN180LN,HLN,0,25,25,204,,,1.29,469.7640108,470.0623788,470.0623788,470.2788556,470.295513,None,up,3.0005328,470.295513,None,470.295513,471.5777927,0.186173,None,,,,,,,,,49,1,2020_Jan_03_1714,untitled,3.1.0,60.12028869
45,R,M,180,L,N,045RM180LN,HLN,0,26,26,108,,,1.025,473.5233465,473.810952,473.810952,474.0090127,474.025986,None,down,2.6990797,474.025986,None,474.025986,475.042282,0.2124089,None,,,,,,,,,49,1,2020_Jan_03_1714,untitled,3.1.0,60.12028869
_,G,M,225,_,_,_GM225__,N,0,27,27,13,,,1.26,476.9602201,477.2578713,477.2578713,477.4391286,477.4560156,None,None,,477.4560156,None,477.4560156,478.7041867,0.2225579,None,,,,,,,,,49,1,2020_Jan_03_1714,untitled,3.1.0,60.12028869
3,R,N,90,R,N,003RN090RN,HRN,0,28,28,194,,,1.16,481.1107739,481.4022542,481.4022542,481.635316,481.6520566,481.1107739,down,2.7328893,481.6520566,None,481.6520566,482.8012757,0.18073,None,,,,,,,,,49,1,2020_Jan_03_1714,untitled,3.1.0,60.12028869
453,_5,N,180,R,N,453_5N180RN,HRN,0,29,29,276,,,0.982,484.6078344,484.8992904,484.8992904,485.0994592,485.1156365,None,up,3.1504174,485.1156365,None,485.1156365,486.0814419,0.2098375,None,,,,,,,,,49,1,2020_Jan_03_1714,untitled,3.1.0,60.12028869
8,R,N,315,R,N,008RN315RN,HRN,0,30,30,199,,,1.175,488.4788327,488.7794861,488.7794861,488.980039,488.9978592,None,up,2.881571,488.9978592,None,488.9978592,490.1617066,0.1990843,None,,,,,,,,,49,1,2020_Jan_03_1714,untitled,3.1.0,60.12028869
5,R,N,180,R,N,005RN180RN,HRN,0,31,31,196,,,0.885,492.0712526,492.3616571,492.3616571,492.5937538,492.612287,None,up,2.2644803,492.612287,None,492.612287,493.4748327,0.1801525,None,,,,,,,,,49,1,2020_Jan_03_1714,untitled,3.1.0,60.12028869
205,G,M,180,R,N,205GM180RN,HRN,0,32,32,132,,,1.185,495.0819196,495.3735933,495.3735933,495.5898395,495.6067553,None,down,2.1495602,495.6067553,None,495.6067553,496.7721046,0.1923251,None,,,,,,,,,49,1,2020_Jan_03_1714,untitled,3.1.0,60.12028869
_,R,N,225,_,_,_RN225__,N,0,33,33,69,,,1.081,497.9644382,498.2543909,498.2543909,498.4706347,498.4873663,None,up,2.2169851,498.4873663,None,498.4873663,499.5534822,0.1957328,None,,,,,,,,,49,1,2020_Jan_03_1714,untitled,3.1.0,60.12028869
493,_5,M,180,L,N,493_5M180LN,HLN,0,34,34,188,,,1.02,500.9044359,501.2016536,501.2016536,501.4180944,501.4349418,None,None,,501.4349418,None,501.4349418,502.4339236,0.1874699,None,,,,,,,,,49,1,2020_Jan_03_1714,untitled,3.1.0,60.12028869
_,_2,M,135,_,_,__2M135__,N,0,35,35,27,,,1.258,505.1236516,505.4146586,505.4146586,505.6153228,505.6319005,505.1236516,down,3.2999764,505.6319005,None,505.6319005,506.8799332,0.2100284,None,,,,,,,,,49,1,2020_Jan_03_1714,untitled,3.1.0,60.12028869
202,G,M,45,R,N,202GM045RN,HRN,0,36,36,129,,,0.804,509.1797391,509.4775364,509.4775364,509.6610281,509.6610281,None,None,,509.6610281,None,509.6610281,510.4600565,0.2307662,None,,,,,,,,,49,1,2020_Jan_03_1714,untitled,3.1.0,60.12028869
_,_4,N,0,_,_,__4N000__,N,0,37,37,80,,,1.004,513.3614004,513.6574302,513.6574302,513.8572289,513.8747779,513.3614004,up,1.9999773,513.8747779,None,513.8747779,514.8563407,0.206025,None,,,,,,,,,49,1,2020_Jan_03_1714,untitled,3.1.0,60.12028869
_,_5,N,90,_,_,__5N090__,N,0,38,38,90,,,1.138,516.0795539,516.3717973,516.3717973,516.588084,516.6049623,None,up,3.0512058,516.6049623,None,516.6049623,517.7377067,0.191654,None,,,,,,,,,49,1,2020_Jan_03_1714,untitled,3.1.0,60.12028869
227,G,N,90,L,N,227GN090LN,HLN,0,39,39,234,,,0.995,519.8792302,520.1685824,520.1685824,520.3685667,520.3865083,None,up,2.6978173,520.3865083,None,520.3865083,521.3673963,0.2090547,None,,,,,,,,,49,1,2020_Jan_03_1714,untitled,3.1.0,60.12028869
_,_4,N,180,_,_,__4N180__,N,0,40,40,84,,,0.722,523.3179242,523.6155501,523.6155501,523.798632,523.8153139,None,up,2.9512925,523.8153139,None,523.8153139,524.5322657,0.2191005,None,,,,,,,,,49,1,2020_Jan_03_1714,untitled,3.1.0,60.12028869
_,_4,M,90,_,_,__4M090__,N,0,41,41,34,,,1.157,526.9563272,527.245654,527.245654,527.4786741,527.4954619,None,None,,527.4954619,None,527.4954619,528.644306,0.1769019,None,,,,,,,,,49,1,2020_Jan_03_1714,untitled,3.1.0,60.12028869
489,_5,M,0,L,N,489_5M000LN,HLN,0,42,42,184,,,0.966,531.1682592,531.4587479,531.4587479,531.691578,531.7083162,531.1682592,down,2.6839037,531.7083162,None,531.7083162,532.6576356,0.1813946,None,,,,,,,,,49,1,2020_Jan_03_1714,untitled,3.1.0,60.12028869
169,F,M,0,L,N,169FM000LN,HLN,0,43,43,120,,,1.052,534.6183065,534.9055672,534.9055672,535.1056204,535.1227512,None,down,2.8650881,535.1227512,None,535.1227512,536.1551788,0.2126621,None,,,,,,,,,49,1,2020_Jan_03_1714,untitled,3.1.0,60.12028869
140,F,M,135,R,N,140FM135RN,HRN,0,44,44,115,,,1.158,538.1862015,538.4857694,538.4857694,538.7036763,538.7236167,None,down,3.177513,538.7236167,None,538.7236167,539.8684378,0.1861587,None,,,,,,,,,49,1,2020_Jan_03_1714,untitled,3.1.0,60.12028869
431,_4,M,270,L,N,431_4M270LN,HLN,0,45,45,174,,,0.975,542.0910231,542.3824285,542.3824285,542.6154072,542.6325951,None,up,2.0172101,542.6325951,None,542.6325951,543.5982808,0.1778801,None,,,,,,,,,49,1,2020_Jan_03_1714,untitled,3.1.0,60.12028869
_,F,M,90,_,_,_FM090__,N,0,46,46,2,,,1.041,544.8520158,545.1465317,545.1465317,545.3630205,545.3798166,None,down,3.3149592,545.3798166,None,545.3798166,546.4120343,0.1887482,None,,,,,,,,,49,1,2020_Jan_03_1714,untitled,3.1.0,60.12028869
_,F,N,315,_,_,_FN315__,N,0,47,47,55,,,0.729,548.9211163,549.2098335,549.2098335,549.409557,549.4262953,None,up,2.1506208,549.4262953,None,549.4262953,550.1422029,0.2119354,None,,,,,,,,,49,1,2020_Jan_03_1714,untitled,3.1.0,60.12028869
175,F,M,270,L,N,175FM270LN,HLN,0,48,48,126,,,1.064,551.8058495,552.1073013,552.1073013,552.2905181,552.3070035,None,down,3.1818135,552.3070035,None,552.3070035,553.3571538,0.2137372,None,,,,,,,,,49,1,2020_Jan_03_1714,untitled,3.1.0,60.12028869
34,R,N,45,L,N,034RN045LN,HLN,0,49,49,201,,,1.371,555.6805076,555.9702966,555.9702966,556.2036106,556.2202017,None,up,2.882333,556.2202017,None,556.2202017,557.5691474,0.1798839,None,,,,,,,,,49,1,2020_Jan_03_1714,untitled,3.1.0,60.12028869
_,G,M,315,_,_,_GM315__,N,0,50,50,15,,,0.722,559.3097266,559.6010274,559.6010274,559.8169926,559.8337356,None,down,2.0496807,559.8337356,None,559.8337356,560.5499004,0.1947346,None,,,,,,,,,49,1,2020_Jan_03_1714,untitled,3.1.0,60.12028869
_,G,M,135,_,_,_GM135__,N,0,51,51,11,,,1.126,562.0923492,562.3816363,562.3816363,562.5983724,562.6148629,None,up,3.2823047,562.6148629,None,562.6148629,563.7317091,0.1960921,None,,,,,,,,,49,1,2020_Jan_03_1714,untitled,3.1.0,60.12028869
_,_4,N,90,_,_,__4N090__,N,0,52,52,82,,,1.264,566.1227746,566.4118541,566.4118541,566.611435,566.6281285,None,up,2.8831997,566.6281285,None,566.6281285,567.87717,0.2126485,None,,,,,,,,,49,1,2020_Jan_03_1714,untitled,3.1.0,60.12028869
391,_4,N,270,R,N,391_4N270RN,HRN,0,53,53,262,,,1.077,569.8097385,570.1081172,570.1081172,570.2246277,570.2413327,None,up,2.0160534,570.2413327,None,570.2413327,571.3069198,0.2805768,None,,,,,,,,,49,1,2020_Jan_03_1714,untitled,3.1.0,60.12028869
48,R,M,315,L,N,048RM315LN,HLN,0,54,54,111,,,1.301,572.4585589,572.7559821,572.7559821,572.9725734,572.9891786,None,down,2.7322675,572.9891786,None,572.9891786,574.271133,0.189325,None,,,,,,,,,49,1,2020_Jan_03_1714,untitled,3.1.0,60.12028869
_,_2,M,315,_,_,__2M315__,N,0,55,55,31,,,0.871,575.9053528,576.2026702,576.2026702,576.4359529,576.4530035,None,down,2.2835337,576.4530035,None,576.4530035,577.3018346,0.1714719,None,,,,,,,,,49,1,2020_Jan_03_1714,untitled,3.1.0,60.12028869
208,G,M,315,R,N,208GM315RN,HRN,0,56,56,135,,,1.191,578.9355906,579.2337803,579.2337803,579.4498954,579.4665941,None,up,2.8173193,579.4665941,None,579.4665941,580.6487834,0.1854856,None,,,,,,,,,49,1,2020_Jan_03_1714,untitled,3.1.0,60.12028869
35,R,N,90,L,N,035RN090LN,HLN,0,57,57,202,,,0.928,582.5155894,582.813843,582.813843,582.9975653,583.0143096,None,up,1.9173912,583.0143096,None,583.0143096,583.9294251,0.217157,None,,,,,,,,,49,1,2020_Jan_03_1714,untitled,3.1.0,60.12028869
_,_2,N,135,_,_,__2N135__,N,0,58,58,75,,,0.886,585.2348506,585.5282013,585.5282013,585.6445882,585.6612342,None,down,2.6823235,585.6612342,None,585.6612342,586.5443095,0.2852213,None,,,,,,,,,49,1,2020_Jan_03_1714,untitled,3.1.0,60.12028869
_,G,N,0,_,_,_GN000__,N,0,59,59,56,,,1.114,588.6088829,588.9090092,588.9090092,589.0581581,589.0750583,None,up,3.1482248,589.0750583,None,589.0750583,590.1738356,0.2498356,None,,,,,,,,,49,1,2020_Jan_03_1714,untitled,3.1.0,60.12028869
_,F,N,180,_,_,_FN180__,N,0,60,60,52,,,0.951,592.3984958,592.6889587,592.6889587,592.9384453,592.9548835,None,up,2.6662474,592.9548835,None,592.9548835,593.8879315,0.1633956,None,,,,,,,,,49,1,2020_Jan_03_1714,untitled,3.1.0,60.12028869
33,R,N,0,L,N,033RN000LN,HLN,0,61,61,200,,,1.223,595.8321959,596.1195161,596.1195161,596.3532408,596.3532408,None,up,2.3995826,596.3532408,None,596.3532408,597.5681383,0.1922416,None,,,,,,,,,49,1,2020_Jan_03_1714,untitled,3.1.0,60.12028869
162,F,N,45,L,N,162FN045LN,HLN,0,62,62,217,,,1.272,599.0365196,599.3326554,599.3326554,599.4656207,599.4823042,None,up,2.2332904,599.4823042,None,599.4823042,600.7494497,0.2667133,None,,,,,,,,,49,1,2020_Jan_03_1714,untitled,3.1.0,60.12028869
389,_4,N,180,R,N,389_4N180RN,HRN,0,63,63,260,,,1.224,601.9358532,602.2304717,602.2304717,602.4299006,602.4465128,None,down,2.9486866,602.4465128,None,602.4465128,603.6624354,0.2063295,None,,,,,,,,,49,1,2020_Jan_03_1714,untitled,3.1.0,60.12028869
138,F,M,45,R,N,138FM045RN,HRN,0,64,64,113,,,0.936,605.6006883,605.8933431,605.8933431,606.1098418,606.1266202,None,down,2.7682564,606.1266202,None,606.1266202,607.0422237,0.1937181,None,,,,,,,,,49,1,2020_Jan_03_1714,untitled,3.1.0,60.12028869
1,R,N,0,R,N,001RN000RN,HRN,0,65,65,192,,,1.277,609.1241157,609.4234706,609.4234706,609.6244488,609.6244488,None,up,2.0496626,609.6244488,None,609.6244488,610.8890154,0.2128079,None,,,,,,,,,49,1,2020_Jan_03_1714,untitled,3.1.0,60.12028869
_,F,N,225,_,_,_FN225__,N,0,66,66,53,,,1.332,611.8833199,612.1714697,612.1714697,612.3882632,612.4050201,None,up,2.9314526,612.4050201,None,612.4050201,613.7204956,0.1957267,None,,,,,,,,,49,1,2020_Jan_03_1714,untitled,3.1.0,60.12028869
141,F,M,180,R,N,141FM180RN,HRN,0,67,67,116,,,0.983,615.5214698,615.8181726,615.8181726,616.0536649,616.0726544,None,up,2.4960947,616.0726544,None,616.0726544,617.0342995,0.1724921,None,,,,,,,,,49,1,2020_Jan_03_1714,untitled,3.1.0,60.12028869
_,_2,N,45,_,_,__2N045__,N,0,68,68,73,,,1.202,618.7503775,619.0491527,619.0491527,619.2819075,619.2984501,None,up,3.2162389,619.2984501,None,619.2984501,620.4808223,0.1700522,None,,,,,,,,,49,1,2020_Jan_03_1714,untitled,3.1.0,60.12028869
_,R,M,225,_,_,_RM225__,N,0,69,69,21,,,1.062,622.7435046,623.0301837,623.0301837,623.2283991,623.2451279,None,down,2.4492209,623.2451279,None,623.2451279,624.2942641,0.2155614,None,,,,,,,,,49,1,2020_Jan_03_1714,untitled,3.1.0,60.12028869
232,G,N,315,L,N,232GN315LN,HLN,0,70,70,239,,,1.329,625.9421672,626.2424222,626.2424222,626.4089853,626.4257274,None,up,2.700242,626.4257274,None,626.4257274,627.7411817,0.233395,None,,,,,,,,,49,1,2020_Jan_03_1714,untitled,3.1.0,60.12028869
417,_4,N,0,L,N,417_4N000LN,HLN,0,71,71,264,,,0.768,629.3535276,629.6561925,629.6561925,629.8396775,629.8566475,None,up,1.5333177,629.8566475,None,629.8566475,630.6050657,0.2137951,None,,,,,,,,,49,1,2020_Jan_03_1714,untitled,3.1.0,60.12028869
289,_2,N,0,L,N,289_2N000LN,HLN,0,72,72,248,,,0.953,631.6631724,631.955055,631.955055,632.104042,632.1210123,None,up,1.6496498,632.1210123,None,632.1210123,633.0695852,0.2564178,None,,,,,,,,,49,1,2020_Jan_03_1714,untitled,3.1.0,60.12028869
_,F,N,45,_,_,_FN045__,N,0,73,73,49,,,0.732,633.9568473,634.2519409,634.2519409,634.4852848,634.5018438,None,up,1.8163172,634.5018438,None,634.5018438,635.2178541,0.1737825,None,,,,,,,,,49,1,2020_Jan_03_1714,untitled,3.1.0,60.12028869
301,_2,M,180,L,N,301_2M180LN,HLN,0,74,74,156,,,1.289,636.5196624,636.8164989,636.8164989,637.0331249,637.0498548,None,down,3.350183,637.0498548,None,637.0498548,638.3319797,0.1884941,None,,,,,,,,,49,1,2020_Jan_03_1714,untitled,3.1.0,60.12028869
487,_5,N,270,L,N,487_5N270LN,HLN,0,75,75,286,,,0.821,640.6358169,640.9298509,640.9298509,641.1131137,641.1306048,None,up,2.4822843,641.1306048,None,641.1306048,641.9455031,0.22254,None,,,,,,,,,49,1,2020_Jan_03_1714,untitled,3.1.0,60.12028869
_,G,M,180,_,_,_GM180__,N,0,76,76,12,,,0.894,643.8450549,644.1438044,644.1438044,644.3268974,644.3435174,None,None,,644.3435174,None,644.3435174,645.2265139,0.2164362,None,,,,,,,,,49,1,2020_Jan_03_1714,untitled,3.1.0,60.12028869
10,R,M,45,R,N,010RM045RN,HRN,0,77,77,97,,,0.887,648.0230985,648.3233874,648.3233874,648.5401433,648.5571804,648.0230985,down,2.2484863,648.5571804,None,648.5571804,649.4220978,0.1868148,None,,,,,,,,,49,1,2020_Jan_03_1714,untitled,3.1.0,60.12028869
234,G,M,45,L,N,234GM045LN,HLN,0,78,78,137,,,1.303,650.995828,651.2871924,651.2871924,651.5204758,651.5379337,None,down,3.0811592,651.5379337,None,651.5379337,652.8191982,0.1780607,None,,,,,,,,,49,1,2020_Jan_03_1714,untitled,3.1.0,60.12028869
14,R,M,225,R,N,014RM225RN,HRN,0,79,79,101,,,1.316,654.8384862,655.1337722,655.1337722,655.3337628,655.3505173,None,down,2.9651579,655.3505173,None,655.3505173,656.6506951,0.2066252,None,,,,,,,,,49,1,2020_Jan_03_1714,untitled,3.1.0,60.12028869
459,_5,M,90,R,N,459_5M090RN,HRN,0,80,80,178,,,1.312,658.4957579,658.7977565,658.7977565,659.0316837,659.0499161,None,None,,659.0499161,None,659.0499161,660.3466908,0.1663059,None,,,,,,,,,49,1,2020_Jan_03_1714,untitled,3.1.0,60.12028869
235,G,M,90,L,N,235GM090LN,HLN,0,81,81,138,,,1.213,662.824822,663.111815,663.111815,663.2273237,663.2435998,662.824822,up,3.2814489,663.2435998,None,663.2435998,664.4423282,0.2967741,None,,,,,,,,,49,1,2020_Jan_03_1714,untitled,3.1.0,60.12028869
272,_2,M,315,R,N,272_2M315RN,HRN,0,82,82,151,,,1.388,666.7234463,667.02358,667.02358,667.2398903,667.2566233,None,None,,667.2566233,None,667.2566233,668.6246165,0.1862213,None,,,,,,,,,49,1,2020_Jan_03_1714,untitled,3.1.0,60.12028869
268,_2,M,135,R,N,268_2M135RN,HRN,0,83,83,147,,,0.806,670.9246281,671.2198049,671.2198049,671.4366056,671.4531519,670.9246281,down,3.1159774,671.4531519,None,671.4531519,672.2368669,0.1930476,None,,,,,,,,,49,1,2020_Jan_03_1714,untitled,3.1.0,60.12028869
291,_2,N,90,L,N,291_2N090LN,HLN,0,84,84,250,,,1.232,674.8014998,675.0997749,675.0997749,675.2831441,675.3002483,None,up,2.833748,675.3002483,None,675.3002483,676.5154796,0.2168174,None,,,,,,,,,49,1,2020_Jan_03_1714,untitled,3.1.0,60.12028869
482,_5,N,45,L,N,482_5N045LN,HLN,0,85,85,281,,,1.069,678.4490978,678.7469604,678.7469604,678.8635884,678.8635884,None,up,1.9844043,678.8635884,None,678.8635884,679.9285422,0.2967165,None,,,,,,,,,49,1,2020_Jan_03_1714,untitled,3.1.0,60.12028869
9,R,M,0,R,N,009RM000RN,HRN,0,86,86,96,,,1.182,681.0536453,681.3444845,681.3444845,681.5607438,681.5775106,None,down,2.4493549,681.5775106,None,681.5775106,682.7438479,0.191014,None,,,,,,,,,49,1,2020_Jan_03_1714,untitled,3.1.0,60.12028869
492,_5,M,135,L,N,492_5M135LN,HLN,0,87,87,187,,,1.279,684.2508022,684.5416194,684.5416194,684.7413411,684.7580998,None,down,2.7659077,684.7580998,None,684.7580998,686.0235525,0.2115514,None,,,,,,,,,49,1,2020_Jan_03_1714,untitled,3.1.0,60.12028869
_,_5,N,0,_,_,__5N000__,N,0,88,88,88,,,0.827,687.8026534,688.0723274,688.0723274,688.2385704,688.2554776,None,up,2.0843575,688.2554776,None,688.2554776,689.071945,0.2432559,None,,,,,,,,,49,1,2020_Jan_03_1714,untitled,3.1.0,60.12028869
40,R,N,315,L,N,040RN315LN,HLN,0,89,89,207,,,1.079,690.5978553,690.8881911,690.8881911,691.0533401,691.070609,None,up,2.2143993,691.070609,None,691.070609,692.1353434,0.2413947,None,,,,,,,,,49,1,2020_Jan_03_1714,untitled,3.1.0,60.12028869
199,G,N,270,R,N,199GN270RN,HRN,0,90,90,230,,,0.764,693.4750143,693.7680552,693.7680552,694.0031462,694.0202851,None,up,2.394427,694.0202851,None,694.0202851,694.7664399,0.1765701,None,,,,,,,,,49,1,2020_Jan_03_1714,untitled,3.1.0,60.12028869
_,_4,M,225,_,_,__4M225__,N,0,91,91,37,,,0.701,696.6074654,696.8971804,696.8971804,697.1305402,697.1471795,None,up,1.9011617,697.1471795,None,697.1471795,697.829944,0.1764074,None,,,,,,,,,49,1,2020_Jan_03_1714,untitled,3.1.0,60.12028869
_,_4,N,135,_,_,__4N135__,N,0,92,92,83,,,0.891,699.2529043,699.5449895,699.5449895,699.7614032,699.778389,None,up,2.516383,699.778389,None,699.778389,700.6615814,0.1890824,None,,,,,,,,,49,1,2020_Jan_03_1714,untitled,3.1.0,60.12028869
135,F,N,270,R,N,135FN270RN,HRN,0,93,93,214,,,0.871,702.5037493,702.7922355,702.7922355,703.008707,703.025431,None,up,1.966435,703.025431,None,703.025431,703.8915871,0.1960384,None,,,,,,,,,49,1,2020_Jan_03_1714,untitled,3.1.0,60.12028869
4,R,N,135,R,N,004RN135RN,HRN,0,94,94,195,,,0.971,705.2128542,705.5071126,705.5071126,705.7066841,705.723545,None,up,2.1161688,705.723545,None,705.723545,706.6894151,0.2048961,None,,,,,,,,,49,1,2020_Jan_03_1714,untitled,3.1.0,60.12028869
428,_4,M,135,L,N,428_4M135LN,HLN,0,95,95,171,,,1.219,708.0786185,708.3707634,708.3707634,708.5538892,708.5706102,None,down,2.4323013,708.5706102,None,708.5706102,709.7755946,0.2222194,None,,,,,,,,,49,1,2020_Jan_03_1714,untitled,3.1.0,60.12028869
293,_2,N,180,L,N,293_2N180LN,HLN,0,96,96,252,,,0.874,712.1809906,712.468596,712.468596,712.7168832,712.7336048,None,up,2.7998498,712.7336048,None,712.7336048,713.5996136,0.166126,None,,,,,,,,,49,1,2020_Jan_03_1714,untitled,3.1.0,60.12028869
385,_4,N,0,R,N,385_4N000RN,HRN,0,97,97,256,,,1.227,715.7287957,716.0291761,716.0291761,716.247086,716.2639047,None,up,1.9997292,716.2639047,None,716.2639047,717.4794202,0.1822626,None,,,,,,,,,49,1,2020_Jan_03_1714,untitled,3.1.0,60.12028869
_,R,N,180,_,_,_RN180__,N,0,98,98,68,,,0.849,718.4648846,718.7622846,718.7622846,718.9788676,718.9967974,None,up,1.7477609,718.9967974,None,718.9967974,719.8273987,0.1890626,None,,,,,,,,,49,1,2020_Jan_03_1714,untitled,3.1.0,60.12028869
423,_4,N,270,L,N,423_4N270LN,HLN,0,99,99,270,,,1.143,720.9787247,721.276651,721.276651,721.4595652,721.4768552,None,up,2.1336771,721.4768552,None,721.4768552,722.6088423,0.2194532,None,,,,,,,,,49,1,2020_Jan_03_1714,untitled,3.1.0,60.12028869
134,F,N,225,R,N,134FN225RN,HRN,0,100,100,213,,,0.876,723.8330163,724.1237175,724.1237175,724.3237642,724.3402083,None,up,1.5507141,724.3402083,None,724.3402083,725.210048,0.2101516,None,,,,,,,,,49,1,2020_Jan_03_1714,untitled,3.1.0,60.12028869
483,_5,N,90,L,N,483_5N090LN,HLN,0,101,101,282,,,0.968,726.1010358,726.3894429,726.3894429,726.6046298,726.6217619,None,up,2.5664644,726.6217619,None,726.6217619,727.570724,0.1981138,None,,,,,,,,,49,1,2020_Jan_03_1714,untitled,3.1.0,60.12028869
464,_5,M,315,R,N,464_5M315RN,HRN,0,102,102,183,,,0.775,729.368362,729.6688539,729.6688539,729.9020476,729.9188988,None,down,2.2490963,729.9188988,None,729.9188988,730.6844488,0.1672433,None,,,,,,,,,49,1,2020_Jan_03_1714,untitled,3.1.0,60.12028869
196,G,N,135,R,N,196GN135RN,HRN,0,103,103,227,,,0.77,732.348364,732.6494896,732.6494896,732.8827991,732.8998225,None,up,1.9008399,732.8998225,None,732.8998225,733.6484852,0.1683272,None,,,,,,,,,49,1,2020_Jan_03_1714,untitled,3.1.0,60.12028869
_,_5,M,315,_,_,__5M315__,N,0,104,104,47,,,1.242,734.9892265,735.2806304,735.2806304,735.5136771,735.5306236,None,down,3.1489316,735.5306236,None,735.5306236,736.762762,0.1752101,None,,,,,,,,,49,1,2020_Jan_03_1714,untitled,3.1.0,60.12028869
166,F,N,225,L,N,166FN225LN,HLN,0,105,105,221,,,1.248,738.8909789,739.1779803,739.1779803,739.3934668,739.4104381,None,up,3.1655137,739.4104381,None,739.4104381,740.6440764,0.194763,None,,,,,,,,,49,1,2020_Jan_03_1714,untitled,3.1.0,60.12028869
495,_5,M,270,L,N,495_5M270LN,HLN,0,106,106,190,,,1.321,742.7617943,743.0570688,743.0570688,743.2903368,743.3069704,None,down,3.148184,743.3069704,None,743.3069704,744.605993,0.1744726,None,,,,,,,,,49,1,2020_Jan_03_1714,untitled,3.1.0,60.12028869
_,G,N,225,_,_,_GN225__,N,0,107,107,61,,,1.322,746.6411401,746.9371862,746.9371862,747.170208,747.1869223,None,up,2.5840033,747.1869223,None,747.1869223,748.5023095,0.1737132,None,,,,,,,,,49,1,2020_Jan_03_1714,untitled,3.1.0,60.12028869
457,_5,M,0,R,N,457_5M000RN,HRN,0,108,108,176,,,1.264,749.9917018,750.2844104,750.2844104,750.4840667,750.5007878,None,down,2.899634,750.5007878,None,750.5007878,751.7494329,0.2080856,None,,,,,,,,,49,1,2020_Jan_03_1714,untitled,3.1.0,60.12028869
_,G,M,45,_,_,_GM045__,N,0,109,109,9,,,1.265,753.6191597,753.914503,753.914503,754.1141405,754.1311589,None,down,2.9005732,754.1311589,None,754.1311589,755.3799657,0.2050999,None,,,,,,,,,49,1,2020_Jan_03_1714,untitled,3.1.0,60.12028869
_,_2,N,225,_,_,__2N225__,N,0,110,110,77,,,1.362,757.2253266,757.5128465,757.5128465,757.7444537,757.7610154,None,up,2.634131,757.7610154,None,757.7610154,759.1094643,0.1811072,None,,,,,,,,,49,1,2020_Jan_03_1714,untitled,3.1.0,60.12028869
_,G,N,180,_,_,_GN180__,N,0,111,111,60,,,0.865,760.6052981,760.9065657,760.9065657,761.1080813,761.1248899,None,None,,761.1248899,None,761.1248899,761.9743165,0.1969309,None,,,,,,,,,49,1,2020_Jan_03_1714,untitled,3.1.0,60.12028869
_,R,N,135,_,_,_RN135__,N,0,112,112,67,,,1.015,764.7736645,765.0711521,765.0711521,765.3209905,765.337826,764.7736645,up,2.0513948,765.337826,None,765.337826,766.3367773,0.1582395,None,,,,,,,,,49,1,2020_Jan_03_1714,untitled,3.1.0,60.12028869
143,F,M,270,R,N,143FM270RN,HRN,0,113,113,118,,,1.34,767.5748875,767.8690673,767.8690673,768.1025365,768.1191123,None,down,2.3335398,768.1191123,None,768.1191123,769.4510837,0.1725855,None,,,,,,,,,49,1,2020_Jan_03_1714,untitled,3.1.0,60.12028869
164,F,N,135,L,N,164FN135LN,HLN,0,114,114,219,,,1.147,770.6944423,770.9833394,770.9833394,771.1659269,771.1845306,None,up,1.997733,771.1845306,None,771.1845306,772.3218456,0.2272477,None,,,,,,,,,49,1,2020_Jan_03_1714,untitled,3.1.0,60.12028869
_,F,M,135,_,_,_FM135__,N,0,115,115,3,,,0.721,773.372954,773.663788,773.663788,773.8967501,773.9134589,None,down,1.634166,773.9134589,None,773.9134589,774.6129196,0.1774985,None,,,,,,,,,49,1,2020_Jan_03_1714,untitled,3.1.0,60.12028869
461,_5,M,180,R,N,461_5M180RN,HRN,0,116,116,180,,,1.061,775.7462468,776.0451514,776.0451514,776.2613111,776.2780682,None,down,2.7828685,776.2780682,None,776.2780682,777.3272315,0.1860002,None,,,,,,,,,49,1,2020_Jan_03_1714,untitled,3.1.0,60.12028869
393,_4,M,0,R,N,393_4M000RN,HRN,0,117,117,160,,,0.942,779.2685352,779.5586922,779.5586922,779.775076,779.7919409,None,down,2.7657747,779.7919409,None,779.7919409,780.7242251,0.1944178,None,,,,,,,,,49,1,2020_Jan_03_1714,untitled,3.1.0,60.12028869
271,_2,M,270,R,N,271_2M270RN,HRN,0,118,118,150,,,1.077,782.7406434,783.0390033,783.0390033,783.2726641,783.290303,None,down,3.3978766,783.290303,None,783.290303,784.3546882,0.1680554,None,,,,,,,,,49,1,2020_Jan_03_1714,untitled,3.1.0,60.12028869
462,_5,M,225,R,N,462_5M225RN,HRN,0,119,119,181,,,0.717,786.8680526,787.1706307,787.1706307,787.402758,787.4207329,None,down,3.1465397,787.4207329,None,787.4207329,788.1183901,0.1674071,None,,,,,,,,,49,1,2020_Jan_03_1714,untitled,3.1.0,60.12028869
_,_2,M,45,_,_,__2M045__,N,0,120,120,25,,,0.769,790.7693168,791.0650091,791.0650091,791.281633,791.2985445,None,down,3.2821229,791.2985445,None,791.2985445,792.0478611,0.1891439,None,,,,,,,,,49,1,2020_Jan_03_1714,untitled,3.1.0,60.12028869
_,R,M,135,_,_,_RM135__,N,0,121,121,19,,,0.879,794.8006015,795.0952902,795.0952902,795.2948585,795.3115355,None,down,2.5179422,795.3115355,None,795.3115355,796.1774567,0.2061399,None,,,,,,,,,49,1,2020_Jan_03_1714,untitled,3.1.0,60.12028869
390,_4,N,225,R,N,390_4N225RN,HRN,0,122,122,261,,,0.913,798.0407437,798.3420105,798.3420105,798.5421262,798.5587597,None,up,2.1833295,798.5587597,None,798.5587597,799.4583085,0.1982149,None,,,,,,,,,49,1,2020_Jan_03_1714,untitled,3.1.0,60.12028869
201,G,M,0,R,N,201GM000RN,HRN,0,123,123,128,,,1.338,800.9665215,801.2565266,801.2565266,801.4561077,801.4731278,None,down,2.7488931,801.4731278,None,801.4731278,802.7895399,0.2101906,None,,,,,,,,,49,1,2020_Jan_03_1714,untitled,3.1.0,60.12028869
_,_4,M,45,_,_,__4M045__,N,0,124,124,33,,,1.357,804.414478,804.7038027,804.7038027,804.9363767,804.9530505,None,down,2.7500203,804.9530505,None,804.9530505,806.3021946,0.1802317,None,,,,,,,,,49,1,2020_Jan_03_1714,untitled,3.1.0,60.12028869
266,_2,M,45,R,N,266_2M045RN,HRN,0,125,125,145,,,1.017,807.9044058,808.200616,808.200616,808.4167737,808.4334826,None,down,2.9986074,808.4334826,None,808.4334826,809.4325736,0.1891075,None,,,,,,,,,49,1,2020_Jan_03_1714,untitled,3.1.0,60.12028869
_,_4,M,180,_,_,__4M180__,N,0,126,126,36,,,0.87,811.6334471,811.930266,811.930266,812.1467262,812.1636113,None,up,2.9487043,812.1636113,None,812.1636113,813.0128548,0.1881085,None,,,,,,,,,49,1,2020_Jan_03_1714,untitled,3.1.0,60.12028869
203,G,M,90,R,N,203GM090RN,HRN,0,127,127,130,,,1.351,815.3414679,815.6290104,815.6290104,815.8268903,815.8437023,None,down,3.0838078,815.8437023,None,815.8437023,817.1764998,0.2127309,None,,,,,,,,,49,1,2020_Jan_03_1714,untitled,3.1.0,60.12028869
_,_5,M,135,_,_,__5M135__,N,0,128,128,43,,,1.208,819.1867986,819.475651,819.475651,819.6567596,819.6567596,None,None,,819.6567596,None,819.6567596,820.8559394,0.2410262,None,,,,,,,,,49,1,2020_Jan_03_1714,untitled,3.1.0,60.12028869
449,_5,N,0,R,N,449_5N000RN,HRN,0,129,129,272,,,1.382,823.3353231,823.6370076,823.6370076,823.8537498,823.8700669,823.3353231,up,2.4330753,823.8700669,None,823.8700669,825.2353979,0.1864282,None,,,,,,,,,49,1,2020_Jan_03_1714,untitled,3.1.0,60.12028869
_,G,N,90,_,_,_GN090__,N,0,130,130,58,,,0.845,826.5034022,826.8008466,826.8008466,827.0172808,827.0339587,None,up,2.1674819,827.0339587,None,827.0339587,827.8665666,0.186693,None,,,,,,,,,49,1,2020_Jan_03_1714,untitled,3.1.0,60.12028869
259,_2,N,90,R,N,259_2N090RN,HRN,0,131,131,242,,,1.376,829.3900136,829.6830633,829.6830633,829.9156056,829.9337467,None,up,2.9795649,829.9337467,None,829.9337467,831.2966463,0.1770171,None,,,,,,,,,49,1,2020_Jan_03_1714,untitled,3.1.0,60.12028869
_,G,N,135,_,_,_GN135__,N,0,132,132,59,,,0.812,833.0764848,833.3781612,833.3781612,833.6285388,833.6450572,None,up,2.5493499,833.6450572,None,833.6450572,834.4478626,0.150913,None,,,,,,,,,49,1,2020_Jan_03_1714,untitled,3.1.0,60.12028869
197,G,N,180,R,N,197GN180RN,HRN,0,133,133,228,,,0.829,836.3733501,836.6754789,836.6754789,836.9084553,836.9252232,None,up,2.3325268,836.9252232,None,836.9252232,837.741437,0.1665537,None,,,,,,,,,49,1,2020_Jan_03_1714,untitled,3.1.0,60.12028869
292,_2,N,135,L,N,292_2N135LN,HLN,0,134,134,251,,,1.199,839.4738091,839.772661,839.772661,839.9728591,839.9891254,None,up,2.9819229,839.9891254,None,839.9891254,841.171637,0.2026147,None,,,,,,,,,49,1,2020_Jan_03_1714,untitled,3.1.0,60.12028869
_,_5,N,315,_,_,__5N315__,N,0,135,135,95,,,0.881,843.1639433,843.452851,843.452851,843.6859911,843.7028397,None,up,2.3660499,843.7028397,None,843.7028397,844.5691305,0.1809709,None,,,,,,,,,49,1,2020_Jan_03_1714,untitled,3.1.0,60.12028869
44,R,M,135,L,N,044RM135LN,HLN,0,136,136,107,,,1.096,846.2930778,846.5834508,846.5834508,846.7835774,846.8000378,None,down,2.7368991,846.8000378,None,846.8000378,847.8823301,0.2087437,None,,,,,,,,,49,1,2020_Jan_03_1714,untitled,3.1.0,60.12028869
42,R,M,45,L,N,042RM045LN,HLN,0,137,137,105,,,1.337,850.0263016,850.3135254,850.3135254,850.4633779,850.4803435,None,down,2.3009014,850.4803435,None,850.4803435,851.7955109,0.2678168,None,,,,,,,,,49,1,2020_Jan_03_1714,untitled,3.1.0,60.12028869
_,F,N,135,_,_,_FN135__,N,0,138,138,51,,,1.236,852.9759924,853.2759357,853.2759357,853.494063,853.5109111,None,up,2.3660699,853.5109111,None,853.5109111,854.7262859,0.1827056,None,,,,,,,,,49,1,2020_Jan_03_1714,untitled,3.1.0,60.12028869
172,F,M,135,L,N,172FM135LN,HLN,0,139,139,123,,,1.084,856.0557005,856.3579898,856.3579898,856.5910562,856.6079183,None,down,2.0337793,856.6079183,None,856.6079183,857.6736172,0.1666138,None,,,,,,,,,49,1,2020_Jan_03_1714,untitled,3.1.0,60.12028869
_,_5,M,225,_,_,__5M225__,N,0,140,140,45,,,1.382,858.828497,859.1223778,859.1223778,859.3554979,859.3722567,None,down,3.1993224,859.3722567,None,859.3722567,860.7376627,0.1743735,None,,,,,,,,,49,1,2020_Jan_03_1714,untitled,3.1.0,60.12028869
_,F,N,90,_,_,_FN090__,N,0,141,141,50,,,1.147,862.7887329,863.0858711,863.0858711,863.28579,863.302622,None,up,1.8824175,863.302622,None,863.302622,864.4346366,0.2029126,None,,,,,,,,,49,1,2020_Jan_03_1714,untitled,3.1.0,60.12028869
_,_4,M,0,_,_,__4M000__,N,0,142,142,32,,,1.31,865.4649294,865.7522857,865.7522857,865.9001893,865.9172273,None,down,2.4318743,865.9172273,None,865.9172273,867.215252,0.2594355,None,,,,,,,,,49,1,2020_Jan_03_1714,untitled,3.1.0,60.12028869
198,G,N,225,R,N,198GN225RN,HRN,0,143,143,229,,,0.966,868.551368,868.8474843,868.8474843,869.0637431,869.0805971,None,down,2.2494799,869.0805971,None,869.0805971,870.0295949,0.1885097,None,,,,,,,,,49,1,2020_Jan_03_1714,untitled,3.1.0,60.12028869
239,G,M,270,L,N,239GM270LN,HLN,0,144,144,142,,,1.059,871.5091934,871.8113364,871.8113364,872.0446205,872.0613515,None,down,2.9673034,872.0613515,None,872.0613515,873.1109187,0.166801,None,,,,,,,,,49,1,2020_Jan_03_1714,untitled,3.1.0,60.12028869
422,_4,N,225,L,N,422_4N225LN,HLN,0,145,145,269,,,0.759,875.2444078,875.5414961,875.5414961,875.7411931,875.7579266,None,up,1.6838061,875.7579266,None,875.7579266,876.5086121,0.2017087,None,,,,,,,,,49,1,2020_Jan_03_1714,untitled,3.1.0,60.12028869
304,_2,M,315,L,N,304_2M315LN,HLN,0,146,146,159,,,0.866,877.6718495,877.973279,877.973279,878.1565156,878.1738373,None,down,2.5818036,878.1738373,None,878.1738373,879.0225906,0.2167389,None,,,,,,,,,49,1,2020_Jan_03_1714,untitled,3.1.0,60.12028869
_,F,N,270,_,_,_FN270__,N,0,147,147,54,,,1.113,881.0467132,881.3373023,881.3373023,881.4696827,881.4879725,None,up,1.9498216,881.4879725,None,881.4879725,882.586726,0.2736178,None,,,,,,,,,49,1,2020_Jan_03_1714,untitled,3.1.0,60.12028869
13,R,M,180,R,N,013RM180RN,HRN,0,148,148,100,,,0.766,883.7256052,884.017405,884.017405,884.1505927,884.1675861,None,down,2.1172898,884.1675861,None,884.1675861,884.9174754,0.2706199,None,,,,,,,,,49,1,2020_Jan_03_1714,untitled,3.1.0,60.12028869
296,_2,N,315,L,N,296_2N315LN,HLN,0,149,149,255,,,0.995,886.4947739,886.7840351,886.7840351,886.9981468,887.0147225,None,down,3.331628,887.0147225,None,887.0147225,887.9978904,0.1962532,None,,,,,,,,,49,1,2020_Jan_03_1714,untitled,3.1.0,60.12028869
12,R,M,135,R,N,012RM135RN,HRN,0,150,150,99,,,1.215,890.5609258,890.861392,890.861392,891.0613451,891.0779951,None,down,2.6161724,891.0779951,None,891.0779951,892.2769877,0.201614,None,,,,,,,,,49,1,2020_Jan_03_1714,untitled,3.1.0,60.12028869
_,_5,N,45,_,_,__5N045__,N,0,151,151,89,,,0.783,893.9261081,894.2255078,894.2255078,894.4084636,894.4253993,None,up,2.4830982,894.4253993,None,894.4253993,895.191703,0.2172778,None,,,,,,,,,49,1,2020_Jan_03_1714,untitled,3.1.0,60.12028869
452,_5,N,135,R,N,452_5N135RN,HRN,0,152,152,275,,,1.211,897.1353817,897.4241901,897.4241901,897.6224244,897.639059,None,up,2.1491159,897.639059,None,897.639059,898.8380346,0.2115303,None,,,,,,,,,49,1,2020_Jan_03_1714,untitled,3.1.0,60.12028869
_,_5,M,45,_,_,__5M045__,N,0,153,153,41,,,1.384,899.9834446,900.2711917,900.2711917,900.5031265,900.5196731,None,None,,900.5196731,None,900.5196731,901.8863169,0.1818537,None,,,,,,,,,49,1,2020_Jan_03_1714,untitled,3.1.0,60.12028869
165,F,N,180,L,N,165FN180LN,HLN,0,154,154,220,,,1.101,904.1637114,904.4663244,904.4663244,904.6995054,904.7162371,904.1637114,up,2.1330182,904.7162371,None,904.7162371,905.7983659,0.1699074,None,,,,,,,,,49,1,2020_Jan_03_1714,untitled,3.1.0,60.12028869
429,_4,M,180,L,N,429_4M180LN,HLN,0,155,155,172,,,1.129,907.0417692,907.331571,907.331571,907.5637898,907.5800559,None,up,1.9173434,907.5800559,None,907.5800559,908.6963826,0.179339,None,,,,,,,,,49,1,2020_Jan_03_1714,untitled,3.1.0,60.12028869
260,_2,N,135,R,N,260_2N135RN,HRN,0,156,156,243,,,0.778,909.7536858,910.0449494,910.0449494,910.2113249,910.2282739,None,up,1.6829862,910.2282739,None,910.2282739,910.9943611,0.2412014,None,,,,,,,,,49,1,2020_Jan_03_1714,untitled,3.1.0,60.12028869
_,_2,M,0,_,_,__2M000__,N,0,157,157,24,,,1.071,912.1665181,912.459366,912.459366,912.6266359,912.6434849,None,down,2.5661791,912.6434849,None,912.6434849,913.7084121,0.2393178,None,,,,,,,,,49,1,2020_Jan_03_1714,untitled,3.1.0,60.12028869
456,_5,N,315,R,N,456_5N315RN,HRN,0,158,158,279,,,1.336,915.4021779,915.691547,915.691547,915.9228688,915.9400335,None,up,2.6476418,915.9400335,None,915.9400335,917.2550693,0.1806687,None,,,,,,,,,49,1,2020_Jan_03_1714,untitled,3.1.0,60.12028869
_,_4,N,270,_,_,__4N270__,N,0,159,159,86,,,0.948,918.7889993,919.0867491,919.0867491,919.3032595,919.3198977,None,up,1.71659,919.3198977,None,919.3198977,920.2530682,0.1888741,None,,,,,,,,,49,1,2020_Jan_03_1714,untitled,3.1.0,60.12028869
_,_4,M,135,_,_,__4M135__,N,0,160,160,35,,,1.225,921.2276933,921.5183882,921.5183882,921.7514379,921.7682322,None,up,2.5154858,921.7682322,None,921.7682322,922.9841929,0.1769342,None,,,,,,,,,49,1,2020_Jan_03_1714,untitled,3.1.0,60.12028869
139,F,M,90,R,N,139FM090RN,HRN,0,161,161,114,,,1.219,924.5109568,924.800476,924.800476,924.9995323,925.0161876,None,down,2.9156669,925.0161876,None,925.0161876,926.2308063,0.2125003,None,,,,,,,,,49,1,2020_Jan_03_1714,untitled,3.1.0,60.12028869
136,F,N,315,R,N,136FN315RN,HRN,0,162,162,215,,,0.705,928.1706522,928.4619991,928.4619991,928.6618917,928.6618917,None,up,3.1148947,928.6618917,None,928.6618917,929.3611878,0.2200203,None,,,,,,,,,49,1,2020_Jan_03_1714,untitled,3.1.0,60.12028869
298,_2,M,45,L,N,298_2M045LN,HLN,0,163,163,153,,,0.753,931.952993,932.242019,932.242019,932.4915712,932.5085032,None,up,3.0492677,932.5085032,None,932.5085032,933.2410182,0.1643641,None,,,,,,,,,49,1,2020_Jan_03_1714,untitled,3.1.0,60.12028869
240,G,M,315,L,N,240GM315LN,HLN,0,164,164,143,,,1.114,935.7604652,936.0551303,936.0551303,936.2718268,936.2884416,None,down,3.2656282,936.2884416,None,936.2884416,937.3877496,0.1893495,None,,,,,,,,,49,1,2020_Jan_03_1714,untitled,3.1.0,60.12028869
_,F,M,315,_,_,_FM315__,N,0,165,165,7,,,1.382,939.7712276,940.0687915,940.0687915,940.2682636,940.2853313,None,down,3.3662395,940.2853313,None,940.2853313,941.6509228,0.2011652,None,,,,,,,,,49,1,2020_Jan_03_1714,untitled,3.1.0,60.12028869
_,_4,N,225,_,_,__4N225__,N,0,166,166,85,,,0.834,943.9193519,944.2147269,944.2147269,944.3814136,944.3814136,None,up,2.4004607,944.3814136,None,944.3814136,945.2137935,0.2476976,None,,,,,,,,,49,1,2020_Jan_03_1714,untitled,3.1.0,60.12028869
237,G,M,180,L,N,237GM180LN,HLN,0,167,167,140,,,0.91,946.9857231,947.2787686,947.2787686,947.4950878,947.5118052,None,down,3.3821203,947.5118052,None,947.5118052,948.4109858,0.1909736,None,,,,,,,,,49,1,2020_Jan_03_1714,untitled,3.1.0,60.12028869
7,R,N,270,R,N,007RN270RN,HRN,0,168,168,198,,,1.07,951.0822175,951.375412,951.375412,951.6082718,951.6258382,None,up,2.266672,951.6258382,None,951.6258382,952.6752643,0.1766569,None,,,,,,,,,49,1,2020_Jan_03_1714,untitled,3.1.0,60.12028869
163,F,N,90,L,N,163FN090LN,HLN,0,169,169,218,,,0.747,954.1094321,954.4058662,954.4058662,954.6060322,954.6230835,None,up,1.6831077,954.6230835,None,954.6230835,955.3551329,0.2043539,None,,,,,,,,,49,1,2020_Jan_03_1714,untitled,3.1.0,60.12028869
207,G,M,270,R,N,207GM270RN,HRN,0,170,170,134,,,1.199,956.5436234,956.8376444,956.8376444,957.0206583,957.0376306,None,down,2.6341158,957.0376306,None,957.0376306,958.2200896,0.2233647,None,,,,,,,,,49,1,2020_Jan_03_1714,untitled,3.1.0,60.12028869
41,R,M,0,L,N,041RM000LN,HLN,0,171,171,104,,,0.96,959.9880298,960.2841019,960.2841019,960.4013947,960.4013947,None,down,2.1809234,960.4013947,None,960.4013947,961.3507038,0.294562,None,,,,,,,,,49,1,2020_Jan_03_1714,untitled,3.1.0,60.12028869
176,F,M,315,L,N,176FM315LN,HLN,0,172,172,127,,,0.798,962.7620566,963.0631977,963.0631977,963.2981386,963.3147946,None,down,2.0662171,963.3147946,None,963.3147946,964.0975649,0.1675901,None,,,,,,,,,49,1,2020_Jan_03_1714,untitled,3.1.0,60.12028869
_,R,M,90,_,_,_RM090__,N,0,173,173,18,,,1.013,965.5585054,965.8473927,965.8473927,966.095559,966.1122132,None,down,1.9166752,966.1122132,None,966.1122132,967.111769,0.1657531,None,,,,,,,,,49,1,2020_Jan_03_1714,untitled,3.1.0,60.12028869
450,_5,N,45,R,N,450_5N045RN,HRN,0,174,174,273,,,0.739,968.2026721,968.4944756,968.4944756,968.7432893,968.7600312,None,up,1.7350781,968.7600312,None,968.7600312,969.4926878,0.1617227,None,,,,,,,,,49,1,2020_Jan_03_1714,untitled,3.1.0,60.12028869
392,_4,N,315,R,N,392_4N315RN,HRN,0,175,175,263,,,1.132,970.7189546,971.0089549,971.0089549,971.2082765,971.2252157,None,up,1.9664623,971.2252157,None,971.2252157,972.3403733,0.2093051,None,,,,,,,,,49,1,2020_Jan_03_1714,untitled,3.1.0,60.12028869
161,F,N,0,L,N,161FN000LN,HLN,0,176,176,216,,,1.343,973.4303108,973.7228283,973.7228283,973.906215,973.9235614,None,up,2.0814924,973.9235614,None,973.9235614,975.2557267,0.2227586,None,,,,,,,,,49,1,2020_Jan_03_1714,untitled,3.1.0,60.12028869
262,_2,N,225,R,N,262_2N225RN,HRN,0,177,177,245,,,0.865,976.2082214,976.5031904,976.5031904,976.7197793,976.7364681,None,up,1.7008906,976.7364681,None,976.7364681,977.5852492,0.1901975,None,,,,,,,,,49,1,2020_Jan_03_1714,untitled,3.1.0,60.12028869
_,_2,N,180,_,_,__2N180__,N,0,178,178,76,,,0.758,978.6610778,978.952288,978.952288,979.1509643,979.1676304,None,up,1.4501808,979.1676304,None,979.1676304,979.9171618,0.2098076,None,,,,,,,,,49,1,2020_Jan_03_1714,untitled,3.1.0,60.12028869
430,_4,M,225,L,N,430_4M225LN,HLN,0,179,179,173,,,1.304,980.8282488,981.1175647,981.1175647,981.332552,981.3491768,None,None,,981.3491768,None,981.3491768,982.6479318,0.1969895,None,,,,,,,,,49,1,2020_Jan_03_1714,untitled,3.1.0,60.12028869
38,R,N,225,L,N,038RN225LN,HLN,0,180,180,205,,,1.224,985.0220248,985.3122491,985.3122491,985.5287611,985.5456816,985.0220248,up,2.2499154,985.5456816,None,985.5456816,986.7615889,0.1945397,None,,,,,,,,,49,1,2020_Jan_03_1714,untitled,3.1.0,60.12028869
_,_5,M,0,_,_,__5M000__,N,0,181,181,40,,,1.307,988.0480899,988.3431499,988.3431499,988.509884,988.5265378,None,None,,988.5265378,None,988.5265378,989.825286,0.2372454,None,,,,,,,,,49,1,2020_Jan_03_1714,untitled,3.1.0,60.12028869
_,G,N,45,_,_,_GN045__,N,0,182,182,57,,,0.835,992.1757039,992.4724636,992.4724636,992.7058567,992.7227447,992.1757039,up,2.2001931,992.7227447,None,992.7227447,993.5389503,0.1743421,None,,,,,,,,,49,1,2020_Jan_03_1714,untitled,3.1.0,60.12028869
231,G,N,270,L,N,231GN270LN,HLN,0,183,183,238,,,1.365,995.1026103,995.4036705,995.4036705,995.6365411,995.6533885,None,up,2.5490905,995.6533885,None,995.6533885,997.0020383,0.1671099,None,,,,,,,,,49,1,2020_Jan_03_1714,untitled,3.1.0,60.12028869
16,R,M,315,R,N,016RM315RN,HRN,0,184,184,103,,,1.16,998.4088126,998.700565,998.700565,998.9179895,998.9356698,None,down,2.4324798,998.9356698,None,998.9356698,1000.083081,0.1930766,None,,,,,,,,,49,1,2020_Jan_03_1714,untitled,3.1.0,60.12028869
_,_5,M,270,_,_,__5M270__,N,0,185,185,46,,,0.992,1001.574043,1001.864422,1001.864422,1002.081165,1002.097688,None,down,2.4349778,1002.097688,None,1002.097688,1003.08072,0.1925368,None,,,,,,,,,49,1,2020_Jan_03_1714,untitled,3.1.0,60.12028869
_,F,N,0,_,_,_FN000__,N,0,186,186,48,,,1.282,1004.754413,1005.045265,1005.045265,1005.244942,1005.261925,None,up,2.0177163,1005.261925,None,1005.261925,1006.528429,0.2063285,None,,,,,,,,,49,1,2020_Jan_03_1714,untitled,3.1.0,60.12028869
_,_5,N,135,_,_,__5N135__,N,0,187,187,91,,,1.329,1007.509639,1007.809468,1007.809468,1007.992374,1008.009264,None,up,3.1654015,1008.009264,None,1008.009264,1009.324919,0.2165294,None,,,,,,,,,49,1,2020_Jan_03_1714,untitled,3.1.0,60.12028869
398,_4,M,225,R,N,398_4M225RN,HRN,0,188,188,165,,,0.914,1011.35845,1011.655967,1011.655967,1011.888949,1011.905983,None,down,2.1654259,1011.905983,None,1011.905983,1012.804922,0.1707934,None,,,,,,,,,49,1,2020_Jan_03_1714,untitled,3.1.0,60.12028869
455,_5,N,270,R,N,455_5N270RN,HRN,0,189,189,278,,,1.088,1014.243375,1014.536796,1014.536796,1014.786562,1014.803488,None,up,2.0668252,1014.803488,None,1014.803488,1015.869216,0.1600916,None,,,,,,,,,49,1,2020_Jan_03_1714,untitled,3.1.0,60.12028869
297,_2,M,0,L,N,297_2M000LN,HLN,0,190,190,152,,,1.041,1017.081417,1017.382497,1017.382497,1017.584068,1017.600736,None,down,2.1005785,1017.600736,None,1017.600736,1018.633736,0.1937813,None,,,,,,,,,49,1,2020_Jan_03_1714,untitled,3.1.0,60.12028869
419,_4,N,90,L,N,419_4N090LN,HLN,0,191,191,266,,,0.739,1019.957856,1020.248791,1020.248791,1020.415102,1020.432217,None,up,1.7501704,1020.432217,None,1020.432217,1021.164647,0.2429762,None,,,,,,,,,49,1,2020_Jan_03_1714,untitled,3.1.0,60.12028869
195,G,N,90,R,N,195GN090RN,HRN,0,192,192,226,,,0.778,1022.494328,1022.781854,1022.781854,1022.89656,1022.915958,None,up,2.0932308,1022.915958,None,1022.915958,1023.67885,0.2925653,None,,,,,,,,,49,1,2020_Jan_03_1714,untitled,3.1.0,60.12028869
265,_2,M,0,R,N,265_2M000RN,HRN,0,193,193,144,,,0.988,1025.193339,1025.494062,1025.494062,1025.727379,1025.743752,None,down,2.3836524,1025.743752,None,1025.743752,1026.709599,0.1718217,None,,,,,,,,,49,1,2020_Jan_03_1714,untitled,3.1.0,60.12028869
267,_2,M,90,R,N,267_2M090RN,HRN,0,194,194,146,,,0.823,1028.340837,1028.641299,1028.641299,1028.840826,1028.857852,None,down,2.3645384,1028.857852,None,1028.857852,1029.673531,0.2007307,None,,,,,,,,,49,1,2020_Jan_03_1714,untitled,3.1.0,60.12028869
_,_4,M,270,_,_,__4M270__,N,0,195,195,38,,,1.343,1031.40618,1031.705146,1031.705146,1031.938204,1031.954994,None,down,2.3830937,1031.954994,None,1031.954994,1033.286925,0.1719567,None,,,,,,,,,49,1,2020_Jan_03_1714,untitled,3.1.0,60.12028869
269,_2,M,180,R,N,269_2M180RN,HRN,0,196,196,148,,,0.97,1034.55972,1034.852727,1034.852727,1035.052219,1035.068872,None,up,3.1844272,1035.068872,None,1035.068872,1036.034984,0.2071503,None,,,,,,,,,49,1,2020_Jan_03_1714,untitled,3.1.0,60.12028869
229,G,N,180,L,N,229GN180LN,HLN,0,197,197,236,,,0.716,1038.506173,1038.798973,1038.798973,1038.966403,1038.984944,None,up,3.3467485,1038.984944,None,1038.984944,1039.681436,0.2356245,None,,,,,,,,,49,1,2020_Jan_03_1714,untitled,3.1.0,60.12028869
236,G,M,135,L,N,236GM135LN,HLN,0,198,198,139,,,1.258,1042.519834,1042.812055,1042.812055,1043.045487,1043.061999,None,down,2.4998311,1043.061999,None,1043.061999,1044.310823,0.1750868,None,,,,,,,,,49,1,2020_Jan_03_1714,untitled,3.1.0,60.12028869
387,_4,N,90,R,N,387_4N090RN,HRN,0,199,199,258,,,1.241,1045.757258,1046.059525,1046.059525,1046.276002,1046.292399,None,up,2.9320354,1046.292399,None,1046.292399,1047.524484,0.1835646,None,,,,,,,,,49,1,2020_Jan_03_1714,untitled,3.1.0,60.12028869
490,_5,M,45,L,N,490_5M045LN,HLN,0,200,200,185,,,0.803,1049.434392,1049.723003,1049.723003,1049.939696,1049.956334,None,up,2.4164649,1049.956334,None,1049.956334,1050.738668,0.1965904,None,,,,,,,,,49,1,2020_Jan_03_1714,untitled,3.1.0,60.12028869
_,_2,M,225,_,_,__2M225__,N,0,201,201,29,,,1.332,1052.599434,1052.887377,1052.887377,1053.086228,1053.102964,None,None,,1053.102964,None,1053.102964,1054.420339,0.2098481,None,,,,,,,,,49,1,2020_Jan_03_1714,untitled,3.1.0,60.12028869
6,R,N,225,R,N,006RN225RN,HRN,0,202,202,197,,,0.798,1056.764012,1057.066337,1057.066337,1057.299677,1057.316159,1056.764012,up,2.0989208,1057.316159,None,1057.316159,1058.098463,0.1698397,None,,,,,,,,,49,1,2020_Jan_03_1714,untitled,3.1.0,60.12028869
481,_5,N,0,L,N,481_5N000LN,HLN,0,203,203,280,,,1.139,1059.601508,1059.896987,1059.896987,1060.130283,1060.146749,None,up,2.1658308,1060.146749,None,1060.146749,1061.262625,0.1746895,None,,,,,,,,,49,1,2020_Jan_03_1714,untitled,3.1.0,60.12028869
432,_4,M,315,L,N,432_4M315LN,HLN,0,204,204,175,,,0.947,1062.488983,1062.777771,1062.777771,1063.028948,1063.044714,None,down,1.9847591,1063.044714,None,1063.044714,1063.977271,0.1641975,None,,,,,,,,,49,1,2020_Jan_03_1714,untitled,3.1.0,60.12028869
_,_2,M,180,_,_,__2M180__,N,0,205,205,28,,,1.303,1065.245156,1065.542527,1065.542527,1065.742263,1065.759223,None,up,2.8995179,1065.759223,None,1065.759223,1067.058142,0.1996618,None,,,,,,,,,49,1,2020_Jan_03_1714,untitled,3.1.0,60.12028869
_,_4,N,315,_,_,__4N315__,N,0,206,206,87,,,1.241,1068.871395,1069.17339,1069.17339,1069.372971,1069.390691,None,up,3.0325171,1069.390691,None,1069.390691,1070.621237,0.1950861,None,,,,,,,,,49,1,2020_Jan_03_1714,untitled,3.1.0,60.12028869
228,G,N,135,L,N,228GN135LN,HLN,0,207,207,235,,,1.371,1072.612451,1072.90239,1072.90239,1073.135542,1073.152374,None,up,2.665921,1073.152374,None,1073.152374,1074.518003,0.1769867,None,,,,,,,,,49,1,2020_Jan_03_1714,untitled,3.1.0,60.12028869
230,G,N,225,L,N,230GN225LN,HLN,0,208,208,237,,,1.207,1076.022608,1076.316206,1076.316206,1076.532913,1076.550561,None,up,2.4003719,1076.550561,None,1076.550561,1077.748292,0.1907785,None,,,,,,,,,49,1,2020_Jan_03_1714,untitled,3.1.0,60.12028869
_,G,N,315,_,_,_GN315__,N,0,209,209,63,,,0.805,1079.198273,1079.496532,1079.496532,1079.67992,1079.67992,None,up,1.7162423,1079.67992,None,1079.67992,1080.479467,0.2287129,None,,,,,,,,,49,1,2020_Jan_03_1714,untitled,3.1.0,60.12028869
484,_5,N,135,L,N,484_5N135LN,HLN,0,210,210,283,,,0.931,1081.633396,1081.928075,1081.928075,1082.111797,1082.128703,None,up,2.1490367,1082.128703,None,1082.128703,1083.043924,0.2223618,None,,,,,,,,,49,1,2020_Jan_03_1714,untitled,3.1.0,60.12028869
233,G,M,0,L,N,233GM000LN,HLN,0,211,211,136,,,1.047,1085.564713,1085.857738,1085.857738,1085.990996,1086.007685,None,down,2.8501389,1086.007685,None,1086.007685,1087.039978,0.2676978,None,,,,,,,,,49,1,2020_Jan_03_1714,untitled,3.1.0,60.12028869
_,G,N,270,_,_,_GN270__,N,0,212,212,62,,,0.78,1089.135744,1089.438241,1089.438241,1089.571084,1089.587925,None,down,1.6664164,1089.587925,None,1089.587925,1090.35383,0.2631406,None,,,,,,,,,49,1,2020_Jan_03_1714,untitled,3.1.0,60.12028869
299,_2,M,90,L,N,299_2M090LN,HLN,0,213,213,154,,,1.169,1091.451043,1091.752743,1091.752743,1091.969159,1091.98609,None,down,3.0486226,1091.98609,None,1091.98609,1093.134895,0.184129,None,,,,,,,,,49,1,2020_Jan_03_1714,untitled,3.1.0,60.12028869
488,_5,N,315,L,N,488_5N315LN,HLN,0,214,214,287,,,1.35,1095.23248,1095.533109,1095.533109,1095.749181,1095.765955,None,up,2.2506563,1095.765955,None,1095.765955,1097.098158,0.1858061,None,,,,,,,,,49,1,2020_Jan_03_1714,untitled,3.1.0,60.12028869
_,G,M,90,_,_,_GM090__,N,0,215,215,10,,,1.057,1098.260238,1098.548457,1098.548457,1098.730056,1098.746942,None,down,2.4341036,1098.746942,None,1098.746942,1099.796229,0.2265094,None,,,,,,,,,49,1,2020_Jan_03_1714,untitled,3.1.0,60.12028869
167,F,N,270,L,N,167FN270LN,HLN,0,216,216,222,,,1.234,1101.441569,1101.728841,1101.728841,1101.910445,1101.910445,None,up,2.5163583,1101.910445,None,1101.910445,1103.142721,0.2430536,None,,,,,,,,,49,1,2020_Jan_03_1714,untitled,3.1.0,60.12028869
_,F,M,270,_,_,_FM270__,N,0,217,217,6,,,0.818,1104.634644,1104.924749,1104.924749,1105.140938,1105.157668,None,down,2.0507012,1105.157668,None,1105.157668,1105.956875,0.194772,None,,,,,,,,,49,1,2020_Jan_03_1714,untitled,3.1.0,60.12028869
458,_5,M,45,R,N,458_5M045RN,HRN,0,218,218,177,,,1.32,1107.423995,1107.721948,1107.721948,1107.921889,1107.938567,None,None,,1107.938567,None,1107.938567,1109.254268,0.2024749,None,,,,,,,,,49,1,2020_Jan_03_1714,untitled,3.1.0,60.12028869
_,R,N,315,_,_,_RN315__,N,0,219,219,71,,,1.26,1111.578714,1111.868594,1111.868594,1112.118565,1112.135668,1111.578714,up,2.8325375,1112.135668,None,1112.135668,1113.384237,0.164221,None,,,,,,,,,49,1,2020_Jan_03_1714,untitled,3.1.0,60.12028869
200,G,N,315,R,N,200GN315RN,HRN,0,220,220,231,,,1.181,1115.228037,1115.51579,1115.51579,1115.682706,1115.700234,None,up,2.4140696,1115.700234,None,1115.700234,1116.86484,0.2444821,None,,,,,,,,,49,1,2020_Jan_03_1714,untitled,3.1.0,60.12028869
171,F,M,90,L,N,171FM090LN,HLN,0,221,221,122,,,0.775,1118.306069,1118.595667,1118.595667,1118.8289,1118.845564,None,down,1.8171594,1118.845564,None,1118.845564,1119.61185,0.1796349,None,,,,,,,,,49,1,2020_Jan_03_1714,untitled,3.1.0,60.12028869
174,F,M,225,L,N,174FM225LN,HLN,0,222,222,125,,,1.273,1120.864258,1121.160436,1121.160436,1121.377021,1121.393511,None,down,2.649275,1121.393511,None,1121.393511,1122.659192,0.1893613,None,,,,,,,,,49,1,2020_Jan_03_1714,untitled,3.1.0,60.12028869
486,_5,N,225,L,N,486_5N225LN,HLN,0,223,223,285,,,0.738,1124.258404,1124.557354,1124.557354,1124.757488,1124.773916,None,up,1.9671908,1124.773916,None,1124.773916,1125.506619,0.2022926,None,,,,,,,,,49,1,2020_Jan_03_1714,untitled,3.1.0,60.12028869
397,_4,M,180,R,N,397_4M180RN,HRN,0,224,224,164,,,1.14,1126.926812,1127.221894,1127.221894,1127.454893,1127.471676,None,up,2.5655056,1127.471676,None,1127.471676,1128.604255,0.1736396,None,,,,,,,,,49,1,2020_Jan_03_1714,untitled,3.1.0,60.12028869
173,F,M,180,L,N,173FM180LN,HLN,0,225,225,124,,,1.327,1130.259022,1130.552849,1130.552849,1130.752132,1130.769058,None,down,3.1820397,1130.769058,None,1130.769058,1132.084922,0.2061957,None,,,,,,,,,49,1,2020_Jan_03_1714,untitled,3.1.0,60.12028869
193,G,N,0,R,N,193GN000RN,HRN,0,226,226,224,,,1.129,1134.122635,1134.41517,1134.41517,1134.665031,1134.681955,None,up,2.0997473,1134.681955,None,1134.681955,1135.797444,0.1603245,None,,,,,,,,,49,1,2020_Jan_03_1714,untitled,3.1.0,60.12028869
194,G,N,45,R,N,194GN045RN,HRN,0,227,227,225,,,0.812,1136.994407,1137.296244,1137.296244,1137.49609,1137.512829,None,up,1.7335982,1137.512829,None,1137.512829,1138.312265,0.1993759,None,,,,,,,,,49,1,2020_Jan_03_1714,untitled,3.1.0,60.12028869
485,_5,N,180,L,N,485_5N180LN,HLN,0,228,228,284,,,0.706,1139.452025,1139.744295,1139.744295,1139.960666,1139.977471,None,up,1.8687808,1139.977471,None,1139.977471,1140.676773,0.1918828,None,,,,,,,,,49,1,2020_Jan_03_1714,untitled,3.1.0,60.12028869
399,_4,M,270,R,N,399_4M270RN,HRN,0,229,229,166,,,0.701,1142.056818,1142.358517,1142.358517,1142.55833,1142.575371,None,up,1.9668956,1142.575371,None,1142.575371,1143.257634,0.1981751,None,,,,,,,,,49,1,2020_Jan_03_1714,untitled,3.1.0,60.12028869
302,_2,M,225,L,N,302_2M225LN,HLN,0,230,230,157,,,0.982,1144.775938,1145.073144,1145.073144,1145.256349,1145.273283,None,up,2.116053,1145.273283,None,1145.273283,1146.239045,0.2195312,None,,,,,,,,,49,1,2020_Jan_03_1714,untitled,3.1.0,60.12028869
_,_2,N,270,_,_,__2N270__,N,0,231,231,78,,,0.758,1147.6251,1147.921524,1147.921524,1148.104313,1148.122652,None,up,1.5819792,1148.122652,None,1148.122652,1148.869387,0.2224368,None,,,,,,,,,49,1,2020_Jan_03_1714,untitled,3.1.0,60.12028869
451,_5,N,90,R,N,451_5N090RN,HRN,0,232,232,274,,,1.105,1149.89659,1150.18501,1150.18501,1150.418115,1150.434891,None,up,2.0183194,1150.434891,None,1150.434891,1151.534566,0.1791687,None,,,,,,,,,49,1,2020_Jan_03_1714,untitled,3.1.0,60.12028869
427,_4,M,90,L,N,427_4M090LN,HLN,0,233,233,170,,,1.044,1152.668889,1152.965988,1152.965988,1153.165638,1153.182518,None,down,2.0512838,1153.182518,None,1153.182518,1154.214967,0.20374,None,,,,,,,,,49,1,2020_Jan_03_1714,untitled,3.1.0,60.12028869
142,F,M,225,R,N,142FM225RN,HRN,0,234,234,117,,,1.056,1155.452579,1155.746893,1155.746893,1155.946591,1155.963287,None,down,2.3507288,1155.963287,None,1155.963287,1157.012533,0.2060108,None,,,,,,,,,49,1,2020_Jan_03_1714,untitled,3.1.0,60.12028869
264,_2,N,315,R,N,264_2N315RN,HRN,0,235,235,247,,,0.805,1158.520042,1158.810838,1158.810838,1159.027441,1159.044701,None,up,1.6161417,1159.044701,None,1159.044701,1159.84403,0.1928739,None,,,,,,,,,49,1,2020_Jan_03_1714,untitled,3.1.0,60.12028869
396,_4,M,135,R,N,396_4M135RN,HRN,0,236,236,163,,,1.282,1160.892386,1161.192345,1161.192345,1161.375921,1161.392801,None,down,2.7154869,1161.392801,None,1161.392801,1162.657792,0.2179969,None,,,,,,,,,49,1,2020_Jan_03_1714,untitled,3.1.0,60.12028869
_,R,M,45,_,_,_RM045__,N,0,237,237,17,,,1.369,1164.377366,1164.672406,1164.672406,1164.822134,1164.838859,None,None,,1164.838859,None,1164.838859,1166.204211,0.2515475,None,,,,,,,,,49,1,2020_Jan_03_1714,untitled,3.1.0,60.12028869
418,_4,N,45,L,N,418_4N045LN,HLN,0,238,238,265,,,1.222,1168.511261,1168.802096,1168.802096,1169.035388,1169.054534,1168.511261,up,2.4657648,1169.054534,None,1169.054534,1170.250947,0.1786897,None,,,,,,,,,49,1,2020_Jan_03_1714,untitled,3.1.0,60.12028869
426,_4,M,45,L,N,426_4M045LN,HLN,0,239,239,169,,,1.278,1171.732507,1172.032821,1172.032821,1172.232555,1172.249042,None,down,2.1328732,1172.249042,None,1172.249042,1173.515046,0.2000072,None,,,,,,,,,49,1,2020_Jan_03_1714,untitled,3.1.0,60.12028869
43,R,M,90,L,N,043RM090LN,HLN,0,240,240,106,,,1.195,1174.597492,1174.896718,1174.896718,1175.096697,1175.113677,None,down,2.3657465,1175.113677,None,1175.113677,1176.295498,0.2023541,None,,,,,,,,,49,1,2020_Jan_03_1714,untitled,3.1.0,60.12028869
400,_4,M,315,R,N,400_4M315RN,HRN,0,241,241,167,,,1.266,1177.714449,1178.011013,1178.011013,1178.195114,1178.212974,None,up,2.3335785,1178.212974,None,1178.212974,1179.459601,0.2213697,None,,,,,,,,,49,1,2020_Jan_03_1714,untitled,3.1.0,60.12028869
295,_2,N,270,L,N,295_2N270LN,HLN,0,242,242,254,,,1.053,1180.803348,1181.091202,1181.091202,1181.274422,1181.274422,None,up,2.7635447,1181.274422,None,1181.274422,1182.323561,0.2376446,None,,,,,,,,,49,1,2020_Jan_03_1714,untitled,3.1.0,60.12028869
39,R,N,270,L,N,039RN270LN,HLN,0,243,243,206,,,1.297,1184.250636,1184.539615,1184.539615,1184.754597,1184.77121,None,up,2.2005261,1184.77121,None,1184.77121,1186.053505,0.195925,None,,,,,,,,,49,1,2020_Jan_03_1714,untitled,3.1.0,60.12028869
_,_2,N,90,_,_,__2N090__,N,0,244,244,74,,,1.189,1187.166877,1187.468912,1187.468912,1187.685463,1187.702022,None,None,,1187.702022,None,1187.702022,1188.886462,0.1833812,None,,,,,,,,,49,1,2020_Jan_03_1714,untitled,3.1.0,60.12028869
_,_2,M,90,_,_,__2M090__,N,0,245,245,26,,,1.334,1191.394829,1191.683843,1191.683843,1191.882539,1191.899125,1191.394829,down,2.3165963,1191.899125,None,1191.899125,1193.214226,0.2150672,None,,,,,,,,,49,1,2020_Jan_03_1714,untitled,3.1.0,60.12028869
144,F,M,315,R,N,144FM315RN,HRN,0,246,246,119,,,0.776,1194.455389,1194.746268,1194.746268,1194.929663,1194.946378,None,down,2.0997351,1194.946378,None,1194.946378,1195.713209,0.224555,None,,,,,,,,,49,1,2020_Jan_03_1714,untitled,3.1.0,60.12028869
_,F,M,0,_,_,_FM000__,N,0,247,247,0,,,1.118,1197.212691,1197.510048,1197.510048,1197.760368,1197.777034,None,down,2.3342188,1197.777034,None,1197.777034,1198.876225,0.1545969,None,,,,,,,,,49,1,2020_Jan_03_1714,untitled,3.1.0,60.12028869
226,G,N,45,L,N,226GN045LN,HLN,0,248,248,233,,,0.828,1200.301602,1200.591131,1200.591131,1200.824161,1200.840989,None,up,2.049774,1200.840989,None,1200.840989,1201.658111,0.177131,None,,,,,,,,,49,1,2020_Jan_03_1714,untitled,3.1.0,60.12028869
_,_5,M,90,_,_,__5M090__,N,0,249,249,42,,,1.336,1203.085632,1203.373381,1203.373381,1203.605102,1203.622043,None,None,,1203.622043,None,1203.622043,1204.937225,0.1823975,None,,,,,,,,,49,1,2020_Jan_03_1714,untitled,3.1.0,60.12028869
303,_2,M,270,L,N,303_2M270LN,HLN,0,250,250,158,,,1.087,1207.314059,1207.602335,1207.602335,1207.801346,1207.818468,1207.314059,down,3.383279,1207.818468,None,1207.818468,1208.885597,0.2133604,None,,,,,,,,,49,1,2020_Jan_03_1714,untitled,3.1.0,60.12028869
_,R,M,0,_,_,_RM000__,N,0,251,251,16,,,1.329,1211.468831,1211.765002,1211.765002,1211.914395,1211.931125,None,down,2.8824026,1211.931125,None,1211.931125,1213.246616,0.2496763,None,,,,,,,,,49,1,2020_Jan_03_1714,untitled,3.1.0,60.12028869
494,_5,M,225,L,N,494_5M225LN,HLN,0,252,252,189,,,0.841,1215.018969,1215.311392,1215.311392,1215.52784,1215.544782,None,down,2.5667314,1215.544782,None,1215.544782,1216.377114,0.1910735,None,,,,,,,,,49,1,2020_Jan_03_1714,untitled,3.1.0,60.12028869
258,_2,N,45,R,N,258_2N045RN,HRN,0,253,253,241,,,1.113,1218.324753,1218.625383,1218.625383,1218.825087,1218.841908,None,up,2.1161074,1218.841908,None,1218.841908,1219.941565,0.2006747,None,,,,,,,,,49,1,2020_Jan_03_1714,untitled,3.1.0,60.12028869
238,G,M,225,L,N,238GM225LN,HLN,0,254,254,141,,,0.888,1221.182574,1221.472818,1221.472818,1221.6727,1221.689338,None,down,2.4997695,1221.689338,None,1221.689338,1222.55554,0.2108207,None,,,,,,,,,49,1,2020_Jan_03_1714,untitled,3.1.0,60.12028869
_,F,M,225,_,_,_FM225__,N,0,255,255,5,,,0.852,1224.405208,1224.703666,1224.703666,1224.903277,1224.920096,None,down,2.0010456,1224.920096,None,1224.920096,1225.752847,0.2013373,None,,,,,,,,,49,1,2020_Jan_03_1714,untitled,3.1.0,60.12028869
261,_2,N,180,R,N,261_2N180RN,HRN,0,256,256,244,,,1.386,1227.26464,1227.568598,1227.568598,1227.651171,1227.651171,None,up,2.6336972,1227.651171,None,1227.651171,1229.033659,0.3235389,None,,,,,,,,,49,1,2020_Jan_03_1714,untitled,3.1.0,60.12028869
420,_4,N,135,L,N,420_4N135LN,HLN,0,257,257,267,,,0.801,1230.494618,1230.782767,1230.782767,1230.997858,1231.01444,None,up,1.8831381,1231.01444,None,1231.01444,1231.797168,0.1962835,None,,,,,,,,,49,1,2020_Jan_03_1714,untitled,3.1.0,60.12028869
424,_4,N,315,L,N,424_4N315LN,HLN,0,258,258,271,,,1.392,1233.106528,1233.39646,1233.39646,1233.61217,1233.628935,None,up,2.6828902,1233.628935,None,1233.628935,1235.010958,0.1959843,None,,,,,,,,,49,1,2020_Jan_03_1714,untitled,3.1.0,60.12028869
_,_2,M,270,_,_,__2M270__,N,0,259,259,30,,,1.034,1236.544614,1236.842568,1236.842568,1237.02618,1237.042492,None,down,2.549761,1237.042492,None,1237.042492,1238.058336,0.218498,None,,,,,,,,,49,1,2020_Jan_03_1714,untitled,3.1.0,60.12028869
_,_2,N,315,_,_,__2N315__,N,0,260,260,79,,,1.171,1239.809594,1240.106788,1240.106788,1240.306399,1240.323113,None,up,2.284925,1240.323113,None,1240.323113,1241.489048,0.2029094,None,,,,,,,,,49,1,2020_Jan_03_1714,untitled,3.1.0,60.12028869
_,F,M,45,_,_,_FM045__,N,0,261,261,1,,,0.946,1242.934536,1243.235309,1243.235309,1243.337914,1243.337914,None,down,2.9806992,1243.337914,None,1243.337914,1244.269975,0.3066826,None,,,,,,,,,49,1,2020_Jan_03_1714,untitled,3.1.0,60.12028869
_,_4,M,315,_,_,__4M315__,N,0,262,262,39,,,1.186,1246.49236,1246.783987,1246.783987,1247.033624,1247.050666,None,up,1.9350109,1247.050666,None,1247.050666,1248.215769,0.1625872,None,,,,,,,,,49,1,2020_Jan_03_1714,untitled,3.1.0,60.12028869
206,G,M,225,R,N,206GM225RN,HRN,0,263,263,133,,,1.04,1249.205487,1249.498223,1249.498223,1249.71489,1249.71489,None,down,2.3989952,1249.71489,None,1249.71489,1250.74739,0.2030634,None,,,,,,,,,49,1,2020_Jan_03_1714,untitled,3.1.0,60.12028869
_,_5,M,180,_,_,__5M180__,N,0,264,264,44,,,0.814,1252.335373,1252.628841,1252.628841,1252.828673,1252.845376,None,down,2.0672586,1252.845376,None,1252.845376,1253.645075,0.208998,None,,,,,,,,,49,1,2020_Jan_03_1714,untitled,3.1.0,60.12028869
129,F,N,0,R,N,129FN000RN,HRN,0,265,265,208,,,1.293,1255.163595,1255.459853,1255.459853,1255.626718,1255.64326,None,up,2.1490258,1255.64326,None,1255.64326,1256.925282,0.2353136,None,,,,,,,,,49,1,2020_Jan_03_1714,untitled,3.1.0,60.12028869
_,_5,N,180,_,_,__5N180__,N,0,266,266,92,,,0.825,1257.98594,1258.289654,1258.289654,1258.507827,1258.526319,None,up,2.1171101,1258.526319,None,1258.526319,1259.339835,0.1793855,None,,,,,,,,,49,1,2020_Jan_03_1714,untitled,3.1.0,60.12028869
460,_5,M,135,R,N,460_5M135RN,HRN,0,267,267,179,,,1.057,1260.837233,1261.138341,1261.138341,1261.354633,1261.371283,None,None,,1261.371283,None,1261.371283,1262.420387,0.1822177,None,,,,,,,,,49,1,2020_Jan_03_1714,untitled,3.1.0,60.12028869
131,F,N,90,R,N,131FN090RN,HRN,0,268,268,210,,,1.256,1265.058293,1265.35146,1265.35146,1265.567886,1265.585127,1265.058293,up,2.3316144,1265.585127,None,1265.585127,1266.833614,0.1923942,None,,,,,,,,,49,1,2020_Jan_03_1714,untitled,3.1.0,60.12028869
_,_4,N,45,_,_,__4N045__,N,0,269,269,81,,,1.167,1268.11179,1268.400118,1268.400118,1268.631576,1268.649205,None,up,1.8830286,1268.649205,None,1268.649205,1269.797911,0.1825885,None,,,,,,,,,49,1,2020_Jan_03_1714,untitled,3.1.0,60.12028869
_,R,N,45,_,_,_RN045__,N,0,270,270,65,,,1.178,1270.794597,1271.096515,1271.096515,1271.246296,1271.263004,None,up,2.3005342,1271.263004,None,1271.263004,1272.428908,0.2454475,None,,,,,,,,,49,1,2020_Jan_03_1714,untitled,3.1.0,60.12028869
263,_2,N,270,R,N,263_2N270RN,HRN,0,271,271,246,,,1.115,1273.812159,1274.1105,1274.1105,1274.30222,1274.342126,None,up,2.699943,1274.342126,None,1274.342126,1275.392154,0.2319551,None,,,,,,,,,49,1,2020_Jan_03_1714,untitled,3.1.0,60.12028869
168,F,N,315,L,N,168FN315LN,HLN,0,272,272,223,,,0.898,1277.253413,1277.541849,1277.541849,1277.756837,1277.773695,None,up,1.8337204,1277.773695,None,1277.773695,1278.655892,0.1983303,None,,,,,,,,,49,1,2020_Jan_03_1714,untitled,3.1.0,60.12028869
300,_2,M,135,L,N,300_2M135LN,HLN,0,273,273,155,,,1.375,1279.816311,1280.10543,1280.10543,1280.321288,1280.33804,None,None,,1280.33804,None,1280.33804,1281.703552,0.1954474,None,,,,,,,,,49,1,2020_Jan_03_1714,untitled,3.1.0,60.12028869
_,R,N,90,_,_,_RN090__,N,0,274,274,66,,,1.028,1283.991769,1284.284951,1284.284951,1284.517813,1284.535161,1283.991769,up,1.7670366,1284.535161,None,1284.535161,1285.550777,0.1786165,None,,,,,,,,,49,1,2020_Jan_03_1714,untitled,3.1.0,60.12028869
133,F,N,180,R,N,133FN180RN,HRN,0,275,275,212,,,0.705,1286.512412,1286.801443,1286.801443,1287.016025,1287.032898,None,up,2.1173497,1287.032898,None,1287.032898,1287.731443,0.1974808,None,,,,,,,,,49,1,2020_Jan_03_1714,untitled,3.1.0,60.12028869
454,_5,N,225,R,N,454_5N225RN,HRN,0,276,276,277,,,1.382,1289.379879,1289.6804,1289.6804,1289.864129,1289.882854,None,up,2.7622481,1289.882854,None,1289.882854,1291.244804,0.2127578,None,,,,,,,,,49,1,2020_Jan_03_1714,untitled,3.1.0,60.12028869
270,_2,M,225,R,N,270_2M225RN,HRN,0,277,277,149,,,0.774,1292.856183,1293.145137,1293.145137,1293.360042,1293.376527,None,down,2.1498376,1293.376527,None,1293.376527,1294.142573,0.1989301,None,,,,,,,,,49,1,2020_Jan_03_1714,untitled,3.1.0,60.12028869
225,G,N,0,L,N,225GN000LN,HLN,0,278,278,232,,,1.358,1295.748189,1296.04127,1296.04127,1296.240752,1296.257584,None,up,2.4824547,1296.257584,None,1296.257584,1297.606429,0.2082529,None,,,,,,,,,49,1,2020_Jan_03_1714,untitled,3.1.0,60.12028869
_,_5,N,270,_,_,__5N270__,N,0,279,279,94,,,1.072,1298.975857,1299.271481,1299.271481,1299.454647,1299.471312,None,up,2.0337499,1299.471312,None,1299.471312,1300.520366,0.2216416,None,,,,,,,,,49,1,2020_Jan_03_1714,untitled,3.1.0,60.12028869
_,R,N,270,_,_,_RN270__,N,0,280,280,70,,,1.207,1301.764666,1302.053237,1302.053237,1302.219577,1302.235747,None,up,2.1664575,1302.235747,None,1302.235747,1303.435017,0.2445937,None,,,,,,,,,49,1,2020_Jan_03_1714,untitled,3.1.0,60.12028869
257,_2,N,0,R,N,257_2N000RN,HRN,0,281,281,240,,,0.991,1304.638221,1304.933603,1304.933603,1305.116241,1305.133092,None,up,1.782157,1305.133092,None,1305.133092,1306.14632,0.2201544,None,,,,,,,,,49,1,2020_Jan_03_1714,untitled,3.1.0,60.12028869
_,_5,N,225,_,_,__5N225__,N,0,282,282,93,,,1.309,1307.115952,1307.414425,1307.414425,1307.631132,1307.647703,None,up,2.3831393,1307.647703,None,1307.647703,1308.947291,0.1889856,None,,,,,,,,,49,1,2020_Jan_03_1714,untitled,3.1.0,60.12028869
130,F,N,45,R,N,130FN045RN,HRN,0,283,283,209,,,1.191,1310.22027,1310.511546,1310.511546,1310.744889,1310.76162,None,up,2.182621,1310.76162,None,1310.76162,1311.944134,0.1770626,None,,,,,,,,,49,1,2020_Jan_03_1714,untitled,3.1.0,60.12028869
_,F,M,180,_,_,_FM180__,N,0,284,284,4,,,1.307,1313.131433,1313.425958,1313.425958,1313.660401,1313.675837,None,down,2.9000794,1313.675837,None,1313.675837,1314.975406,0.1749167,None,,,,,,,,,49,1,2020_Jan_03_1714,untitled,3.1.0,60.12028869
132,F,N,135,R,N,132FN135RN,HRN,0,285,285,211,,,1.081,1316.778331,1317.072604,1317.072604,1317.289436,1317.306013,None,up,2.0670222,1317.306013,None,1317.306013,1318.372303,0.1881551,None,,,,,,,,,49,1,2020_Jan_03_1714,untitled,3.1.0,60.12028869
388,_4,N,135,R,N,388_4N135RN,HRN,0,286,286,259,,,1.216,1319.596207,1319.887077,1319.887077,1320.086923,1320.104258,None,up,1.9513396,1320.104258,None,1320.104258,1321.302986,0.2060018,None,,,,,,,,,49,1,2020_Jan_03_1714,untitled,3.1.0,60.12028869
491,_5,M,90,L,N,491_5M090LN,HLN,0,287,287,186,,,0.898,1322.349789,1322.64954,1322.64954,1322.784399,1322.784399,None,down,2.8323074,1322.784399,None,1322.784399,1323.683494,0.2722549,None,,,,,,,,,49,1,2020_Jan_03_1714,untitled,3.1.0,60.12028869
,,,,,,,,,,,,,,,,,,,,,,,,,,,,,1325.633418,None,1329.412662,None,1331.494169,None,1333.774958,None,,,,,,
