Number,Letter,type,Orientation,human,face_type,image,picture,trials.thisRepN,trials.thisTrialN,trials.thisN,trials.thisIndex,text.started,text.stopped,stimulus_duration,CROSS.started,CROSS.stopped,BLANK.started,BLANK.stopped,TEST.started,TEST.stopped,key_JUDGE.keys,key_JUDGE.rt,key_JUDGE.started,key_JUDGE.stopped,image_2.started,image_2.stopped,ISI.started,ISI.stopped,q1.started,q1.stopped,q2.started,q2.stopped,q3.started,q3.stopped,text_2.started,text_2.stopped,participant,session,date,expName,psychopyVersion,frameRate,
134,F,N,225,R,N,134FN225RN,HRN,0,0,0,213,12.679356300001018,None,1.229,40.697087000000465,41.04442680000102,41.04442680000102,41.34535370000049,41.34535370000049,None,down,2.999764899999718,41.34535370000049,None,41.34535370000049,42.56012120000014,0.06580070000018168,None,,,,,,,,,4,001,2019_Dec_20_1724,untitled,3.1.0,60.16047204291224,
269,_2,M,180,R,N,269_2M180RN,HRN,0,1,1,148,,,1.298,44.49490640000113,44.824182700000165,44.841336299999966,45.12492460000067,45.1432463000001,None,down,2.397165099999256,45.1432463000001,None,45.1432463000001,46.424092200000814,0.07415899999978137,None,,,,,,,,,4,001,2019_Dec_20_1724,untitled,3.1.0,60.16047204291224,
270,_2,M,225,R,N,270_2M225RN,HRN,0,2,2,149,,,1.026,47.655821399999695,47.9550231000012,47.97157530000004,48.255538100000194,48.271861700000954,None,None,,48.271861700000954,None,48.271861700000954,49.28780089999964,0.10445249999975204,None,,,,,,,,,4,001,2019_Dec_20_1724,untitled,3.1.0,60.16047204291224,
_,F,N,90,_,_,_FN090__,N,0,3,3,50,,,1.16,51.820807300000524,52.1512074000002,52.16803869999967,52.45092640000075,52.46762049999961,51.820807300000524,down,2.3330168000011327,52.46762049999961,None,52.46762049999961,53.61691389999942,0.0767199999991135,None,,,,,,,,,4,001,2019_Dec_20_1724,untitled,3.1.0,60.16047204291224,
_,_4,N,270,_,_,__4N270__,N,0,4,4,86,,,1.186,54.91134390000116,55.20128629999999,55.232030200000736,55.51532969999971,55.53209559999959,None,up,2.1498178000001644,55.53209559999959,None,55.53209559999959,56.698843000000124,0.10013749999961874,None,,,,,,,,,4,001,2019_Dec_20_1724,untitled,3.1.0,60.16047204291224,
047,R,M,270,L,N,047RM270LN,HLN,0,5,5,110,,,0.732,57.79339760000039,58.09668749999946,58.11258960000123,58.39633979999962,58.41308410000056,None,down,2.0853950000000623,58.41308410000056,None,58.41308410000056,59.12938380000014,0.09948140000051353,None,,,,,,,,,4,001,2019_Dec_20_1724,untitled,3.1.0,60.16047204291224,
463,_5,M,270,R,N,463_5M270RN,HRN,0,6,6,182,,,0.737,60.61130410000078,60.910317300000315,60.92700010000044,61.21038299999964,61.227383700001155,None,down,2.8666229999998905,61.227383700001155,None,61.227383700001155,61.95881850000114,0.10198489999856974,None,,,,,,,,,4,001,2019_Dec_20_1724,untitled,3.1.0,60.16047204291224,
_,_2,N,270,_,_,__2N270__,N,0,7,7,78,,,1.362,64.21284689999993,64.50744660000055,64.52435900000091,64.80751260000034,64.82429550000052,None,up,2.665006100000028,64.82429550000052,None,64.82429550000052,66.17295600000034,0.10790430000088236,None,,,,,,,,,4,001,2019_Dec_20_1724,untitled,3.1.0,60.16047204291224,
267,_2,M,90,R,N,267_2M090RN,HRN,0,8,8,146,,,1.345,67.58740960000068,67.9037086999997,67.92063980000057,68.20379839999987,68.2208924000006,None,down,2.4169624999994994,68.2208924000006,None,68.2208924000006,69.55230719999963,0.08952450000106182,None,,,,,,,,,4,001,2019_Dec_20_1724,untitled,3.1.0,60.16047204291224,
_,G,M,0,_,_,_GM000__,N,0,9,9,8,,,1.0070000000000001,70.74082679999992,71.05140500000016,71.06834300000082,71.35110200000054,71.36755830000038,None,down,2.250583299999562,71.36755830000038,None,71.36755830000038,72.36640310000075,0.0922467999989749,None,,,,,,,,,4,001,2019_Dec_20_1724,untitled,3.1.0,60.16047204291224,
129,F,N,0,R,N,129FN000RN,HRN,0,10,10,208,,,1.346,73.73122820000026,74.03221870000016,74.04927289999978,74.33259449999969,74.34931160000087,None,up,2.4180108000000473,74.34931160000087,None,74.34931160000087,75.68126070000108,0.10200040000017907,None,,,,,,,,,4,001,2019_Dec_20_1724,untitled,3.1.0,60.16047204291224,
449,_5,N,0,R,N,449_5N000RN,HRN,0,11,11,272,,,1.073,76.88525980000122,77.17965230000118,77.19647950000035,77.47980910000115,77.4965527000004,None,up,2.1663776000004873,77.4965527000004,None,77.4965527000004,78.56211939999957,0.10594309999942197,None,,,,,,,,,4,001,2019_Dec_20_1724,untitled,3.1.0,60.16047204291224,
007,R,N,270,R,N,007RN270RN,HRN,0,12,12,198,,,1.056,79.78101360000073,80.0774620000011,80.09362820000024,80.37733160000062,80.39400449999994,None,up,2.3645997999992687,80.39400449999994,None,80.39400449999994,81.44307950000075,0.10688189999928,None,,,,,,,,,4,001,2019_Dec_20_1724,untitled,3.1.0,60.16047204291224,
_,_5,M,45,_,_,__5M045__,N,0,13,13,41,,,0.901,82.85503000000062,83.17395209999995,83.19083570000112,83.47460060000049,83.49105880000025,None,down,1.6162539000015386,83.49105880000025,None,83.49105880000025,84.37372140000116,0.08693099999982223,None,,,,,,,,,4,001,2019_Dec_20_1724,untitled,3.1.0,60.16047204291224,
289,_2,N,0,L,N,289_2N000LN,HLN,0,14,14,248,,,1.156,85.20537669999976,85.52261480000016,85.53881379999984,85.82237150000037,85.83932380000078,None,up,2.367128200001389,85.83932380000078,None,85.83932380000078,86.97362520000024,0.08932129999993776,None,,,,,,,,,4,001,2019_Dec_20_1724,untitled,3.1.0,60.16047204291224,
296,_2,N,315,L,N,296_2N315LN,HLN,0,15,15,255,,,0.883,88.32888839999941,88.6198643000007,88.63612579999972,88.91986949999955,88.9363781000011,None,up,1.8010755999985122,88.9363781000011,None,88.9363781000011,89.80253520000042,0.11068619999969087,None,,,,,,,,,4,001,2019_Dec_20_1724,untitled,3.1.0,60.16047204291224,
236,G,M,135,L,N,236GM135LN,HLN,0,16,16,139,,,0.713,90.85222240000076,91.15058719999979,91.16740899999968,91.45073559999946,91.46789360000002,None,down,1.5503098999997746,91.46789360000002,None,91.46789360000002,92.16742180000074,0.1038886000005732,None,,,,,,,,,4,001,2019_Dec_20_1724,untitled,3.1.0,60.16047204291224,
390,_4,N,225,R,N,390_4N225RN,HRN,0,17,17,261,,,0.775,93.13398439999946,93.43214260000059,93.4482638999998,93.73188250000021,93.74948949999998,None,up,1.7186925999994855,93.74948949999998,None,93.74948949999998,94.51482940000096,0.10260579999885522,None,,,,,,,,,4,001,2019_Dec_20_1724,untitled,3.1.0,60.16047204291224,
_,G,N,315,_,_,_GN315__,N,0,18,18,63,,,1.356,95.58810540000013,95.87999169999966,95.8964049999995,96.18018570000095,96.19667610000033,None,up,2.0675104999991163,96.19667610000033,None,96.19667610000033,97.54575240000122,0.10887250000087079,None,,,,,,,,,4,001,2019_Dec_20_1724,untitled,3.1.0,60.16047204291224,
_,R,N,135,_,_,_RN135__,N,0,19,19,67,,,1.0110000000000001,98.36000390000117,98.6772992999995,98.69386769999983,98.97786070000075,98.99429240000063,None,down,1.865611799999897,98.99429240000063,None,98.99429240000063,99.9932831999995,0.08572849999836762,None,,,,,,,,,4,001,2019_Dec_20_1724,untitled,3.1.0,60.16047204291224,
200,G,N,315,R,N,200GN315RN,HRN,0,20,20,231,,,0.861,100.96695929999987,101.27512860000024,101.29230060000009,101.57552059999944,101.59270839999954,None,up,1.5361603000001196,101.59270839999954,None,101.59270839999954,102.44057939999948,0.09798369999953138,None,,,,,,,,,4,001,2019_Dec_20_1724,untitled,3.1.0,60.16047204291224,
172,F,M,135,L,N,172FM135LN,HLN,0,21,21,123,,,0.868,103.24965940000038,103.53998700000011,103.5562659999996,103.84028369999942,103.85691299999962,None,down,1.6831586999996944,103.85691299999962,None,103.85691299999962,104.72278240000014,0.10973399999966205,None,,,,,,,,,4,001,2019_Dec_20_1724,untitled,3.1.0,60.16047204291224,
008,R,N,315,R,N,008RN315RN,HRN,0,22,22,199,,,1.016,105.66845509999985,105.95670830000017,105.95670830000017,106.25419450000118,106.27068119999967,None,up,1.7165950999988127,106.27068119999967,None,106.27068119999967,107.27043000000049,0.11689630000000761,None,,,,,,,,,4,001,2019_Dec_20_1724,untitled,3.1.0,60.16047204291224,
_,_4,N,90,_,_,__4N090__,N,0,23,23,82,,,1.032,108.08318710000094,108.40212559999964,108.41913279999972,108.70292110000082,108.71933440000066,None,up,1.7344517999990785,108.71933440000066,None,108.71933440000066,109.73643900000025,0.0864346000016667,None,,,,,,,,,4,001,2019_Dec_20_1724,untitled,3.1.0,60.16047204291224,
_,G,N,270,_,_,_GN270__,N,0,24,24,62,,,1.308,110.56403499999942,110.867009900001,110.88406140000006,111.16702710000027,111.18380140000045,None,up,2.0329931999986,111.18380140000045,None,111.18380140000045,112.48274610000044,0.09804320000148437,None,,,,,,,,,4,001,2019_Dec_20_1724,untitled,3.1.0,60.16047204291224,
240,G,M,315,L,N,240GM315LN,HLN,0,25,25,143,,,1.004,113.32571869999992,113.61571360000016,113.6478545000009,113.93143249999957,113.94770749999952,None,down,1.8019944000006944,113.94770749999952,None,113.94770749999952,114.93050940000103,0.09928170000057435,None,,,,,,,,,4,001,2019_Dec_20_1724,untitled,3.1.0,60.16047204291224,
481,_5,N,0,L,N,481_5N000LN,HLN,0,26,26,280,,,1.34,115.86949660000028,116.16200910000043,116.17904649999946,116.46191589999944,116.47864710000067,None,up,1.8516263000001345,116.47864710000067,None,116.47864710000067,117.81055480000032,0.10763059999953839,None,,,,,,,,,4,001,2019_Dec_20_1724,untitled,3.1.0,60.16047204291224,
168,F,N,315,L,N,168FN315LN,HLN,0,27,27,223,,,0.749,118.44893559999946,118.74352410000029,118.76009169999998,119.04370530000051,119.0602813000005,None,up,1.318065099998421,119.0602813000005,None,119.0602813000005,119.79318869999952,0.10845750000044063,None,,,,,,,,,4,001,2019_Dec_20_1724,untitled,3.1.0,60.16047204291224,
_,_5,N,270,_,_,__5N270__,N,0,28,28,94,,,0.97,120.49086739999984,120.79161550000026,120.80826320000051,121.09156310000071,121.10904760000085,None,up,1.800118699999075,121.10904760000085,None,121.10904760000085,122.05759570000009,0.10164759999861417,None,,,,,,,,,4,001,2019_Dec_20_1724,untitled,3.1.0,60.16047204291224,
492,_5,M,135,L,N,492_5M135LN,HLN,0,29,29,187,,,1.362,123.01997510000001,123.32289500000115,123.33952769999996,123.62186889999975,123.63941599999998,None,down,1.9818672999990667,123.63941599999998,None,123.63941599999998,124.98853410000083,0.09997850000036124,None,,,,,,,,,4,001,2019_Dec_20_1724,untitled,3.1.0,60.16047204291224,
196,G,N,135,R,N,196GN135RN,HRN,0,30,30,227,,,1.131,125.69135160000042,126.0367712999996,126.05361600000106,126.33650289999969,126.35322760000054,None,down,2.0494724000000133,126.35322760000054,None,126.35322760000054,127.4689013999996,0.062421599999652244,None,,,,,,,,,4,001,2019_Dec_20_1724,untitled,3.1.0,60.16047204291224,
400,_4,M,315,R,N,400_4M315RN,HRN,0,31,31,167,,,0.9470000000000001,128.49104559999978,128.81815579999966,128.8340575000002,129.11750670000038,129.13405650000095,None,down,1.8327589000000444,129.13405650000095,None,129.13405650000095,130.06661590000112,0.08042469999963942,None,,,,,,,,,4,001,2019_Dec_20_1724,untitled,3.1.0,60.16047204291224,
_,_5,M,270,_,_,__5M270__,N,0,32,32,46,,,0.8280000000000001,131.0625381000009,131.38221630000044,131.3987331999997,131.68181730000106,131.69812629999979,None,down,1.849930399999721,131.69812629999979,None,131.69812629999979,132.51467349999984,0.08690840000053868,None,,,,,,,,,4,001,2019_Dec_20_1724,untitled,3.1.0,60.16047204291224,
429,_4,M,180,L,N,429_4M180LN,HLN,0,33,33,172,,,0.9540000000000001,133.6159234000006,133.9632560000009,133.97950800000035,134.2631454000002,134.27971810000054,None,up,1.501155399999334,134.27971810000054,None,134.27971810000054,135.2122562000004,0.06125459999930172,None,,,,,,,,,4,001,2019_Dec_20_1724,untitled,3.1.0,60.16047204291224,
131,F,N,90,R,N,131FN090RN,HRN,0,34,34,210,,,0.853,135.85039610000058,136.19459020000068,136.21129140000085,136.49493470000016,136.51173449999987,None,up,1.6337399000003643,136.51173449999987,None,136.51173449999987,137.34520590000102,0.06280310000147438,None,,,,,,,,,4,001,2019_Dec_20_1724,untitled,3.1.0,60.16047204291224,
294,_2,N,225,L,N,294_2N225LN,HLN,0,35,35,253,,,0.717,138.26214729999992,138.5591357000012,138.57585810000091,138.8595662000007,138.87634460000118,None,up,1.6166206000016246,138.87634460000118,None,138.87634460000118,139.57573869999942,0.10533530000066094,None,,,,,,,,,4,001,2019_Dec_20_1724,untitled,3.1.0,60.16047204291224,
_,G,N,0,_,_,_GN000__,N,0,36,36,56,,,1.156,140.61609450000105,140.90734599999996,140.90734599999996,141.2077002999995,141.22421560000112,None,up,1.7996421000007103,141.22421560000112,None,141.22421560000112,142.37335449999955,0.11153209999974933,None,,,,,,,,,4,001,2019_Dec_20_1724,untitled,3.1.0,60.16047204291224,
451,_5,N,90,R,N,451_5N090RN,HRN,0,37,37,274,,,1.037,143.1443237000003,143.43872929999998,143.45515210000121,143.73837319999984,143.7543695000004,None,up,1.584329000001162,143.7543695000004,None,143.7543695000004,144.7702131999995,0.10846900000069581,None,,,,,,,,,4,001,2019_Dec_20_1724,untitled,3.1.0,60.16047204291224,
_,F,N,180,_,_,_FN180__,N,0,38,38,52,,,0.963,145.4530348999997,145.75279299999966,145.7696734000001,146.05320530000063,146.06984740000007,None,down,1.884234600000127,146.06984740000007,None,146.06984740000007,147.02063579999958,0.10198370000034629,None,,,,,,,,,4,001,2019_Dec_20_1724,untitled,3.1.0,60.16047204291224,
202,G,M,45,R,N,202GM045RN,HRN,0,39,39,129,,,1.137,148.04222310000114,148.36786980000034,148.38438690000112,148.6677810000001,148.68448510000053,None,down,1.9488294000002497,148.68448510000053,None,148.68448510000053,149.80028889999994,0.0793747000006988,None,,,,,,,,,4,001,2019_Dec_20_1724,untitled,3.1.0,60.16047204291224,
_,_2,M,270,_,_,__2M270__,N,0,40,40,30,,,0.963,150.73893320000025,151.04837620000035,151.06542910000098,151.34896889999982,151.3655448999998,None,down,1.550260200001503,151.3655448999998,None,151.3655448999998,152.31469240000115,0.09549359999982698,None,,,,,,,,,4,001,2019_Dec_20_1724,untitled,3.1.0,60.16047204291224,
171,F,M,90,L,N,171FM090LN,HLN,0,41,41,122,,,1.226,153.04101190000074,153.32996830000047,153.32996830000047,153.62995220000084,153.64679419999993,None,down,2.0663539999986824,153.64679419999993,None,153.64679419999993,154.86293289999958,0.11393150000003516,None,,,,,,,,,4,001,2019_Dec_20_1724,untitled,3.1.0,60.16047204291224,
_,R,M,225,_,_,_RM225__,N,0,42,42,21,,,0.851,155.83219500000087,156.128514,156.14384410000093,156.42763899999954,156.44437760000073,None,down,1.9992358999988937,156.44437760000073,None,156.44437760000073,157.27706790000047,0.10499969999909808,None,,,,,,,,,4,001,2019_Dec_20_1724,untitled,3.1.0,60.16047204291224,
233,G,M,0,L,N,233GM000LN,HLN,0,43,43,136,,,0.9490000000000001,158.5670807000006,158.8588061999999,158.8588061999999,159.15795489999982,159.17472180000004,None,down,1.6869709999991755,159.17472180000004,None,159.17472180000004,160.10750499999995,0.11334320000059961,None,,,,,,,,,4,001,2019_Dec_20_1724,untitled,3.1.0,60.16047204291224,
488,_5,N,315,L,N,488_5N315LN,HLN,0,44,44,287,,,1.119,160.98696220000056,161.2747462999996,161.2747462999996,161.57294990000082,161.5899960000006,None,up,1.7338732999996864,161.5899960000006,None,161.5899960000006,162.70548240000062,0.11390519999986282,None,,,,,,,,,4,001,2019_Dec_20_1724,untitled,3.1.0,60.16047204291224,
208,G,M,315,R,N,208GM315RN,HRN,0,45,45,135,,,0.748,163.44796769999994,163.73749380000118,163.7542592000009,164.0375034000008,164.05490090000058,None,down,1.3503092999999353,164.05490090000058,None,164.05490090000058,164.78620709999996,0.11097119999976712,None,,,,,,,,,4,001,2019_Dec_20_1724,untitled,3.1.0,60.16047204291224,
291,_2,N,90,L,N,291_2N090LN,HLN,0,46,46,250,,,1.116,165.52123930000016,165.81904589999976,165.83555630000046,166.119941500001,166.1369310000009,None,up,2.0995841000003566,166.1369310000009,None,166.1369310000009,167.23500310000054,0.10484059999907913,None,,,,,,,,,4,001,2019_Dec_20_1724,untitled,3.1.0,60.16047204291224,
494,_5,M,225,L,N,494_5M225LN,HLN,0,47,47,189,,,1.283,168.35250290000113,168.65007680000053,168.66701400000056,168.95060130000093,168.9677896000012,None,up,1.8151121999999305,168.9677896000012,None,168.9677896000012,170.23253280000063,0.10453419999976177,None,,,,,,,,,4,001,2019_Dec_20_1724,untitled,3.1.0,60.16047204291224,
_,F,N,0,_,_,_FN000__,N,0,48,48,48,,,1.165,170.89458510000077,171.1831553000011,171.21445049999966,171.4983871000004,171.51458640000055,None,up,1.832557600000655,171.51458640000055,None,171.51458640000055,172.6647935000001,0.10031849999904807,None,,,,,,,,,4,001,2019_Dec_20_1724,untitled,3.1.0,60.16047204291224,
234,G,M,45,L,N,234GM045LN,HLN,0,49,49,137,,,1.11,173.46187760000066,173.76218750000044,173.77868740000122,174.0617497000003,174.0784022000007,None,down,1.702040999998644,174.0784022000007,None,174.0784022000007,175.17726870000115,0.1044359000006807,None,,,,,,,,,4,001,2019_Dec_20_1724,untitled,3.1.0,60.16047204291224,
460,_5,M,135,R,N,460_5M135RN,HRN,0,50,50,179,,,0.762,175.90319679999993,176.19348329999957,176.19348329999957,176.49348889999965,176.51028399999996,None,down,1.5325658000001567,176.51028399999996,None,176.51028399999996,177.25980739999977,0.11178929999914544,None,,,,,,,,,4,001,2019_Dec_20_1724,untitled,3.1.0,60.16047204291224,
130,F,N,45,R,N,130FN045RN,HRN,0,51,51,209,,,1.218,178.1333469000001,178.4581491000008,178.4746114999998,178.75830660000065,178.77490860000034,None,up,1.855478800000128,178.77490860000034,None,178.77490860000034,179.97683280000092,0.08116129999871191,None,,,,,,,,,4,001,2019_Dec_20_1724,untitled,3.1.0,60.16047204291224,
006,R,N,225,R,N,006RN225RN,HRN,0,52,52,197,,,1.109,180.75779479999983,181.05571090000012,181.05571090000012,181.33970679999948,181.35610590000033,None,up,2.0355333000006794,181.35610590000033,None,181.35610590000033,182.45492100000047,0.11649459999898681,None,,,,,,,,,4,001,2019_Dec_20_1724,untitled,3.1.0,60.16047204291224,
430,_4,M,225,L,N,430_4M225LN,HLN,0,53,53,173,,,1.224,183.51768730000003,183.82035329999962,183.82035329999962,184.10344020000048,184.12030109999978,None,down,1.9662900999992416,184.12030109999978,None,184.12030109999978,185.3354457000005,0.11451069999930041,None,,,,,,,,,4,001,2019_Dec_20_1724,untitled,3.1.0,60.16047204291224,
431,_4,M,270,L,N,431_4M270LN,HLN,0,54,54,174,,,1.198,186.1998678,186.50118629999997,186.51766850000058,186.80116009999983,186.81787190000068,None,down,1.8650474000005488,186.81787190000068,None,186.81787190000068,188.0005540000002,0.10094980000030773,None,,,,,,,,,4,001,2019_Dec_20_1724,untitled,3.1.0,60.16047204291224,
012,R,M,135,R,N,012RM135RN,HRN,0,55,55,99,,,1.204,188.7675536000006,189.09893600000032,189.11576760000025,189.39829819999977,189.41520669999954,None,down,2.220827000001009,189.41520669999954,None,189.41520669999954,190.59817490000023,0.07567769999877783,None,,,,,,,,,4,001,2019_Dec_20_1724,untitled,3.1.0,60.16047204291224,
_,_4,N,45,_,_,__4N045__,N,0,56,56,81,,,0.744,191.75267060000078,192.06306530000074,192.07946679999986,192.36276429999998,192.3799940000008,None,up,1.4511549999988347,192.3799940000008,None,192.3799940000008,193.09569770000053,0.09797879999860015,None,,,,,,,,,4,001,2019_Dec_20_1724,untitled,3.1.0,60.16047204291224,
_,G,M,315,_,_,_GM315__,N,0,57,57,15,,,0.869,193.9562973000011,194.24572400000034,194.24572400000034,194.54406550000022,194.56061580000096,None,down,1.6835159000002022,194.56061580000096,None,194.56061580000096,195.4103436000005,0.11395799999991141,None,,,,,,,,,4,001,2019_Dec_20_1724,untitled,3.1.0,60.16047204291224,
039,R,N,270,L,N,039RN270LN,HLN,0,58,58,206,,,1.05,196.36104610000075,196.65865789999953,196.67520820000027,196.95896449999964,196.97594580000077,None,up,1.6538877000002685,196.97594580000077,None,196.97594580000077,198.00822189999963,0.10499470000104338,None,,,,,,,,,4,001,2019_Dec_20_1724,untitled,3.1.0,60.16047204291224,
_,G,M,45,_,_,_GM045__,N,0,59,59,9,,,1.1320000000000001,198.75485040000058,199.05673729999944,199.05673729999944,199.34060130000034,199.35703810000086,None,down,1.835618200000681,199.35703810000086,None,199.35703810000086,200.4728479000005,0.11457949999930861,None,,,,,,,,,4,001,2019_Dec_20_1724,untitled,3.1.0,60.16047204291224,
385,_4,N,0,R,N,385_4N000RN,HRN,0,60,60,256,,,1.292,201.3111430000008,201.6044578000001,201.6208600000009,201.90477640000063,201.92169360000116,None,up,1.8497447999998258,201.92169360000116,None,201.92169360000116,203.2038776999998,0.10743879999972705,None,,,,,,,,,4,001,2019_Dec_20_1724,untitled,3.1.0,60.16047204291224,
_,_2,M,45,_,_,__2M045__,N,0,61,61,25,,,0.8260000000000001,203.87345370000003,204.1856074999996,204.2020749000003,204.48541110000042,204.50242699999944,None,down,1.633220399999118,204.50242699999944,None,204.50242699999944,205.31848030000037,0.09253159999934724,None,,,,,,,,,4,001,2019_Dec_20_1724,untitled,3.1.0,60.16047204291224,
232,G,N,315,L,N,232GN315LN,HLN,0,62,62,239,,,0.768,206.25953819999995,206.5501079000005,206.5501079000005,206.8504539000005,206.86699170000065,None,up,1.4016489000005095,206.86699170000065,None,206.86699170000065,207.6163131000012,0.11271250000027067,None,,,,,,,,,4,001,2019_Dec_20_1724,untitled,3.1.0,60.16047204291224,
_,_4,M,135,_,_,__4M135__,N,0,63,63,35,,,0.8150000000000001,208.39582060000066,208.68339100000048,208.68339100000048,208.98221550000017,208.99866490000022,None,up,1.649705300000278,208.99866490000022,None,208.99866490000022,209.79817019999973,0.1141170000009879,None,,,,,,,,,4,001,2019_Dec_20_1724,untitled,3.1.0,60.16047204291224,
048,R,M,315,L,N,048RM315LN,HLN,0,64,64,111,,,1.256,210.76227710000057,211.06295640000099,211.07943720000003,211.36391600000024,211.37995600000067,None,down,2.0492690999999468,211.37995600000067,None,211.37995600000067,212.62866080000094,0.10224769999877026,None,,,,,,,,,4,001,2019_Dec_20_1724,untitled,3.1.0,60.16047204291224,
015,R,M,270,R,N,015RM270RN,HRN,0,65,65,102,,,0.986,213.55092839999998,213.8436617999996,213.8604078999997,214.14412660000016,214.1605436000009,None,down,1.7838885999990453,214.1605436000009,None,214.1605436000009,215.12962940000034,0.10973229999945033,None,,,,,,,,,4,001,2019_Dec_20_1724,untitled,3.1.0,60.16047204291224,
389,_4,N,180,R,N,389_4N180RN,HRN,0,66,66,260,,,1.381,216.06800199999998,216.35860970000067,216.35860970000067,216.6584952000012,216.67629789999955,None,up,1.9814093000004505,216.67629789999955,None,216.67629789999955,218.04063250000036,0.11265280000043276,None,,,,,,,,,4,001,2019_Dec_20_1724,untitled,3.1.0,60.16047204291224,
426,_4,M,45,L,N,426_4M045LN,HLN,0,67,67,169,,,1.21,218.75835560000087,219.07241260000046,219.08932170000116,219.37235770000007,219.38876320000054,None,down,2.034854399998949,219.38876320000054,None,219.38876320000054,220.5885586000004,0.09032689999912691,None,,,,,,,,,4,001,2019_Dec_20_1724,untitled,3.1.0,60.16047204291224,
_,_4,N,135,_,_,__4N135__,N,0,68,68,83,,,1.062,221.53616440000042,221.83681989999968,221.85319999999956,222.13688300000103,222.15476800000033,None,up,1.782669000000169,222.15476800000033,None,222.15476800000033,223.20372560000033,0.1006199999992532,None,,,,,,,,,4,001,2019_Dec_20_1724,untitled,3.1.0,60.16047204291224,
042,R,M,45,L,N,042RM045LN,HLN,0,69,69,105,,,0.728,224.02559540000038,224.3511412000007,224.36775239999952,224.65161780000017,224.66839849999997,None,down,1.4663386000011087,224.66839849999997,None,224.66839849999997,225.38440660000015,0.0794808999999077,None,,,,,,,,,4,001,2019_Dec_20_1724,untitled,3.1.0,60.16047204291224,
136,F,N,315,R,N,136FN315RN,HRN,0,70,70,215,,,1.0010000000000001,226.24682140000004,226.5350080999997,226.56593729999986,226.85003080000024,226.86632780000036,None,up,1.651207600001726,226.86632780000036,None,226.86632780000036,227.8494971,0.10088609999911569,None,,,,,,,,,4,001,2019_Dec_20_1724,untitled,3.1.0,60.16047204291224,
_,_4,M,0,_,_,__4M000__,N,0,71,71,32,,,1.03,228.61967820000064,228.93054400000074,228.94746080000004,229.23095959999955,229.24933500000043,None,up,1.5668506999991223,229.24933500000043,None,229.24933500000043,230.26416830000016,0.0913418999989517,None,,,,,,,,,4,001,2019_Dec_20_1724,untitled,3.1.0,60.16047204291224,
_,F,M,270,_,_,_FM270__,N,0,72,72,6,,,0.871,230.93008420000115,231.22885580000002,231.245536800001,231.5291720999994,231.54568540000037,None,up,1.6487443000005442,231.54568540000037,None,231.54568540000037,232.4123550000004,0.10254770000028657,None,,,,,,,,,4,001,2019_Dec_20_1724,untitled,3.1.0,60.16047204291224,
399,_4,M,270,R,N,399_4M270RN,HRN,0,73,73,166,,,0.725,233.30036889999974,233.60948500000086,233.62630230000104,233.90942150000046,233.92716959999962,None,down,1.5494249999992462,233.92716959999962,None,233.92716959999962,234.6429035000001,0.0956726999993407,None,,,,,,,,,4,001,2019_Dec_20_1724,untitled,3.1.0,60.16047204291224,
_,R,N,270,_,_,_RN270__,N,0,74,74,70,,,0.9,235.59866929999953,235.8918494999998,235.90809919999992,236.19196399999964,236.20823960000052,None,up,1.5336291999992682,236.20823960000052,None,236.20823960000052,237.09069400000044,0.11072590000003402,None,,,,,,,,,4,001,2019_Dec_20_1724,untitled,3.1.0,60.16047204291224,
_,_4,N,0,_,_,__4N000__,N,0,75,75,80,,,1.052,237.85822709999957,238.15667080000094,238.17263140000068,238.45631719999983,238.47430480000003,None,up,1.6678792000002431,238.47430480000003,None,238.47430480000003,239.505239600001,0.10474059999978635,None,,,,,,,,,4,001,2019_Dec_20_1724,untitled,3.1.0,60.16047204291224,
424,_4,N,315,L,N,424_4N315LN,HLN,0,76,76,271,,,1.3860000000000001,240.2598369999996,240.5541016999996,240.57109140000102,240.85403940000106,240.87088790000053,None,up,2.1164507000012236,240.87088790000053,None,240.87088790000053,242.25279109999974,0.10711050000099931,None,,,,,,,,,4,001,2019_Dec_20_1724,untitled,3.1.0,60.16047204291224,
038,R,N,225,L,N,038RN225LN,HLN,0,77,77,205,,,1.291,243.10247139999956,243.4014371000012,243.41808280000078,243.70186009999998,243.71802299999945,None,up,2.1837607999987085,243.71802299999945,None,243.71802299999945,245.0006202000004,0.1035014000008232,None,,,,,,,,,4,001,2019_Dec_20_1724,untitled,3.1.0,60.16047204291224,
225,G,N,0,L,N,225GN000LN,HLN,0,78,78,232,,,1.104,246.01279129999966,246.33239979999962,246.33239979999962,246.6160450999996,246.63439800000015,None,up,1.6992251000010583,246.63439800000015,None,246.63439800000015,247.73149850000118,0.09806820000085281,None,,,,,,,,,4,001,2019_Dec_20_1724,untitled,3.1.0,60.16047204291224,
005,R,N,180,R,N,005RN180RN,HRN,0,79,79,196,,,0.774,248.44575900000018,248.74688270000115,248.76312099999996,249.04633230000036,249.0629198000006,None,down,1.6494812999990245,249.0629198000006,None,249.0629198000006,249.82942829999956,0.10089169999992009,None,,,,,,,,,4,001,2019_Dec_20_1724,untitled,3.1.0,60.16047204291224,
206,G,M,225,R,N,206GM225RN,HRN,0,80,80,133,,,1.026,250.78085620000093,251.12776850000046,251.1445008999999,251.4281841000011,251.44495009999991,None,down,1.8352749999994558,251.44495009999991,None,251.44495009999991,252.44482100000096,0.061634800000319956,None,,,,,,,,,4,001,2019_Dec_20_1724,untitled,3.1.0,60.16047204291224,
_,G,N,45,_,_,_GN045__,N,0,81,81,57,,,0.732,253.39569780000056,253.6922566000012,253.71093719999953,253.99163539999972,254.00872329999947,None,up,1.3014353000016854,254.00872329999947,None,254.00872329999947,254.725429600001,0.10199909999937518,None,,,,,,,,,4,001,2019_Dec_20_1724,untitled,3.1.0,60.16047204291224,
143,F,M,270,R,N,143FM270RN,HRN,0,82,82,118,,,1.367,255.4292519999999,255.72395210000104,255.74126890000116,256.0241447999997,256.0409460999999,None,down,2.199190899998939,256.0409460999999,None,256.0409460999999,257.38986880000084,0.1080772999994224,None,,,,,,,,,4,001,2019_Dec_20_1724,untitled,3.1.0,60.16047204291224,
297,_2,M,0,L,N,297_2M000LN,HLN,0,83,83,152,,,1.168,258.3648374000004,258.65478500000063,258.65478500000063,258.954584000001,258.9711005999998,None,down,2.083343899999818,258.9711005999998,None,258.9711005999998,260.1208244999998,0.11322649999965506,None,,,,,,,,,4,001,2019_Dec_20_1724,untitled,3.1.0,60.16047204291224,
393,_4,M,0,R,N,393_4M000RN,HRN,0,84,84,160,,,0.714,261.169918900001,261.4692102000008,261.4863000000005,261.7692772999999,261.7857421000008,None,down,1.7165903999994043,261.7857421000008,None,261.7857421000008,262.4848428999994,0.10382209999988845,None,,,,,,,,,4,001,2019_Dec_20_1724,untitled,3.1.0,60.16047204291224,
_,R,N,0,_,_,_RN000__,N,0,85,85,64,,,1.3860000000000001,263.6179862000008,263.9175326000004,263.93326440000055,264.2170115000008,264.23363749999953,None,up,1.9316144000003987,264.23363749999953,None,264.23363749999953,265.5987445999999,0.10290490000079444,None,,,,,,,,,4,001,2019_Dec_20_1724,untitled,3.1.0,60.16047204291224,
_,_2,N,225,_,_,__2N225__,N,0,86,86,77,,,0.916,266.23206910000044,266.58149090000006,266.59821399999964,266.8815899000001,266.89817349999976,None,up,2.200281100000211,266.89817349999976,None,266.89817349999976,267.7978428000006,0.05898370000068098,None,,,,,,,,,4,001,2019_Dec_20_1724,untitled,3.1.0,60.16047204291224,
302,_2,M,225,L,N,302_2M225LN,HLN,0,87,87,157,,,1.167,269.2304088000001,269.52866639999957,269.52866639999957,269.81257619999997,269.8289144999999,None,down,1.9684988000008161,269.8289144999999,None,269.8289144999999,270.9772783999997,0.11969339999996009,None,,,,,,,,,4,001,2019_Dec_20_1724,untitled,3.1.0,60.16047204291224,
230,G,N,225,L,N,230GN225LN,HLN,0,88,88,237,,,1.335,271.9233899999999,272.2115828999995,272.2115828999995,272.50998360000085,272.52661720000106,None,up,2.4147321000000375,272.52661720000106,None,272.52661720000106,273.84197909999966,0.11453309999888006,None,,,,,,,,,4,001,2019_Dec_20_1724,untitled,3.1.0,60.16047204291224,
044,R,M,135,L,N,044RM135LN,HLN,0,89,89,107,,,1.179,275.0178116999996,275.35747339999944,275.37395950000064,275.6569489000012,275.6739008000004,None,down,2.016481800001202,275.6739008000004,None,275.6739008000004,276.8396190000003,0.06794530000115628,None,,,,,,,,,4,001,2019_Dec_20_1724,untitled,3.1.0,60.16047204291224,
_,G,N,225,_,_,_GN225__,N,0,90,90,61,,,0.9590000000000001,277.80853770000067,278.1046985000012,278.1209595,278.4049874000011,278.4215280999997,None,up,1.7693590999988373,278.4215280999997,None,278.4215280999997,279.3696884000001,0.1067775999999867,None,,,,,,,,,4,001,2019_Dec_20_1724,untitled,3.1.0,60.16047204291224,
_,G,M,180,_,_,_GM180__,N,0,91,91,12,,,0.724,280.3062910999997,280.60236650000115,280.61912630000006,280.9019652999996,280.91901040000084,None,down,1.5014248999996198,280.91901040000084,None,280.91901040000084,281.6364611000008,0.10436330000084126,None,,,,,,,,,4,001,2019_Dec_20_1724,untitled,3.1.0,60.16047204291224,
_,_5,N,90,_,_,__5N090__,N,0,92,92,90,,,0.875,282.54885769999964,282.8507817999998,282.8507817999998,283.135304200001,283.1510706000008,None,up,1.650095400000282,283.1510706000008,None,283.1510706000008,284.0167070000007,0.11609649999991234,None,,,,,,,,,4,001,2019_Dec_20_1724,untitled,3.1.0,60.16047204291224,
386,_4,N,45,R,N,386_4N045RN,HRN,0,93,93,257,,,0.841,284.9449525,285.23158370000056,285.23158370000056,285.514988500001,285.53185620000113,None,up,1.5186614000012923,285.53185620000113,None,285.53185620000113,286.3649366000009,0.13157800000044517,None,,,,,,,,,4,001,2019_Dec_20_1724,untitled,3.1.0,60.16047204291224,
_,R,N,225,_,_,_RN225__,N,0,94,94,69,,,0.869,287.1675859999996,287.4628401000009,287.4796036000007,287.7632169999997,287.7800334000003,None,up,1.4866309999997611,287.7800334000003,None,287.7800334000003,288.6457128000002,0.10480789999928675,None,,,,,,,,,4,001,2019_Dec_20_1724,untitled,3.1.0,60.16047204291224,
_,_2,N,135,_,_,__2N135__,N,0,95,95,75,,,0.893,289.38795010000104,289.67770200000086,289.6945305999998,289.97837600000094,289.99469080000017,None,down,1.5513222999998106,289.99469080000017,None,289.99469080000017,290.877282200001,0.11039359999995213,None,,,,,,,,,4,001,2019_Dec_20_1724,untitled,3.1.0,60.16047204291224,
261,_2,N,180,R,N,261_2N180RN,HRN,0,96,96,244,,,0.859,291.66945529999975,291.9590478000009,291.9590478000009,292.2593985000003,292.2761138999995,None,up,1.5361346999998204,292.2761138999995,None,292.2761138999995,293.12476980000065,0.11213540000062494,None,,,,,,,,,4,001,2019_Dec_20_1724,untitled,3.1.0,60.16047204291224,
_,R,N,90,_,_,_RN090__,N,0,97,97,66,,,1.1300000000000001,293.9192393000012,294.22357490000104,294.2403983000004,294.52338210000016,294.5399545,None,up,1.7339632000002894,294.5399545,None,294.5399545,295.6558334000001,0.09637380000094709,None,,,,,,,,,4,001,2019_Dec_20_1724,untitled,3.1.0,60.16047204291224,
_,R,M,45,_,_,_RM045__,N,0,98,98,17,,,0.923,296.3863609,296.6885362000012,296.70529420000094,296.98867840000094,297.0055212999996,None,down,1.634325600000011,297.0055212999996,None,297.0055212999996,297.9213161000007,0.1016553000008571,None,,,,,,,,,4,001,2019_Dec_20_1724,untitled,3.1.0,60.16047204291224,
394,_4,M,45,R,N,394_4M045RN,HRN,0,99,99,161,,,1.194,298.7565957000006,299.0531110000011,299.0696403000002,299.35310670000035,299.3699422000009,None,down,1.966053699999975,299.3699422000009,None,299.3699422000009,300.55197709999993,0.10548840000046766,None,,,,,,,,,4,001,2019_Dec_20_1724,untitled,3.1.0,60.16047204291224,
259,_2,N,90,R,N,259_2N090RN,HRN,0,100,100,242,,,1.209,301.4503913999997,301.75060549999944,301.7669956999998,302.05074030000105,302.0677563999998,None,up,1.9503596000013204,302.0677563999998,None,302.0677563999998,303.26810730000034,0.10423389999959909,None,,,,,,,,,4,001,2019_Dec_20_1724,untitled,3.1.0,60.16047204291224,
166,F,N,225,L,N,166FN225LN,HLN,0,101,101,221,,,0.911,304.1467123000002,304.43357040000046,304.43357040000046,304.7321100999998,304.74858420000055,None,up,1.7173655000005965,304.74858420000055,None,304.74858420000055,305.64855220000027,0.11542370000097435,None,,,,,,,,,4,001,2019_Dec_20_1724,untitled,3.1.0,60.16047204291224,
_,_4,M,315,_,_,__4M315__,N,0,102,102,39,,,1.356,306.5793109999995,306.88040680000086,306.89610920000086,307.1795015000007,307.1964102000002,None,down,2.566472700000304,307.1964102000002,None,307.1964102000002,308.5454028000004,0.10131369999908202,None,,,,,,,,,4,001,2019_Dec_20_1724,untitled,3.1.0,60.16047204291224,
_,R,N,180,_,_,_RN180__,N,0,103,103,68,,,1.235,309.86628650000057,310.1767970000001,310.1931043000004,310.47660370000085,310.4931491999996,None,up,1.8679562999986956,310.4931491999996,None,310.4931491999996,311.70813980000094,0.093549900000653,None,,,,,,,,,4,001,2019_Dec_20_1724,untitled,3.1.0,60.16047204291224,
_,_4,N,180,_,_,__4N180__,N,0,104,104,84,,,0.77,312.48670850000053,312.7756244000011,312.7756244000011,313.0747795999996,313.0910849000011,None,up,1.4839661000005435,313.0910849000011,None,313.0910849000011,313.8406844000001,0.11390690000007453,None,,,,,,,,,4,001,2019_Dec_20_1724,untitled,3.1.0,60.16047204291224,
485,_5,N,180,L,N,485_5N180LN,HLN,0,105,105,284,,,1.12,314.68252120000034,314.9889641999998,315.0062144000003,315.2896125999996,315.3059309,None,up,1.7840720000003785,315.3059309,None,315.3059309,316.4049267999999,0.0968044999990525,None,,,,,,,,,4,001,2019_Dec_20_1724,untitled,3.1.0,60.16047204291224,
_,_5,M,135,_,_,__5M135__,N,0,106,106,43,,,0.854,317.2000769999995,317.50394360000064,317.51994410000043,317.8042882000009,317.8204631999997,None,down,1.965723799999978,317.8204631999997,None,317.8204631999997,318.66982330000064,0.09892319999926258,None,,,,,,,,,4,001,2019_Dec_20_1724,untitled,3.1.0,60.16047204291224,
205,G,M,180,R,N,205GM180RN,HRN,0,107,107,132,,,0.771,319.8994870000006,320.20133519999945,320.2184971000006,320.50137449999966,320.5182970999995,None,down,2.499472400000741,320.5182970999995,None,320.5182970999995,321.26809370000046,0.1023005999995803,None,,,,,,,,,4,001,2019_Dec_20_1724,untitled,3.1.0,60.16047204291224,
391,_4,N,270,R,N,391_4N270RN,HRN,0,108,108,262,,,0.916,323.14033630000085,323.43189800000073,323.43189800000073,323.7338699000011,323.7490665000005,None,up,1.5994160999998712,323.7490665000005,None,323.7490665000005,324.6478485000007,0.11137910000070406,None,,,,,,,,,4,001,2019_Dec_20_1724,untitled,3.1.0,60.16047204291224,
301,_2,M,180,L,N,301_2M180LN,HLN,0,109,109,156,,,1.208,325.4639521000008,325.7630781000007,325.77958039999976,326.06294329999946,326.07946400000037,None,up,2.467882600001758,326.07946400000037,None,326.07946400000037,327.2789881000008,0.10391100000015285,None,,,,,,,,,4,001,2019_Dec_20_1724,untitled,3.1.0,60.16047204291224,
_,_5,N,45,_,_,__5N045__,N,0,110,110,89,,,1.291,328.65955530000065,328.9606048000005,328.9770026999995,329.26027129999966,329.2771105000011,None,up,1.9510329000004276,329.2771105000011,None,329.2771105000011,330.5585685999995,0.10017309999966528,None,,,,,,,,,4,001,2019_Dec_20_1724,untitled,3.1.0,60.16047204291224,
_,_5,M,315,_,_,__5M315__,N,0,111,111,47,,,1.039,331.3390476000004,331.6412347000005,331.65755050000007,331.94070459999966,331.95734020000054,None,down,2.033449799999289,331.95734020000054,None,331.95734020000054,332.99067450000075,0.09992160000001604,None,,,,,,,,,4,001,2019_Dec_20_1724,untitled,3.1.0,60.16047204291224,
495,_5,M,270,L,N,495_5M270LN,HLN,0,112,112,190,,,1.34,334.11599340000066,334.40581490000113,334.40581490000113,334.7057552999995,334.7224027000011,None,up,2.0335350000004837,334.7224027000011,None,334.7224027000011,336.0545892000009,0.11421700000028068,None,,,,,,,,,4,001,2019_Dec_20_1724,untitled,3.1.0,60.16047204291224,
455,_5,N,270,R,N,455_5N270RN,HRN,0,113,113,278,,,1.302,336.87860010000077,337.17011939999975,337.1862701000009,337.46955510000043,337.4863298,None,up,2.299675100000968,337.4863298,None,337.4863298,338.7690007000001,0.10915980000027048,None,,,,,,,,,4,001,2019_Dec_20_1724,untitled,3.1.0,60.16047204291224,
011,R,M,90,R,N,011RM090RN,HRN,0,114,114,98,,,1.106,339.91107340000053,340.2007045999999,340.2007045999999,340.5001841000012,340.51644210000086,None,down,2.133492599999954,340.51644210000086,None,340.51644210000086,341.6161157000006,0.11387500000091677,None,,,,,,,,,4,001,2019_Dec_20_1724,untitled,3.1.0,60.16047204291224,
_,_5,M,225,_,_,__5M225__,N,0,115,115,45,,,1.097,342.76300400000036,343.0648398000012,343.0810773000012,343.36688010000034,343.38195730000007,None,down,2.7664944999996806,343.38195730000007,None,343.38195730000007,344.4642476000008,0.10100750000128755,None,,,,,,,,,4,001,2019_Dec_20_1724,untitled,3.1.0,60.16047204291224,
_,_2,N,45,_,_,__2N045__,N,0,116,116,73,,,0.8130000000000001,346.2669556000001,346.5618749999994,346.5787166000009,346.8617066000006,346.87946920000104,None,up,1.6316246000005776,346.87946920000104,None,346.87946920000104,347.6780393000008,0.10613990000092599,None,,,,,,,,,4,001,2019_Dec_20_1724,untitled,3.1.0,60.16047204291224,
418,_4,N,45,L,N,418_4N045LN,HLN,0,117,117,265,,,1.374,348.61736680000104,348.9260095000009,348.94251930000064,349.22627790000115,349.2428961000005,None,up,2.0842216000000917,349.2428961000005,None,349.2428961000005,350.60863210000025,0.09600680000039574,None,,,,,,,,,4,001,2019_Dec_20_1724,untitled,3.1.0,60.16047204291224,
_,_4,N,225,_,_,__4N225__,N,0,118,118,85,,,0.795,351.43685750000077,351.7405551000011,351.75692440000057,352.0405351999998,352.05732420000095,None,up,1.5507982999988599,352.05732420000095,None,352.05732420000095,352.840207700001,0.09822239999994054,None,,,,,,,,,4,001,2019_Dec_20_1724,untitled,3.1.0,60.16047204291224,
423,_4,N,270,L,N,423_4N270LN,HLN,0,119,119,270,,,0.969,353.71542650000083,354.02116709999973,354.0382578000008,354.3220054000012,354.3391188000005,None,up,1.5322085000007064,354.3391188000005,None,354.3391188000005,355.28734579999946,0.09659560000000056,None,,,,,,,,,4,001,2019_Dec_20_1724,untitled,3.1.0,60.16047204291224,
195,G,N,90,R,N,195GN090RN,HRN,0,120,120,226,,,0.898,355.9752609999996,356.28644840000015,356.3029786999996,356.58609400000023,356.6029904999996,None,up,1.6341221000002406,356.6029904999996,None,356.6029904999996,357.4853186,0.09320719999959692,None,,,,,,,,,4,001,2019_Dec_20_1724,untitled,3.1.0,60.16047204291224,
272,_2,M,315,R,N,272_2M315RN,HRN,0,121,121,151,,,0.923,358.3558974000007,358.65100879999954,358.66738290000103,358.95114730000023,358.96844749999946,None,down,2.0496953000001668,358.96844749999946,None,358.96844749999946,359.8674133000004,0.10821089999990363,None,,,,,,,,,4,001,2019_Dec_20_1724,untitled,3.1.0,60.16047204291224,
266,_2,M,45,R,N,266_2M045RN,HRN,0,122,122,145,,,0.755,361.129566900001,361.4323017000006,361.44877110000016,361.73138579999977,361.74857340000017,None,down,1.8344630999999936,361.74857340000017,None,361.74857340000017,362.4984072999996,0.09701290000157314,None,,,,,,,,,4,001,2019_Dec_20_1724,untitled,3.1.0,60.16047204291224,
003,R,N,90,R,N,003RN090RN,HRN,0,123,123,194,,,1.307,363.70510079999985,363.9961056000011,364.01247689999946,364.2977071000005,364.3134573999996,None,up,1.9336412000011478,364.3134573999996,None,364.3134573999996,365.61227379999946,0.11035249999986263,None,,,,,,,,,4,001,2019_Dec_20_1724,untitled,3.1.0,60.16047204291224,
228,G,N,135,L,N,228GN135LN,HLN,0,124,124,235,,,1.231,366.3694464,366.66051789999983,366.6773073000004,366.9610506000008,366.9776423000003,None,up,1.9023260999983904,366.9776423000003,None,366.9776423000003,368.1932651999996,0.11075929999969958,None,,,,,,,,,4,001,2019_Dec_20_1724,untitled,3.1.0,60.16047204291224,
_,F,M,90,_,_,_FM090__,N,0,125,125,2,,,1.141,368.98252239999965,369.2916599,369.30865339999946,369.59210410000014,369.6085682000012,None,down,2.3817182000002504,369.6085682000012,None,369.6085682000012,370.7406205999996,0.09173449999980221,None,,,,,,,,,4,001,2019_Dec_20_1724,untitled,3.1.0,60.16047204291224,
_,R,M,180,_,_,_RM180__,N,0,126,126,20,,,1.236,372.07958450000115,372.4055628999995,372.4218567000007,372.70580619999964,372.7224236000002,None,down,2.998551900000166,372.7224236000002,None,372.7224236000002,373.9381394000011,0.08065189999979339,None,,,,,,,,,4,001,2019_Dec_20_1724,untitled,3.1.0,60.16047204291224,
453,_5,N,180,R,N,453_5N180RN,HRN,0,127,127,276,,,0.966,375.8126419,376.13550489999943,376.15259830000105,376.4368730999995,376.4540928000006,None,up,1.7164871000004496,376.4540928000006,None,376.4540928000006,377.40281250000044,0.0841681999991124,None,,,,,,,,,4,001,2019_Dec_20_1724,untitled,3.1.0,60.16047204291224,
045,R,M,180,L,N,045RM180LN,HLN,0,128,128,108,,,0.986,378.2661530999994,378.58382429999983,378.6012823000001,378.88417130000016,378.9005854999996,None,up,1.6655989999999292,378.9005854999996,None,378.9005854999996,379.86627880000015,0.0851185000010446,None,,,,,,,,,4,001,2019_Dec_20_1724,untitled,3.1.0,60.16047204291224,
035,R,N,90,L,N,035RN090LN,HLN,0,129,129,202,,,1.068,380.6648647000002,380.9818312999996,380.9983654000007,381.2821163000008,381.2985150000004,None,up,1.7004092000006494,381.2985150000004,None,381.2985150000004,382.348436100001,0.08847869999954128,None,,,,,,,,,4,001,2019_Dec_20_1724,untitled,3.1.0,60.16047204291224,
167,F,N,270,L,N,167FN270LN,HLN,0,130,130,222,,,1.31,383.1126612999997,383.41293210000003,383.4293381000007,383.7127978999997,383.7298119999996,None,up,2.2496716999994533,383.7298119999996,None,383.7298119999996,385.02855550000095,0.10035430000061751,None,,,,,,,,,4,001,2019_Dec_20_1724,untitled,3.1.0,60.16047204291224,
002,R,N,45,R,N,002RN045RN,HRN,0,131,131,193,,,1.357,386.1062397000005,386.40828800000054,386.40828800000054,386.69358959999954,386.71000260000073,None,up,1.9990527999998449,386.71000260000073,None,386.71000260000073,388.0593925000012,0.11488139999892155,None,,,,,,,,,4,001,2019_Dec_20_1724,untitled,3.1.0,60.16047204291224,
265,_2,M,0,R,N,265_2M000RN,HRN,0,132,132,144,,,1.161,388.83517890000076,389.12478890000057,389.12478890000057,389.42475560000094,389.4415845000003,None,down,2.1675196000014694,389.4415845000003,None,389.4415845000003,390.5905036000004,0.11576889999923878,None,,,,,,,,,4,001,2019_Dec_20_1724,untitled,3.1.0,60.16047204291224,
420,_4,N,135,L,N,420_4N135LN,HLN,0,133,133,267,,,1.389,391.72368319999987,392.02166990000114,392.03893550000066,392.3221859000005,392.339051500001,None,up,2.1181866000006266,392.339051500001,None,392.339051500001,393.7220436000007,0.10312760000124399,None,,,,,,,,,4,001,2019_Dec_20_1724,untitled,3.1.0,60.16047204291224,
161,F,N,0,L,N,161FN000LN,HLN,0,134,134,216,,,0.971,394.5701530000006,394.86947990000044,394.88603409999996,395.1697170000007,395.1861452000012,None,up,1.4861137999996572,395.1861452000012,None,395.1861452000012,396.15222279999944,0.10054330000093614,None,,,,,,,,,4,001,2019_Dec_20_1724,untitled,3.1.0,60.16047204291224,
457,_5,M,0,R,N,457_5M000RN,HRN,0,135,135,176,,,0.858,396.7897816000004,397.0843497999995,397.10149470000033,397.3844893000005,397.4011105999998,None,down,1.8832499999989523,397.4011105999998,None,397.4011105999998,398.2506150999998,0.10674759999892558,None,,,,,,,,,4,001,2019_Dec_20_1724,untitled,3.1.0,60.16047204291224,
009,R,M,0,R,N,009RM000RN,HRN,0,136,136,96,,,1.012,399.39906300000075,399.6986904000005,399.71492659999967,399.9985856000003,400.01559350000025,None,down,1.9827934000004461,400.01559350000025,None,400.01559350000025,401.0145708,0.10343540000030771,None,,,,,,,,,4,001,2019_Dec_20_1724,untitled,3.1.0,60.16047204291224,
_,R,M,135,_,_,_RM135__,N,0,137,137,19,,,0.789,402.1254382999996,402.4140258999996,402.4140258999996,402.7125992000001,402.7294299999994,None,down,2.017428799999834,402.7294299999994,None,402.7294299999994,403.5124704000009,0.11529340000015509,None,,,,,,,,,4,001,2019_Dec_20_1724,untitled,3.1.0,60.16047204291224,
432,_4,M,315,L,N,432_4M315LN,HLN,0,138,138,175,,,1.2690000000000001,404.8638107000006,405.16040020000037,405.1773559000012,405.4599154000007,405.47746879999977,None,down,2.48243420000108,405.47746879999977,None,405.47746879999977,406.7264520000008,0.10580330000084359,None,,,,,,,,,4,001,2019_Dec_20_1724,untitled,3.1.0,60.16047204291224,
043,R,M,90,L,N,043RM090LN,HLN,0,139,139,106,,,1.28,408.0715739999996,408.3742371999997,408.3909087000011,408.67502740000054,408.691377000001,None,down,2.0662178000002314,408.691377000001,None,408.691377000001,409.95685700000104,0.09962549999909243,None,,,,,,,,,4,001,2019_Dec_20_1724,untitled,3.1.0,60.16047204291224,
_,_2,M,0,_,_,__2M000__,N,0,140,140,24,,,0.892,410.8664520000002,411.17180290000033,411.1887630000001,411.47298950000004,411.48886649999986,None,down,2.2008286000000226,411.48886649999986,None,411.48886649999986,412.37168810000003,0.09778730000107316,None,,,,,,,,,4,001,2019_Dec_20_1724,untitled,3.1.0,60.16047204291224,
239,G,M,270,L,N,239GM270LN,HLN,0,141,141,142,,,1.149,413.8042452999998,414.10325209999974,414.11940460000005,414.40244560000065,414.4192956000006,None,down,2.299541299998964,414.4192956000006,None,414.4192956000006,415.5514535000002,0.102148700001635,None,,,,,,,,,4,001,2019_Dec_20_1724,untitled,3.1.0,60.16047204291224,
_,_2,M,135,_,_,__2M135__,N,0,142,142,27,,,1.266,416.8174118000006,417.13365669999985,417.1498303999997,417.4331718000012,417.45012900000074,None,down,2.4329333000005136,417.45012900000074,None,417.45012900000074,418.6992396000005,0.0884528999995382,None,,,,,,,,,4,001,2019_Dec_20_1724,untitled,3.1.0,60.16047204291224,
_,_2,N,180,_,_,__2N180__,N,0,143,143,76,,,1.135,420.0074923000011,420.29720180000004,420.29720180000004,420.5972457000007,420.6144039999999,None,up,1.768179799999416,420.6144039999999,None,420.6144039999999,421.7295556000008,0.11327829999936512,None,,,,,,,,,4,001,2019_Dec_20_1724,untitled,3.1.0,60.16047204291224,
_,_2,M,225,_,_,__2M225__,N,0,144,144,29,,,0.811,422.49976869999955,422.7954871000002,422.81156420000116,423.095320800001,423.11199940000006,None,down,1.8667929999992339,423.11199940000006,None,423.11199940000006,423.91138219999993,0.10513410000021395,None,,,,,,,,,4,001,2019_Dec_20_1724,untitled,3.1.0,60.16047204291224,
388,_4,N,135,R,N,388_4N135RN,HRN,0,145,145,259,,,1.237,425.0911286999999,425.39286920000086,425.4092586000006,425.6963443000004,425.71124919999966,None,up,1.8484950000001845,425.71124919999966,None,425.71124919999966,426.942174400001,0.10049749999961932,None,,,,,,,,,4,001,2019_Dec_20_1724,untitled,3.1.0,60.16047204291224,
268,_2,M,135,R,N,268_2M135RN,HRN,0,146,146,147,,,0.8250000000000001,427.6870223999995,427.97594430000026,427.97594430000026,428.2741504000005,428.2907630000009,None,down,2.1356292000000394,428.2907630000009,None,428.2907630000009,429.10746370000015,0.1163418999985879,None,,,,,,,,,4,001,2019_Dec_20_1724,untitled,3.1.0,60.16047204291224,
398,_4,M,225,R,N,398_4M225RN,HRN,0,147,147,165,,,0.917,430.5401787999999,430.83797570000024,430.85467040000003,431.1377977000011,431.15497570000116,None,down,2.032395500000348,431.15497570000116,None,431.15497570000116,432.0539315999995,0.10248089999913645,None,,,,,,,,,4,001,2019_Dec_20_1724,untitled,3.1.0,60.16047204291224,
417,_4,N,0,L,N,417_4N000LN,HLN,0,148,148,264,,,0.843,433.27740059999996,433.60277719999976,433.6189787000003,433.9026625000006,433.9193269999996,None,up,1.4181678999993892,433.9193269999996,None,433.9193269999996,434.7518075000007,0.08115619999989576,None,,,,,,,,,4,001,2019_Dec_20_1724,untitled,3.1.0,60.16047204291224,
203,G,M,90,R,N,203GM090RN,HRN,0,149,149,130,,,0.918,435.46025460000055,435.7502414999999,435.76726059999964,436.0512299000002,436.067468700001,None,down,1.5998853000000963,436.067468700001,None,436.067468700001,436.96731480000017,0.11145070000020496,None,,,,,,,,,4,001,2019_Dec_20_1724,untitled,3.1.0,60.16047204291224,
_,G,N,180,_,_,_GN180__,N,0,150,150,60,,,0.769,437.7938864000007,438.08356450000065,438.08356450000065,438.38216920000013,438.3988494000005,None,up,1.6831827000005433,438.3988494000005,None,438.3988494000005,439.14818170000035,0.11412569999993138,None,,,,,,,,,4,001,2019_Dec_20_1724,untitled,3.1.0,60.16047204291224,
303,_2,M,270,L,N,303_2M270LN,HLN,0,151,151,158,,,1.227,440.20072269999946,440.496470600001,440.5129202999997,440.7967171,440.8133120000002,None,down,2.0012569000009535,440.8133120000002,None,440.8133120000002,442.02952619999996,0.10698919999958889,None,,,,,,,,,4,001,2019_Dec_20_1724,untitled,3.1.0,60.16047204291224,
264,_2,N,315,R,N,264_2N315RN,HRN,0,152,152,247,,,1.235,442.9297017000008,443.2271801000006,443.2439221000004,443.52760920000037,443.5441232000012,None,up,2.4492915000009816,443.5441232000012,None,443.5441232000012,444.75981780000075,0.104726200001096,None,,,,,,,,,4,001,2019_Dec_20_1724,untitled,3.1.0,60.16047204291224,
004,R,N,135,R,N,004RN135RN,HRN,0,153,153,195,,,0.771,446.1091056000005,446.4088016000005,446.42413680000027,446.7073712000001,446.7239902000001,None,up,1.8499248000007356,446.7239902000001,None,446.7239902000001,447.4739850999995,0.10503670000070997,None,,,,,,,,,4,001,2019_Dec_20_1724,untitled,3.1.0,60.16047204291224,
464,_5,M,315,R,N,464_5M315RN,HRN,0,154,154,183,,,1.065,448.6696439999996,448.98884680000083,449.0055321,449.28935640000054,449.30605839999953,None,down,2.3832399000002624,449.30605839999953,None,449.30605839999953,450.3550448999995,0.08669259999987844,None,,,,,,,,,4,001,2019_Dec_20_1724,untitled,3.1.0,60.16047204291224,
_,G,M,270,_,_,_GM270__,N,0,155,155,14,,,1.038,451.78666840000005,452.1025394999997,452.11928960000114,452.4033512999995,452.4198527999997,None,down,2.2666300000000774,452.4198527999997,None,452.4198527999997,453.45302300000003,0.08645570000044245,None,,,,,,,,,4,001,2019_Dec_20_1724,untitled,3.1.0,60.16047204291224,
295,_2,N,270,L,N,295_2N270LN,HLN,0,156,156,254,,,0.807,454.805961,455.1007064000005,455.11703280000074,455.4007521000003,455.4172732999996,None,up,1.4498763000010513,455.4172732999996,None,455.4172732999996,456.2165763000012,0.10855749999973341,None,,,,,,,,,4,001,2019_Dec_20_1724,untitled,3.1.0,60.16047204291224,
_,F,N,270,_,_,_FN270__,N,0,157,157,54,,,1.27,456.9945564999998,457.2838573000008,457.2838573000008,457.5818154000008,457.6000017999995,None,up,1.8476004999993165,457.6000017999995,None,457.6000017999995,458.8482498000012,0.11557860000175424,None,,,,,,,,,4,001,2019_Dec_20_1724,untitled,3.1.0,60.16047204291224,
046,R,M,225,L,N,046RM225LN,HLN,0,158,158,109,,,1.355,459.5316918999997,459.8628148000007,459.8812949000003,460.1636705000001,460.1798015000004,None,down,2.134642299999541,460.1798015000004,None,460.1798015000004,461.5121261000004,0.07506719999946654,None,,,,,,,,,4,001,2019_Dec_20_1724,untitled,3.1.0,60.16047204291224,
204,G,M,135,R,N,204GM135RN,HRN,0,159,159,131,,,1.095,462.43053130000044,462.72699009999997,462.74364930000047,463.02652470000066,463.0435909000007,None,down,1.9825380000002042,463.0435909000007,None,463.0435909000007,464.12576459999946,0.10541110000121989,None,,,,,,,,,4,001,2019_Dec_20_1724,untitled,3.1.0,60.16047204291224,
_,_5,N,315,_,_,__5N315__,N,0,160,160,95,,,1.351,465.1374426000002,465.427028600001,465.45782900000086,465.74246739999944,465.7593237000001,None,up,2.7982620999991923,465.7593237000001,None,465.7593237000001,467.09146880000117,0.10082239999974263,None,,,,,,,,,4,001,2019_Dec_20_1724,untitled,3.1.0,60.16047204291224,
_,_2,N,90,_,_,__2N090__,N,0,161,161,74,,,0.761,468.66973660000076,468.9720083000011,468.9880181000008,469.27315889999954,469.28860350000105,None,up,1.949615300000005,469.28860350000105,None,469.28860350000105,470.03766449999966,0.10023050000017975,None,,,,,,,,,4,001,2019_Dec_20_1724,untitled,3.1.0,60.16047204291224,
176,F,M,315,L,N,176FM315LN,HLN,0,162,162,127,,,1.286,471.36535940000067,471.65423940000073,471.65423940000073,471.9528334000006,471.9701451000001,None,down,2.032884100000956,471.9701451000001,None,471.9701451000001,473.23557210000035,0.11685369999941031,None,,,,,,,,,4,001,2019_Dec_20_1724,untitled,3.1.0,60.16047204291224,
001,R,N,0,R,N,001RN000RN,HRN,0,163,163,192,,,0.989,474.13070139999945,474.4180107000011,474.4180107000011,474.71661309999945,474.7331871000006,None,up,1.5674565000008442,474.7331871000006,None,474.7331871000006,475.71662950000064,0.11449200000060955,None,,,,,,,,,4,001,2019_Dec_20_1724,untitled,3.1.0,60.16047204291224,
198,G,N,225,R,N,198GN225RN,HRN,0,164,164,229,,,1.303,476.43186290000085,476.73235550000027,476.73235550000027,477.01439030000074,477.03155069999957,None,up,2.048865200000364,477.03155069999957,None,477.03155069999957,478.3133020999994,0.12021110000023327,None,,,,,,,,,4,001,2019_Dec_20_1724,untitled,3.1.0,60.16047204291224,
169,F,M,0,L,N,169FM000LN,HLN,0,165,165,120,,,0.718,479.1517789999998,479.49587900000006,479.5123633000003,479.79872980000073,479.8135770000008,None,down,1.517829400001574,479.8135770000008,None,479.8135770000008,480.51201740000033,0.06418850000045495,None,,,,,,,,,4,001,2019_Dec_20_1724,untitled,3.1.0,60.16047204291224,
456,_5,N,315,R,N,456_5N315RN,HRN,0,166,166,279,,,0.8220000000000001,481.45096999999987,481.7437867000008,481.7603588000002,482.04352219999964,482.06024269999943,None,up,1.4693053000009968,482.06024269999943,None,482.06024269999943,482.8763407000006,0.1079704000003403,None,,,,,,,,,4,001,2019_Dec_20_1724,untitled,3.1.0,60.16047204291224,
_,_5,M,0,_,_,__5M000__,N,0,167,167,40,,,0.882,483.6440581000006,483.9418588999997,483.9583911000009,484.2422649,484.25921430000017,None,up,2.0667326000002504,484.25921430000017,None,484.25921430000017,485.1238659999999,0.10116190000007919,None,,,,,,,,,4,001,2019_Dec_20_1724,untitled,3.1.0,60.16047204291224,
482,_5,N,45,L,N,482_5N045LN,HLN,0,168,168,281,,,0.844,486.4375615000008,486.73973730000034,486.75614470000073,487.03961510000045,487.05618239999967,None,up,1.516872300000614,487.05618239999967,None,487.05618239999967,487.8888270000007,0.10031110000090848,None,,,,,,,,,4,001,2019_Dec_20_1724,untitled,3.1.0,60.16047204291224,
194,G,N,45,R,N,194GN045RN,HRN,0,169,169,225,,,0.977,488.69114439999976,488.9883461999998,489.00416310000037,489.28873290000047,489.3049685999995,None,up,1.86652900000081,489.3049685999995,None,489.3049685999995,490.27167670000017,0.10532020000027842,None,,,,,,,,,4,001,2019_Dec_20_1724,untitled,3.1.0,60.16047204291224,
_,_4,M,45,_,_,__4M045__,N,0,170,170,33,,,1.155,491.28923570000006,491.5851225999995,491.6023292000009,491.8850885000011,491.9017038000002,None,down,1.9654268000012962,491.9017038000002,None,491.9017038000002,493.0507120000002,0.10487619999912567,None,,,,,,,,,4,001,2019_Dec_20_1724,untitled,3.1.0,60.16047204291224,
_,_4,N,315,_,_,__4N315__,N,0,171,171,87,,,0.785,493.95172300000013,494.28276689999984,494.29951710000023,494.5834885000004,494.5997315000004,None,up,1.368130699998801,494.5997315000004,None,494.5997315000004,495.36570779999965,0.07668759999978647,None,,,,,,,,,4,001,2019_Dec_20_1724,untitled,3.1.0,60.16047204291224,
142,F,M,225,R,N,142FM225RN,HRN,0,172,172,117,,,1.232,496.0889550000011,496.3810876999996,496.3976160000002,496.6812854,496.6979879999999,None,down,1.9500290000014502,496.6979879999999,None,496.6979879999999,497.91443040000013,0.10994959999879939,None,,,,,,,,,4,001,2019_Dec_20_1724,untitled,3.1.0,60.16047204291224,
263,_2,N,270,R,N,263_2N270RN,HRN,0,173,173,246,,,1.2750000000000001,498.78341399999954,499.0784242999998,499.0784242999998,499.3622802000009,499.37900230000014,None,up,1.9004608000013832,499.37900230000014,None,499.37900230000014,500.6444052000006,0.12343479999981355,None,,,,,,,,,4,001,2019_Dec_20_1724,untitled,3.1.0,60.16047204291224,
164,F,N,135,L,N,164FN135LN,HLN,0,174,174,219,,,1.339,501.3998783999996,501.69303560000117,501.70952380000017,501.99339110000074,502.00999799999954,None,down,2.3001542999991216,502.00999799999954,None,502.00999799999954,503.3424396999999,0.10875009999836038,None,,,,,,,,,4,001,2019_Dec_20_1724,untitled,3.1.0,60.16047204291224,
173,F,M,180,L,N,173FM180LN,HLN,0,175,175,124,,,0.708,504.4311460000008,504.72366560000046,504.7402320000001,505.0240434999996,505.04071400000066,None,down,2.414709999999104,505.04071400000066,None,505.04071400000066,505.74045509999996,0.10824829999910435,None,,,,,,,,,4,001,2019_Dec_20_1724,untitled,3.1.0,60.16047204291224,
034,R,N,45,L,N,034RN045LN,HLN,0,176,176,201,,,1.034,507.54283360000045,507.8713605000012,507.8874702000012,508.17081619999954,508.18759839999984,None,up,1.6822393000002194,508.18759839999984,None,508.18759839999984,509.2037379000012,0.07964410000022326,None,,,,,,,,,4,001,2019_Dec_20_1724,untitled,3.1.0,60.16047204291224,
_,_4,M,180,_,_,__4M180__,N,0,177,177,36,,,1.041,509.9488025999999,510.28591340000094,510.3024927999995,510.5867804999998,510.60263880000093,None,up,1.8671654000008857,510.60263880000093,None,510.60263880000093,511.6365801000011,0.06876999999985856,None,,,,,,,,,4,001,2019_Dec_20_1724,untitled,3.1.0,60.16047204291224,
271,_2,M,270,R,N,271_2M270RN,HRN,0,178,178,150,,,1.315,512.5909186999997,512.8849585000007,512.9013606999997,513.1828810000006,513.1996369000008,None,down,2.3359922999989067,513.1996369000008,None,513.1996369000008,514.4995243000012,0.10798140000042622,None,,,,,,,,,4,001,2019_Dec_20_1724,untitled,3.1.0,60.16047204291224,
300,_2,M,135,L,N,300_2M135LN,HLN,0,179,179,155,,,1.161,515.6513154000004,515.9471097999995,515.9639198000004,516.2479218999997,516.2642651000006,None,down,2.166356800000358,516.2642651000006,None,516.2642651000006,517.4131166000006,0.10437629999978526,None,,,,,,,,,4,001,2019_Dec_20_1724,untitled,3.1.0,60.16047204291224,
_,_2,M,315,_,_,__2M315__,N,0,180,180,31,,,1.344,518.5576020999997,518.8471730000001,518.8471730000001,519.1448199000006,519.1618173999996,None,down,2.648498099999415,519.1618173999996,None,519.1618173999996,520.4941134000001,0.11636910000015632,None,,,,,,,,,4,001,2019_Dec_20_1724,untitled,3.1.0,60.16047204291224,
483,_5,N,90,L,N,483_5N090LN,HLN,0,181,181,282,,,1.364,521.9136037000007,522.225019200001,522.2416899,522.5254638000006,522.5419997000008,None,up,2.7493101000000024,522.5419997000008,None,522.5419997000008,523.8907489000012,0.09555070000169508,None,,,,,,,,,4,001,2019_Dec_20_1724,untitled,3.1.0,60.16047204291224,
421,_4,N,180,L,N,421_4N180LN,HLN,0,182,182,268,,,1.318,525.3861228000005,525.7052629999998,525.7219193000001,526.0059873999999,526.0225143000007,None,up,2.116622700001244,526.0225143000007,None,526.0225143000007,527.3210737999998,0.08471889999964333,None,,,,,,,,,4,001,2019_Dec_20_1724,untitled,3.1.0,60.16047204291224,
_,G,N,135,_,_,_GN135__,N,0,183,183,59,,,1.342,528.2249554000009,528.5527438000008,528.5701740000004,528.8532714000012,528.8699028999999,None,up,2.302543499999956,528.8699028999999,None,528.8699028999999,530.2015517,0.07747099999869533,None,,,,,,,,,4,001,2019_Dec_20_1724,untitled,3.1.0,60.16047204291224,
454,_5,N,225,R,N,454_5N225RN,HRN,0,184,184,277,,,1.2790000000000001,531.2855302999997,531.5833526999995,531.6002220000009,531.8840711000012,531.9004827000008,None,up,2.21601980000014,531.9004827000008,None,531.9004827000008,533.166264200001,0.10108150000087335,None,,,,,,,,,4,001,2019_Dec_20_1724,untitled,3.1.0,60.16047204291224,
_,_5,N,180,_,_,__5N180__,N,0,185,185,92,,,1.173,534.2272900999997,534.5308604000002,534.5477860999999,534.8314437999998,534.8474910000004,None,up,1.8005133000006026,534.8474910000004,None,534.8474910000004,536.0138072999998,0.09757749999880616,None,,,,,,,,,4,001,2019_Dec_20_1724,untitled,3.1.0,60.16047204291224,
238,G,M,225,L,N,238GM225LN,HLN,0,186,186,141,,,1.276,536.7692938,537.0621619000012,537.0787172,537.3624046000004,537.3791710999994,None,down,2.481301699999676,537.3791710999994,None,537.3791710999994,538.6440278999999,0.10908149999886518,None,,,,,,,,,4,001,2019_Dec_20_1724,untitled,3.1.0,60.16047204291224,
010,R,M,45,R,N,010RM045RN,HRN,0,187,187,97,,,1.1440000000000001,539.9480130000011,540.2759057000003,540.2924065000007,540.5762210000012,540.5931543999995,None,down,2.0001972999998543,540.5931543999995,None,540.5931543999995,541.724338,0.07952379999915138,None,,,,,,,,,4,001,2019_Dec_20_1724,untitled,3.1.0,60.16047204291224,
_,F,M,135,_,_,_FM135__,N,0,188,188,3,,,1.065,542.7120386000006,543.0077517999998,543.0239612999994,543.3077785999994,543.3248449000002,None,down,2.233231900001556,543.3248449000002,None,543.3248449000002,544.3732920000002,0.10699019999992743,None,,,,,,,,,4,001,2019_Dec_20_1724,untitled,3.1.0,60.16047204291224,
427,_4,M,90,L,N,427_4M090LN,HLN,0,189,189,170,,,1.162,545.6801314000004,545.9717154999998,545.9877472999997,546.2719297000003,546.2880924000001,None,up,2.450044400000479,546.2880924000001,None,546.2880924000001,547.4374229000005,0.10892739999871992,None,,,,,,,,,4,001,2019_Dec_20_1724,untitled,3.1.0,60.16047204291224,
298,_2,M,45,L,N,298_2M045LN,HLN,0,190,190,153,,,0.874,548.8577394000004,549.1519516999997,549.1686774000009,549.4539440000008,549.4697919999999,None,down,2.1148192000000563,549.4697919999999,None,549.4697919999999,550.3345821000003,0.1086235000002489,None,,,,,,,,,4,001,2019_Dec_20_1724,untitled,3.1.0,60.16047204291224,
163,F,N,90,L,N,163FN090LN,HLN,0,191,191,218,,,1.26,551.7131619000011,552.0004747000003,552.0004747000003,552.2994954999995,552.3161731,None,up,1.9816936000006535,552.3161731,None,552.3161731,553.5651899000004,0.11619679999967047,None,,,,,,,,,4,001,2019_Dec_20_1724,untitled,3.1.0,60.16047204291224,
428,_4,M,135,L,N,428_4M135LN,HLN,0,192,192,171,,,1.1420000000000001,554.3940987000005,554.7133876999997,554.7301342999999,555.0134366000002,555.0300361999998,None,up,1.8518686999996135,555.0300361999998,None,555.0300361999998,556.1630545000007,0.0847025000002759,None,,,,,,,,,4,001,2019_Dec_20_1724,untitled,3.1.0,60.16047204291224,
484,_5,N,135,L,N,484_5N135LN,HLN,0,193,193,283,,,1.2550000000000001,556.9929542000009,557.2948150000011,557.3110187000002,557.5949677000008,557.6112463000009,None,up,2.035442799999146,557.6112463000009,None,557.6112463000009,558.8616103000004,0.1000858999996126,None,,,,,,,,,4,001,2019_Dec_20_1724,untitled,3.1.0,60.16047204291224,
_,F,M,45,_,_,_FM045__,N,0,194,194,1,,,1.338,559.7565039000001,560.0591316000009,560.0757116000004,560.3588641000006,560.3751935,None,down,2.316467799999373,560.3751935,None,560.3751935,561.7068949000004,0.09914960000060091,None,,,,,,,,,4,001,2019_Dec_20_1724,untitled,3.1.0,60.16047204291224,
014,R,M,225,R,N,014RM225RN,HRN,0,195,195,101,,,1.05,562.8086731000003,563.1063654000009,563.1226939000007,563.4063814000001,563.4231657,None,up,1.9356704000001628,563.4231657,None,563.4231657,564.4569055000011,0.10614239999995334,None,,,,,,,,,4,001,2019_Dec_20_1724,untitled,3.1.0,60.16047204291224,
040,R,N,315,L,N,040RN315LN,HLN,0,196,196,207,,,1.381,565.4787116000007,565.7707527000002,565.7874943000006,566.0705309000004,566.0869428000005,None,up,2.0502433000001474,566.0869428000005,None,566.0869428000005,567.4527818000006,0.10884450000048673,None,,,,,,,,,4,001,2019_Dec_20_1724,untitled,3.1.0,60.16047204291224,
_,R,M,0,_,_,_RM000__,N,0,197,197,16,,,1.27,568.2632560000002,568.5525448999997,568.5525448999997,568.8512103000012,568.8680404000006,None,down,2.0155300999995234,568.8680404000006,None,568.8680404000006,570.1173321000006,0.11583709999831626,None,,,,,,,,,4,001,2019_Dec_20_1724,untitled,3.1.0,60.16047204291224,
_,F,N,135,_,_,_FN135__,N,0,198,198,51,,,1.295,570.9809611000001,571.2990721000006,571.3160384000003,571.5997494000003,571.6161626000012,None,up,1.9150081999996473,571.6161626000012,None,571.6161626000012,572.8982592000011,0.0872650999990583,None,,,,,,,,,4,001,2019_Dec_20_1724,untitled,3.1.0,60.16047204291224,
257,_2,N,0,R,N,257_2N000RN,HRN,0,199,199,240,,,1.057,573.612463200001,573.9466126000007,573.9633049000004,574.2472971999996,574.2637147000005,None,up,2.2191755999992893,574.2637147000005,None,574.2637147000005,575.2960134000004,0.07311710000067251,None,,,,,,,,,4,001,2019_Dec_20_1724,untitled,3.1.0,60.16047204291224,
174,F,M,225,L,N,174FM225LN,HLN,0,200,200,125,,,1.099,576.6091009000011,576.9111733999998,576.9111733999998,577.1949839000008,577.2111552000006,None,down,1.932841499999995,577.2111552000006,None,577.2111552000006,578.2926399000007,0.11390099999880476,None,,,,,,,,,4,001,2019_Dec_20_1724,untitled,3.1.0,60.16047204291224,
490,_5,M,45,L,N,490_5M045LN,HLN,0,201,201,185,,,1.191,579.2557692000009,579.5586621000002,579.5752850000008,579.8590947000012,579.8771660000002,None,down,2.6136781000004703,579.8771660000002,None,579.8771660000002,581.0581639000011,0.09983199999987846,None,,,,,,,,,4,001,2019_Dec_20_1724,untitled,3.1.0,60.16047204291224,
144,F,M,315,R,N,144FM315RN,HRN,0,202,202,119,,,0.847,582.6090119,582.9059180000004,582.9226579999995,583.2056448000003,583.2238514000001,None,down,1.7477625999999873,583.2238514000001,None,583.2238514000001,584.0541940000003,0.10716000000138592,None,,,,,,,,,4,001,2019_Dec_20_1724,untitled,3.1.0,60.16047204291224,
_,G,M,225,_,_,_GM225__,N,0,203,203,13,,,1.335,585.0632225000008,585.3871287000002,585.4037946000008,585.6870949000004,585.7039425000003,None,down,2.1663026999995054,585.7039425000003,None,585.7039425000003,587.0192692,0.08354710000094201,None,,,,,,,,,4,001,2019_Dec_20_1724,untitled,3.1.0,60.16047204291224,
425,_4,M,0,L,N,425_4M000LN,HLN,0,204,204,168,,,0.987,587.9858461000003,588.2845637999999,588.3006439000001,588.5841164000012,588.6010022999999,None,up,1.9021852999994735,588.6010022999999,None,588.6010022999999,589.567576200001,0.10181720000036876,None,,,,,,,,,4,001,2019_Dec_20_1724,untitled,3.1.0,60.16047204291224,
237,G,M,180,L,N,237GM180LN,HLN,0,205,205,140,,,0.861,590.6214336000012,590.9152083999998,590.9320208999998,591.2151711999995,591.2316991000007,None,down,1.7345958999994764,591.2316991000007,None,591.2316991000007,592.0823445000005,0.10686189999978524,None,,,,,,,,,4,001,2019_Dec_20_1724,untitled,3.1.0,60.16047204291224,
037,R,N,180,L,N,037RN180LN,HLN,0,206,206,204,,,1.091,593.0814146000012,593.3802436999995,593.3963032000011,593.6801328000001,593.6968123999995,None,up,1.8486448000003293,593.6968123999995,None,593.6968123999995,594.778628600001,0.1030412999989494,None,,,,,,,,,4,001,2019_Dec_20_1724,untitled,3.1.0,60.16047204291224,
_,_4,M,225,_,_,__4M225__,N,0,207,207,37,,,0.794,595.659355400001,595.9465294000001,595.9771584000009,596.2614145000007,596.2777915999995,None,down,1.7005776000005426,596.2777915999995,None,596.2777915999995,597.0604760999995,0.1020012000008137,None,,,,,,,,,4,001,2019_Dec_20_1724,untitled,3.1.0,60.16047204291224,
229,G,N,180,L,N,229GN180LN,HLN,0,208,208,236,,,0.735,598.0914950000006,598.392267700001,598.4083597999997,598.6917762000012,598.708359100001,None,up,1.3340433000012126,598.708359100001,None,598.708359100001,599.424663400001,0.10172859999875072,None,,,,,,,,,4,001,2019_Dec_20_1724,untitled,3.1.0,60.16047204291224,
141,F,M,180,R,N,141FM180RN,HRN,0,209,209,116,,,0.911,600.1655112999997,600.456868700001,600.4746699000007,600.7568848999999,600.7736716,None,up,1.8534127999992052,600.7736716,None,600.7736716,601.6732520999994,0.11008109999966109,None,,,,,,,,,4,001,2019_Dec_20_1724,untitled,3.1.0,60.16047204291224,
_,_2,N,0,_,_,__2N000__,N,0,210,210,72,,,0.8,602.7399994999996,603.0383750000001,603.0546372999997,603.3383068000003,603.3550895000008,None,up,1.6346898000010697,603.3550895000008,None,603.3550895000008,604.1374183999997,0.1022726999999577,None,,,,,,,,,4,001,2019_Dec_20_1724,untitled,3.1.0,60.16047204291224,
450,_5,N,45,R,N,450_5N045RN,HRN,0,211,211,273,,,0.909,605.1117169999998,605.4029974000005,605.4192285999998,605.7031342999999,605.7197421000001,None,up,1.6498159000002488,605.7197421000001,None,605.7197421000001,606.6188710000006,0.10959360000015295,None,,,,,,,,,4,001,2019_Dec_20_1724,untitled,3.1.0,60.16047204291224,
133,F,N,180,R,N,133FN180RN,HRN,0,212,212,212,,,0.916,607.4822951000006,607.7841397000011,607.8004954999997,608.08446,608.1014140999996,None,up,1.5338088000007701,608.1014140999996,None,608.1014140999996,609.0001410000004,0.0995574000007764,None,,,,,,,,,4,001,2019_Dec_20_1724,untitled,3.1.0,60.16047204291224,
293,_2,N,180,L,N,293_2N180LN,HLN,0,213,213,252,,,1.049,609.7568016999994,610.0491285999997,610.0491285999997,610.3502454999998,610.3658477999998,None,up,1.5836835999998584,610.3658477999998,None,610.3658477999998,611.3981044000011,0.11069680000036897,None,,,,,,,,,4,001,2019_Dec_20_1724,untitled,3.1.0,60.16047204291224,
_,F,M,225,_,_,_FM225__,N,0,214,214,5,,,1.21,612.0695720000003,612.363231700001,612.3803091999998,612.6627260999994,612.6795536999998,None,down,1.9168563000002905,612.6795536999998,None,612.6795536999998,613.8791899000007,0.10823319999872183,None,,,,,,,,,4,001,2019_Dec_20_1724,untitled,3.1.0,60.16047204291224,
299,_2,M,90,L,N,299_2M090LN,HLN,0,215,215,154,,,0.9420000000000001,614.7162621999996,615.0116085000009,615.0277428000009,615.3111143999995,615.3276784999998,None,down,1.7996805000002496,615.3276784999998,None,615.3276784999998,616.2605282000004,0.10859979999986535,None,,,,,,,,,4,001,2019_Dec_20_1724,untitled,3.1.0,60.16047204291224,
041,R,M,0,L,N,041RM000LN,HLN,0,216,216,104,,,1.024,617.2375377999997,617.5259321000012,617.5586811000012,617.842270000001,617.8592217000005,None,down,2.0170481000004656,617.8592217000005,None,617.8592217000005,618.8748369000004,0.09846469999865803,None,,,,,,,,,4,001,2019_Dec_20_1724,untitled,3.1.0,60.16047204291224,
165,F,N,180,L,N,165FN180LN,HLN,0,217,217,220,,,0.994,619.9927958000007,620.2900081000007,620.3061321000005,620.5900679000006,620.6068245000006,None,up,1.6667500000003201,620.6068245000006,None,620.6068245000006,621.5902299999998,0.10576080000100774,None,,,,,,,,,4,001,2019_Dec_20_1724,untitled,3.1.0,60.16047204291224,
013,R,M,180,R,N,013RM180RN,HRN,0,218,218,100,,,0.715,622.3891727000009,622.6876219999995,622.7045369000007,622.9880496000005,623.0049209999997,None,down,1.6336145999994187,623.0049209999997,None,623.0049209999997,623.7041301999998,0.10466970000015863,None,,,,,,,,,4,001,2019_Dec_20_1724,untitled,3.1.0,60.16047204291224,
290,_2,N,45,L,N,290_2N045LN,HLN,0,219,219,249,,,1.35,624.7580240999996,625.0526871000002,625.0690001000003,625.3527320000012,625.3692382000008,None,up,1.932854699998643,625.3692382000008,None,625.3692382000008,626.7008879000005,0.10788490000049933,None,,,,,,,,,4,001,2019_Dec_20_1724,untitled,3.1.0,60.16047204291224,
_,R,M,90,_,_,_RM090__,N,0,220,220,18,,,0.878,627.4276183000002,627.7170514000009,627.7170514000009,628.0169220000007,628.0340097999997,None,down,1.7499315000004572,628.0340097999997,None,628.0340097999997,628.8992677000006,0.11358469999868248,None,,,,,,,,,4,001,2019_Dec_20_1724,untitled,3.1.0,60.16047204291224,
489,_5,M,0,L,N,489_5M000LN,HLN,0,221,221,184,,,0.793,629.8736408000004,630.1978784000003,630.2144558,630.4975671000011,630.5141667000007,None,down,1.633474500000375,630.5141667000007,None,630.5141667000007,631.2968820999995,0.0810142000009364,None,,,,,,,,,4,001,2019_Dec_20_1724,untitled,3.1.0,60.16047204291224,
_,_2,M,180,_,_,__2M180__,N,0,222,222,28,,,0.9430000000000001,632.2627207000005,632.5626807999997,632.5787853000002,632.8642450999996,632.8794271999996,None,down,1.9507190000003902,632.8794271999996,None,632.8794271999996,633.8118468000011,0.103739799998948,None,,,,,,,,,4,001,2019_Dec_20_1724,untitled,3.1.0,60.16047204291224,
_,_5,M,90,_,_,__5M090__,N,0,223,223,42,,,0.734,634.9572996000006,635.2601808,635.2601808,635.5437345999999,635.5620431999996,None,down,1.8478096000017104,635.5620431999996,None,635.5620431999996,636.2761921000001,0.11642750000100932,None,,,,,,,,,4,001,2019_Dec_20_1724,untitled,3.1.0,60.16047204291224,
_,_2,M,90,_,_,__2M090__,N,0,224,224,26,,,1.095,637.5156119000003,637.8247630999995,637.8407174000004,638.1243467000004,638.1407865000001,None,down,2.3180013000001054,638.1407865000001,None,638.1407865000001,639.2237839999998,0.09451549999903364,None,,,,,,,,,4,001,2019_Dec_20_1724,untitled,3.1.0,60.16047204291224,
_,G,M,135,_,_,_GM135__,N,0,225,225,11,,,0.758,640.5708085999995,640.8720995000003,640.8881935999998,641.1722931000004,641.1885930999997,None,down,1.7841520000001765,641.1885930999997,None,641.1885930999997,641.938436800001,0.10090730000047188,None,,,,,,,,,4,001,2019_Dec_20_1724,untitled,3.1.0,60.16047204291224,
_,F,N,225,_,_,_FN225__,N,0,226,226,53,,,1.244,643.0890039000005,643.3858484000011,643.4027136000004,643.6862947999998,643.7035046000001,None,up,2.064540700001089,643.7035046000001,None,643.7035046000001,644.9354098000003,0.10423850000006496,None,,,,,,,,,4,001,2019_Dec_20_1724,untitled,3.1.0,60.16047204291224,
493,_5,M,180,L,N,493_5M180LN,HLN,0,227,227,188,,,0.839,645.8560916999995,646.1838960000005,646.200559500001,646.4842196999998,646.5007845,None,up,1.79943860000094,646.5007845,None,646.5007845,647.3167308000011,0.079431599999225,None,,,,,,,,,4,001,2019_Dec_20_1724,untitled,3.1.0,60.16047204291224,
137,F,M,0,R,N,137FM000RN,HRN,0,228,228,112,,,1.362,648.4281951000012,648.7170621999994,648.7170621999994,649.0157992000004,649.0317164999997,None,down,2.1166207999995095,649.0317164999997,None,649.0317164999997,650.3806767999995,0.11747250000007625,None,,,,,,,,,4,001,2019_Dec_20_1724,untitled,3.1.0,60.16047204291224,
_,R,M,270,_,_,_RM270__,N,0,229,229,22,,,0.8160000000000001,651.2587820000008,651.5624399000008,651.5788861000001,651.8636986000001,651.8792114000007,None,down,1.5004410000001371,651.8792114000007,None,651.8792114000007,652.6787392000006,0.09851089999938267,None,,,,,,,,,4,001,2019_Dec_20_1724,untitled,3.1.0,60.16047204291224,
_,F,N,45,_,_,_FN045__,N,0,230,230,49,,,1.351,653.4988262999996,653.7940508000011,653.8109765000008,654.0941498000011,654.1107260000008,None,up,2.0001429000003554,654.1107260000008,None,654.1107260000008,655.4426292999997,0.10813469999993686,None,,,,,,,,,4,001,2019_Dec_20_1724,untitled,3.1.0,60.16047204291224,
_,_5,M,180,_,_,__5M180__,N,0,231,231,44,,,0.801,656.2295632000005,656.5247333000007,656.5415150999997,656.8252936999997,656.841819700001,None,up,1.583853399999498,656.841819700001,None,656.841819700001,657.6239681000006,0.10691609999958018,None,,,,,,,,,4,001,2019_Dec_20_1724,untitled,3.1.0,60.16047204291224,
_,_2,N,315,_,_,__2N315__,N,0,232,232,79,,,0.886,658.5394183999997,658.8395313000001,658.8562407000009,659.1395283000002,659.1565353999995,None,down,1.7319389000003866,659.1565353999995,None,659.1565353999995,660.038153200001,0.10186650000105146,None,,,,,,,,,4,001,2019_Dec_20_1724,untitled,3.1.0,60.16047204291224,
197,G,N,180,R,N,197GN180RN,HRN,0,233,233,228,,,1.2770000000000001,660.9777909000004,661.3040191,661.3205335000002,661.6042259999995,661.6208313999996,None,up,1.9493894999995973,661.6208313999996,None,661.6208313999996,662.8866878000008,0.08097860000088986,None,,,,,,,,,4,001,2019_Dec_20_1724,untitled,3.1.0,60.16047204291224,
235,G,M,90,L,N,235GM090LN,HLN,0,234,234,138,,,0.8,663.6747797999997,663.9852778000004,664.0017707999996,664.2851375999999,664.3019499000002,None,down,1.7997524000002159,664.3019499000002,None,664.3019499000002,665.0837926000004,0.09360480000032112,None,,,,,,,,,4,001,2019_Dec_20_1724,untitled,3.1.0,60.16047204291224,
162,F,N,45,L,N,162FN045LN,HLN,0,235,235,217,,,1.206,666.2197174000012,666.5162,666.5325431000001,666.8171079000003,666.8331630000012,None,up,1.868572100000165,666.8331630000012,None,666.8331630000012,668.0321545000006,0.10637160000078438,None,,,,,,,,,4,001,2019_Dec_20_1724,untitled,3.1.0,60.16047204291224,
139,F,M,90,R,N,139FM090RN,HRN,0,236,236,114,,,0.9570000000000001,668.8266574999998,669.1153376000002,669.1153376000002,669.4143987000007,669.4307372000003,None,down,1.6670178999993368,669.4307372000003,None,669.4307372000003,670.3798248000003,0.11247130000083416,None,,,,,,,,,4,001,2019_Dec_20_1724,untitled,3.1.0,60.16047204291224,
199,G,N,270,R,N,199GN270RN,HRN,0,237,237,230,,,1.036,671.2116000000005,671.5116806999995,671.5285389000001,671.811285400001,671.8289019000003,None,up,2.0167353999986517,671.8289019000003,None,671.8289019000003,672.8445162999997,0.10020429999894986,None,,,,,,,,,4,001,2019_Dec_20_1724,untitled,3.1.0,60.16047204291224,
207,G,M,270,R,N,207GM270RN,HRN,0,238,238,134,,,1.109,673.9601425000001,674.2597619999997,674.2756463000005,674.5592142999994,674.5759015000003,None,down,2.2497435999994195,674.5759015000003,None,674.5759015000003,675.6752144000002,0.10238169999865931,None,,,,,,,,,4,001,2019_Dec_20_1724,untitled,3.1.0,60.16047204291224,
292,_2,N,135,L,N,292_2N135LN,HLN,0,239,239,251,,,0.747,676.9156366000007,677.2403797999996,677.2580751999994,677.5401846000004,677.5569522000005,None,down,2.3338526999996247,677.5569522000005,None,677.5569522000005,678.2897688000012,0.08136299999932817,None,,,,,,,,,4,001,2019_Dec_20_1724,untitled,3.1.0,60.16047204291224,
_,_4,M,90,_,_,__4M090__,N,0,240,240,34,,,1.342,680.0215635000004,680.3208651000004,680.3208651000004,680.604051100001,680.6211361000005,None,down,2.2160894999997254,680.6211361000005,None,680.6211361000005,681.9531504999995,0.11859910000021046,None,,,,,,,,,4,001,2019_Dec_20_1724,untitled,3.1.0,60.16047204291224,
_,F,N,315,_,_,_FN315__,N,0,241,241,55,,,1.124,682.9569279000007,683.2516864000008,683.2681348000006,683.5516673000002,683.5686034000009,None,up,1.8329960000010033,683.5686034000009,None,683.5686034000009,684.6842006999996,0.10797869999987597,None,,,,,,,,,4,001,2019_Dec_20_1724,untitled,3.1.0,60.16047204291224,
_,R,N,45,_,_,_RN045__,N,0,242,242,65,,,0.716,685.5234452000004,685.8161985999996,685.8328288000012,686.1159497000008,686.1328410999995,None,up,1.4333989000006113,686.1328410999995,None,686.1328410999995,686.8520220999999,0.10947139999916544,None,,,,,,,,,4,001,2019_Dec_20_1724,untitled,3.1.0,60.16047204291224,
452,_5,N,135,R,N,452_5N135RN,HRN,0,243,243,275,,,1.232,687.6753595000009,687.9806745999995,687.9971882000009,688.2807544999996,688.2976183999999,None,up,2.066442900000766,688.2976183999999,None,688.2976183999999,689.5132272999999,0.09738180000022112,None,,,,,,,,,4,001,2019_Dec_20_1724,untitled,3.1.0,60.16047204291224,
397,_4,M,180,R,N,397_4M180RN,HRN,0,244,244,164,,,1.245,690.4715424000005,690.7780750000002,690.7949652999996,691.0779891000002,691.0947307999995,None,down,2.469008099998973,691.0947307999995,None,691.0947307999995,692.3275623999998,0.09669319999920845,None,,,,,,,,,4,001,2019_Dec_20_1724,untitled,3.1.0,60.16047204291224,
260,_2,N,135,R,N,260_2N135RN,HRN,0,245,245,243,,,0.9560000000000001,693.6777359000007,693.9756288999997,693.9926162000011,694.2760221999997,694.2924638000004,None,up,1.750485499998831,694.2924638000004,None,694.2924638000004,695.240926800001,0.10181729999931122,None,,,,,,,,,4,001,2019_Dec_20_1724,untitled,3.1.0,60.16047204291224,
_,G,M,90,_,_,_GM090__,N,0,246,246,10,,,0.978,696.1657056000004,696.4566426000001,696.4736446999996,696.7570974999999,696.7737558000008,None,down,1.7332762999994884,696.7737558000008,None,696.7737558000008,697.7394017000006,0.10918610000044282,None,,,,,,,,,4,001,2019_Dec_20_1724,untitled,3.1.0,60.16047204291224,
258,_2,N,45,R,N,258_2N045RN,HRN,0,247,247,241,,,0.8130000000000001,698.6058271000002,698.9210404999994,698.9378975,699.2215644999997,699.2382302999995,None,up,1.4690120000013849,699.2382302999995,None,699.2382302999995,700.0374725000001,0.08687639999880048,None,,,,,,,,,4,001,2019_Dec_20_1724,untitled,3.1.0,60.16047204291224,
_,_5,N,225,_,_,__5N225__,N,0,248,248,93,,,1.022,700.8182684000003,701.1195699,701.1357535000006,701.4198647000012,701.4361626999998,None,up,1.9669828999994934,701.4361626999998,None,701.4361626999998,702.4515831000008,0.09924580000006245,None,,,,,,,,,4,001,2019_Dec_20_1724,untitled,3.1.0,60.16047204291224,
387,_4,N,90,R,N,387_4N090RN,HRN,0,249,249,258,,,1.357,703.5352641000009,703.8344656999998,703.8344656999998,704.1169977000009,704.1337709,None,up,2.0480170999999245,704.1337709,None,704.1337709,705.4819335000011,0.1205366000012873,None,,,,,,,,,4,001,2019_Dec_20_1724,untitled,3.1.0,60.16047204291224,
496,_5,M,315,L,N,496_5M315LN,HLN,0,250,250,191,,,0.991,706.2665011999998,706.5979738000005,706.6149540000006,706.8978296000005,706.9144219999998,None,down,2.3674902000002476,706.9144219999998,None,706.9144219999998,707.8806334000001,0.07570200000009208,None,,,,,,,,,4,001,2019_Dec_20_1724,untitled,3.1.0,60.16047204291224,
_,_4,M,270,_,_,__4M270__,N,0,251,251,38,,,1.111,709.3975582000003,709.6951499999996,709.711454100001,709.9951493000008,710.0123194000007,None,down,1.9826950000006036,710.0123194000007,None,710.0123194000007,711.1108186000001,0.10495090000040364,None,,,,,,,,,4,001,2019_Dec_20_1724,untitled,3.1.0,60.16047204291224,
_,_5,N,0,_,_,__5N000__,N,0,252,252,88,,,1.075,712.1191803000002,712.4096781000007,712.4096781000007,712.7096113999996,712.7265014000004,None,up,1.766314099999363,712.7265014000004,None,712.7265014000004,713.7924242999998,0.11285059999863734,None,,,,,,,,,4,001,2019_Dec_20_1724,untitled,3.1.0,60.16047204291224,
458,_5,M,45,R,N,458_5M045RN,HRN,0,253,253,177,,,1.307,714.6119337,714.9073905999994,714.9241180999998,715.2088764,715.2244360000004,None,down,2.4335234000009223,715.2244360000004,None,715.2244360000004,716.5229524999995,0.10740640000040003,None,,,,,,,,,4,001,2019_Dec_20_1724,untitled,3.1.0,60.16047204291224,
459,_5,M,90,R,N,459_5M090RN,HRN,0,254,254,178,,,1.249,717.7941239000011,718.0878121999995,718.0878121999995,718.3714994000002,718.3880353000004,None,down,2.1154791000008117,718.3880353000004,None,718.3880353000004,719.620678700001,0.12428779999936523,None,,,,,,,,,4,001,2019_Dec_20_1724,untitled,3.1.0,60.16047204291224,
_,R,N,315,_,_,_RN315__,N,0,255,255,71,,,1.006,720.5994596,720.9186404000011,720.9353110000011,721.2189209999997,721.2355927000008,None,up,1.766434199998912,721.2355927000008,None,721.2355927000008,722.2179049999995,0.08538960000078077,None,,,,,,,,,4,001,2019_Dec_20_1724,untitled,3.1.0,60.16047204291224,
140,F,M,135,R,N,140FM135RN,HRN,0,256,256,115,,,1.2610000000000001,723.1325644000008,723.4334220000001,723.4334220000001,723.7164678999998,723.7329769000007,None,down,2.067293800000698,723.7329769000007,None,723.7329769000007,724.9819253999995,0.1193345000010595,None,,,,,,,,,4,001,2019_Dec_20_1724,untitled,3.1.0,60.16047204291224,
226,G,N,45,L,N,226GN045LN,HLN,0,257,257,233,,,1.055,725.8987589000008,726.2143512000002,726.230652100001,726.5142878000006,726.5314169000012,None,up,1.950453400000697,726.5314169000012,None,726.5314169000012,727.5634401000007,0.08844350000072154,None,,,,,,,,,4,001,2019_Dec_20_1724,untitled,3.1.0,60.16047204291224,
_,R,M,315,_,_,_RM315__,N,0,258,258,23,,,1.174,728.5910294000005,728.895158700001,728.9120292000007,729.195142300001,729.2119024000003,None,down,1.8523294999995414,729.2119024000003,None,729.2119024000003,730.3775844000011,0.0985538999993878,None,,,,,,,,,4,001,2019_Dec_20_1724,untitled,3.1.0,60.16047204291224,
486,_5,N,225,L,N,486_5N225LN,HLN,0,259,259,285,,,0.7010000000000001,731.1745713,731.4760091999997,731.4925856999998,731.7766785000003,731.7931356999998,None,up,1.5666720000008354,731.7931356999998,None,731.7931356999998,732.476115200001,0.09854759999871021,None,,,,,,,,,4,001,2019_Dec_20_1724,untitled,3.1.0,60.16047204291224,
175,F,M,270,L,N,175FM270LN,HLN,0,260,260,126,,,0.917,733.4605752999996,733.7743812000008,733.7910606999994,734.0748060999995,734.0912931000003,None,down,1.6981618000008893,734.0912931000003,None,734.0912931000003,734.9905522999998,0.09148810000078811,None,,,,,,,,,4,001,2019_Dec_20_1724,untitled,3.1.0,60.16047204291224,
227,G,N,90,L,N,227GN090LN,HLN,0,261,261,234,,,0.794,735.8725242,736.2053962000009,736.2220085999998,736.5052974999999,736.521974700001,None,up,1.7185117000008177,736.521974700001,None,736.521974700001,737.3047301999995,0.07504410000001371,None,,,,,,,,,4,001,2019_Dec_20_1724,untitled,3.1.0,60.16047204291224,
170,F,M,45,L,N,170FM045LN,HLN,0,262,262,121,,,0.748,738.3480849999996,738.6531923000002,738.6697197000012,738.9534154000012,738.9702266000004,None,down,1.6000671000001603,738.9702266000004,None,738.9702266000004,739.7031884000007,0.09643289999985427,None,,,,,,,,,4,001,2019_Dec_20_1724,untitled,3.1.0,60.16047204291224,
231,G,N,270,L,N,231GN270LN,HLN,0,263,263,238,,,1.289,740.6920917999996,740.9852437999998,741.0011298999998,741.2844533999996,741.3013752999996,None,up,1.9010330000000977,741.3013752999996,None,741.3013752999996,742.5850339999997,0.10852070000146341,None,,,,,,,,,4,001,2019_Dec_20_1724,untitled,3.1.0,60.16047204291224,
419,_4,N,90,L,N,419_4N090LN,HLN,0,264,264,266,,,0.812,743.3191258000006,743.6157135000012,743.6325424000006,743.9162763000004,743.9325819000005,None,up,1.4324066000008315,743.9325819000005,None,743.9325819000005,744.7313033999999,0.10483079999903566,None,,,,,,,,,4,001,2019_Dec_20_1724,untitled,3.1.0,60.16047204291224,
132,F,N,135,R,N,132FN135RN,HRN,0,265,265,211,,,0.966,745.4638257000006,745.7805898999995,745.7975848000005,746.0814100999996,746.0977870000006,None,up,2.032457700001032,746.0977870000006,None,746.0977870000006,747.0465616000001,0.08903930000087712,None,,,,,,,,,4,001,2019_Dec_20_1724,untitled,3.1.0,60.16047204291224,
304,_2,M,315,L,N,304_2M315LN,HLN,0,266,266,159,,,1.176,748.2421128000005,748.5444561000004,748.5612325000002,748.844874800001,748.8632569000001,None,down,1.9157591999992292,748.8632569000001,None,748.8632569000001,750.0275292000006,0.09825819999969099,None,,,,,,,,,4,001,2019_Dec_20_1724,untitled,3.1.0,60.16047204291224,
016,R,M,315,R,N,016RM315RN,HRN,0,267,267,103,,,0.973,750.9288144000002,751.2253645000001,751.2253645000001,751.4923440000002,751.5089220999998,None,down,1.7500172999989445,751.5089220999998,None,751.5089220999998,752.4746863,0.13937590000023192,None,,,,,,,,,4,001,2019_Dec_20_1724,untitled,3.1.0,60.16047204291224,
_,F,M,0,_,_,_FM000__,N,0,268,268,0,,,1.309,753.3700124999996,753.6594415,753.6905165000007,753.9738386000008,753.9910004000012,None,down,2.314122800000405,753.9910004000012,None,753.9910004000012,755.2893327000002,0.10007490000134567,None,,,,,,,,,4,001,2019_Dec_20_1724,untitled,3.1.0,60.16047204291224,
138,F,M,45,R,N,138FM045RN,HRN,0,269,269,113,,,0.918,756.3841133999995,756.7212821000012,756.7374140000011,757.022445300001,757.0380122999995,None,down,1.9333600999998453,757.0380122999995,None,757.0380122999995,757.9372702000001,0.07162549999884504,None,,,,,,,,,4,001,2019_Dec_20_1724,untitled,3.1.0,60.16047204291224,
033,R,N,0,L,N,033RN000LN,HLN,0,270,270,200,,,1.224,759.0983262000009,759.3873719000003,759.3873719000003,759.6852096000002,759.7022366000001,None,up,1.849467399999412,759.7022366000001,None,759.7022366000001,760.9181127000011,0.115574800000104,None,,,,,,,,,4,001,2019_Dec_20_1724,untitled,3.1.0,60.16047204291224,
_,F,M,180,_,_,_FM180__,N,0,271,271,4,,,1.176,761.6773297,761.9666709000012,761.9666709000012,762.2669122000007,762.2833078000003,None,down,1.900377699999808,762.2833078000003,None,762.2833078000003,763.4490220999996,0.11381099999925937,None,,,,,,,,,4,001,2019_Dec_20_1724,untitled,3.1.0,60.16047204291224,
135,F,N,270,R,N,135FN270RN,HRN,0,272,272,214,,,1.297,764.2979983999994,764.5976676000009,764.6142443000008,764.8975621000009,764.9141619000002,None,up,1.9003979999997682,764.9141619000002,None,764.9141619000002,766.1955964999997,0.10099770000124408,None,,,,,,,,,4,001,2019_Dec_20_1724,untitled,3.1.0,60.16047204291224,
193,G,N,0,R,N,193GN000RN,HRN,0,273,273,224,,,1.01,766.9111141000012,767.2284982000001,767.2449969999998,767.5280772000006,767.5448080999995,None,up,1.8183723999991344,767.5448080999995,None,767.5448080999995,768.5440037999997,0.08486480000101437,None,,,,,,,,,4,001,2019_Dec_20_1724,untitled,3.1.0,60.16047204291224,
396,_4,M,135,R,N,396_4M135RN,HRN,0,274,274,163,,,0.998,769.4795156,769.7759120999999,769.7932204999997,770.0787708999997,770.0938557999998,None,up,1.6819107999999687,770.0938557999998,None,770.0938557999998,771.0755084000011,0.10453649999908521,None,,,,,,,,,4,001,2019_Dec_20_1724,untitled,3.1.0,60.16047204291224,
_,_5,N,135,_,_,__5N135__,N,0,275,275,91,,,0.916,771.8557632000011,772.1908368000004,772.2078113999996,772.4920994000004,772.5080775999995,None,up,1.6338840999997046,772.5080775999995,None,772.5080775999995,773.4068851000011,0.07212999999865133,None,,,,,,,,,4,001,2019_Dec_20_1724,untitled,3.1.0,60.16047204291224,
_,F,M,315,_,_,_FM315__,N,0,276,276,7,,,0.919,774.2397923000008,774.5554957000004,774.571629,774.8550137000002,774.8712589999996,None,down,1.616916900000433,774.8712589999996,None,774.8712589999996,775.7713839000007,0.08818759999849135,None,,,,,,,,,4,001,2019_Dec_20_1724,untitled,3.1.0,60.16047204291224,
262,_2,N,225,R,N,262_2N225RN,HRN,0,277,277,245,,,1.333,776.5969012999994,776.903305400001,776.9198570999997,777.2038313000012,777.2223185000003,None,up,2.097596199999316,777.2223185000003,None,777.2223185000003,778.5352622999999,0.09842579999894951,None,,,,,,,,,4,001,2019_Dec_20_1724,untitled,3.1.0,60.16047204291224,
395,_4,M,90,R,N,395_4M090RN,HRN,0,278,278,162,,,0.764,779.4399799000003,779.7341118000004,779.750696000001,780.0350775999996,780.0513632000002,None,up,1.5987368000005517,780.0513632000002,None,780.0513632000002,780.8007488000003,0.1088553999998112,None,,,,,,,,,4,001,2019_Dec_20_1724,untitled,3.1.0,60.16047204291224,
036,R,N,135,L,N,036RN135LN,HLN,0,279,279,203,,,1.3900000000000001,781.7321068000001,782.0652819999996,782.0829503000004,782.3659404999999,782.3825990999994,None,up,2.0329483000004984,782.3825990999994,None,782.3825990999994,783.7467393000006,0.07388320000063686,None,,,,,,,,,4,001,2019_Dec_20_1724,untitled,3.1.0,60.16047204291224,
422,_4,N,225,L,N,422_4N225LN,HLN,0,280,280,269,,,1.374,784.5374016000005,784.8298558000006,784.8468111000002,785.1308979000005,785.1461417999999,None,up,2.0824668999994174,785.1461417999999,None,785.1461417999999,786.5113321999997,0.10929070000020147,None,,,,,,,,,4,001,2019_Dec_20_1724,untitled,3.1.0,60.16047204291224,
462,_5,M,225,R,N,462_5M225RN,HRN,0,281,281,181,,,0.9500000000000001,787.3254261000002,787.6438787999996,787.6609227000008,787.9442563000011,787.9609596999999,None,down,1.6661958000004233,787.9609596999999,None,787.9609596999999,788.8938921999998,0.08728249999876425,None,,,,,,,,,4,001,2019_Dec_20_1724,untitled,3.1.0,60.16047204291224,
_,G,N,90,_,_,_GN090__,N,0,282,282,58,,,1.082,789.7224380000007,790.0419481999998,790.0589283000008,790.3420492000005,790.3589302,None,up,1.6832472999994934,790.3589302,None,790.3589302,791.4245804000002,0.08374890000050073,None,,,,,,,,,4,001,2019_Dec_20_1724,untitled,3.1.0,60.16047204291224,
201,G,M,0,R,N,201GM000RN,HRN,0,283,283,128,,,1.299,792.1449692000006,792.4567361000009,792.4728436999994,792.7566926,792.773406100001,None,up,1.915201400001024,792.773406100001,None,792.773406100001,794.0561134,0.09101609999925131,None,,,,,,,,,4,001,2019_Dec_20_1724,untitled,3.1.0,60.16047204291224,
491,_5,M,90,L,N,491_5M090LN,HLN,0,284,284,186,,,0.721,794.8020924000011,795.1042391999999,795.1205202000001,795.4050461000006,795.4211174000011,None,down,1.7837027999994461,795.4211174000011,None,795.4211174000011,796.1207224999998,0.10388280000006489,None,,,,,,,,,4,001,2019_Dec_20_1724,untitled,3.1.0,60.16047204291224,
461,_5,M,180,R,N,461_5M180RN,HRN,0,285,285,180,,,0.714,797.2809932,797.6184641,797.6351739000002,797.9181210999996,797.9350066000006,None,up,1.6358775000007881,797.9350066000006,None,797.9350066000006,798.6351783999999,0.06918940000105067,None,,,,,,,,,4,001,2019_Dec_20_1724,untitled,3.1.0,60.16047204291224,
487,_5,N,270,L,N,487_5N270LN,HLN,0,286,286,286,,,0.935,799.6897867999996,799.9832583000007,799.9999740000003,800.2824414000006,800.2993803999998,None,up,1.649481200000082,800.2993803999998,None,800.2993803999998,801.2161890999996,0.10690079999949376,None,,,,,,,,,4,001,2019_Dec_20_1724,untitled,3.1.0,60.16047204291224,
392,_4,N,315,R,N,392_4N315RN,HRN,0,287,287,263,,,0.804,802.0370820000007,802.3644132000009,802.3818470000006,802.6649384000011,802.6812568999994,None,up,1.7323280999989947,802.6812568999994,None,802.6812568999994,803.4639076000003,0.07986820000041917,None,,,,,,,,,4,001,2019_Dec_20_1724,untitled,3.1.0,60.16047204291224,
,,,,,,,,,,,,,,,,,,,,,,,,,,,,,804.4294236000005,None,812.6740718000001,None,816.4196050999999,None,820.8157544999995,None,,,,,,,
