Number,Letter,type,Orientation,human,face_type,image,picture,trials.thisRepN,trials.thisTrialN,trials.thisN,trials.thisIndex,text.started,text.stopped,stimulus_duration,CROSS.started,CROSS.stopped,BLANK.started,BLANK.stopped,TEST.started,TEST.stopped,key_JUDGE.keys,key_JUDGE.rt,key_JUDGE.started,key_JUDGE.stopped,image_2.started,image_2.stopped,ISI.started,ISI.stopped,q1.started,q1.stopped,q2.started,q2.stopped,q3.started,q3.stopped,text_2.started,text_2.stopped,participant,session,date,expName,psychopyVersion,frameRate,
202,G,M,45,R,N,202GM045RN,HRN,0,0,0,129,42.19205749989487,None,1.333,49.697937099961564,49.697937099961564,49.697937099961564,49.850438100053,49.850438100053,None,down,2.605271600186825,49.850438100053,None,49.850438100053,51.034118299838156,0.5470111998729408,None,,,,,,,,,53,001,2020_Jan_10_1604,untitled,3.1.0,60.245064875367554,
208,G,M,315,R,N,208GM315RN,HRN,0,1,1,135,,,0.8300000000000001,52.678708399878815,52.966299399966374,52.966299399966374,53.18256079987623,53.20001519983634,None,down,1.9678334000054747,53.20001519983634,None,53.20001519983634,54.018989299889654,0.20155889983288944,None,,,,,,,,,53,001,2020_Jan_10_1604,untitled,3.1.0,60.245064875367554,
130,F,N,45,R,N,130FN045RN,HRN,0,2,2,209,,,0.8310000000000001,55.569126799935475,55.864154699957,55.864154699957,55.898833099985495,55.91528439987451,None,up,3.102366000181064,55.91528439987451,None,55.91528439987451,56.72975429985672,0.37328139995224774,None,,,,,,,,,53,001,2020_Jan_10_1604,untitled,3.1.0,60.245064875367554,
232,G,N,315,L,N,232GN315LN,HLN,0,3,3,239,,,0.7020000000000001,59.399782199878246,59.6956161998678,59.6956161998678,59.72668519988656,59.74359770002775,None,up,1.9166477001272142,59.74359770002775,None,59.74359770002775,60.442589399870485,0.3703175000846386,None,,,,,,,,,53,001,2020_Jan_10_1604,untitled,3.1.0,60.245064875367554,
_,_4,N,90,_,_,__4N090__,N,0,4,4,82,,,1.395,62.010912499856204,62.30777359986678,62.30777359986678,62.374487299937755,62.391322599956766,None,up,2.931568899890408,62.391322599956766,None,62.391322599956766,63.77325079985894,0.3367934999987483,None,,,,,,,,,53,001,2020_Jan_10_1604,untitled,3.1.0,60.245064875367554,
198,G,N,225,R,N,198GN225RN,HRN,0,5,5,229,,,1.231,65.56740429997444,65.8549772000406,65.8549772000406,66.03841549996287,66.05606079986319,None,up,2.782437300076708,66.05606079986319,None,66.05606079986319,67.27096399990842,0.22662169998511672,None,,,,,,,,,53,001,2020_Jan_10_1604,untitled,3.1.0,60.245064875367554,
267,_2,M,90,R,N,267_2M090RN,HRN,0,6,6,146,,,0.937,69.05872319987975,69.35149899986573,69.35149899986573,69.55191699997522,69.57018439983949,None,down,2.8992651000153273,69.57018439983949,None,69.57018439983949,70.48652659985237,0.2032211001496762,None,,,,,,,,,53,001,2020_Jan_10_1604,untitled,3.1.0,60.245064875367554,
488,_5,N,315,L,N,488_5N315LN,HLN,0,7,7,287,,,0.901,72.77658149995841,73.06693189986981,73.06693189986981,73.18152999994345,73.19830789999105,None,up,1.9021236000116915,73.19830789999105,None,73.19830789999105,74.08065099990927,0.29448310006409883,None,,,,,,,,,53,001,2020_Jan_10_1604,untitled,3.1.0,60.245064875367554,
_,_2,M,90,_,_,__2M090__,N,0,8,8,26,,,1.157,75.46317210001871,75.76252089999616,75.76252089999616,75.81256969994865,75.83107399987057,None,down,2.1468815999105573,75.83107399987057,None,75.83107399987057,76.97822499996983,0.34913209988735616,None,,,,,,,,,53,001,2020_Jan_10_1604,untitled,3.1.0,60.245064875367554,
271,_2,M,270,R,N,271_2M270RN,HRN,0,9,9,150,,,1.2570000000000001,78.31849649990909,78.61088169994764,78.61088169994764,78.6969852000475,78.7121464998927,None,down,3.167143699945882,78.7121464998927,None,78.7121464998927,79.96008199988864,0.323387699900195,None,,,,,,,,,53,001,2020_Jan_10_1604,untitled,3.1.0,60.245064875367554,
_,R,N,0,_,_,_RN000__,N,0,10,10,64,,,0.9590000000000001,82.26783769996837,82.5566630999092,82.5566630999092,82.6067985999398,82.6067985999398,None,up,1.8987561999820173,82.6067985999398,None,82.6067985999398,83.55583289987408,0.3730591998901218,None,,,,,,,,,53,001,2020_Jan_10_1604,untitled,3.1.0,60.245064875367554,
_,_5,N,90,_,_,__5N090__,N,0,11,11,90,,,1.198,84.82287759985775,85.12112699984573,85.12112699984573,85.22302499995567,85.2401489999611,None,up,2.646441400051117,85.2401489999611,None,85.2401489999611,86.41059580002911,0.3017477998510003,None,,,,,,,,,53,001,2020_Jan_10_1604,untitled,3.1.0,60.245064875367554,
452,_5,N,135,R,N,452_5N135RN,HRN,0,12,12,275,,,1.3920000000000001,88.19540189998224,88.48496419982985,88.48496419982985,88.60141250002198,88.618249299936,None,up,2.603410799987614,88.618249299936,None,88.618249299936,90.00151839992031,0.2915455000475049,None,,,,,,,,,53,001,2020_Jan_10_1604,untitled,3.1.0,60.245064875367554,
_,_4,N,180,_,_,__4N180__,N,0,13,13,84,,,0.8,91.54436329985037,91.83200909988955,91.83200909988955,91.94943020003848,91.94943020003848,None,up,1.9487641998566687,91.94943020003848,None,91.94943020003848,92.74792720004916,0.3052735000383109,None,,,,,,,,,53,001,2020_Jan_10_1604,untitled,3.1.0,60.245064875367554,
_,G,M,0,_,_,_GM000__,N,0,14,14,8,,,1.3,94.2137104999274,94.51284280000255,94.51284280000255,94.61259040003642,94.62934429990128,None,down,2.7682729999069124,94.62934429990128,None,94.62934429990128,95.91392369987443,0.3002404000144452,None,,,,,,,,,53,001,2020_Jan_10_1604,untitled,3.1.0,60.245064875367554,
487,_5,N,270,L,N,487_5N270LN,HLN,0,15,15,286,,,1.309,97.64253269997425,97.94437030004337,97.94437030004337,98.10964719997719,98.12744889990427,None,up,2.5516559001989663,98.12744889990427,None,98.12744889990427,99.42529239994474,0.22976600006222725,None,,,,,,,,,53,001,2020_Jan_10_1604,untitled,3.1.0,60.245064875367554,
238,G,M,225,L,N,238GM225LN,HLN,0,16,16,141,,,1.073,101.05447149998508,101.34310479997657,101.34310479997657,101.39183859992772,101.41100870002992,None,down,3.1630511002149433,101.41100870002992,None,101.41100870002992,102.47248349990696,0.35967559996061027,None,,,,,,,,,53,001,2020_Jan_10_1604,untitled,3.1.0,60.245064875367554,
301,_2,M,180,L,N,301_2M180LN,HLN,0,17,17,156,,,1.1340000000000001,104.79378249985166,105.08695270004682,105.08695270004682,105.2879284999799,105.3040302998852,None,down,3.103154100012034,105.3040302998852,None,105.3040302998852,106.43559739994816,0.20521889999508858,None,,,,,,,,,53,001,2020_Jan_10_1604,untitled,3.1.0,60.245064875367554,
290,_2,N,45,L,N,290_2N045LN,HLN,0,18,18,249,,,1.1520000000000001,108.65272510005161,108.95127109996974,108.95127109996974,109.11793419998139,109.1353964000009,None,up,2.4159524000715464,109.1353964000009,None,109.1353964000009,110.28437420004047,0.23342389985919,None,,,,,,,,,53,001,2020_Jan_10_1604,untitled,3.1.0,60.245064875367554,
_,_2,M,180,_,_,__2M180__,N,0,19,19,28,,,1.026,111.85794509993866,112.14794709999114,112.14794709999114,112.26570939994417,112.28390779998153,None,down,2.632143600145355,112.28390779998153,None,112.28390779998153,113.29946270002984,0.29252639994956553,None,,,,,,,,,53,001,2020_Jan_10_1604,untitled,3.1.0,60.245064875367554,
417,_4,N,0,L,N,417_4N000LN,HLN,0,20,20,264,,,0.861,115.10800089989789,115.41124349995516,115.41124349995516,115.62767509999685,115.64523879997432,None,up,2.21721879998222,115.64523879997432,None,115.64523879997432,116.49505309993401,0.1801253999583423,None,,,,,,,,,53,001,2020_Jan_10_1604,untitled,3.1.0,60.245064875367554,
_,_4,M,45,_,_,__4M045__,N,0,21,21,33,,,1.366,118.14491499983706,118.44244819995947,118.44244819995947,118.57506079995073,118.59190099989064,None,down,2.3997452000621706,118.59190099989064,None,118.59190099989064,119.94072129996493,0.2649293001741171,None,,,,,,,,,53,001,2020_Jan_10_1604,untitled,3.1.0,60.245064875367554,
268,_2,M,135,R,N,268_2M135RN,HRN,0,22,22,147,,,1.022,121.21360439993441,121.50605059997179,121.50605059997179,121.70601650001481,121.72284329985268,None,up,2.632387800142169,121.72284329985268,None,121.72284329985268,122.73827950004488,0.20574590004980564,None,,,,,,,,,53,001,2020_Jan_10_1604,untitled,3.1.0,60.245064875367554,
_,_2,M,135,_,_,__2M135__,N,0,23,23,27,,,0.715,124.57305129989982,124.86975650000386,124.86975650000386,125.07308869995177,125.08920339983888,None,down,1.932647299952805,125.08920339983888,None,125.08920339983888,125.78852109983563,0.2005503000691533,None,,,,,,,,,53,001,2020_Jan_10_1604,untitled,3.1.0,60.245064875367554,
230,G,N,225,L,N,230GN225LN,HLN,0,24,24,237,,,1.05,127.29142999998294,127.58410229999572,127.58410229999572,127.73469630000181,127.7527218000032,None,up,2.5852695000357926,127.7527218000032,None,127.7527218000032,128.78524490003474,0.2552353001665324,None,,,,,,,,,53,001,2020_Jan_10_1604,untitled,3.1.0,60.245064875367554,
_,F,N,225,_,_,_FN225__,N,0,25,25,53,,,1.1360000000000001,130.67052499996498,130.96450660005212,130.96450660005212,131.04768590000458,131.06490130000748,None,up,3.1490501000080258,131.06490130000748,None,131.06490130000748,132.19833509996533,0.31916470010764897,None,,,,,,,,,53,001,2020_Jan_10_1604,untitled,3.1.0,60.245064875367554,
_,_5,N,315,_,_,__5N315__,N,0,26,26,95,,,0.707,134.46789640001953,134.76129109994508,134.76129109994508,134.92912280000746,134.9446169999428,None,up,2.3189741000533104,134.9446169999428,None,134.9446169999428,135.64382919995114,0.23626410006545484,None,,,,,,,,,53,001,2020_Jan_10_1604,untitled,3.1.0,60.245064875367554,
395,_4,M,90,R,N,395_4M090RN,HRN,0,27,27,162,,,1.3780000000000001,137.63768949988298,137.9266768998932,137.9266768998932,137.99180329986848,137.99180329986848,None,down,2.450239900033921,137.99180329986848,None,137.99180329986848,139.3572155998554,0.3563907998614013,None,,,,,,,,,53,001,2020_Jan_10_1604,untitled,3.1.0,60.245064875367554,
044,R,M,135,L,N,044RM135LN,HLN,0,28,28,107,,,0.981,140.69716529990546,140.98962090001442,140.98962090001442,141.15583479986526,141.17279209988192,None,down,3.034358700038865,141.17279209988192,None,141.17279209988192,142.13822159986012,0.23407790018245578,None,,,,,,,,,53,001,2020_Jan_10_1604,untitled,3.1.0,60.245064875367554,
_,R,N,270,_,_,_RN270__,N,0,29,29,70,,,1.301,144.52711099991575,144.81965419999324,144.81965419999324,144.9188244000543,144.93572219996713,None,up,2.1517618999350816,144.93572219996713,None,144.93572219996713,146.23726839991286,0.3055426999926567,None,,,,,,,,,53,001,2020_Jan_10_1604,untitled,3.1.0,60.245064875367554,
132,F,N,135,R,N,132FN135RN,HRN,0,30,30,211,,,1.324,147.3937360998243,147.6832723999396,147.6832723999396,147.8007300000172,147.82000950002111,None,down,2.666541799902916,147.82000950002111,None,147.82000950002111,149.1350821000524,0.2913582001347095,None,,,,,,,,,53,001,2020_Jan_10_1604,untitled,3.1.0,60.245064875367554,
014,R,M,225,R,N,014RM225RN,HRN,0,31,31,101,,,1.065,150.71184649993666,150.99737280001864,150.99737280001864,151.19682749989443,151.21352969994769,None,down,2.482548699947074,151.21352969994769,None,151.21352969994769,152.26265129982494,0.20796489994972944,None,,,,,,,,,53,001,2020_Jan_10_1604,untitled,3.1.0,60.245064875367554,
_,_2,N,135,_,_,__2N135__,N,0,32,32,75,,,0.783,154.0099740999285,154.31085659982637,154.31085659982637,154.4143697998952,154.42915349989198,None,up,3.033686599927023,154.42915349989198,None,154.42915349989198,155.1936594999861,0.2989894999191165,None,,,,,,,,,53,001,2020_Jan_10_1604,untitled,3.1.0,60.245064875367554,
194,G,N,45,R,N,194GN045RN,HRN,0,33,33,225,,,0.985,157.7962400999386,158.0909970998764,158.0909970998764,158.19349219999276,158.19349219999276,None,up,2.2987428000196815,158.19349219999276,None,158.19349219999276,159.1738412999548,0.312607100000605,None,,,,,,,,,53,001,2020_Jan_10_1604,untitled,3.1.0,60.245064875367554,
432,_4,M,315,L,N,432_4M315LN,HLN,0,34,34,175,,,1.052,160.83502319990657,161.12128409999423,161.12128409999423,161.20462369988672,161.22300089988858,None,down,2.070938700111583,161.22300089988858,None,161.22300089988858,162.27057639998384,0.32487310003489256,None,,,,,,,,,53,001,2020_Jan_10_1604,untitled,3.1.0,60.245064875367554,
_,_2,N,315,_,_,__2N315__,N,0,35,35,79,,,0.86,163.61766049987637,163.9372093998827,163.9372093998827,164.0205685000401,164.03851039987057,None,down,2.2478352999314666,164.03851039987057,None,164.03851039987057,164.8858906000387,0.30051230010576546,None,,,,,,,,,53,001,2020_Jan_10_1604,untitled,3.1.0,60.245064875367554,
048,R,M,315,L,N,048RM315LN,HLN,0,36,36,111,,,1.164,166.54273830004968,166.83328859996982,166.83328859996982,166.99954569991678,167.01951949996874,None,down,2.6628833001013845,167.01951949996874,None,167.01951949996874,168.16523279994726,0.24355180002748966,None,,,,,,,,,53,001,2020_Jan_10_1604,untitled,3.1.0,60.245064875367554,
206,G,M,225,R,N,206GM225RN,HRN,0,37,37,133,,,0.8210000000000001,169.96160949999467,170.2481883999426,170.2481883999426,170.39657370001078,170.41318819997832,None,down,2.370847800048068,170.41318819997832,None,170.41318819997832,171.23035519989207,0.26255950005725026,None,,,,,,,,,53,001,2020_Jan_10_1604,untitled,3.1.0,60.245064875367554,
264,_2,N,315,R,N,264_2N315RN,HRN,0,38,38,247,,,0.844,173.00954540004022,173.30940699996427,173.30940699996427,173.493967999937,173.51106799999252,None,down,2.466566699789837,173.51106799999252,None,173.51106799999252,174.34364199987613,0.2119636998977512,None,,,,,,,,,53,001,2020_Jan_10_1604,untitled,3.1.0,60.245064875367554,
170,F,M,45,L,N,170FM045LN,HLN,0,39,39,121,,,1.071,176.3335716999136,176.62447339994833,176.62447339994833,176.69135589990765,176.70805749995634,None,down,2.2682765999343246,176.70805749995634,None,176.70805749995634,177.77336489991285,0.33826679992489517,None,,,,,,,,,53,001,2020_Jan_10_1604,untitled,3.1.0,60.245064875367554,
227,G,N,90,L,N,227GN090LN,HLN,0,40,40,234,,,0.802,179.41010460001417,179.41010460001417,179.41010460001417,179.71095660002902,179.71095660002902,None,up,2.0439102000091225,179.71095660002902,None,179.71095660002902,180.4923477000557,0.4119321000762284,None,,,,,,,,,53,001,2020_Jan_10_1604,untitled,3.1.0,60.245064875367554,
012,R,M,135,R,N,012RM135RN,HRN,0,41,41,99,,,0.892,181.95996090001427,182.2525869999081,182.2525869999081,182.46980570000596,182.48565309983678,None,down,2.9227708000689745,182.48565309983678,None,182.48565309983678,183.36786190001294,0.19077559979632497,None,,,,,,,,,53,001,2020_Jan_10_1604,untitled,3.1.0,60.245064875367554,
_,_2,M,45,_,_,__2M045__,N,0,42,42,25,,,1.246,185.68617299990728,185.98350659990683,185.98350659990683,186.1366175999865,186.1366175999865,None,down,2.8823568001389503,186.1366175999865,None,186.1366175999865,187.3820437998511,0.2584420000202954,None,,,,,,,,,53,001,2020_Jan_10_1604,untitled,3.1.0,60.245064875367554,
_,G,N,315,_,_,_GN315__,N,0,43,43,63,,,1.399,189.34735729987733,189.64706059987657,189.64706059987657,189.73017959995195,189.74784550000913,None,up,2.3000394999980927,189.74784550000913,None,189.74784550000913,191.12951590004377,0.3142729001119733,None,,,,,,,,,53,001,2020_Jan_10_1604,untitled,3.1.0,60.245064875367554,
207,G,M,270,R,N,207GM270RN,HRN,0,44,44,134,,,1.318,192.3871380998753,192.6769997999072,192.6769997999072,192.76013119984418,192.7768681999296,None,down,2.4035422999877483,192.7768681999296,None,192.7768681999296,194.07709869998507,0.32443989999592304,None,,,,,,,,,53,001,2020_Jan_10_1604,untitled,3.1.0,60.245064875367554,
171,F,M,90,L,N,171FM090LN,HLN,0,45,45,122,,,1.349,195.57008660002612,195.85916480002925,195.85916480002925,195.90890509984456,195.9284144998528,None,down,2.36190259992145,195.9284144998528,None,195.9284144998528,197.25772599992342,0.36132510006427765,None,,,,,,,,,53,001,2020_Jan_10_1604,untitled,3.1.0,60.245064875367554,
495,_5,M,270,L,N,495_5M270LN,HLN,0,46,46,190,,,1.254,198.52501169987954,198.82214469998144,198.82214469998144,199.00496609997936,199.02302920003422,None,down,2.4366973999422044,199.02302920003422,None,199.02302920003422,200.2571384999901,0.2177703999914229,None,,,,,,,,,53,001,2020_Jan_10_1604,untitled,3.1.0,60.245064875367554,
489,_5,M,0,L,N,489_5M000LN,HLN,0,47,47,184,,,0.803,201.670420399867,201.9703938998282,201.9703938998282,202.1690260998439,202.18577239988372,None,down,2.1495193999726325,202.18577239988372,None,202.18577239988372,202.96860289992765,0.19385619997046888,None,,,,,,,,,53,001,2020_Jan_10_1604,untitled,3.1.0,60.245064875367554,
_,_2,N,270,_,_,__2N270__,N,0,48,48,78,,,1.245,204.55390209984034,204.85025259992108,204.85025259992108,205.05066960002296,205.0694569000043,None,up,2.232797799864784,205.0694569000043,None,205.0694569000043,206.30103099998087,0.20590840000659227,None,,,,,,,,,53,001,2020_Jan_10_1604,untitled,3.1.0,60.245064875367554,
039,R,N,270,L,N,039RN270LN,HLN,0,49,49,206,,,0.9420000000000001,207.63133100001141,207.9303851998411,207.9303851998411,208.01391409989446,208.03094669990242,None,up,1.9863251999486238,208.03094669990242,None,208.03094669990242,208.96308370004408,0.31254350021481514,None,,,,,,,,,53,001,2020_Jan_10_1604,untitled,3.1.0,60.245064875367554,
464,_5,M,315,R,N,464_5M315RN,HRN,0,50,50,183,,,0.8250000000000001,210.47978759999387,210.47978759999387,210.47978759999387,210.7826845999807,210.7826845999807,None,down,2.4113666999619454,210.7826845999807,None,210.7826845999807,211.56190859992057,0.4431996999774128,None,,,,,,,,,53,001,2020_Jan_10_1604,untitled,3.1.0,60.245064875367554,
_,_4,M,270,_,_,__4M270__,N,0,51,51,38,,,1.118,213.42914379993454,213.72543130000122,213.72543130000122,213.9088397999294,213.92584749986418,None,down,3.285701499786228,213.92584749986418,None,213.92584749986418,215.02465409995057,0.2228453999850899,None,,,,,,,,,53,001,2020_Jan_10_1604,untitled,3.1.0,60.245064875367554,
143,F,M,270,R,N,143FM270RN,HRN,0,52,52,118,,,1.1380000000000001,217.51223160000518,217.80572059983388,217.80572059983388,217.92213979992084,217.94242139998823,None,down,2.231849400093779,217.94242139998823,None,217.94242139998823,219.07136609987356,0.28676980012096465,None,,,,,,,,,53,001,2020_Jan_10_1604,untitled,3.1.0,60.245064875367554,
262,_2,N,225,R,N,262_2N225RN,HRN,0,53,53,245,,,1.09,220.39305319986306,220.68663179990835,220.68663179990835,220.88632040005177,220.90431699994951,None,up,2.0663155999500304,220.90431699994951,None,220.90431699994951,221.9732520999387,0.2049660999327898,None,,,,,,,,,53,001,2020_Jan_10_1604,untitled,3.1.0,60.245064875367554,
006,R,N,225,R,N,006RN225RN,HRN,0,54,54,197,,,1.21,223.2998293999117,223.60057480004616,223.60057480004616,223.6836891998537,223.70106029999442,None,up,2.66694280016236,223.70106029999442,None,223.70106029999442,224.89949469990097,0.3134462998714298,None,,,,,,,,,53,001,2020_Jan_10_1604,untitled,3.1.0,60.245064875367554,
_,_5,N,0,_,_,__5N000__,N,0,55,55,88,,,0.98,226.72363030002452,227.0150959000457,227.0150959000457,227.08210700005293,227.10183529998176,None,up,1.7622246998362243,227.10183529998176,None,227.10183529998176,228.06355389999226,0.33369440003298223,None,,,,,,,,,53,001,2020_Jan_10_1604,untitled,3.1.0,60.245064875367554,
_,G,N,45,_,_,_GN045__,N,0,56,56,57,,,0.964,229.09056329983287,229.37962269992568,229.37962269992568,229.57804930000566,229.59513719985262,None,up,2.3832998001016676,229.59513719985262,None,229.59513719985262,230.54466430004686,0.21423800010234118,None,,,,,,,,,53,001,2020_Jan_10_1604,untitled,3.1.0,60.245064875367554,
043,R,M,90,L,N,043RM090LN,HLN,0,57,57,106,,,1.331,232.22827990003861,232.51100920001045,232.51100920001045,232.69380009989254,232.70966929988936,None,down,2.50084610003978,232.70966929988936,None,232.70966929988936,234.02521039987914,0.23061670013703406,None,,,,,,,,,53,001,2020_Jan_10_1604,untitled,3.1.0,60.245064875367554,
195,G,N,90,R,N,195GN090RN,HRN,0,58,58,226,,,0.763,235.498970199842,235.79066199995577,235.79066199995577,235.92455849982798,235.94093729997985,None,up,2.0502605999354273,235.94093729997985,None,235.94093729997985,236.69024110003375,0.27435379987582564,None,,,,,,,,,53,001,2020_Jan_10_1604,untitled,3.1.0,60.245064875367554,
_,_4,M,0,_,_,__4M000__,N,0,59,59,32,,,1.288,238.28916639997624,238.58833409985527,238.58833409985527,238.72225350001827,238.72225350001827,None,down,2.448591300053522,238.72225350001827,None,238.72225350001827,240.0029517998919,0.278183399932459,None,,,,,,,,,53,001,2020_Jan_10_1604,untitled,3.1.0,60.245064875367554,
294,_2,N,225,L,N,294_2N225LN,HLN,0,60,60,253,,,1.198,241.45565439993516,241.7552849999629,241.7552849999629,241.88462050003,241.90225319983438,None,up,2.232648399891332,241.90225319983438,None,241.90225319983438,243.08371699997224,0.27080059982836246,None,,,,,,,,,53,001,2020_Jan_10_1604,untitled,3.1.0,60.245064875367554,
385,_4,N,0,R,N,385_4N000RN,HRN,0,61,61,256,,,0.862,244.4436304999981,244.73181769996881,244.73181769996881,244.84842209983617,244.8656676998362,None,up,1.5826983998995274,244.8656676998362,None,244.8656676998362,245.714656899916,0.2930958999786526,None,,,,,,,,,53,001,2020_Jan_10_1604,untitled,3.1.0,60.245064875367554,
293,_2,N,180,L,N,293_2N180LN,HLN,0,62,62,252,,,0.935,246.65211079991423,246.94656589999795,246.94656589999795,247.16337059997022,247.18147720000707,None,up,2.813017199980095,247.18147720000707,None,247.18147720000707,248.0952848000452,0.19229239993728697,None,,,,,,,,,53,001,2020_Jan_10_1604,untitled,3.1.0,60.245064875367554,
010,R,M,45,R,N,010RM045RN,HRN,0,63,63,97,,,0.873,250.2144475998357,250.5100064999424,250.5100064999424,250.71040769992396,250.72695679985918,None,down,2.419935999903828,250.72695679985918,None,250.72695679985918,251.59214730001986,0.20455590006895363,None,,,,,,,,,53,001,2020_Jan_10_1604,untitled,3.1.0,60.245064875367554,
300,_2,M,135,L,N,300_2M135LN,HLN,0,64,64,155,,,1.301,253.40056640002877,253.69152949983254,253.69152949983254,253.87673030002043,253.87673030002043,None,down,3.3015829999931157,253.87673030002043,None,253.87673030002043,255.17232270003296,0.23830810002982616,None,,,,,,,,,53,001,2020_Jan_10_1604,untitled,3.1.0,60.245064875367554,
045,R,M,180,L,N,045RM180LN,HLN,0,65,65,108,,,1.3760000000000001,257.540471999906,257.83760269987397,257.83760269987397,257.904446200002,257.9240448998753,None,None,,257.9240448998753,None,257.9240448998753,259.2712493999861,0.339775700122118,None,,,,,,,,,53,001,2020_Jan_10_1604,untitled,3.1.0,60.245064875367554,
450,_5,N,45,R,N,450_5N045RN,HRN,0,66,66,273,,,1.039,261.6607820999343,261.9501761000138,261.9501761000138,262.1026707999408,262.1190654998645,261.6607820999343,up,2.213709200033918,262.1190654998645,None,262.1190654998645,263.1327899999451,0.26529620005749166,None,,,,,,,,,53,001,2020_Jan_10_1604,untitled,3.1.0,60.245064875367554,
_,_2,N,0,_,_,__2N000__,N,0,67,67,72,,,0.97,264.653241999913,264.9474508999847,264.9474508999847,265.0507799000479,265.0676875000354,None,up,1.8308961000293493,265.0676875000354,None,265.0676875000354,266.01366339996457,0.30800179997459054,None,,,,,,,,,53,001,2020_Jan_10_1604,untitled,3.1.0,60.245064875367554,
420,_4,N,135,L,N,420_4N135LN,HLN,0,68,68,267,,,1.35,267.2403696998954,267.5288902998436,267.5288902998436,267.61231060000136,267.63029600004666,None,down,2.6524873999878764,267.63029600004666,None,267.63029600004666,268.97791779995896,0.32174100005067885,None,,,,,,,,,53,001,2020_Jan_10_1604,untitled,3.1.0,60.245064875367554,
_,_4,M,135,_,_,__4M135__,N,0,69,69,35,,,0.738,270.4993538998533,270.79246279993095,270.79246279993095,270.9921058998443,271.00881229992956,None,up,2.171025199815631,271.00881229992956,None,271.00881229992956,271.74196839984506,0.20397909986786544,None,,,,,,,,,53,001,2020_Jan_10_1604,untitled,3.1.0,60.245064875367554,
225,G,N,0,L,N,225GN000LN,HLN,0,70,70,232,,,0.96,273.5692731998861,273.85641380003653,273.85641380003653,273.9065660999622,273.9065660999622,None,up,1.8494301999453455,273.9065660999622,None,273.9065660999622,274.8556259998586,0.3663853998295963,None,,,,,,,,,53,001,2020_Jan_10_1604,untitled,3.1.0,60.245064875367554,
427,_4,M,90,L,N,427_4M090LN,HLN,0,71,71,170,,,1.239,275.9538177999202,276.2531463999767,276.2531463999767,276.4727394999936,276.4887922999915,None,down,2.3491388999391347,276.4887922999915,None,276.4887922999915,277.72653049998917,0.18179900012910366,None,,,,,,,,,53,001,2020_Jan_10_1604,untitled,3.1.0,60.245064875367554,
_,G,N,180,_,_,_GN180__,N,0,72,72,60,,,0.75,279.1643439999316,279.45147119998,279.45147119998,279.55143999983557,279.5689018999692,None,up,2.036898900056258,279.5689018999692,None,279.5689018999692,280.30252310005017,0.30818799999542534,None,,,,,,,,,53,001,2020_Jan_10_1604,untitled,3.1.0,60.245064875367554,
169,F,M,0,L,N,169FM000LN,HLN,0,73,73,120,,,1.037,281.8576700000558,282.1494958999101,282.1494958999101,282.3333804998547,282.3333804998547,None,down,2.5174726999830455,282.3333804998547,None,282.3333804998547,283.3530180999078,0.23440479999408126,None,,,,,,,,,53,001,2020_Jan_10_1604,untitled,3.1.0,60.245064875367554,
041,R,M,0,L,N,041RM000LN,HLN,0,74,74,104,,,1.071,285.2078582998365,285.49669749988243,285.49669749988243,285.56311589991674,285.5822119999211,None,down,2.097726099891588,285.5822119999211,None,285.5822119999211,286.6451590999495,0.33931019995361567,None,,,,,,,,,53,001,2020_Jan_10_1604,untitled,3.1.0,60.245064875367554,
482,_5,N,45,L,N,482_5N045LN,HLN,0,75,75,281,,,0.782,288.07655099988915,288.3554638000205,288.3765036999248,288.39454329991713,288.43440010002814,None,up,1.5436054000165313,288.43440010002814,None,288.43440010002814,289.17764599993825,0.38052080012857914,None,,,,,,,,,53,001,2020_Jan_10_1604,untitled,3.1.0,60.245064875367554,
004,R,N,135,R,N,004RN135RN,HRN,0,76,76,195,,,0.799,290.2731882999651,290.56024709995836,290.56024709995836,290.69173519988544,290.7108765000012,None,up,1.9003252999391407,290.7108765000012,None,290.7108765000012,291.4928251998499,0.27876720018684864,None,,,,,,,,,53,001,2020_Jan_10_1604,untitled,3.1.0,60.245064875367554,
013,R,M,180,R,N,013RM180RN,HRN,0,77,77,100,,,1.114,292.8258145998698,293.12383719999343,293.12383719999343,293.32273330003954,293.3396208998747,None,down,2.648918400052935,293.3396208998747,None,293.3396208998747,294.4398009998258,0.20213049999438226,None,,,,,,,,,53,001,2020_Jan_10_1604,untitled,3.1.0,60.245064875367554,
419,_4,N,90,L,N,419_4N090LN,HLN,0,78,78,266,,,1.1260000000000001,296.2813146999106,296.5715979000088,296.5715979000088,296.7031616999302,296.721528199967,None,up,2.068177299806848,296.721528199967,None,296.721528199967,297.8369964999147,0.2801484998781234,None,,,,,,,,,53,001,2020_Jan_10_1604,untitled,3.1.0,60.245064875367554,
457,_5,M,0,R,N,457_5M000RN,HRN,0,79,79,176,,,1.2750000000000001,299.11016139993444,299.4014176998753,299.4014176998753,299.50165589991957,299.5218004998751,None,up,3.2770647001452744,299.5218004998751,None,299.5218004998751,300.78387110005133,0.307020700071007,None,,,,,,,,,53,001,2020_Jan_10_1604,untitled,3.1.0,60.245064875367554,
_,_5,N,225,_,_,__5N225__,N,0,80,80,93,,,0.923,303.10601400001906,303.3996609998867,303.3996609998867,303.51724319998175,303.535932400031,None,up,2.0993850000668317,303.535932400031,None,303.535932400031,304.4477482000366,0.2948554002214223,None,,,,,,,,,53,001,2020_Jan_10_1604,untitled,3.1.0,60.245064875367554,
425,_4,M,0,L,N,425_4M000LN,HLN,0,81,81,168,,,0.875,305.9492474999279,306.245311900042,306.245311900042,306.34638779982924,306.3625314999372,None,down,2.8661719001829624,306.3625314999372,None,306.3625314999372,307.22873639990576,0.2996887001208961,None,,,,,,,,,53,001,2020_Jan_10_1604,untitled,3.1.0,60.245064875367554,
456,_5,N,315,R,N,456_5N315RN,HRN,0,82,82,279,,,0.735,309.4201354999095,309.7095202000346,309.7095202000346,309.9413588999305,309.95833870000206,None,up,1.486134400125593,309.95833870000206,None,309.95833870000206,310.6740894999821,0.178504099836573,None,,,,,,,,,53,001,2020_Jan_10_1604,untitled,3.1.0,60.245064875367554,
393,_4,M,0,R,N,393_4M000RN,HRN,0,83,83,160,,,0.784,311.6849819999188,311.97526119998656,311.97526119998656,312.1563295999076,312.175942099886,None,down,1.798743899911642,312.175942099886,None,312.175942099886,312.9392553998623,0.22808289993554354,None,,,,,,,,,53,001,2020_Jan_10_1604,untitled,3.1.0,60.245064875367554,
297,_2,M,0,L,N,297_2M000LN,HLN,0,84,84,152,,,0.793,314.2014584999997,314.502705299994,314.502705299994,314.7062941000331,314.7062941000331,None,down,2.4835218999069184,314.7062941000331,None,314.7062941000331,315.48751579993404,0.20900300005450845,None,,,,,,,,,53,001,2020_Jan_10_1604,untitled,3.1.0,60.245064875367554,
_,_5,N,270,_,_,__5N270__,N,0,85,85,94,,,0.859,317.4527761999052,317.7513192000333,317.7513192000333,317.9180844000075,317.9180844000075,None,up,1.5895221000537276,317.9180844000075,None,317.9180844000075,318.7680939999409,0.2462351000867784,None,,,,,,,,,53,001,2020_Jan_10_1604,untitled,3.1.0,60.245064875367554,
257,_2,N,0,R,N,257_2N000RN,HRN,0,86,86,240,,,0.998,319.8676727998536,320.16633919999003,320.16633919999003,320.23269389988855,320.2541473999154,None,up,1.816914000082761,320.2541473999154,None,320.2541473999154,321.2317376998253,0.33183240005746484,None,,,,,,,,,53,001,2020_Jan_10_1604,untitled,3.1.0,60.245064875367554,
237,G,M,180,L,N,237GM180LN,HLN,0,87,87,140,,,0.75,322.40369129995815,322.6993706000503,322.6993706000503,322.7974745000247,322.7974745000247,None,None,,322.7974745000247,None,322.7974745000247,323.54654160002246,0.3166944000404328,None,,,,,,,,,53,001,2020_Jan_10_1604,untitled,3.1.0,60.245064875367554,
289,_2,N,0,L,N,289_2N000LN,HLN,0,88,88,248,,,1.1300000000000001,326.5232764999382,326.8109092998784,326.8109092998784,326.994402699871,327.0126797000412,326.5232764999382,up,1.866498300107196,327.0126797000412,None,327.0126797000412,328.1257364000194,0.22496329993009567,None,,,,,,,,,53,001,2020_Jan_10_1604,untitled,3.1.0,60.245064875367554,
_,_4,N,225,_,_,__4N225__,N,0,89,89,85,,,1.336,329.14251230005175,329.44221739983186,329.44221739983186,329.5917619999964,329.6097770999186,None,up,2.448294200003147,329.6097770999186,None,329.6097770999186,330.9242052999325,0.24544039997272193,None,,,,,,,,,53,001,2020_Jan_10_1604,untitled,3.1.0,60.245064875367554,
_,F,M,315,_,_,_FM315__,N,0,90,90,7,,,1.041,332.3905082999263,332.68865230004303,332.68865230004303,332.77215639990754,332.7898742000107,None,down,1.9985356000252068,332.7898742000107,None,332.7898742000107,333.82062949985266,0.3143174001015723,None,,,,,,,,,53,001,2020_Jan_10_1604,untitled,3.1.0,60.245064875367554,
008,R,N,315,R,N,008RN315RN,HRN,0,91,91,199,,,0.792,335.0071373998653,335.3038890999742,335.3038890999742,335.50289159989916,335.5212258999236,None,up,1.7177697999868542,335.5212258999236,None,335.5212258999236,336.3014701998327,0.2052921000868082,None,,,,,,,,,53,001,2020_Jan_10_1604,untitled,3.1.0,60.245064875367554,
_,_2,N,90,_,_,__2N090__,N,0,92,92,74,,,1.24,337.52769439993426,337.81772479997016,337.81772479997016,337.97043669992127,337.97043669992127,None,up,2.081183400005102,337.97043669992127,None,337.97043669992127,339.19960279995576,0.27349429996684194,None,,,,,,,,,53,001,2020_Jan_10_1604,untitled,3.1.0,60.245064875367554,
231,G,N,270,L,N,231GN270LN,HLN,0,93,93,238,,,1.075,340.36426189984195,340.66313069988973,340.66313069988973,340.76757689984515,340.78265680000186,None,up,1.9512007001321763,340.78265680000186,None,340.78265680000186,341.8471738998778,0.2961875000037253,None,,,,,,,,,53,001,2020_Jan_10_1604,untitled,3.1.0,60.245064875367554,
_,_2,N,45,_,_,__2N045__,N,0,94,94,73,,,1.372,342.95228950004093,343.2470388999209,343.2470388999209,343.44715669984,343.46668630000204,None,up,2.097055200021714,343.46668630000204,None,343.46668630000204,344.82881459989585,0.20104159996844828,None,,,,,,,,,53,001,2020_Jan_10_1604,untitled,3.1.0,60.245064875367554,
_,_4,M,180,_,_,__4M180__,N,0,95,95,36,,,1.108,345.7895022998564,346.07720900001004,346.07720900001004,346.27637049998157,346.29297999991104,None,up,1.8185601001605392,346.29297999991104,None,346.29297999991104,347.3930236999877,0.21096199983730912,None,,,,,,,,,53,001,2020_Jan_10_1604,untitled,3.1.0,60.245064875367554,
263,_2,N,270,R,N,263_2N270RN,HRN,0,96,96,246,,,1.3860000000000001,348.36272330000065,348.65816779993474,348.65816779993474,348.8244020999409,348.84146579983644,None,up,2.486359699862078,348.84146579983644,None,348.84146579983644,350.208016499877,0.23584239999763668,None,,,,,,,,,53,001,2020_Jan_10_1604,untitled,3.1.0,60.245064875367554,
455,_5,N,270,R,N,455_5N270RN,HRN,0,97,97,278,,,0.8240000000000001,351.58500329987146,351.8716700999066,351.8716700999066,352.0554841000121,352.0554841000121,None,up,1.5501787001267076,352.0554841000121,None,352.0554841000121,352.870588199934,0.23869260004721582,None,,,,,,,,,53,001,2020_Jan_10_1604,untitled,3.1.0,60.245064875367554,
494,_5,M,225,L,N,494_5M225LN,HLN,0,98,98,189,,,1.364,353.8117490999866,354.103213599883,354.103213599883,354.3194369999692,354.33632000000216,None,down,2.499168099835515,354.33632000000216,None,354.33632000000216,355.68525670003146,0.19035129994153976,None,,,,,,,,,53,001,2020_Jan_10_1604,untitled,3.1.0,60.245064875367554,
292,_2,N,135,L,N,292_2N135LN,HLN,0,99,99,251,,,1.03,357.0510231999215,357.3500397000462,357.3500397000462,357.55072780000046,357.5669472999871,None,up,2.315819700015709,357.5669472999871,None,357.5669472999871,358.5839006998576,0.19980109995231032,None,,,,,,,,,53,001,2020_Jan_10_1604,untitled,3.1.0,60.245064875367554,
265,_2,M,0,R,N,265_2M000RN,HRN,0,100,100,144,,,0.754,360.1153728000354,360.41415369999595,360.41415369999595,360.5975732000079,360.6171480000485,None,up,2.3299000000115484,360.6171480000485,None,360.6171480000485,361.34763980004936,0.21703910012729466,None,,,,,,,,,53,001,2020_Jan_10_1604,untitled,3.1.0,60.245064875367554,
034,R,N,45,L,N,034RN045LN,HLN,0,101,101,201,,,0.908,363.2179707000032,363.5118038998917,363.5118038998917,363.6613787000533,363.67806799989194,None,up,1.8712504000868648,363.67806799989194,None,363.67806799989194,364.5774582999293,0.25457460014149547,None,,,,,,,,,53,001,2020_Jan_10_1604,untitled,3.1.0,60.245064875367554,
428,_4,M,135,L,N,428_4M135LN,HLN,0,102,102,171,,,1.102,365.84440029994585,366.16484320000745,366.16484320000745,366.26026919996366,366.2793040999677,None,up,2.5658647001255304,366.2793040999677,None,366.2793040999677,367.37464359984733,0.27996279997751117,None,,,,,,,,,53,001,2020_Jan_10_1604,untitled,3.1.0,60.245064875367554,
_,_5,N,45,_,_,__5N045__,N,0,103,103,89,,,0.753,369.12156599992886,369.40791339986026,369.40791339986026,369.5563380999956,369.57318209996447,None,up,1.8836195000912994,369.57318209996447,None,369.57318209996447,370.32229209993966,0.26107909996062517,None,,,,,,,,,53,001,2020_Jan_10_1604,untitled,3.1.0,60.245064875367554,
429,_4,M,180,L,N,429_4M180LN,HLN,0,104,104,172,,,0.858,371.74649539985694,372.03733069985174,372.03733069985174,372.1706011998467,372.19114020001143,None,up,1.7342907001730055,372.19114020001143,None,372.19114020001143,373.03791019995697,0.27700599981471896,None,,,,,,,,,53,001,2020_Jan_10_1604,untitled,3.1.0,60.245064875367554,
138,F,M,45,R,N,138FM045RN,HRN,0,105,105,113,,,1.254,374.22931129997596,374.51845999993384,374.51845999993384,374.65247870003805,374.65247870003805,None,down,2.15360080008395,374.65247870003805,None,374.65247870003805,375.9013416999951,0.28945049992762506,None,,,,,,,,,53,001,2020_Jan_10_1604,untitled,3.1.0,60.245064875367554,
_,_4,N,315,_,_,__4N315__,N,0,106,106,87,,,1.103,377.0385364999529,377.33316609985195,377.33316609985195,377.5170360999182,377.53422289993614,None,up,2.016899300040677,377.53422289993614,None,377.53422289993614,378.6320505000185,0.2192146999295801,None,,,,,,,,,53,001,2020_Jan_10_1604,untitled,3.1.0,60.245064875367554,
492,_5,M,135,L,N,492_5M135LN,HLN,0,107,107,187,,,1.2690000000000001,379.7705425999593,380.06348869996145,380.06348869996145,380.26354389986955,380.2805394998286,None,down,3.198136900085956,380.2805394998286,None,380.2805394998286,381.5364389999304,0.20264670019969344,None,,,,,,,,,53,001,2020_Jan_10_1604,untitled,3.1.0,60.245064875367554,
484,_5,N,135,L,N,484_5N135LN,HLN,0,108,108,283,,,1.062,383.6780346999876,383.97684719995596,383.97684719995596,384.1934360000305,384.2114982998464,None,up,2.2501952000893652,384.2114982998464,None,384.2114982998464,385.25927209993824,0.18414100003428757,None,,,,,,,,,53,001,2020_Jan_10_1604,untitled,3.1.0,60.245064875367554,
_,F,N,180,_,_,_FN180__,N,0,109,109,52,,,0.784,386.74426469998434,387.04120850004256,387.04120850004256,387.1741410999093,387.19288809993304,None,up,3.2170122999232262,387.19288809993304,None,387.19288809993304,387.956669599982,0.2694417000748217,None,,,,,,,,,53,001,2020_Jan_10_1604,untitled,3.1.0,60.245064875367554,
431,_4,M,270,L,N,431_4M270LN,HLN,0,110,110,174,,,1.2710000000000001,390.6200401999522,390.9208037999924,390.9208037999924,391.121706899954,391.14001269987784,None,up,2.065429100068286,391.14001269987784,None,391.14001269987784,392.39102269988507,0.19646300002932549,None,,,,,,,,,53,001,2020_Jan_10_1604,untitled,3.1.0,60.245064875367554,
304,_2,M,315,L,N,304_2M315LN,HLN,0,111,111,159,,,1.025,393.48973280005157,393.78548099985346,393.78548099985346,393.9186555999331,393.9359809998423,None,down,2.3538442000281066,393.9359809998423,None,393.9359809998423,394.95103770005517,0.26601290004327893,None,,,,,,,,,53,001,2020_Jan_10_1604,untitled,3.1.0,60.245064875367554,
398,_4,M,225,R,N,398_4M225RN,HRN,0,112,112,165,,,0.847,396.5256461999379,396.8180042998865,396.8180042998865,397.00070049986243,397.0208904000465,None,down,2.160571899963543,397.0208904000465,None,397.0208904000465,397.85604529990815,0.22086500003933907,None,,,,,,,,,53,001,2020_Jan_10_1604,untitled,3.1.0,60.245064875367554,
201,G,M,0,R,N,201GM000RN,HRN,0,113,113,128,,,0.741,399.4502598999534,399.74652199982665,399.74652199982665,399.89625740004703,399.91322349989787,None,up,2.748248500050977,399.91322349989787,None,399.91322349989787,400.64922229992226,0.2560691998805851,None,,,,,,,,,53,001,2020_Jan_10_1604,untitled,3.1.0,60.245064875367554,
_,F,M,90,_,_,_FM090__,N,0,114,114,2,,,1.161,402.98251169989817,403.27675829990767,403.27675829990767,403.37676310003735,403.39455149997957,None,up,2.515401199925691,403.39455149997957,None,403.39455149997957,404.5423324999865,0.3092002000194043,None,,,,,,,,,53,001,2020_Jan_10_1604,untitled,3.1.0,60.245064875367554,
421,_4,N,180,L,N,421_4N180LN,HLN,0,115,115,268,,,1.176,406.12927250005305,406.42413269984536,406.42413269984536,406.6238375999965,406.6421421999112,None,None,,406.6421421999112,None,406.6421421999112,407.8062703998294,0.20365669997408986,None,,,,,,,,,53,001,2020_Jan_10_1604,untitled,3.1.0,60.245064875367554,
272,_2,M,315,R,N,272_2M315RN,HRN,0,116,116,151,,,1.283,410.33202439988963,410.62265040003695,410.62265040003695,410.8202044998761,410.8378879998345,410.33202439988963,down,2.683160100132227,410.8378879998345,None,410.8378879998345,412.10316849988885,0.21473520016297698,None,,,,,,,,,53,001,2020_Jan_10_1604,untitled,3.1.0,60.245064875367554,
162,F,N,45,L,N,162FN045LN,HLN,0,117,117,217,,,0.9570000000000001,413.86341869994067,414.1503065000288,414.1503065000288,414.2340318998322,414.2508195999544,None,up,2.5705867998767644,414.2508195999544,None,414.2508195999544,415.20003079995513,0.32343020010739565,None,,,,,,,,,53,001,2020_Jan_10_1604,untitled,3.1.0,60.245064875367554,
481,_5,N,0,L,N,481_5N000LN,HLN,0,118,118,280,,,1.1420000000000001,417.04023279994726,417.33133149985224,417.33133149985224,417.53299989993684,417.55143079999834,None,up,1.932443300029263,417.55143079999834,None,417.55143079999834,418.67974419984967,0.2026714999228716,None,,,,,,,,,53,001,2020_Jan_10_1604,untitled,3.1.0,60.245064875367554,
015,R,M,270,R,N,015RM270RN,HRN,0,119,119,102,,,0.8240000000000001,419.6965745999478,419.99550119997,419.99550119997,420.1953336999286,420.212335200049,None,down,1.8866995999123901,420.212335200049,None,420.212335200049,421.02801300003193,0.19935499993152916,None,,,,,,,,,53,001,2020_Jan_10_1604,untitled,3.1.0,60.245064875367554,
_,_2,M,315,_,_,__2M315__,N,0,120,120,31,,,1.145,422.35409349994734,422.6457819000352,422.6457819000352,422.80976099986583,422.8268698998727,None,down,2.6657159999012947,422.8268698998727,None,422.8268698998727,423.9589589999523,0.2412648000754416,None,,,,,,,,,53,001,2020_Jan_10_1604,untitled,3.1.0,60.245064875367554,
396,_4,M,135,R,N,396_4M135RN,HRN,0,121,121,163,,,1.345,425.71758980001323,426.0069887000136,426.0069887000136,426.2068763000425,426.2254939000122,None,up,2.4013576998841017,426.2254939000122,None,426.2254939000122,427.55651779985055,0.21084229997359216,None,,,,,,,,,53,001,2020_Jan_10_1604,untitled,3.1.0,60.245064875367554,
_,_2,N,180,_,_,__2N180__,N,0,122,122,76,,,0.901,428.9333825998474,429.23852299991995,429.23852299991995,429.3392870000098,429.35849000001326,None,None,,429.35849000001326,None,429.35849000001326,430.27940969984047,0.29355379985645413,None,,,,,,,,,53,001,2020_Jan_10_1604,untitled,3.1.0,60.245064875367554,
142,F,M,225,R,N,142FM225RN,HRN,0,123,123,117,,,1.356,433.04869550000876,433.3526357000228,433.3526357000228,433.53368929983117,433.5508760998491,433.04869550000876,down,2.8313058000057936,433.5508760998491,None,433.5508760998491,434.9005841000471,0.21474399999715388,None,,,,,,,,,53,001,2020_Jan_10_1604,untitled,3.1.0,60.245064875367554,
226,G,N,45,L,N,226GN045LN,HLN,0,124,124,233,,,1.305,436.60647369991057,436.8972970000468,436.8972970000468,437.09748849994503,437.114285599906,None,up,2.3329250998795033,437.114285599906,None,437.114285599906,438.39797060005367,0.21097689983434975,None,,,,,,,,,53,001,2020_Jan_10_1604,untitled,3.1.0,60.245064875367554,
_,R,N,315,_,_,_RN315__,N,0,125,125,71,,,0.794,439.79363449988887,440.09460059995763,440.09460059995763,440.1634050998837,440.18166919983923,None,up,1.7160938000306487,440.18166919983923,None,440.18166919983923,440.9606848000549,0.3318675998598337,None,,,,,,,,,53,001,2020_Jan_10_1604,untitled,3.1.0,60.245064875367554,
_,_2,M,225,_,_,__2M225__,N,0,126,126,29,,,1.247,442.07287709997036,442.375903399894,442.375903399894,442.60909249982797,442.62638040003367,None,down,2.4368304000236094,442.62638040003367,None,442.62638040003367,443.8580050000455,0.16376270004548132,None,,,,,,,,,53,001,2020_Jan_10_1604,untitled,3.1.0,60.245064875367554,
163,F,N,90,L,N,163FN090LN,HLN,0,127,127,218,,,1.339,445.47510239994153,445.47510239994153,445.77411730005406,445.7912204999011,445.80909350002185,None,up,2.2800732001196593,445.80909350002185,None,445.80909350002185,447.13840619986877,0.38830289989709854,None,,,,,,,,,53,001,2020_Jan_10_1604,untitled,3.1.0,60.245064875367554,
040,R,N,315,L,N,040RN315LN,HLN,0,128,128,207,,,1.258,448.31320780003443,448.60380190005526,448.60380190005526,448.8035772999283,448.82241349993274,None,up,2.417064500041306,448.82241349993274,None,448.82241349993274,450.0695201000199,0.2111440000589937,None,,,,,,,,,53,001,2020_Jan_10_1604,untitled,3.1.0,60.245064875367554,
_,R,N,135,_,_,_RN135__,N,0,129,129,67,,,1.213,451.46131529984996,451.75112499995157,451.75112499995157,451.9507748000324,451.9678404999431,None,up,2.07232080004178,451.9678404999431,None,451.9678404999431,453.16658079996705,0.20586260012350976,None,,,,,,,,,53,001,2020_Jan_10_1604,untitled,3.1.0,60.245064875367554,
134,F,N,225,R,N,134FN225RN,HRN,0,130,130,213,,,1.155,454.2714565000497,454.56753999996,454.56753999996,454.7661834999453,454.7661834999453,None,down,2.165298900101334,454.7661834999453,None,454.7661834999453,455.91497069993056,0.21834630006924272,None,,,,,,,,,53,001,2020_Jan_10_1604,untitled,3.1.0,60.245064875367554,
199,G,N,270,R,N,199GN270RN,HRN,0,131,131,230,,,1.027,457.25803050003015,457.5463143000379,457.5463143000379,457.6457970999181,457.6641279999167,None,up,2.033373599871993,457.6641279999167,None,457.6641279999167,458.67863999982364,0.3088915999978781,None,,,,,,,,,53,001,2020_Jan_10_1604,untitled,3.1.0,60.245064875367554,
193,G,N,0,R,N,193GN000RN,HRN,0,132,132,224,,,0.858,459.8853837000206,460.1776779999491,460.1776779999491,460.4114085000474,460.43362080003135,None,up,1.5969879999756813,460.43362080003135,None,460.43362080003135,461.26414599991404,0.1728265001438558,None,,,,,,,,,53,001,2020_Jan_10_1604,untitled,3.1.0,60.245064875367554,
174,F,M,225,L,N,174FM225LN,HLN,0,133,133,125,,,0.883,462.2740296998527,462.55935039999895,462.55935039999895,462.75827929982916,462.75827929982916,None,down,2.783587699988857,462.75827929982916,None,462.75827929982916,463.641745199915,0.22370230010710657,None,,,,,,,,,53,001,2020_Jan_10_1604,untitled,3.1.0,60.245064875367554,
165,F,N,180,L,N,165FN180LN,HLN,0,134,134,220,,,1.081,465.7329118999187,466.02345209987834,466.02345209987834,466.2549785999581,466.27414989983663,None,up,3.199160600081086,466.27414989983663,None,466.27414989983663,467.33721229992807,0.17975040012970567,None,,,,,,,,,53,001,2020_Jan_10_1604,untitled,3.1.0,60.245064875367554,
_,_4,M,225,_,_,__4M225__,N,0,135,135,37,,,1.0210000000000001,469.6700977999717,469.97116840002127,469.97116840002127,470.1849372999277,470.20511129987426,None,down,2.7816089999396354,470.20511129987426,None,470.20511129987426,471.22283830004744,0.1800220999866724,None,,,,,,,,,53,001,2020_Jan_10_1604,untitled,3.1.0,60.245064875367554,
490,_5,M,45,L,N,490_5M045LN,HLN,0,136,136,185,,,0.8150000000000001,473.2461105999537,473.5485388999805,473.5485388999805,473.6990254998673,473.715812999988,None,down,3.052564299898222,473.715812999988,None,473.715812999988,474.5149599998258,0.24375140015035868,None,,,,,,,,,53,001,2020_Jan_10_1604,untitled,3.1.0,60.245064875367554,
_,_4,N,0,_,_,__4N000__,N,0,137,137,80,,,1.351,477.09884710004553,477.39549049991183,477.39549049991183,477.4786666999571,477.49530289997347,None,up,2.2327613001689315,477.49530289997347,None,477.49530289997347,478.8463818000164,0.3164122998714447,None,,,,,,,,,53,001,2020_Jan_10_1604,untitled,3.1.0,60.245064875367554,
430,_4,M,225,L,N,430_4M225LN,HLN,0,138,138,173,,,0.757,479.9437919999473,480.24282929999754,480.24282929999754,480.4425388998352,480.45996899995953,None,down,1.7492106999270618,480.45996899995953,None,480.45996899995953,481.20886339992285,0.2003061999566853,None,,,,,,,,,53,001,2020_Jan_10_1604,untitled,3.1.0,60.245064875367554,
302,_2,M,225,L,N,302_2M225LN,HLN,0,139,139,157,,,1.071,482.428503499832,482.7245602000039,482.7245602000039,482.9237519998569,482.94079629983753,None,down,2.067635300103575,482.94079629983753,None,482.94079629983753,483.98993329983205,0.20267760008573532,None,,,,,,,,,53,001,2020_Jan_10_1604,untitled,3.1.0,60.245064875367554,
_,R,M,135,_,_,_RM135__,N,0,140,140,19,,,1.2770000000000001,485.3385065998882,485.63814960001037,485.63814960001037,485.721990799997,485.7419342000503,None,down,2.613215900026262,485.7419342000503,None,485.7419342000503,487.00478699989617,0.31742269988171756,None,,,,,,,,,53,001,2020_Jan_10_1604,untitled,3.1.0,60.245064875367554,
_,G,M,180,_,_,_GM180__,N,0,141,141,12,,,0.9430000000000001,488.69644679990597,488.98586310003884,488.98586310003884,489.0683581000194,489.08723949990235,None,down,2.653898000018671,489.08723949990235,None,489.08723949990235,490.0201977000106,0.322987399995327,None,,,,,,,,,53,001,2020_Jan_10_1604,untitled,3.1.0,60.245064875367554,
493,_5,M,180,L,N,493_5M180LN,HLN,0,142,142,188,,,0.875,492.09009229997173,492.38236139994115,492.38236139994115,492.4656100999564,492.48360119992867,None,down,2.086053099948913,492.48360119992867,None,492.48360119992867,493.34901719982736,0.32318380009382963,None,,,,,,,,,53,001,2020_Jan_10_1604,untitled,3.1.0,60.245064875367554,
_,_4,N,135,_,_,__4N135__,N,0,143,143,83,,,0.91,494.778560299892,495.0799308998976,495.0799308998976,495.27966520003974,495.3000934999436,None,up,2.000691399909556,495.3000934999436,None,495.3000934999436,496.19816039991565,0.1956867000553757,None,,,,,,,,,53,001,2020_Jan_10_1604,untitled,3.1.0,60.245064875367554,
392,_4,N,315,R,N,392_4N315RN,HRN,0,144,144,263,,,0.798,497.507595699979,497.7949714998249,497.7949714998249,498.01071469997987,498.0275701000355,None,up,1.4995240999851376,498.0275701000355,None,498.0275701000355,498.81013490003534,0.19285029987804592,None,,,,,,,,,53,001,2020_Jan_10_1604,untitled,3.1.0,60.245064875367554,
298,_2,M,45,L,N,298_2M045LN,HLN,0,145,145,153,,,0.719,499.73254769993946,500.02561270003207,500.02561270003207,500.2419677998405,500.2589693998452,None,up,3.169161400059238,500.2589693998452,None,500.2589693998452,500.9589062000159,0.19143510004505515,None,,,,,,,,,53,001,2020_Jan_10_1604,untitled,3.1.0,60.245064875367554,
_,G,M,270,_,_,_GM270__,N,0,146,146,14,,,0.736,503.7463620000053,504.0392944999039,504.0392944999039,504.13898950000294,504.15638029994443,None,down,2.1161324998829514,504.15638029994443,None,504.15638029994443,504.8878649000544,0.3038841001689434,None,,,,,,,,,53,001,2020_Jan_10_1604,untitled,3.1.0,60.245064875367554,
228,G,N,135,L,N,228GN135LN,HLN,0,147,147,235,,,0.97,506.47759649995714,506.77115439996123,506.77115439996123,506.98796599986963,507.00786149990745,None,up,2.3312470999080688,507.00786149990745,None,507.00786149990745,507.95828279992566,0.19180139992386103,None,,,,,,,,,53,001,2020_Jan_10_1604,untitled,3.1.0,60.245064875367554,
_,R,M,315,_,_,_RM315__,N,0,148,148,23,,,0.775,509.6376842998434,509.9335346999578,509.9335346999578,510.0682047000155,510.0682047000155,None,down,1.6168736000545323,510.0682047000155,None,510.0682047000155,510.83276039990596,0.27747360011562705,None,,,,,,,,,53,001,2020_Jan_10_1604,untitled,3.1.0,60.245064875367554,
204,G,M,135,R,N,204GM135RN,HRN,0,149,149,131,,,0.705,511.88845600001514,512.1818094998598,512.1818094998598,512.398955799872,512.4153151998762,None,down,2.0342798000201583,512.4153151998762,None,512.4153151998762,513.1152544999495,0.18867540010251105,None,,,,,,,,,53,001,2020_Jan_10_1604,untitled,3.1.0,60.245064875367554,
_,F,N,90,_,_,_FN090__,N,0,150,150,50,,,1.3980000000000001,514.7595817998517,515.0651118999813,515.0651118999813,515.1626736999024,515.179518799996,None,up,2.7820546999573708,515.179518799996,None,515.179518799996,516.5611968999729,0.29463419993408024,None,,,,,,,,,53,001,2020_Jan_10_1604,untitled,3.1.0,60.245064875367554,
_,_4,M,90,_,_,__4M090__,N,0,151,151,34,,,1.395,518.194034999935,518.4931128998287,518.4931128998287,518.6765075000003,518.6937541000079,None,down,2.364724699873477,518.6937541000079,None,518.6937541000079,520.0753105999902,0.21651410008780658,None,,,,,,,,,53,001,2020_Jan_10_1604,untitled,3.1.0,60.245064875367554,
258,_2,N,45,R,N,258_2N045RN,HRN,0,152,152,241,,,1.169,521.2705903998576,521.5579890999943,521.5579890999943,521.7734179999679,521.7904321998358,None,up,2.283288799924776,521.7904321998358,None,521.7904321998358,522.9430346000008,0.19314730004407465,None,,,,,,,,,53,001,2020_Jan_10_1604,untitled,3.1.0,60.245064875367554,
_,_5,M,180,_,_,__5M180__,N,0,153,153,44,,,1.278,524.4171438999474,524.7054164998699,524.7054164998699,524.7874908999074,524.8039907000493,None,down,3.233817100059241,524.8039907000493,None,524.8039907000493,526.0693846000358,0.32699609990231693,None,,,,,,,,,53,001,2020_Jan_10_1604,untitled,3.1.0,60.245064875367554,
046,R,M,225,L,N,046RM225LN,HLN,0,154,154,109,,,0.89,528.2341738999821,528.5353737999685,528.5353737999685,528.7503610998392,528.7704155000392,None,down,1.9674598998390138,528.7704155000392,None,528.7704155000392,529.649798899889,0.18117069988511503,None,,,,,,,,,53,001,2020_Jan_10_1604,untitled,3.1.0,60.245064875367554,
235,G,M,90,L,N,235GM090LN,HLN,0,155,155,138,,,1.062,530.9413101000246,531.2321830999572,531.2321830999572,531.447964400053,531.4655875000171,None,down,2.3180576998274773,531.4655875000171,None,531.4655875000171,532.5138373998925,0.18868379993364215,None,,,,,,,,,53,001,2020_Jan_10_1604,untitled,3.1.0,60.245064875367554,
_,R,M,90,_,_,_RM090__,N,0,156,156,18,,,1.1,534.0849684998393,534.3795194998384,534.3795194998384,534.4962869000155,534.5145815999713,None,down,1.8335665001068264,534.5145815999713,None,534.5145815999713,535.5948808998801,0.28573110001161695,None,,,,,,,,,53,001,2020_Jan_10_1604,untitled,3.1.0,60.245064875367554,
_,_5,M,45,_,_,__5M045__,N,0,157,157,41,,,1.249,536.5316059000324,536.8268339999486,536.8268339999486,537.0604256999213,537.0775404998567,None,down,2.4175165998749435,537.0775404998567,None,537.0775404998567,538.3107103998773,0.17036399990320206,None,,,,,,,,,53,001,2020_Jan_10_1604,untitled,3.1.0,60.245064875367554,
131,F,N,90,R,N,131FN090RN,HRN,0,158,158,210,,,1.1480000000000001,539.8316178000532,540.1238943999633,540.1238943999633,540.2267006000038,540.2267006000038,None,up,2.095877500018105,540.2267006000038,None,540.2267006000038,541.3730198999401,0.31511890003457665,None,,,,,,,,,53,001,2020_Jan_10_1604,untitled,3.1.0,60.245064875367554,
451,_5,N,90,R,N,451_5N090RN,HRN,0,159,159,274,,,0.72,542.5307690999471,542.8216617999133,542.8216617999133,543.038483100012,543.0552542000078,None,up,1.7494414001703262,543.0552542000078,None,543.0552542000078,543.7539749999996,0.1960638000164181,None,,,,,,,,,53,001,2020_Jan_10_1604,untitled,3.1.0,60.245064875367554,
454,_5,N,225,R,N,454_5N225RN,HRN,0,160,160,277,,,1.181,545.0109649000224,545.302741699852,545.302741699852,545.5204431999009,545.5373982999008,None,up,2.419719700003043,545.5373982999008,None,545.5373982999008,546.7016237999778,0.19391610007733107,None,,,,,,,,,53,001,2020_Jan_10_1604,untitled,3.1.0,60.245064875367554,
459,_5,M,90,R,N,459_5M090RN,HRN,0,161,161,178,,,1.086,548.1753028000239,548.4665836999193,548.4665836999193,548.6667595999315,548.6841124000493,None,down,2.8020889000035822,548.6841124000493,None,548.6841124000493,549.7682183999568,0.20050149993039668,None,,,,,,,,,53,001,2020_Jan_10_1604,untitled,3.1.0,60.245064875367554,
266,_2,M,45,R,N,266_2M045RN,HRN,0,162,162,145,,,0.835,551.6793418000452,551.980118899839,551.980118899839,552.1966700998601,552.2135129999369,None,down,2.072450599865988,552.2135129999369,None,552.2135129999369,553.0480070998892,0.17965170019306242,None,,,,,,,,,53,001,2020_Jan_10_1604,untitled,3.1.0,60.245064875367554,
387,_4,N,90,R,N,387_4N090RN,HRN,0,163,163,258,,,0.791,554.6246330998838,554.9134634998627,554.9134634998627,555.0134759000503,555.0134759000503,None,up,1.681442999979481,555.0134759000503,None,555.0134759000503,555.7942108998541,0.31736959982663393,None,,,,,,,,,53,001,2020_Jan_10_1604,untitled,3.1.0,60.245064875367554,
_,R,M,0,_,_,_RM000__,N,0,164,164,16,,,1.317,556.9956163999159,557.292351400014,557.292351400014,557.4087351998314,557.429182899883,None,down,2.095675199991092,557.429182899883,None,557.429182899883,558.7243770998903,0.2886384997982532,None,,,,,,,,,53,001,2020_Jan_10_1604,untitled,3.1.0,60.245064875367554,
047,R,M,270,L,N,047RM270LN,HLN,0,165,165,110,,,1.3800000000000001,559.7525047999807,560.0399370000232,560.0399370000232,560.2410854999907,560.2573203998618,None,up,2.1834197998978198,560.2573203998618,None,560.2573203998618,561.6219707999844,0.20700769987888634,None,,,,,,,,,53,001,2020_Jan_10_1604,untitled,3.1.0,60.245064875367554,
011,R,M,90,R,N,011RM090RN,HRN,0,166,166,98,,,1.209,562.7115676999092,563.0051179998554,563.0051179998554,563.1549525000155,563.1724801999517,None,down,2.8987014000304043,563.1724801999517,None,563.1724801999517,564.3704555998556,0.25321489991620183,None,,,,,,,,,53,001,2020_Jan_10_1604,untitled,3.1.0,60.245064875367554,
_,F,N,0,_,_,_FN000__,N,0,167,167,48,,,1.173,566.4157302998938,566.7176280999556,566.7176280999556,566.784454499837,566.8025068000425,None,up,2.5188177002128214,566.8025068000425,None,566.8025068000425,567.9667256998364,0.3277249000966549,None,,,,,,,,,53,001,2020_Jan_10_1604,untitled,3.1.0,60.245064875367554,
388,_4,N,135,R,N,388_4N135RN,HRN,0,168,168,259,,,0.733,569.6842070999555,569.9820717000403,569.9820717000403,570.0342260999605,570.052237899974,None,up,2.061584699898958,570.052237899974,None,570.052237899974,570.7812564999331,0.34534969995729625,None,,,,,,,,,53,001,2020_Jan_10_1604,untitled,3.1.0,60.245064875367554,
129,F,N,0,R,N,129FN000RN,HRN,0,169,169,208,,,1.168,572.3273008998949,572.628940799972,572.628940799972,572.8285644999705,572.8460363999475,None,up,2.503424800001085,572.8460363999475,None,572.8460363999475,573.9943695999682,0.20116400020197034,None,,,,,,,,,53,001,2020_Jan_10_1604,untitled,3.1.0,60.245064875367554,
391,_4,N,270,R,N,391_4N270RN,HRN,0,170,170,262,,,0.8260000000000001,575.5835360998753,575.8760883000214,575.8760883000214,576.0763014999684,576.0763014999684,None,up,1.6196252000518143,576.0763014999684,None,576.0763014999684,576.8933273998555,0.21607039985246956,None,,,,,,,,,53,001,2020_Jan_10_1604,untitled,3.1.0,60.245064875367554,
_,G,N,0,_,_,_GN000__,N,0,171,171,56,,,1.252,577.9282945999876,578.2248929999769,578.2248929999769,578.4076228998601,578.42645849986,None,up,1.9680606999900192,578.42645849986,None,578.42645849986,579.6601084999274,0.21696360013447702,None,,,,,,,,,53,001,2020_Jan_10_1604,untitled,3.1.0,60.245064875367554,
_,_4,N,270,_,_,__4N270__,N,0,172,172,86,,,1.161,580.5955558000132,580.8891710999887,580.8891710999887,581.1049067999702,581.1221487999428,None,up,1.8325808998197317,581.1221487999428,None,581.1221487999428,582.273120699916,0.18720120005309582,None,,,,,,,,,53,001,2020_Jan_10_1604,untitled,3.1.0,60.245064875367554,
_,_5,M,315,_,_,__5M315__,N,0,173,173,47,,,0.8130000000000001,583.278090900043,583.5693868000526,583.5693868000526,583.6693599999417,583.6862855998334,None,down,2.3011307998094708,583.6862855998334,None,583.6862855998334,584.4852501999121,0.3053254000842571,None,,,,,,,,,53,001,2020_Jan_10_1604,untitled,3.1.0,60.245064875367554,
002,R,N,45,R,N,002RN045RN,HRN,0,174,174,193,,,1.127,586.3840012999717,586.6634443998337,586.6831328999251,586.6997277999762,586.7203893999103,None,up,1.8626935000065714,586.7203893999103,None,586.7203893999103,587.8326181999873,0.3805817998945713,None,,,,,,,,,53,001,2020_Jan_10_1604,untitled,3.1.0,60.245064875367554,
423,_4,N,270,L,N,423_4N270LN,HLN,0,175,175,270,,,1.043,588.7707525000442,589.0645049999002,589.0645049999002,589.2994987999555,589.3153524999507,None,up,1.7201980999670923,589.3153524999507,None,589.3153524999507,590.3485669998918,0.17215660004876554,None,,,,,,,,,53,001,2020_Jan_10_1604,untitled,3.1.0,60.245064875367554,
296,_2,N,315,L,N,296_2N315LN,HLN,0,176,176,255,,,1.235,591.25726819993,591.548184499843,591.548184499843,591.7455482999794,591.7631824000273,None,down,2.1319951000623405,591.7631824000273,None,591.7631824000273,592.9945475000422,0.20518829999491572,None,,,,,,,,,53,001,2020_Jan_10_1604,untitled,3.1.0,60.245064875367554,
462,_5,M,225,R,N,462_5M225RN,HRN,0,177,177,181,,,1.237,594.1237273998559,594.4249080000445,594.4249080000445,594.609976900043,594.6283841000404,None,None,,594.6283841000404,None,594.6283841000404,595.8425039998256,0.21551149990409613,None,,,,,,,,,53,001,2020_Jan_10_1604,untitled,3.1.0,60.245064875367554,
_,_2,M,0,_,_,__2M000__,N,0,178,178,24,,,0.777,598.339531299891,598.6401338998694,598.6401338998694,598.8069211998954,598.824273499893,598.339531299891,down,2.0856655999086797,598.824273499893,None,598.824273499893,599.589077899931,0.2315569999627769,None,,,,,,,,,53,001,2020_Jan_10_1604,untitled,3.1.0,60.245064875367554,
_,F,M,180,_,_,_FM180__,N,0,179,179,4,,,1.3800000000000001,601.359167000046,601.359167000046,601.359167000046,601.6595268999226,601.6595268999226,None,down,2.976536399917677,601.6595268999226,None,601.6595268999226,603.0196269999724,0.4286638998892158,None,,,,,,,,,53,001,2020_Jan_10_1604,untitled,3.1.0,60.245064875367554,
260,_2,N,135,R,N,260_2N135RN,HRN,0,180,180,243,,,1.238,604.9056308998261,605.2005384999793,605.2005384999793,605.3517978999298,605.3680753000081,None,up,2.8142729001119733,605.3680753000081,None,605.3680753000081,606.5832078000531,0.25813520001247525,None,,,,,,,,,53,001,2020_Jan_10_1604,untitled,3.1.0,60.245064875367554,
_,F,M,45,_,_,_FM045__,N,0,181,181,1,,,1.2570000000000001,608.4840645999648,608.7806171998382,608.7806171998382,608.8972544998396,608.9150651998352,None,down,2.385173999937251,608.9150651998352,None,608.9150651998352,610.1659107999876,0.2892185999080539,None,,,,,,,,,53,001,2020_Jan_10_1604,untitled,3.1.0,60.245064875367554,
038,R,N,225,L,N,038RN225LN,HLN,0,182,182,205,,,0.8170000000000001,611.6242398000322,611.9125087999273,611.9125087999273,612.0112186998595,612.0293385998812,None,up,2.382000599987805,612.0293385998812,None,612.0293385998812,612.8277379998472,0.3092199999373406,None,,,,,,,,,53,001,2020_Jan_10_1604,untitled,3.1.0,60.245064875367554,
205,G,M,180,R,N,205GM180RN,HRN,0,183,183,132,,,0.711,614.6411702998448,614.9418790999334,614.9418790999334,615.1259286999702,615.143356599845,None,down,2.487076099961996,615.143356599845,None,615.143356599845,615.8414544998668,0.21473799995146692,None,,,,,,,,,53,001,2020_Jan_10_1604,untitled,3.1.0,60.245064875367554,
449,_5,N,0,R,N,449_5N000RN,HRN,0,184,184,272,,,1.3900000000000001,617.8977717999369,618.1891022999771,618.1891022999771,618.3554881999735,618.3723073999863,None,up,2.338327500037849,618.3723073999863,None,618.3723073999863,619.7373913000338,0.24498630012385547,None,,,,,,,,,53,001,2020_Jan_10_1604,untitled,3.1.0,60.245064875367554,
005,R,N,180,R,N,005RN180RN,HRN,0,185,185,196,,,0.904,620.9338534998242,621.2208110999782,621.2208110999782,621.4364783999044,621.4364783999044,None,up,2.9863702999427915,621.4364783999044,None,621.4364783999044,622.3355789999478,0.20675679994747043,None,,,,,,,,,53,001,2020_Jan_10_1604,untitled,3.1.0,60.245064875367554,
397,_4,M,180,R,N,397_4M180RN,HRN,0,186,186,164,,,1.186,624.6400965000503,624.9336107999552,624.9336107999552,625.133898,625.150213399902,None,down,3.418151800055057,625.150213399902,None,625.150213399902,626.3338279998861,0.20267909998074174,None,,,,,,,,,53,001,2020_Jan_10_1604,untitled,3.1.0,60.245064875367554,
200,G,N,315,R,N,200GN315RN,HRN,0,187,187,231,,,0.905,628.8107522998471,629.1131188999861,629.1131188999861,629.2799632998649,629.2979452,None,up,1.8975581000559032,629.2979452,None,629.2979452,630.1956781998742,0.227427699835971,None,,,,,,,,,53,001,2020_Jan_10_1604,untitled,3.1.0,60.245064875367554,
_,G,M,45,_,_,_GM045__,N,0,188,188,9,,,1.317,631.492524500005,631.7791442000307,631.7791442000307,631.911334999837,631.9287164998241,None,down,2.566347499843687,631.9287164998241,None,631.9287164998241,633.2451601999346,0.28109259996563196,None,,,,,,,,,53,001,2020_Jan_10_1604,untitled,3.1.0,60.245064875367554,
196,G,N,135,R,N,196GN135RN,HRN,0,189,189,227,,,1.379,634.6798655998427,634.9745680999476,634.9745680999476,635.2084633999038,635.2274706999306,None,up,2.649341900134459,635.2274706999306,None,635.2274706999306,636.5899290998932,0.17245130008086562,None,,,,,,,,,53,001,2020_Jan_10_1604,untitled,3.1.0,60.245064875367554,
_,G,N,270,_,_,_GN270__,N,0,190,190,62,,,1.014,638.1965297998395,638.4990138998255,638.4990138998255,638.5880050000269,638.6053569000214,None,up,1.8686538999900222,638.6053569000214,None,638.6053569000214,639.6039164999966,0.3071051000151783,None,,,,,,,,,53,001,2020_Jan_10_1604,untitled,3.1.0,60.245064875367554,
033,R,N,0,L,N,033RN000LN,HLN,0,191,191,200,,,1.2,640.717333199922,641.0192128999624,641.0192128999624,641.185923699988,641.2029691999778,None,up,2.117154100211337,641.2029691999778,None,641.2029691999778,642.3847809999716,0.22999450005590916,None,,,,,,,,,53,001,2020_Jan_10_1604,untitled,3.1.0,60.245064875367554,
172,F,M,135,L,N,172FM135LN,HLN,0,192,192,123,,,0.912,643.605933799874,643.9003798998892,643.9003798998892,644.0336482999846,644.0530866999179,None,down,1.8477694999892265,644.0530866999179,None,644.0530866999179,644.9502128998283,0.27173490007407963,None,,,,,,,,,53,001,2020_Jan_10_1604,untitled,3.1.0,60.245064875367554,
491,_5,M,90,L,N,491_5M090LN,HLN,0,193,193,186,,,1.331,646.1497763998341,646.4476446998306,646.4476446998306,646.6142714000307,646.6309920998756,None,down,2.4873192000668496,646.6309920998756,None,646.6309920998756,647.9465731999371,0.23152639996260405,None,,,,,,,,,53,001,2020_Jan_10_1604,untitled,3.1.0,60.245064875367554,
137,F,M,0,R,N,137FM000RN,HRN,0,194,194,112,,,1.073,649.4108179998584,649.6962522999384,649.6962522999384,649.8446459998377,649.8618287998252,None,down,1.9707388000097126,649.8618287998252,None,649.8618287998252,650.9136345000006,0.2715777000412345,None,,,,,,,,,53,001,2020_Jan_10_1604,untitled,3.1.0,60.245064875367554,
463,_5,M,270,R,N,463_5M270RN,HRN,0,195,195,182,,,0.984,652.0429088999517,652.3433981998824,652.3433981998824,652.542544499971,652.5599690000527,None,down,2.5697051000315696,652.5599690000527,None,652.5599690000527,653.5420184000395,0.19818910001777112,None,,,,,,,,,53,001,2020_Jan_10_1604,untitled,3.1.0,60.245064875367554,
139,F,M,90,R,N,139FM090RN,HRN,0,196,196,114,,,1.252,655.3508661000524,655.6397024998441,655.6397024998441,655.8395124999806,655.8565199000295,None,down,2.2875002999790013,655.8565199000295,None,655.8565199000295,657.105215099873,0.20781420008279383,None,,,,,,,,,53,001,2020_Jan_10_1604,untitled,3.1.0,60.245064875367554,
418,_4,N,45,L,N,418_4N045LN,HLN,0,197,197,265,,,1.343,658.3953976999037,658.6897479000036,658.6897479000036,658.8552751999814,658.8724044000264,None,up,2.2002374001313,658.8724044000264,None,658.8724044000264,660.2039626999758,0.23445359990000725,None,,,,,,,,,53,001,2020_Jan_10_1604,untitled,3.1.0,60.245064875367554,
197,G,N,180,R,N,197GN180RN,HRN,0,198,198,228,,,1.3940000000000001,661.3735660000239,661.6676961998455,661.6676961998455,661.7843031999655,661.801897799829,None,up,3.1832467999774963,661.801897799829,None,661.801897799829,663.1834872998297,0.2848764001391828,None,,,,,,,,,53,001,2020_Jan_10_1604,untitled,3.1.0,60.245064875367554,
_,G,M,225,_,_,_GM225__,N,0,199,199,13,,,0.912,665.2465234999545,665.5475907998625,665.5475907998625,665.6973798000254,665.7144847000018,None,down,2.634856400080025,665.7144847000018,None,665.7144847000018,666.6134434998967,0.245578900212422,None,,,,,,,,,53,001,2020_Jan_10_1604,untitled,3.1.0,60.245064875367554,
_,G,N,90,_,_,_GN090__,N,0,200,200,58,,,1.233,668.6137685000431,668.9113254998811,668.9113254998811,669.0612421999685,669.0782506000251,None,up,2.382784200133756,669.0782506000251,None,669.0782506000251,670.2939322998282,0.24919550004415214,None,,,,,,,,,53,001,2020_Jan_10_1604,untitled,3.1.0,60.245064875367554,
390,_4,N,225,R,N,390_4N225RN,HRN,0,201,201,261,,,1.113,671.6504907000344,671.9420761999208,671.9420761999208,672.17806379986,672.1938425998669,None,up,1.9052106998860836,672.1938425998669,None,672.1938425998669,673.2914911999833,0.17347120004706085,None,,,,,,,,,53,001,2020_Jan_10_1604,untitled,3.1.0,60.245064875367554,
_,_5,N,180,_,_,__5N180__,N,0,202,202,92,,,0.809,674.3267719999421,674.6236691998783,674.6236691998783,674.8241967998911,674.8241967998911,None,up,3.19708209997043,674.8241967998911,None,674.8241967998911,675.6231925999746,0.21348069980740547,None,,,,,,,,,53,001,2020_Jan_10_1604,untitled,3.1.0,60.245064875367554,
164,F,N,135,L,N,164FN135LN,HLN,0,203,203,219,,,1.217,678.2080007998738,678.5027642999776,678.5027642999776,678.7364566999022,678.7542150998488,None,up,2.6197463998105377,678.7542150998488,None,678.7542150998488,679.9566056998447,0.17104969988577068,None,,,,,,,,,53,001,2020_Jan_10_1604,untitled,3.1.0,60.245064875367554,
_,_2,N,225,_,_,__2N225__,N,0,204,204,77,,,1.237,681.5939108999446,681.8849696000107,681.8849696000107,682.0834537998307,682.1011118998285,None,down,2.4359501998405904,682.1011118998285,None,682.1011118998285,683.3326005998533,0.20823909994214773,None,,,,,,,,,53,001,2020_Jan_10_1604,untitled,3.1.0,60.245064875367554,
175,F,M,270,L,N,175FM270LN,HLN,0,205,205,126,,,0.7010000000000001,684.750299599953,685.0479681999423,685.0479681999423,685.2472593998536,685.2650013000239,None,down,2.2488938998430967,685.2650013000239,None,685.2650013000239,685.963133599842,0.20060540013946593,None,,,,,,,,,53,001,2020_Jan_10_1604,untitled,3.1.0,60.245064875367554,
_,R,M,45,_,_,_RM045__,N,0,206,206,17,,,1.338,687.7240261000115,688.0115084999707,688.0115084999707,688.2283894999418,688.2449761000462,None,down,2.8202326002065092,688.2449761000462,None,688.2449761000462,689.5769934998825,0.19409010000526905,None,,,,,,,,,53,001,2020_Jan_10_1604,untitled,3.1.0,60.245064875367554,
400,_4,M,315,R,N,400_4M315RN,HRN,0,207,207,167,,,1.214,691.2953520000447,691.5920454999432,691.5920454999432,691.775098499842,691.7922334999312,None,down,2.602069800021127,691.7922334999312,None,691.7922334999312,692.991077200044,0.21626440016552806,None,,,,,,,,,53,001,2020_Jan_10_1604,untitled,3.1.0,60.245064875367554,
424,_4,N,315,L,N,424_4N315LN,HLN,0,208,208,271,,,0.773,694.5869722999632,694.8725321998354,694.8725321998354,695.1054561999626,695.1233436998446,None,up,1.6992240999825299,695.1233436998446,None,695.1233436998446,695.8784898000304,0.17767210002057254,None,,,,,,,,,53,001,2020_Jan_10_1604,untitled,3.1.0,60.245064875367554,
_,G,N,135,_,_,_GN135__,N,0,209,209,59,,,1.178,697.1801536998246,697.4715046000201,697.4715046000201,697.5367971998639,697.5534677000251,None,up,2.066324100131169,697.5534677000251,None,697.5534677000251,698.7225919000339,0.3401536999735981,None,,,,,,,,,53,001,2020_Jan_10_1604,untitled,3.1.0,60.245064875367554,
259,_2,N,90,R,N,259_2N090RN,HRN,0,210,210,242,,,0.8130000000000001,699.8048792998306,700.1025753999129,700.1025753999129,700.334052799968,700.3505648998544,None,up,2.0168705999385566,700.3505648998544,None,700.3505648998544,701.1501275999472,0.17058150004595518,None,,,,,,,,,53,001,2020_Jan_10_1604,untitled,3.1.0,60.245064875367554,
_,F,N,270,_,_,_FN270__,N,0,211,211,54,,,1.29,702.7123767000157,703.0001423999202,703.0001423999202,703.0817766999826,703.0985697000287,None,up,2.4831079998984933,703.0985697000287,None,703.0985697000287,704.3806653998327,0.33007570006884634,None,,,,,,,,,53,001,2020_Jan_10_1604,untitled,3.1.0,60.245064875367554,
037,R,N,180,L,N,037RN180LN,HLN,0,212,212,204,,,0.748,705.9019688998815,706.1962262999732,706.1962262999732,706.2968062998261,706.3159637998324,None,up,2.2655435998458415,706.3159637998324,None,706.3159637998324,707.0479681999423,0.30688520008698106,None,,,,,,,,,53,001,2020_Jan_10_1604,untitled,3.1.0,60.245064875367554,
394,_4,M,45,R,N,394_4M045RN,HRN,0,213,213,161,,,1.329,708.8170417000074,709.1103858000133,709.1103858000133,709.2932903999463,709.3104608999565,None,down,2.2695714998990297,709.3104608999565,None,709.3104608999565,710.6251669998746,0.21862389985471964,None,,,,,,,,,53,001,2020_Jan_10_1604,untitled,3.1.0,60.245064875367554,
168,F,N,315,L,N,168FN315LN,HLN,0,214,214,223,,,1.064,711.8911969999317,712.1909451999236,712.1909451999236,712.2907063998282,712.3100898999255,None,up,1.883348000003025,712.3100898999255,None,712.3100898999255,713.3562846998684,0.2950536001008004,None,,,,,,,,,53,001,2020_Jan_10_1604,untitled,3.1.0,60.245064875367554,
_,F,M,225,_,_,_FM225__,N,0,215,215,5,,,1.108,714.3716402999125,714.6734802999999,714.6734802999999,714.9048198999371,714.9216267999727,None,down,2.303778300061822,714.9216267999727,None,714.9216267999727,716.0205009998754,0.16455089999362826,None,,,,,,,,,53,001,2020_Jan_10_1604,untitled,3.1.0,60.245064875367554,
460,_5,M,135,R,N,460_5M135RN,HRN,0,216,216,179,,,0.777,717.5235245998483,717.8186752998736,717.8186752998736,717.9353706999682,717.9546803999692,None,down,2.3344095000065863,717.9546803999692,None,717.9546803999692,718.7203446999192,0.2861034001689404,None,,,,,,,,,53,001,2020_Jan_10_1604,untitled,3.1.0,60.245064875367554,
399,_4,M,270,R,N,399_4M270RN,HRN,0,217,217,166,,,1.308,720.4929130000528,720.7828069999814,720.7828069999814,721.0007551000454,721.0195190999657,None,down,2.1820316000375897,721.0195190999657,None,721.0195190999657,722.3155410999898,0.189327800180763,None,,,,,,,,,53,001,2020_Jan_10_1604,untitled,3.1.0,60.245064875367554,
_,F,M,0,_,_,_FM000__,N,0,218,218,0,,,0.8180000000000001,723.4537400999106,723.7473784999456,723.7473784999456,723.9139544998761,723.9311995999888,None,down,1.498711199965328,723.9311995999888,None,723.9311995999888,724.7470294998493,0.2360684999730438,None,,,,,,,,,53,001,2020_Jan_10_1604,untitled,3.1.0,60.245064875367554,
485,_5,N,180,L,N,485_5N180LN,HLN,0,219,219,284,,,0.705,725.6190265000332,725.914034999907,725.914034999907,726.1451900999527,726.1617377998773,None,up,2.201775100082159,726.1617377998773,None,726.1617377998773,726.8441061999183,0.17237329995259643,None,,,,,,,,,53,001,2020_Jan_10_1604,untitled,3.1.0,60.245064875367554,
240,G,M,315,L,N,240GM315LN,HLN,0,220,220,143,,,1.108,728.6979256998748,728.9925887000281,728.9925887000281,729.1086250999942,729.1086250999942,None,down,2.084559799870476,729.1086250999942,None,729.1086250999942,730.1935939998366,0.31432759994640946,None,,,,,,,,,53,001,2020_Jan_10_1604,untitled,3.1.0,60.245064875367554,
236,G,M,135,L,N,236GM135LN,HLN,0,221,221,139,,,1.29,731.4321063999087,731.7231833999977,731.7231833999977,731.9066383999307,731.9241255999077,None,down,2.5189348999410868,731.9241255999077,None,731.9241255999077,733.205570399994,0.21878380002453923,None,,,,,,,,,53,001,2020_Jan_10_1604,untitled,3.1.0,60.245064875367554,
453,_5,N,180,R,N,453_5N180RN,HRN,0,222,222,276,,,1.291,734.6953912999015,734.9871644999366,734.9871644999366,735.1536099000368,735.170930699911,None,None,,735.170930699911,None,735.170930699911,736.4560211000498,0.23576249997131526,None,,,,,,,,,53,001,2020_Jan_10_1604,untitled,3.1.0,60.245064875367554,
486,_5,N,225,L,N,486_5N225LN,HLN,0,223,223,285,,,1.079,739.0711987998802,739.0711987998802,739.0711987998802,739.3684829999693,739.3684829999693,739.0711987998802,up,2.3678076998330653,739.3684829999693,None,739.3684829999693,740.4325730998535,0.42223919997923076,None,,,,,,,,,53,001,2020_Jan_10_1604,untitled,3.1.0,60.245064875367554,
_,_5,M,90,_,_,__5M090__,N,0,224,224,42,,,0.736,742.005301799858,742.2973574998323,742.2973574998323,742.447246799944,742.4638616999146,None,down,2.9820302000734955,742.4638616999146,None,742.4638616999146,743.1975981998257,0.2525420000310987,None,,,,,,,,,53,001,2020_Jan_10_1604,untitled,3.1.0,60.245064875367554,
239,G,M,270,L,N,239GM270LN,HLN,0,225,225,142,,,1.095,745.6465072999708,745.9454222999047,745.9454222999047,746.1625115999486,746.1777586999815,None,down,2.4680019998922944,746.1777586999815,None,746.1777586999815,747.260353700025,0.18493410013616085,None,,,,,,,,,53,001,2020_Jan_10_1604,untitled,3.1.0,60.245064875367554,
_,F,M,135,_,_,_FM135__,N,0,226,226,3,,,1.1300000000000001,748.8578544999473,749.1582889999263,749.1582889999263,749.3580056999344,749.3750362000428,None,down,2.7016553999856114,749.3750362000428,None,749.3750362000428,750.4903191998601,0.19575600000098348,None,,,,,,,,,53,001,2020_Jan_10_1604,untitled,3.1.0,60.245064875367554,
_,R,N,45,_,_,_RN045__,N,0,227,227,65,,,0.86,752.4007007000037,752.6882712000515,752.6882712000515,752.7883244999684,752.8064745999873,None,up,1.7652940000407398,752.8064745999873,None,752.8064745999873,753.6572530998383,0.30812230007722974,None,,,,,,,,,53,001,2020_Jan_10_1604,untitled,3.1.0,60.245064875367554,
299,_2,M,90,L,N,299_2M090LN,HLN,0,228,228,154,,,1.065,754.8241620999761,755.1203737999313,755.1203737999313,755.2866098999511,755.3044214998372,None,down,2.702265700092539,755.3044214998372,None,755.3044214998372,756.3521665998269,0.23715310008265078,None,,,,,,,,,53,001,2020_Jan_10_1604,untitled,3.1.0,60.245064875367554,
203,G,M,90,R,N,203GM090RN,HRN,0,229,229,130,,,1.2530000000000001,758.3033626000397,758.5998764999676,758.5998764999676,758.7165881998371,758.7336778999306,None,down,2.664944900199771,758.7336778999306,None,758.7336778999306,759.9698709999211,0.2814565999433398,None,,,,,,,,,53,001,2020_Jan_10_1604,untitled,3.1.0,60.245064875367554,
_,R,N,180,_,_,_RN180__,N,0,230,230,68,,,1.151,761.5780793000013,761.8804271998815,761.8804271998815,762.113422599854,762.1302526998334,None,up,2.6361388000659645,762.1302526998334,None,762.1302526998334,763.2627121000551,0.1676421999000013,None,,,,,,,,,53,001,2020_Jan_10_1604,untitled,3.1.0,60.245064875367554,
_,F,M,270,_,_,_FM270__,N,0,231,231,6,,,0.875,764.9765916999895,765.2771073998883,765.2771073998883,765.4768215999939,765.4936019999441,None,down,2.321059999987483,765.4936019999441,None,765.4936019999441,766.3594400000293,0.19821660011075437,None,,,,,,,,,53,001,2020_Jan_10_1604,untitled,3.1.0,60.245064875367554,
261,_2,N,180,R,N,261_2N180RN,HRN,0,232,232,244,,,0.903,768.0210049999878,768.3100391000044,768.3100391000044,768.5245326999575,768.5418384999502,None,down,3.1673302000854164,768.5418384999502,None,768.5418384999502,769.4412505999207,0.19385189982131124,None,,,,,,,,,53,001,2020_Jan_10_1604,untitled,3.1.0,60.245064875367554,
_,G,M,90,_,_,_GM090__,N,0,233,233,10,,,0.805,771.9399577998556,772.2381746999454,772.2381746999454,772.4215877000242,772.4394397998694,None,down,2.0818897001445293,772.4394397998694,None,772.4394397998694,773.238504299894,0.21656390000134706,None,,,,,,,,,53,001,2020_Jan_10_1604,untitled,3.1.0,60.245064875367554,
135,F,N,270,R,N,135FN270RN,HRN,0,234,234,214,,,0.737,774.7575387000106,775.0531502999365,775.0531502999365,775.2384156000335,775.2579470998608,None,down,1.7623912999406457,775.2579470998608,None,775.2579470998608,775.9720655998681,0.22058590012602508,None,,,,,,,,,53,001,2020_Jan_10_1604,untitled,3.1.0,60.245064875367554,
458,_5,M,45,R,N,458_5M045RN,HRN,0,235,235,177,,,0.791,777.2277935999446,777.5203331999946,777.5203331999946,777.7332728998736,777.7520775999874,None,down,2.4465976001229137,777.7520775999874,None,777.7520775999874,778.5322105998639,0.19355940003879368,None,,,,,,,,,53,001,2020_Jan_10_1604,untitled,3.1.0,60.245064875367554,
_,R,N,90,_,_,_RN090__,N,0,236,236,66,,,0.837,780.388676899951,780.6806556999218,780.6806556999218,780.9162727999501,780.9312354999129,None,up,2.264984600013122,780.9312354999129,None,780.9312354999129,781.7463773000054,0.17820329987443984,None,,,,,,,,,53,001,2020_Jan_10_1604,untitled,3.1.0,60.245064875367554,
042,R,M,45,L,N,042RM045LN,HLN,0,237,237,105,,,0.733,783.4060596998315,783.7093328000046,783.7093328000046,783.9111047999468,783.9288111999631,None,down,1.6710795999970287,783.9288111999631,None,783.9288111999631,784.6442126999609,0.19720549997873604,None,,,,,,,,,53,001,2020_Jan_10_1604,untitled,3.1.0,60.245064875367554,
303,_2,M,270,L,N,303_2M270LN,HLN,0,238,238,158,,,1.063,785.7952262999024,786.0941729999613,786.0941729999613,786.3266199999489,786.3266199999489,None,down,2.7841221999842674,786.3266199999489,None,786.3266199999489,787.3750016000122,0.18291010009124875,None,,,,,,,,,53,001,2020_Jan_10_1604,untitled,3.1.0,60.245064875367554,
_,_4,M,315,_,_,__4M315__,N,0,239,239,39,,,1.385,789.3248298000544,789.6224326998927,789.6224326998927,789.8223557998426,789.8391715998296,None,up,2.353200700134039,789.8391715998296,None,789.8391715998296,791.2072456998285,0.201062599895522,None,,,,,,,,,53,001,2020_Jan_10_1604,untitled,3.1.0,60.245064875367554,
291,_2,N,90,L,N,291_2N090LN,HLN,0,240,240,250,,,0.841,792.411200299859,792.70432839985,792.70432839985,792.9029888999648,792.9204080000054,None,up,1.8327190999407321,792.9204080000054,None,792.9204080000054,793.7538089998998,0.2035492998547852,None,,,,,,,,,53,001,2020_Jan_10_1604,untitled,3.1.0,60.245064875367554,
_,G,M,315,_,_,_GM315__,N,0,241,241,15,,,0.776,794.9674712000415,795.2687742998824,795.2687742998824,795.4710690998472,795.4855210999958,None,down,2.1346847000531852,795.4855210999958,None,795.4855210999958,796.250593499979,0.20192669983953238,None,,,,,,,,,53,001,2020_Jan_10_1604,untitled,3.1.0,60.245064875367554,
007,R,N,270,R,N,007RN270RN,HRN,0,242,242,198,,,1.004,797.842756500002,798.133725799853,798.133725799853,798.3342488999479,798.3506396999583,None,up,1.9823081998620182,798.3506396999583,None,798.3506396999583,799.3477159999311,0.209577800007537,None,,,,,,,,,53,001,2020_Jan_10_1604,untitled,3.1.0,60.245064875367554,
229,G,N,180,L,N,229GN180LN,HLN,0,243,243,236,,,1.289,800.6497978998814,800.9462947000284,800.9462947000284,801.0462797998916,801.0634294999763,None,up,3.2509537001606077,801.0634294999763,None,801.0634294999763,802.3478019998875,0.2985803000628948,None,,,,,,,,,53,001,2020_Jan_10_1604,untitled,3.1.0,60.245064875367554,
_,G,N,225,_,_,_GN225__,N,0,244,244,61,,,1.2610000000000001,804.5379470000044,804.8262718999758,804.8262718999758,805.0260178998578,805.043400199851,None,up,2.2360706001054496,805.043400199851,None,805.043400199851,806.2916059000418,0.207848499994725,None,,,,,,,,,53,001,2020_Jan_10_1604,untitled,3.1.0,60.245064875367554,
167,F,N,270,L,N,167FN270LN,HLN,0,245,245,222,,,1.344,807.5978373999242,807.8900941999163,807.8900941999163,808.006752199959,808.006752199959,None,up,2.4691270999610424,808.006752199959,None,808.006752199959,809.3403096999973,0.29914549994282424,None,,,,,,,,,53,001,2020_Jan_10_1604,untitled,3.1.0,60.245064875367554,
001,R,N,0,R,N,001RN000RN,HRN,0,246,246,192,,,1.3840000000000001,810.687578999903,810.9878415998537,810.9878415998537,811.1907617999241,811.2057250998914,None,up,2.0483745001256466,811.2057250998914,None,811.2057250998914,812.5694418998901,0.1982746000867337,None,,,,,,,,,53,001,2020_Jan_10_1604,untitled,3.1.0,60.245064875367554,
136,F,N,315,R,N,136FN315RN,HRN,0,247,247,215,,,0.912,813.4758333000354,813.7711517999414,813.7711517999414,813.968818299938,813.9850170998834,None,up,1.8853196001145989,813.9850170998834,None,813.9850170998834,814.883950999938,0.20878369989804924,None,,,,,,,,,53,001,2020_Jan_10_1604,untitled,3.1.0,60.245064875367554,
009,R,M,0,R,N,009RM000RN,HRN,0,248,248,96,,,1.033,816.1057432999369,816.4000985999592,816.4000985999592,816.5826781999785,816.6017412999645,None,down,2.0648908000439405,816.6017412999645,None,816.6017412999645,817.6159157999791,0.21652809996157885,None,,,,,,,,,53,001,2020_Jan_10_1604,untitled,3.1.0,60.245064875367554,
_,R,M,270,_,_,_RM270__,N,0,249,249,22,,,0.728,818.9152980998624,819.2137746999506,819.2137746999506,819.3807339998893,819.3980064999778,None,down,2.117320700082928,819.3980064999778,None,819.3980064999778,820.1129846000113,0.2322702999226749,None,,,,,,,,,53,001,2020_Jan_10_1604,untitled,3.1.0,60.245064875367554,
176,F,M,315,L,N,176FM315LN,HLN,0,250,250,127,,,1.07,821.76431889995,822.0609955999535,822.0609955999535,822.2294419999234,822.2494079000317,None,down,2.227261699968949,822.2494079000317,None,822.2494079000317,823.3010648000054,0.23568779998458922,None,,,,,,,,,53,001,2020_Jan_10_1604,untitled,3.1.0,60.245064875367554,
483,_5,N,90,L,N,483_5N090LN,HLN,0,251,251,282,,,0.81,824.6758407999296,824.9750534000341,824.9750534000341,825.1917051998898,825.2089291999582,None,up,1.6381098998244852,825.2089291999582,None,825.2089291999582,826.008028900018,0.18457640009000897,None,,,,,,,,,53,001,2020_Jan_10_1604,untitled,3.1.0,60.245064875367554,
295,_2,N,270,L,N,295_2N270LN,HLN,0,252,252,254,,,0.762,827.0783104000147,827.3732676999643,827.3732676999643,827.5565414999146,827.5734442998655,None,up,1.6664660999085754,827.5734442998655,None,827.5734442998655,828.3224201998673,0.21830569999292493,None,,,,,,,,,53,001,2020_Jan_10_1604,untitled,3.1.0,60.245064875367554,
_,_5,M,135,_,_,__5M135__,N,0,253,253,43,,,1.337,829.5463864000048,829.837741299998,829.837741299998,829.9545098999515,829.972585799871,None,None,,829.972585799871,None,829.972585799871,831.2867099000141,0.289727000053972,None,,,,,,,,,53,001,2020_Jan_10_1604,untitled,3.1.0,60.245064875367554,
270,_2,M,225,R,N,270_2M225RN,HRN,0,254,254,149,,,0.9520000000000001,833.6689563998953,833.9680035999045,833.9680035999045,834.151396199828,834.1689102998935,833.6689563998953,down,2.4972917998675257,834.1689102998935,None,834.1689102998935,835.0999087998644,0.2166210999712348,None,,,,,,,,,53,001,2020_Jan_10_1604,untitled,3.1.0,60.245064875367554,
496,_5,M,315,L,N,496_5M315LN,HLN,0,255,255,191,,,1.078,836.8473489999305,837.1490304998588,837.1490304998588,837.3816463998519,837.3999276000541,None,down,2.8648932999931276,837.3999276000541,None,837.3999276000541,838.4520931998268,0.16771459998562932,None,,,,,,,,,53,001,2020_Jan_10_1604,untitled,3.1.0,60.245064875367554,
_,_5,N,135,_,_,__5N135__,N,0,256,256,91,,,1.225,840.450342600001,840.7447380998638,840.7447380998638,840.9777822999749,840.9945747000165,None,up,3.2484456999227405,840.9945747000165,None,840.9945747000165,842.2107899000403,0.17036719992756844,None,,,,,,,,,53,001,2020_Jan_10_1604,untitled,3.1.0,60.245064875367554,
_,_5,M,0,_,_,__5M000__,N,0,257,257,40,,,0.72,844.4503897998948,844.7410336998291,844.7410336998291,844.9578342000023,844.9746326999739,None,down,2.7373514000792056,844.9746326999739,None,844.9746326999739,845.6739802998491,0.1946134001482278,None,,,,,,,,,53,001,2020_Jan_10_1604,untitled,3.1.0,60.245064875367554,
166,F,N,225,L,N,166FN225LN,HLN,0,258,258,221,,,0.789,847.9306617998518,848.2234797000419,848.2234797000419,848.421663899906,848.4389579000417,None,up,1.849196600029245,848.4389579000417,None,848.4389579000417,849.2223423998803,0.20279700006358325,None,,,,,,,,,53,001,2020_Jan_10_1604,untitled,3.1.0,60.245064875367554,
422,_4,N,225,L,N,422_4N225LN,HLN,0,259,259,269,,,1.2770000000000001,850.5260592999402,850.8197709999513,850.8197709999513,851.002634699922,851.0205255998299,None,up,2.084523599827662,851.0205255998299,None,851.0205255998299,852.2857816999312,0.22281950013712049,None,,,,,,,,,53,001,2020_Jan_10_1604,untitled,3.1.0,60.245064875367554,
140,F,M,135,R,N,140FM135RN,HRN,0,260,260,115,,,0.793,853.3273140999954,853.6175895999186,853.6175895999186,853.8173618000001,853.8337844000198,None,down,2.2497508998494595,853.8337844000198,None,853.8337844000198,854.6240489999764,0.20687819994054735,None,,,,,,,,,53,001,2020_Jan_10_1604,untitled,3.1.0,60.245064875367554,
_,R,M,180,_,_,_RM180__,N,0,261,261,20,,,1.366,856.2715532998554,856.5644089998677,856.5644089998677,856.7975339000113,856.8143358000088,None,down,2.9533559000119567,856.8143358000088,None,856.8143358000088,858.1640600999817,0.17443170002661645,None,,,,,,,,,53,001,2020_Jan_10_1604,untitled,3.1.0,60.245064875367554,
_,R,N,225,_,_,_RN225__,N,0,262,262,69,,,0.87,859.9797167000361,860.2776800999418,860.2776800999418,860.4779980999883,860.4944439998362,None,up,1.8214749000035226,860.4944439998362,None,860.4944439998362,861.3602873999625,0.19993990007787943,None,,,,,,,,,53,001,2020_Jan_10_1604,untitled,3.1.0,60.245064875367554,
036,R,N,135,L,N,036RN135LN,HLN,0,263,263,203,,,1.323,862.5295426999219,862.8255408999976,862.8255408999976,863.0254863998853,863.0437383998651,None,up,2.350807399954647,863.0437383998651,None,863.0437383998651,864.3605628998484,0.20038060005754232,None,,,,,,,,,53,001,2020_Jan_10_1604,untitled,3.1.0,60.245064875367554,
173,F,M,180,L,N,173FM180LN,HLN,0,264,264,124,,,0.742,865.6515983999707,865.9417782998644,865.9417782998644,866.1068410999142,866.1253158999607,None,down,2.51456609996967,866.1253158999607,None,866.1253158999607,866.8562088999897,0.24271350004710257,None,,,,,,,,,53,001,2020_Jan_10_1604,untitled,3.1.0,60.245064875367554,
_,_5,M,225,_,_,__5M225__,N,0,265,265,45,,,1.295,868.8839507999364,869.187162599992,869.187162599992,869.3540699000005,869.3717505999375,None,down,3.198154699988663,869.3717505999375,None,869.3717505999375,870.6996189998463,0.228868099860847,None,,,,,,,,,53,001,2020_Jan_10_1604,untitled,3.1.0,60.245064875367554,
_,_2,M,270,_,_,__2M270__,N,0,266,266,30,,,1.161,872.7664336999878,873.0672597999219,873.0672597999219,873.2869352998678,873.3026916000526,None,down,2.2796408999711275,873.3026916000526,None,873.3026916000526,874.4485241000075,0.1835159999318421,None,,,,,,,,,53,001,2020_Jan_10_1604,untitled,3.1.0,60.245064875367554,
144,F,M,315,R,N,144FM315RN,HRN,0,267,267,119,,,0.77,875.8041650999803,876.0972326998599,876.0972326998599,876.2972933000419,876.3151030999143,None,down,1.683994600083679,876.3151030999143,None,876.3151030999143,877.0634377999231,0.20598149998113513,None,,,,,,,,,53,001,2020_Jan_10_1604,untitled,3.1.0,60.245064875367554,
_,_4,N,45,_,_,__4N045__,N,0,268,268,81,,,0.904,878.1922638998367,878.4949050999712,878.4949050999712,878.7119990999345,878.7297471000347,None,up,1.6514848000369966,878.7297471000347,None,878.7297471000347,879.6279519000091,0.1786440999712795,None,,,,,,,,,53,001,2020_Jan_10_1604,untitled,3.1.0,60.245064875367554,
234,G,M,45,L,N,234GM045LN,HLN,0,269,269,137,,,1.36,880.69980819989,880.9929402000271,880.9929402000271,881.0931694998872,881.1105241000187,None,down,2.634671499952674,881.1105241000187,None,881.1105241000187,882.4590512998402,0.2997757000848651,None,,,,,,,,,53,001,2020_Jan_10_1604,untitled,3.1.0,60.245064875367554,
_,_5,M,270,_,_,__5M270__,N,0,270,270,46,,,0.928,884.0842567998916,884.3739459998906,884.3739459998906,884.4570351999719,884.4744533998892,None,down,2.5693015998695046,884.4744533998892,None,884.4744533998892,885.3900719999801,0.3210231000557542,None,,,,,,,,,53,001,2020_Jan_10_1604,untitled,3.1.0,60.245064875367554,
_,F,N,45,_,_,_FN045__,N,0,271,271,49,,,1.391,887.3570467999671,887.6538384000305,887.6538384000305,887.7736420000438,887.7887185998261,None,up,2.532312300056219,887.7887185998261,None,887.7887185998261,889.1530398000032,0.292422299971804,None,,,,,,,,,53,001,2020_Jan_10_1604,untitled,3.1.0,60.245064875367554,
233,G,M,0,L,N,233GM000LN,HLN,0,272,272,136,,,1.065,890.5505108998623,890.8509805998765,890.8509805998765,891.0365051999688,891.0529976000544,None,down,2.1340135999489576,891.0529976000544,None,891.0529976000544,892.1021012000274,0.21424230001866817,None,,,,,,,,,53,001,2020_Jan_10_1604,untitled,3.1.0,60.245064875367554,
_,R,M,225,_,_,_RM225__,N,0,273,273,21,,,0.8300000000000001,893.4026531998534,893.6986222998239,893.6986222998239,893.898536699824,893.9152907000389,None,down,1.916386399883777,893.9152907000389,None,893.9152907000389,894.7310384998564,0.1987133000511676,None,,,,,,,,,53,001,2020_Jan_10_1604,untitled,3.1.0,60.245064875367554,
161,F,N,0,L,N,161FN000LN,HLN,0,274,274,216,,,0.811,896.0160971998703,896.3143821998965,896.3143821998965,896.5468217998277,896.5642513998318,None,up,1.5829555001109838,896.5642513998318,None,896.5642513998318,897.3625183999538,0.17295020003803074,None,,,,,,,,,53,001,2020_Jan_10_1604,untitled,3.1.0,60.245064875367554,
461,_5,M,180,R,N,461_5M180RN,HRN,0,275,275,180,,,0.907,898.4222800999414,898.7113381000236,898.7113381000236,898.860981799895,898.8792542999145,None,down,2.630977400112897,898.8792542999145,None,898.8792542999145,899.7781729998533,0.26033529988490045,None,,,,,,,,,53,001,2020_Jan_10_1604,untitled,3.1.0,60.245064875367554,
389,_4,N,180,R,N,389_4N180RN,HRN,0,276,276,260,,,1.355,901.9189128000289,901.9189128000289,902.2009348999709,902.2270188999828,902.2460991998669,None,up,3.198676300002262,902.2460991998669,None,902.2460991998669,903.590114899911,0.39208660018630326,None,,,,,,,,,53,001,2020_Jan_10_1604,untitled,3.1.0,60.245064875367554,
_,F,N,135,_,_,_FN135__,N,0,277,277,51,,,0.935,905.7592233000323,906.054620699957,906.054620699957,906.1543719000183,906.1712982999161,None,up,2.271598899969831,906.1712982999161,None,906.1712982999161,907.1062940000556,0.3021011999808252,None,,,,,,,,,53,001,2020_Jan_10_1604,untitled,3.1.0,60.245064875367554,
_,F,N,315,_,_,_FN315__,N,0,278,278,55,,,0.758,908.6543552998919,908.9518504999578,908.9518504999578,909.1686896998435,909.1686896998435,None,up,1.8532830998301506,909.1686896998435,None,909.1686896998435,909.9186010998674,0.19758519995957613,None,,,,,,,,,53,001,2020_Jan_10_1604,untitled,3.1.0,60.245064875367554,
016,R,M,315,R,N,016RM315RN,HRN,0,279,279,103,,,0.899,911.3826075999532,911.682867599884,911.682867599884,911.752396899974,911.752396899974,None,down,1.734603599878028,911.752396899974,None,911.752396899974,912.6506951998454,0.341736399801448,None,,,,,,,,,53,001,2020_Jan_10_1604,untitled,3.1.0,60.245064875367554,
426,_4,M,45,L,N,426_4M045LN,HLN,0,280,280,169,,,0.7030000000000001,913.7552211999428,914.0477976000402,914.0477976000402,914.2146733999252,914.2146733999252,None,down,1.6036499999463558,914.2146733999252,None,914.2146733999252,914.9152446999215,0.2506531001999974,None,,,,,,,,,53,001,2020_Jan_10_1604,untitled,3.1.0,60.245064875367554,
141,F,M,180,R,N,141FM180RN,HRN,0,281,281,116,,,0.764,916.0627816999331,916.3622198998928,916.3622198998928,916.5483269998804,916.5483269998804,None,down,2.4297982999123633,916.5483269998804,None,916.5483269998804,917.2959049998317,0.23005159990862012,None,,,,,,,,,53,001,2020_Jan_10_1604,untitled,3.1.0,60.245064875367554,
035,R,N,90,L,N,035RN090LN,HLN,0,282,282,202,,,1.229,919.2495448000263,919.5429046000354,919.5429046000354,919.6953594000079,919.7120111000258,None,up,1.996862699976191,919.7120111000258,None,919.7120111000258,920.9261779000517,0.25815750006586313,None,,,,,,,,,53,001,2020_Jan_10_1604,untitled,3.1.0,60.245064875367554,
386,_4,N,45,R,N,386_4N045RN,HRN,0,283,283,257,,,0.8160000000000001,921.9170172000304,922.2071146999951,922.2071146999951,922.4241285000462,922.4404134999495,None,up,1.518772300099954,922.4404134999495,None,922.4404134999495,923.2424902999774,0.1916669001802802,None,,,,,,,,,53,001,2020_Jan_10_1604,untitled,3.1.0,60.245064875367554,
133,F,N,180,R,N,133FN180RN,HRN,0,284,284,212,,,1.224,924.1677840000484,924.4718329999596,924.4718329999596,924.6718418998644,924.6891339998692,None,up,2.4865858999546617,924.6891339998692,None,924.6891339998692,925.904080200009,0.19636539998464286,None,,,,,,,,,53,001,2020_Jan_10_1604,untitled,3.1.0,60.245064875367554,
_,G,M,135,_,_,_GM135__,N,0,285,285,11,,,0.913,927.4134649999905,927.7022110000253,927.7022110000253,927.8867057999596,927.9026333999354,None,down,2.0362954998854548,927.9026333999354,None,927.9026333999354,928.8021056000143,0.22182690002955496,None,,,,,,,,,53,001,2020_Jan_10_1604,untitled,3.1.0,60.245064875367554,
003,R,N,90,R,N,003RN090RN,HRN,0,286,286,194,,,0.791,930.2794880999718,930.5811540998984,930.5811540998984,930.668583399849,930.668583399849,None,up,1.6504401001147926,930.668583399849,None,930.668583399849,931.4495651999023,0.32401320012286305,None,,,,,,,,,53,001,2020_Jan_10_1604,untitled,3.1.0,60.245064875367554,
269,_2,M,180,R,N,269_2M180RN,HRN,0,287,287,148,,,1.371,932.5404236000031,932.8309664998669,932.8309664998669,933.0350891998969,933.0548747000284,None,down,3.211752399802208,933.0548747000284,None,933.0548747000284,934.4171031999867,0.20493180002085865,None,,,,,,,,,53,001,2020_Jan_10_1604,untitled,3.1.0,60.245064875367554,
,,,,,,,,,,,,,,,,,,,,,,,,,,,,,936.2854424999095,None,942.942387699848,None,945.6553872998338,None,948.0845236999448,None,,,,,,,
