Number,Letter,type,Orientation,human,face_type,image,picture,trials.thisRepN,trials.thisTrialN,trials.thisN,trials.thisIndex,text.started,text.stopped,stimulus_duration,CROSS.started,CROSS.stopped,BLANK.started,BLANK.stopped,TEST.started,TEST.stopped,key_JUDGE.keys,key_JUDGE.started,key_JUDGE.stopped,image_2.started,image_2.stopped,ISI.started,ISI.stopped,key_JUDGE.rt,q1.started,q1.stopped,q2.started,q2.stopped,q3.started,q3.stopped,text_2.started,text_2.stopped,participant,session,date,expName,psychopyVersion,frameRate,
_,_2,N,270,_,_,__2N270__,N,0,0,0,78,356.0121993,None,1.0170000000000001,387.3449746,387.3449746,387.3449746,387.48442950000003,387.48442950000003,None,None,387.48442950000003,None,387.48442950000003,388.31743730000005,0.5967726000000084,None,,,,,,,,,,54,001,2020_Jan_13_1334,untitled,3.1.0,60.06078151091312,
450,_5,N,45,R,N,450_5N045RN,HRN,0,1,1,273,,,1.1,391.07477630000005,391.36420269999996,391.36420269999996,391.5310177,391.5310177,391.07477630000005,up,391.5310177,None,391.5310177,392.6305271,0.25605719999998655,None,3.2486829999999145,,,,,,,,,54,001,2020_Jan_13_1334,untitled,3.1.0,60.06078151091312,
238,G,M,225,L,N,238GM225LN,HLN,0,2,2,141,,,0.737,395.12393069999996,395.41242580000005,395.41242580000005,395.4941172,395.5111838,None,None,395.5111838,None,395.5111838,396.2275369,0.3320453000000043,None,,,,,,,,,,54,001,2020_Jan_13_1334,untitled,3.1.0,60.06078151091312,
175,F,M,270,L,N,175FM270LN,HLN,0,3,3,126,,,0.849,399.2652368,399.55771590000006,399.55771590000006,399.73536939999997,399.73536939999997,399.2652368,down,399.73536939999997,None,399.73536939999997,400.53933730000006,0.2799859999998944,None,2.570239700000002,,,,,,,,,54,001,2020_Jan_13_1334,untitled,3.1.0,60.06078151091312,
_,_5,M,90,_,_,__5M090__,N,0,4,4,42,,,1.0050000000000001,402.58417899999995,402.8856653,402.8856653,403.02080850000004,403.03727089999995,None,down,403.03727089999995,None,403.03727089999995,404.0202505,0.2679349000000002,None,3.3144529999999577,,,,,,,,,54,001,2020_Jan_13_1334,untitled,3.1.0,60.06078151091312,
400,_4,M,315,R,N,400_4M315RN,HRN,0,5,5,167,,,1.203,406.5344413,406.8341776,406.8341776,407.06728580000004,407.08377340000004,None,up,407.08377340000004,None,407.08377340000004,408.2660939,0.1727703000000247,None,2.532378400000084,,,,,,,,,54,001,2020_Jan_13_1334,untitled,3.1.0,60.06078151091312,
_,G,M,270,_,_,_GM270__,N,0,6,6,14,,,0.9570000000000001,409.91465919999996,410.21445070000004,410.21445070000004,410.33110350000004,410.34811120000006,None,None,410.34811120000006,None,410.34811120000006,411.2968554,0.28749149999998735,None,,,,,,,,,,54,001,2020_Jan_13_1334,untitled,3.1.0,60.06078151091312,
292,_2,N,135,L,N,292_2N135LN,HLN,0,7,7,251,,,1.116,414.0984737,414.3941397,414.3941397,414.52768679999997,414.54425879999997,414.0984737,up,414.54425879999997,None,414.54425879999997,415.64344500000004,0.27635720000000674,None,2.1321808999999803,,,,,,,,,54,001,2020_Jan_13_1334,untitled,3.1.0,60.06078151091312,
046,R,M,225,L,N,046RM225LN,HLN,0,8,8,109,,,1.293,416.8921974,417.19168609999997,417.19168609999997,417.3914807,417.4082446,None,down,417.4082446,None,417.4082446,418.69039180000004,0.20512990000008813,None,2.498581999999942,,,,,,,,,54,001,2020_Jan_13_1334,untitled,3.1.0,60.06078151091312,
_,G,N,225,_,_,_GN225__,N,0,9,9,61,,,0.8250000000000001,420.2046309,420.50564110000005,420.50564110000005,420.62214900000004,420.6388293,None,down,420.6388293,None,420.6388293,421.45488380000006,0.28628379999997833,None,3.3979458000000022,,,,,,,,,54,001,2020_Jan_13_1334,untitled,3.1.0,60.06078151091312,
422,_4,N,225,L,N,422_4N225LN,HLN,0,10,10,269,,,1.337,424.33588169999996,424.63545450000004,424.63545450000004,424.75197019999996,424.7686813,None,None,424.7686813,None,424.7686813,426.0842315,0.2882309000000305,None,,,,,,,,,,54,001,2020_Jan_13_1334,untitled,3.1.0,60.06078151091312,
041,R,M,0,L,N,041RM000LN,HLN,0,11,11,104,,,1.309,428.53933159999997,428.8317499,428.8317499,428.9483305,428.96496779999995,428.53933159999997,down,428.96496779999995,None,428.96496779999995,430.2642277,0.2940557000000581,None,2.5156721000000744,,,,,,,,,54,001,2020_Jan_13_1334,untitled,3.1.0,60.06078151091312,
228,G,N,135,L,N,228GN135LN,HLN,0,12,12,235,,,1.034,431.73730309999996,432.029179,432.029179,432.19537579999997,432.2120386,None,down,432.2120386,None,432.2120386,433.22794999999996,0.2459695999999667,None,2.631853200000023,,,,,,,,,54,001,2020_Jan_13_1334,untitled,3.1.0,60.06078151091312,
226,G,N,45,L,N,226GN045LN,HLN,0,13,13,233,,,1.108,435.15987040000005,435.4593151,435.4593151,435.559628,435.57597699999997,None,up,435.57597699999997,None,435.57597699999997,436.67502720000005,0.30445829999996477,None,2.4834076999999297,,,,,,,,,54,001,2020_Jan_13_1334,untitled,3.1.0,60.06078151091312,
486,_5,N,225,L,N,486_5N225LN,HLN,0,14,14,285,,,1.02,438.3941214,438.6901927,438.6901927,438.77388170000006,438.79022710000004,None,up,438.79022710000004,None,438.79022710000004,439.7890966,0.32309799999995903,None,2.9979581000000053,,,,,,,,,54,001,2020_Jan_13_1334,untitled,3.1.0,60.06078151091312,
270,_2,M,225,R,N,270_2M225RN,HRN,0,15,15,149,,,1.204,442.00768860000005,442.3038739,442.3038739,442.5038912,442.5204668,None,down,442.5204668,None,442.5204668,443.70277840000006,0.20807839999997668,None,3.014404900000045,,,,,,,,,54,001,2020_Jan_13_1334,untitled,3.1.0,60.06078151091312,
257,_2,N,0,R,N,257_2N000RN,HRN,0,16,16,240,,,0.788,445.9372661,446.2183903,446.23339139999996,446.2500149,446.2666266,None,up,446.2666266,None,446.2666266,447.04912020000006,0.38705289999995784,None,1.982500400000049,,,,,,,,,54,001,2020_Jan_13_1334,untitled,3.1.0,60.06078151091312,
459,_5,M,90,R,N,459_5M090RN,HRN,0,17,17,178,,,1.02,448.56462139999996,448.86456339999995,448.86456339999995,448.9645127,448.98110959999997,None,down,448.98110959999997,None,448.98110959999997,449.98032320000004,0.30439749999993637,None,3.0312823999998955,,,,,,,,,54,001,2020_Jan_13_1334,untitled,3.1.0,60.06078151091312,
449,_5,N,0,R,N,449_5N000RN,HRN,0,18,18,272,,,1.2550000000000001,452.2393796,452.5289205,452.5289205,452.7277586,452.7441817,None,up,452.7441817,None,452.7441817,453.97680920000005,0.2154831999999942,None,1.9829335000000583,,,,,,,,,54,001,2020_Jan_13_1334,untitled,3.1.0,60.06078151091312,
295,_2,N,270,L,N,295_2N270LN,HLN,0,19,19,254,,,1.046,455.03583690000005,455.3253211,455.3253211,455.4421089,455.45981040000004,None,up,455.45981040000004,None,455.45981040000004,456.49222,0.29744030000006205,None,2.3316562999999633,,,,,,,,,54,001,2020_Jan_13_1334,untitled,3.1.0,60.06078151091312,
388,_4,N,135,R,N,388_4N135RN,HRN,0,20,20,259,,,0.8130000000000001,458.0276077,458.32290190000003,458.32290190000003,458.506398,458.52294070000005,None,down,458.52294070000005,None,458.52294070000005,459.3217571,0.22063950000006116,None,2.7655776999999944,,,,,,,,,54,001,2020_Jan_13_1334,untitled,3.1.0,60.06078151091312,
_,_4,M,90,_,_,__4M090__,N,0,21,21,34,,,0.754,461.5790994,461.87095150000005,461.87095150000005,462.0027338,462.01961389999997,None,down,462.01961389999997,None,462.01961389999997,462.76881990000004,0.2743377999998984,None,2.665585299999975,,,,,,,,,54,001,2020_Jan_13_1334,untitled,3.1.0,60.06078151091312,
265,_2,M,0,R,N,265_2M000RN,HRN,0,22,22,144,,,1.395,464.92004959999997,465.21675589999995,465.21675589999995,465.39995480000005,465.41668960000004,None,None,465.41668960000004,None,465.41668960000004,466.79957149999996,0.2233578000000307,None,,,,,,,,,,54,001,2020_Jan_13_1334,untitled,3.1.0,60.06078151091312,
_,F,M,90,_,_,_FM090__,N,0,23,23,2,,,0.963,469.21459400000003,469.5129459,469.5129459,469.59631390000004,469.6135961,469.21459400000003,down,469.6135961,None,469.6135961,470.5621115,0.32120229999998173,None,3.313812999999982,,,,,,,,,54,001,2020_Jan_13_1334,untitled,3.1.0,60.06078151091312,
_,R,M,270,_,_,_RM270__,N,0,24,24,22,,,0.711,473.19978130000004,473.49310019999996,473.49310019999996,473.64288550000003,473.65970460000005,None,down,473.65970460000005,None,473.65970460000005,474.3591527,0.26019589999998516,None,1.7823121000000128,,,,,,,,,54,001,2020_Jan_13_1334,untitled,3.1.0,60.06078151091312,
233,G,M,0,L,N,233GM000LN,HLN,0,25,25,136,,,1.022,475.73638630000005,476.0254747,476.0254747,476.1571193,476.17399850000004,None,down,476.17399850000004,None,476.17399850000004,477.21131720000005,0.28342689999999493,None,2.598871000000031,,,,,,,,,54,001,2020_Jan_13_1334,untitled,3.1.0,60.06078151091312,
260,_2,N,135,R,N,260_2N135RN,HRN,0,26,26,243,,,1.282,478.997338,479.2877912,479.2877912,479.4876173,479.5045503,None,down,479.5045503,None,479.5045503,480.77001170000005,0.21306160000006003,None,3.2312206999999944,,,,,,,,,54,001,2020_Jan_13_1334,untitled,3.1.0,60.06078151091312,
_,_2,N,135,_,_,__2N135__,N,0,27,27,75,,,1.058,482.9513028,483.2514105,483.2514105,483.4509912,483.4676226,None,up,483.4676226,None,483.4676226,484.5168969,0.2036499000000731,None,2.2343415000000277,,,,,,,,,54,001,2020_Jan_13_1334,untitled,3.1.0,60.06078151091312,
399,_4,M,270,R,N,399_4M270RN,HRN,0,28,28,166,,,1.215,486.0356141,486.33177209999997,486.33177209999997,486.41486210000005,486.43167530000005,None,up,486.43167530000005,None,486.43167530000005,487.63058320000005,0.32098069999995005,None,2.39970500000004,,,,,,,,,54,001,2020_Jan_13_1334,untitled,3.1.0,60.06078151091312,
168,F,N,315,L,N,168FN315LN,HLN,0,29,29,223,,,1.08,489.11606100000006,489.41235229999995,489.41235229999995,489.5458499,489.5627319,None,down,489.5627319,None,489.5627319,490.6277136,0.27121260000001257,None,2.802607999999964,,,,,,,,,54,001,2020_Jan_13_1334,untitled,3.1.0,60.06078151091312,
_,_2,M,135,_,_,__2M135__,N,0,30,30,27,,,1.204,492.70380420000004,492.993417,492.993417,493.0926389,493.0926389,None,down,493.0926389,None,493.0926389,494.29157840000005,0.324559200000067,None,2.6821999000000005,,,,,,,,,54,001,2020_Jan_13_1334,untitled,3.1.0,60.06078151091312,
427,_4,M,90,L,N,427_4M090LN,HLN,0,31,31,170,,,1.191,496.0842122,496.3734492,496.3734492,496.4897439,496.50628770000003,None,down,496.50628770000003,None,496.50628770000003,497.68882499999995,0.2983564999999544,None,2.66509439999993,,,,,,,,,54,001,2020_Jan_13_1334,untitled,3.1.0,60.06078151091312,
164,F,N,135,L,N,164FN135LN,HLN,0,32,32,219,,,1.358,499.4118674,499.70360359999995,499.70360359999995,499.88747320000004,499.9043748,None,down,499.9043748,None,499.9043748,501.2520393,0.22899019999999837,None,2.231408800000054,,,,,,,,,54,001,2020_Jan_13_1334,untitled,3.1.0,60.06078151091312,
296,_2,N,315,L,N,296_2N315LN,HLN,0,33,33,255,,,1.164,502.3885183,502.68419389999997,502.68419389999997,502.8506493,502.86729909999997,None,down,502.86729909999997,None,502.86729909999997,504.01628359999995,0.23687919999997575,None,2.7319084000000657,,,,,,,,,54,001,2020_Jan_13_1334,untitled,3.1.0,60.06078151091312,
396,_4,M,135,R,N,396_4M135RN,HRN,0,34,34,163,,,1.095,505.8690011,506.16456430000005,506.16456430000005,506.31428919999996,506.33204680000006,None,down,506.33204680000006,None,506.33204680000006,507.41347270000006,0.2565702000000556,None,2.415957599999956,,,,,,,,,54,001,2020_Jan_13_1334,untitled,3.1.0,60.06078151091312,
_,G,N,90,_,_,_GN090__,N,0,35,35,58,,,0.776,509.0314148,509.3283361,509.3283361,509.4614977,509.47815649999995,None,down,509.47815649999995,None,509.47815649999995,510.2441583,0.26618949999999586,None,3.1476070999999592,,,,,,,,,54,001,2020_Jan_13_1334,untitled,3.1.0,60.06078151091312,
454,_5,N,225,R,N,454_5N225RN,HRN,0,36,36,277,,,0.887,512.8218056000001,513.1230094,513.1230094,513.3416963,513.3579933,None,up,513.3579933,None,513.3579933,514.2240252,0.1855948999999555,None,2.464598300000034,,,,,,,,,54,001,2020_Jan_13_1334,untitled,3.1.0,60.06078151091312,
202,G,M,45,R,N,202GM045RN,HRN,0,37,37,129,,,1.098,516.1219821,516.4219944,516.4219944,516.5391856,516.5559785,None,down,516.5559785,None,516.5559785,517.6377537,0.2887293999999656,None,3.3315229999999474,,,,,,,,,54,001,2020_Jan_13_1334,untitled,3.1.0,60.06078151091312,
290,_2,N,45,L,N,290_2N045LN,HLN,0,38,38,249,,,1.095,520.1358649,520.4354312,520.4354312,520.6017406,520.6187533,None,up,520.6187533,None,520.6187533,521.7005216,0.23366889999999785,None,2.4487294999998994,,,,,,,,,54,001,2020_Jan_13_1334,untitled,3.1.0,60.06078151091312,
240,G,M,315,L,N,240GM315LN,HLN,0,39,39,143,,,0.932,523.2851659,523.5829072,523.5829072,523.7822688,523.8007735,None,down,523.8007735,None,523.8007735,524.7160974,0.20619950000002518,None,2.546660299999985,,,,,,,,,54,001,2020_Jan_13_1334,untitled,3.1.0,60.06078151091312,
_,G,M,45,_,_,_GM045__,N,0,40,40,9,,,1.276,526.5600894,526.8629448,526.8629448,527.0631071,527.0796148000001,None,None,527.0796148000001,None,527.0796148000001,528.3451278,0.2014308999999912,None,,,,,,,,,,54,001,2020_Jan_13_1334,untitled,3.1.0,60.06078151091312,
_,F,N,135,_,_,_FN135__,N,0,41,41,51,,,0.86,530.7952126,531.0930074,531.0930074,531.2594989,531.2759215,530.7952126,down,531.2759215,None,531.2759215,532.1254093,0.23964890000002015,None,1.8653627999999571,,,,,,,,,54,001,2020_Jan_13_1334,untitled,3.1.0,60.06078151091312,
_,G,N,0,_,_,_GN000__,N,0,42,42,56,,,1.218,533.3780847,533.6737701,533.6737701,533.8567215,533.8735028,None,up,533.8735028,None,533.8735028,535.0725149,0.2250367000000324,None,2.082375099999922,,,,,,,,,54,001,2020_Jan_13_1334,untitled,3.1.0,60.06078151091312,
432,_4,M,315,L,N,432_4M315LN,HLN,0,43,43,175,,,1.046,536.2328786,536.5235871,536.5235871,536.6712975,536.6886061,None,up,536.6886061,None,536.6886061,537.7201726,0.2639677000000802,None,1.7986062999999604,,,,,,,,,54,001,2020_Jan_13_1334,untitled,3.1.0,60.06078151091312,
_,F,M,315,_,_,_FM315__,N,0,44,44,7,,,1.33,538.6802656,538.9697449,538.9697449,539.2023096,539.2193763,None,down,539.2193763,None,539.2193763,540.5343054,0.18207889999996496,None,2.431652099999951,,,,,,,,,54,001,2020_Jan_13_1334,untitled,3.1.0,60.06078151091312,
170,F,M,45,L,N,170FM045LN,HLN,0,45,45,121,,,1.203,541.9671486,542.2662369,542.2662369,542.3659718,542.3834768,None,down,542.3834768,None,542.3834768,543.5649798000001,0.3037664999999379,None,2.0820653000000675,,,,,,,,,54,001,2020_Jan_13_1334,untitled,3.1.0,60.06078151091312,
456,_5,N,315,R,N,456_5N315RN,HRN,0,46,46,279,,,1.297,545.0103408,545.0103408,545.0103408,545.3137449,545.3137449,None,up,545.3137449,None,545.3137449,546.4791797,0.5337403999999424,None,2.231932000000029,,,,,,,,,54,001,2020_Jan_13_1334,untitled,3.1.0,60.06078151091312,
138,F,M,45,R,N,138FM045RN,HRN,0,47,47,113,,,0.865,547.8753139,548.1776939,548.1776939,548.2612974,548.2777378,None,down,548.2777378,None,548.2777378,549.1272078,0.31865879999998015,None,1.6493302000000085,,,,,,,,,54,001,2020_Jan_13_1334,untitled,3.1.0,60.06078151091312,
002,R,N,45,R,N,002RN045RN,HRN,0,48,48,193,,,0.9580000000000001,550.2458814,550.5422074,550.5422074,550.6422878,550.6588727,None,up,550.6588727,None,550.6588727,551.6087267,0.30741570000009233,None,2.3829937000000427,,,,,,,,,54,001,2020_Jan_13_1334,untitled,3.1.0,60.06078151091312,
419,_4,N,90,L,N,419_4N090LN,HLN,0,49,49,266,,,1.039,553.3262096,553.6229614,553.6229614,553.7560652,553.7729147,None,up,553.7729147,None,553.7729147,554.7890253,0.27249829999993835,None,1.8008369000000357,,,,,,,,,54,001,2020_Jan_13_1334,untitled,3.1.0,60.06078151091312,
006,R,N,225,R,N,006RN225RN,HRN,0,50,50,197,,,1.362,555.8392988,556.1373431,556.1373431,556.2872719,556.3040524,None,up,556.3040524,None,556.3040524,557.6526848,0.24911859999997432,None,2.3494691000000785,,,,,,,,,54,001,2020_Jan_13_1334,untitled,3.1.0,60.06078151091312,
237,G,M,180,L,N,237GM180LN,HLN,0,51,51,140,,,1.161,558.8730802,559.1684268,559.1684268,559.3679092,559.3848099,None,down,559.3848099,None,559.3848099,560.5335758,0.20825200000001587,None,2.414834699999915,,,,,,,,,54,001,2020_Jan_13_1334,untitled,3.1.0,60.06078151091312,
_,G,N,180,_,_,_GN180__,N,0,52,52,60,,,1.29,561.9965495,562.2986312,562.2986312,562.5150373,562.5316447,None,down,562.5316447,None,562.5316447,563.8140442,0.1858062000000018,None,2.2322315000000117,,,,,,,,,54,001,2020_Jan_13_1334,untitled,3.1.0,60.06078151091312,
166,F,N,225,L,N,166FN225LN,HLN,0,53,53,221,,,1.329,564.9695084,565.2626876,565.2626876,565.4791938,565.496122,None,up,565.496122,None,565.496122,566.8120189,0.1948435999998992,None,2.2991372000000183,,,,,,,,,54,001,2020_Jan_13_1334,untitled,3.1.0,60.06078151091312,
_,_4,M,180,_,_,__4M180__,N,0,54,54,36,,,1.297,568.1293509,568.426753,568.426753,568.5107895,568.5269081,None,down,568.5269081,None,568.5269081,569.8087614,0.3189008000000513,None,2.41538079999998,,,,,,,,,54,001,2020_Jan_13_1334,untitled,3.1.0,60.06078151091312,
_,_5,N,225,_,_,__5N225__,N,0,55,55,93,,,1.344,571.1386139,571.4406533,571.4406533,571.6571908,571.6739103,None,up,571.6739103,None,571.6739103,573.0059643,0.18496800000002622,None,2.3158058999999867,,,,,,,,,54,001,2020_Jan_13_1334,untitled,3.1.0,60.06078151091312,
390,_4,N,225,R,N,390_4N225RN,HRN,0,56,56,261,,,1.123,574.2070188,574.5047792,574.5047792,574.7046828,574.7213487,None,up,574.7213487,None,574.7213487,575.8369714,0.20533439999996972,None,2.1162510999999995,,,,,,,,,54,001,2020_Jan_13_1334,untitled,3.1.0,60.06078151091312,
428,_4,M,135,L,N,428_4M135LN,HLN,0,57,57,171,,,1.198,577.1278266,577.4189705,577.4189705,577.5522193,577.5688401,None,down,577.5688401,None,577.5688401,578.7509788,0.2786710000000312,None,2.215606100000059,,,,,,,,,54,001,2020_Jan_13_1334,untitled,3.1.0,60.06078151091312,
_,F,N,315,_,_,_FN315__,N,0,58,58,55,,,1.0050000000000001,580.0217242,580.3164232,580.3164232,580.4996594,580.5162889,None,up,580.5162889,None,580.5162889,581.5153026,0.22261409999998705,None,2.2994403999999804,,,,,,,,,54,001,2020_Jan_13_1334,untitled,3.1.0,60.06078151091312,
_,_4,N,180,_,_,__4N180__,N,0,59,59,84,,,0.909,583.0371187,583.3307648,583.3307648,583.5304919,583.5474956,None,down,583.5474956,None,583.5474956,584.4458795,0.20888219999994817,None,2.048970199999985,,,,,,,,,54,001,2020_Jan_13_1334,untitled,3.1.0,60.06078151091312,
_,_4,N,0,_,_,__4N000__,N,0,60,60,80,,,1.29,585.9779551,586.2780545,586.2780545,586.3132536,586.3296336,None,up,586.3296336,None,586.3296336,587.6099638000001,0.3683114000000387,None,1.9315212000000201,,,,,,,,,54,001,2020_Jan_13_1334,untitled,3.1.0,60.06078151091312,
142,F,M,225,R,N,142FM225RN,HRN,0,61,61,117,,,1.024,588.5672151,588.8590321,588.8590321,588.975399,588.9922851,None,down,588.9922851,None,588.9922851,590.0078751,0.2946640999999772,None,2.2820318999999927,,,,,,,,,54,001,2020_Jan_13_1334,untitled,3.1.0,60.06078151091312,
139,F,M,90,R,N,139FM090RN,HRN,0,62,62,114,,,0.795,591.502648,591.8052334,591.8052334,591.9894331,592.006283,None,down,592.006283,None,592.006283,592.7888101,0.21683780000000752,None,2.3489666000000398,,,,,,,,,54,001,2020_Jan_13_1334,untitled,3.1.0,60.06078151091312,
_,_4,M,0,_,_,__4M000__,N,0,63,63,32,,,1.18,594.582056,594.8715072,594.8715072,595.0704653,595.0868342,None,down,595.0868342,None,595.0868342,596.2524645,0.21515899999997146,None,2.0988709000000654,,,,,,,,,54,001,2020_Jan_13_1334,untitled,3.1.0,60.06078151091312,
_,_2,N,90,_,_,__2N090__,N,0,64,64,74,,,1.067,597.3786339,597.6688986,597.6688986,597.9011629,597.9182183,None,up,597.9182183,None,597.9182183,598.9669157,0.18202910000002248,None,2.1149306999999453,,,,,,,,,54,001,2020_Jan_13_1334,untitled,3.1.0,60.06078151091312,
_,G,M,90,_,_,_GM090__,N,0,65,65,10,,,0.759,600.2275171,600.5164068,600.5164068,600.7489799,600.7654099,None,down,600.7654099,None,600.7654099,601.5148865,0.18334189999995942,None,2.3984556999999995,,,,,,,,,54,001,2020_Jan_13_1334,untitled,3.1.0,60.06078151091312,
_,_5,M,135,_,_,__5M135__,N,0,66,66,43,,,0.886,603.3824393,603.6794412,603.6794412,603.8794395,603.8957851,None,down,603.8957851,None,603.8957851,604.762008,0.20766309999999066,None,2.748831500000051,,,,,,,,,54,001,2020_Jan_13_1334,untitled,3.1.0,60.06078151091312,
303,_2,M,270,L,N,303_2M270LN,HLN,0,67,67,158,,,1.248,606.9758931,607.2763512,607.2763512,607.3596623,607.3760589,None,down,607.3760589,None,607.3760589,608.6095858,0.31975469999997586,None,2.832268200000044,,,,,,,,,54,001,2020_Jan_13_1334,untitled,3.1.0,60.06078151091312,
011,R,M,90,R,N,011RM090RN,HRN,0,68,68,98,,,0.902,610.537134,610.8398751,610.8398751,610.9230902,610.9399436,None,down,610.9399436,None,610.9399436,611.8223547,0.3172025000000076,None,2.198559899999964,,,,,,,,,54,001,2020_Jan_13_1334,untitled,3.1.0,60.06078151091312,
196,G,N,135,R,N,196GN135RN,HRN,0,69,69,227,,,1.3760000000000001,613.3804698,613.6710505,613.6710505,613.8542168,613.8709851,None,down,613.8709851,None,613.8709851,615.2361188,0.23024740000005295,None,2.3983197999999675,,,,,,,,,54,001,2020_Jan_13_1334,untitled,3.1.0,60.06078151091312,
_,_2,M,90,_,_,__2M090__,N,0,70,70,26,,,1.343,616.5146621,616.8182968,616.8182968,616.984726,617.0019147,None,down,617.0019147,None,617.0019147,618.3332637,0.23199450000004163,None,2.947375099999931,,,,,,,,,54,001,2020_Jan_13_1334,untitled,3.1.0,60.06078151091312,
_,_4,N,225,_,_,__4N225__,N,0,71,71,85,,,0.889,620.1772824,620.4662837,620.4662837,620.664504,620.6811293,None,up,620.6811293,None,620.6811293,621.5469651,0.21684259999994993,None,2.016271500000016,,,,,,,,,54,001,2020_Jan_13_1334,untitled,3.1.0,60.06078151091312,
386,_4,N,45,R,N,386_4N045RN,HRN,0,72,72,257,,,1.322,622.9222527000001,623.2122162000001,623.2122162000001,623.4120387,623.428795,None,up,623.428795,None,623.428795,624.7441072,0.21401989999992566,None,2.648309499999982,,,,,,,,,54,001,2020_Jan_13_1334,untitled,3.1.0,60.06078151091312,
462,_5,M,225,R,N,462_5M225RN,HRN,0,73,73,181,,,0.776,626.3019587,626.5926460000001,626.5926460000001,626.7924912,626.8090678,None,up,626.8090678,None,626.8090678,627.5750972,0.21294969999996738,None,1.9001011999999946,,,,,,,,,54,001,2020_Jan_13_1334,untitled,3.1.0,60.06078151091312,
484,_5,N,135,L,N,484_5N135LN,HLN,0,74,74,283,,,1.33,628.961812,629.2571276,629.2571276,629.4238118,629.4415586,None,down,629.4415586,None,629.4415586,630.756031,0.23881059999996523,None,3.347592899999995,,,,,,,,,54,001,2020_Jan_13_1334,untitled,3.1.0,60.06078151091312,
040,R,N,315,L,N,040RN315LN,HLN,0,75,75,207,,,0.843,633.1185413000001,633.4199752,633.4199752,633.5031641,633.5199133,None,up,633.5199133,None,633.5199133,634.3526438,0.31699649999995927,None,2.4491630999999643,,,,,,,,,54,001,2020_Jan_13_1334,untitled,3.1.0,60.06078151091312,
_,R,M,45,_,_,_RM045__,N,0,76,76,17,,,1.0090000000000001,636.3085866,636.6006906,636.6006906,636.6840058,636.7004458,None,down,636.7004458,None,636.7004458,637.6998042,0.3278490000000147,None,2.5480223999999225,,,,,,,,,54,001,2020_Jan_13_1334,untitled,3.1.0,60.06078151091312,
008,R,N,315,R,N,008RN315RN,HRN,0,77,77,199,,,0.788,639.4722003,639.7647747,639.7647747,639.9643109,639.9811852,None,up,639.9811852,None,639.9811852,640.7583402,0.21232930000007855,None,1.4672758000000385,,,,,,,,,54,001,2020_Jan_13_1334,untitled,3.1.0,60.06078151091312,
302,_2,M,225,L,N,302_2M225LN,HLN,0,78,78,157,,,0.875,641.6843067,641.9792315,641.9792315,642.1625052,642.1791774,None,down,642.1791774,None,642.1791774,643.045086,0.22411799999997584,None,1.9822556000000304,,,,,,,,,54,001,2020_Jan_13_1334,untitled,3.1.0,60.06078151091312,
_,R,N,180,_,_,_RN180__,N,0,79,79,68,,,1.177,644.3901543,644.6793493,644.6793493,644.8770161,644.8935155,None,down,644.8935155,None,644.8935155,646.0592958,0.21720840000000408,None,2.617039400000067,,,,,,,,,54,001,2020_Jan_13_1334,untitled,3.1.0,60.06078151091312,
136,F,N,315,R,N,136FN315RN,HRN,0,80,80,215,,,0.881,647.7591949,648.0775103,648.0775103,648.2239607,648.241776,None,up,648.241776,None,648.241776,649.1063881,0.23467119999997976,None,1.781639499999983,,,,,,,,,54,001,2020_Jan_13_1334,untitled,3.1.0,60.06078151091312,
_,F,M,225,_,_,_FM225__,N,0,81,81,5,,,1.2,650.2360885,650.5383924,650.5383924,650.7381642,650.7548746,None,down,650.7548746,None,650.7548746,651.9370953,0.20150699999999233,None,2.4320459999999002,,,,,,,,,54,001,2020_Jan_13_1334,untitled,3.1.0,60.06078151091312,
009,R,M,0,R,N,009RM000RN,HRN,0,82,82,96,,,0.883,653.374414,653.6691787,653.6691787,653.9022354,653.9187049,None,down,653.9187049,None,653.9187049,654.7851027,0.1773569999999154,None,2.0675613000000794,,,,,,,,,54,001,2020_Jan_13_1334,untitled,3.1.0,60.06078151091312,
421,_4,N,180,L,N,421_4N180LN,HLN,0,83,83,268,,,1.31,656.283816,656.5831136,656.5831136,656.6998693,656.7166881,None,None,656.7166881,None,656.7166881,658.0166435,0.28377769999997327,None,,,,,,,,,,54,001,2020_Jan_13_1334,untitled,3.1.0,60.06078151091312,
174,F,M,225,L,N,174FM225LN,HLN,0,84,84,125,,,0.798,660.5880341,660.5880341,660.8798327,660.8968381,660.9140432,660.5880341,down,660.9140432,None,660.9140432,661.6965712,0.3900780000000168,None,1.8664532000000236,,,,,,,,,54,001,2020_Jan_13_1334,untitled,3.1.0,60.06078151091312,
137,F,M,0,R,N,137FM000RN,HRN,0,85,85,112,,,0.982,663.0802496,663.3781234,663.3781234,663.5124823,663.5124823,None,down,663.5124823,None,663.5124823,664.4933624,0.28067140000007385,None,2.065265400000044,,,,,,,,,54,001,2020_Jan_13_1334,untitled,3.1.0,60.06078151091312,
171,F,M,90,L,N,171FM090LN,HLN,0,86,86,122,,,1.055,665.815049,666.10855,666.10855,666.2917997,666.3087835,None,down,666.3087835,None,666.3087835,667.3569423,0.22597929999994903,None,2.350619400000028,,,,,,,,,54,001,2020_Jan_13_1334,untitled,3.1.0,60.06078151091312,
_,R,N,135,_,_,_RN135__,N,0,87,87,67,,,1.346,668.9021545,669.1904347,669.1904347,669.3889864,669.3889864,None,up,669.3889864,None,669.3889864,670.7212891,0.22289360000002034,None,2.3496437000000014,,,,,,,,,54,001,2020_Jan_13_1334,untitled,3.1.0,60.06078151091312,
015,R,M,270,R,N,015RM270RN,HRN,0,88,88,102,,,1.329,671.9409834,672.2360926,672.2360926,672.4527218,672.4693526,None,down,672.4693526,None,672.4693526,673.7846815,0.19077160000006188,None,2.4173156000000517,,,,,,,,,54,001,2020_Jan_13_1334,untitled,3.1.0,60.06078151091312,
042,R,M,45,L,N,042RM045LN,HLN,0,89,89,105,,,1.191,675.1887018,675.4838777,675.4838777,675.6009027,675.6191622,None,down,675.6191622,None,675.6191622,676.8002383,0.2855782999999974,None,2.1638335000000097,,,,,,,,,54,001,2020_Jan_13_1334,untitled,3.1.0,60.06078151091312,
_,_4,N,90,_,_,__4N090__,N,0,90,90,82,,,1.3960000000000001,678.007554,678.2974089,678.2974089,678.4979060000001,678.5150282,None,down,678.5150282,None,678.5150282,679.896053,0.20957850000002054,None,2.932695800000033,,,,,,,,,54,001,2020_Jan_13_1334,untitled,3.1.0,60.06078151091312,
452,_5,N,135,R,N,452_5N135RN,HRN,0,91,91,275,,,0.999,681.7159809,682.011755,682.011755,682.1614252,682.1788856000001,None,up,682.1788856000001,None,682.1788856000001,683.160768,0.25004360000002634,None,2.730128700000023,,,,,,,,,54,001,2020_Jan_13_1334,untitled,3.1.0,60.06078151091312,
271,_2,M,270,R,N,271_2M270RN,HRN,0,92,92,150,,,1.119,685.1368317,685.4260850000001,685.4260850000001,685.6244512,685.6409543,None,down,685.6409543,None,685.6409543,686.7403073,0.2163560999999845,None,2.615602899999999,,,,,,,,,54,001,2020_Jan_13_1334,untitled,3.1.0,60.06078151091312,
_,_2,M,315,_,_,__2M315__,N,0,93,93,31,,,1.4000000000000001,688.4721041,688.7717492,688.7717492,688.9723686,688.9883783,None,down,688.9883783,None,688.9883783,690.3874796,0.19903450000003886,None,2.6489115999999058,,,,,,,,,54,001,2020_Jan_13_1334,untitled,3.1.0,60.06078151091312,
176,F,M,315,L,N,176FM315LN,HLN,0,94,94,127,,,0.723,691.9017846,692.2023779,692.2023779,692.3523337,692.3693335,None,down,692.3693335,None,692.3693335,693.0844317,0.2478980999999294,None,1.6985624000000143,,,,,,,,,54,001,2020_Jan_13_1334,untitled,3.1.0,60.06078151091312,
_,R,M,135,_,_,_RM135__,N,0,95,95,19,,,0.997,694.3716131,694.6676668,694.6676668,694.783112,694.7999832,None,down,694.7999832,None,694.7999832,695.782608,0.28865109999992455,None,2.198873800000001,,,,,,,,,54,001,2020_Jan_13_1334,untitled,3.1.0,60.06078151091312,
_,R,M,225,_,_,_RM225__,N,0,96,96,21,,,1.165,697.2202126,697.5140868,697.5140868,697.7141047,697.7306458,None,down,697.7306458,None,697.7306458,698.8797118,0.20984890000011092,None,2.248836600000004,,,,,,,,,54,001,2020_Jan_13_1334,untitled,3.1.0,60.06078151091312,
293,_2,N,180,L,N,293_2N180LN,HLN,0,97,97,252,,,0.988,700.2742626,700.5631011,700.5631011,700.6947202,700.7115403,None,down,700.7115403,None,700.7115403,701.6772529,0.2837997000000314,None,2.2487511000000495,,,,,,,,,54,001,2020_Jan_13_1334,untitled,3.1.0,60.06078151091312,
172,F,M,135,L,N,172FM135LN,HLN,0,98,98,123,,,1.047,703.2072017,703.5088351,703.5088351,703.6755372,703.692857,None,down,703.692857,None,703.692857,704.7249264,0.23574410000003354,None,2.5316283000000794,,,,,,,,,54,001,2020_Jan_13_1334,untitled,3.1.0,60.06078151091312,
201,G,M,0,R,N,201GM000RN,HRN,0,99,99,128,,,1.25,706.6133077,706.9103881,706.9103881,706.9396666,706.9565289,None,down,706.9565289,None,706.9565289,708.1883683,0.3767407999999932,None,2.282424600000013,,,,,,,,,54,001,2020_Jan_13_1334,untitled,3.1.0,60.06078151091312,
489,_5,M,0,L,N,489_5M000LN,HLN,0,100,100,184,,,1.32,709.5266393,709.8209693,709.8209693,709.9538311,709.9716121,None,None,709.9716121,None,709.9716121,711.2854264,0.2731428000000733,None,,,,,,,,,,54,001,2020_Jan_13_1334,untitled,3.1.0,60.06078151091312,
230,G,N,225,L,N,230GN225LN,HLN,0,101,101,237,,,1.0010000000000001,713.698372,713.9997699,713.9997699,714.1496085,714.1663231,713.698372,down,714.1663231,None,714.1663231,715.1487658,0.253172999999947,None,2.331869999999981,,,,,,,,,54,001,2020_Jan_13_1334,untitled,3.1.0,60.06078151091312,
_,R,N,90,_,_,_RN090__,N,0,102,102,66,,,0.791,716.7092475000001,716.9986486,716.9986486,717.2135277,717.2302554,None,down,717.2302554,None,717.2302554,718.0129164,0.19927119999999832,None,1.866238400000043,,,,,,,,,54,001,2020_Jan_13_1334,untitled,3.1.0,60.06078151091312,
_,_4,M,315,_,_,__4M315__,N,0,103,103,39,,,0.879,719.3244914,719.6263384,719.6263384,719.8113086,719.8281664,None,up,719.8281664,None,719.8281664,720.6937285,0.2162685999999212,None,1.799470900000074,,,,,,,,,54,001,2020_Jan_13_1334,untitled,3.1.0,60.06078151091312,
_,G,N,45,_,_,_GN045__,N,0,104,104,57,,,0.885,721.9366911,722.2260928000001,722.2260928000001,722.3425844,722.3598025,None,up,722.3598025,None,722.3598025,723.2253371,0.29682209999998577,None,2.2319572999999764,,,,,,,,,54,001,2020_Jan_13_1334,untitled,3.1.0,60.06078151091312,
289,_2,N,0,L,N,289_2N000LN,HLN,0,105,105,248,,,1.028,724.8300923,725.1241314,725.1241314,725.3075473,725.3252234,None,up,725.3252234,None,725.3252234,726.3389596,0.225302299999953,None,1.6643377000000328,,,,,,,,,54,001,2020_Jan_13_1334,untitled,3.1.0,60.06078151091312,
496,_5,M,315,L,N,496_5M315LN,HLN,0,106,106,191,,,1.0210000000000001,727.1988232,727.4881491,727.4881491,727.7042914,727.7210255,None,up,727.7210255,None,727.7210255,728.7200214,0.1973105999999234,None,2.8147841999999628,,,,,,,,,54,001,2020_Jan_13_1334,untitled,3.1.0,60.06078151091312,
_,_2,N,315,_,_,__2N315__,N,0,107,107,79,,,1.0210000000000001,730.6988076,730.9864826,730.9864826,731.2512226,731.2678727,None,up,731.2678727,None,731.2678727,732.2674517,0.1521368999999595,None,1.6328918000000385,,,,,,,,,54,001,2020_Jan_13_1334,untitled,3.1.0,60.06078151091312,
_,_5,M,0,_,_,__5M000__,N,0,108,108,40,,,0.916,733.1827085,733.4826982,733.4826982,733.6159737,733.6326486,None,down,733.6326486,None,733.6326486,734.5317136,0.2707850999998982,None,2.665611800000079,,,,,,,,,54,001,2020_Jan_13_1334,untitled,3.1.0,60.06078151091312,
_,F,N,180,_,_,_FN180__,N,0,109,109,52,,,0.712,736.5899236,736.8804519,736.8804519,737.0144141,737.0309283,None,up,737.0309283,None,737.0309283,737.7297322000001,0.2756270999999515,None,3.1797458999999435,,,,,,,,,54,001,2020_Jan_13_1334,untitled,3.1.0,60.06078151091312,
039,R,N,270,L,N,039RN270LN,HLN,0,110,110,206,,,0.732,740.5581839,740.8579868,740.8579868,740.9264667,740.9433663,None,up,740.9433663,None,740.9433663,741.6588514,0.3338188000000173,None,1.4829324000000952,,,,,,,,,54,001,2020_Jan_13_1334,untitled,3.1.0,60.06078151091312,
_,R,M,315,_,_,_RM315__,N,0,111,111,23,,,0.775,742.6268293,742.9247332,742.9247332,743.1412443,743.15834,None,down,743.15834,None,743.15834,743.923587,0.18940039999995406,None,1.9983567000000448,,,,,,,,,54,001,2020_Jan_13_1334,untitled,3.1.0,60.06078151091312,
173,F,M,180,L,N,173FM180LN,HLN,0,112,112,124,,,0.718,745.3686105,745.657327,745.657327,745.8718172,745.8888241,None,down,745.8888241,None,745.8888241,746.5885242,0.20002529999999297,None,1.6492391000000453,,,,,,,,,54,001,2020_Jan_13_1334,untitled,3.1.0,60.06078151091312,
003,R,N,90,R,N,003RN090RN,HRN,0,113,113,194,,,0.8130000000000001,747.7500291,748.0536373,748.0536373,748.2530886,748.2701757,None,up,748.2701757,None,748.2701757,749.0691280000001,0.2004141999999547,None,2.0324163000000226,,,,,,,,,54,001,2020_Jan_13_1334,untitled,3.1.0,60.06078151091312,
272,_2,M,315,R,N,272_2M315RN,HRN,0,114,114,151,,,1.0130000000000001,750.694021,750.9846153000001,750.9846153000001,751.0176058,751.034218,None,None,751.034218,None,751.034218,752.0334385000001,0.3755670000000464,None,,,,,,,,,,54,001,2020_Jan_13_1334,untitled,3.1.0,60.06078151091312,
_,G,M,180,_,_,_GM180__,N,0,115,115,12,,,1.302,754.7088623,754.9975064,754.9975064,755.2307928,755.2470335,754.7088623,up,755.2470335,None,755.2470335,756.5305550999999,0.1833063999999922,None,2.1828083000000333,,,,,,,,,54,001,2020_Jan_13_1334,untitled,3.1.0,60.06078151091312,
206,G,M,225,R,N,206GM225RN,HRN,0,116,116,133,,,1.172,757.7309554000001,758.0281437000001,758.0281437000001,758.1445769,758.1613787000001,None,down,758.1613787000001,None,758.1613787000001,759.3102994000001,0.2900706000000355,None,2.598902599999974,,,,,,,,,54,001,2020_Jan_13_1334,untitled,3.1.0,60.06078151091312,
420,_4,N,135,L,N,420_4N135LN,HLN,0,117,117,267,,,0.927,760.9851331,761.2752631000001,761.2752631000001,761.4749266000001,761.4919743,None,up,761.4919743,None,761.4919743,762.4076600999999,0.2128963999998632,None,2.7983030999998846,,,,,,,,,54,001,2020_Jan_13_1334,untitled,3.1.0,60.06078151091312,
_,R,M,0,_,_,_RM000__,N,0,118,118,16,,,1.31,764.5119400000001,764.8057000000001,764.8057000000001,765.0054109,765.0221570000001,None,down,765.0221570000001,None,765.0221570000001,766.321467,0.20998600000007173,None,2.465047300000151,,,,,,,,,54,001,2020_Jan_13_1334,untitled,3.1.0,60.06078151091312,
044,R,M,135,L,N,044RM135LN,HLN,0,119,119,107,,,1.106,767.6963401,767.9871013,767.9871013,768.2028536,768.2194766,None,down,768.2194766,None,768.2194766,769.3183197000001,0.1971813000000111,None,2.781591400000025,,,,,,,,,54,001,2020_Jan_13_1334,untitled,3.1.0,60.06078151091312,
036,R,N,135,L,N,036RN135LN,HLN,0,120,120,203,,,1.167,771.3251075000001,771.6170975,771.6170975,771.7165155,771.7328974,None,down,771.7328974,None,771.7328974,772.8819467999999,0.31196350000004713,None,1.9488593000000947,,,,,,,,,54,001,2020_Jan_13_1334,untitled,3.1.0,60.06078151091312,
_,_5,N,315,_,_,__5N315__,N,0,121,121,95,,,1.395,773.9677138,774.2636848,774.2636848,774.3972937999999,774.4137261000001,None,None,774.4137261000001,None,774.4137261000001,775.7959136,0.2748991000000842,None,,,,,,,,,,54,001,2020_Jan_13_1334,untitled,3.1.0,60.06078151091312,
162,F,N,45,L,N,162FN045LN,HLN,0,122,122,217,,,1.288,778.1974341,778.4936966,778.4936966,778.5934747000001,778.6101199,778.1974341,up,778.6101199,None,778.6101199,779.8756327000001,0.3084000000001197,None,2.0826575000000958,,,,,,,,,54,001,2020_Jan_13_1334,untitled,3.1.0,60.06078151091312,
485,_5,N,180,L,N,485_5N180LN,HLN,0,123,123,284,,,1.2750000000000001,780.9298547000001,781.2244817000001,781.2244817000001,781.4076978999999,781.4242759000001,None,down,781.4242759000001,None,781.4242759000001,782.6896574,0.2255590999998276,None,2.4159349999999904,,,,,,,,,54,001,2020_Jan_13_1334,untitled,3.1.0,60.06078151091312,
490,_5,M,45,L,N,490_5M045LN,HLN,0,124,124,185,,,0.874,784.1871682999999,784.4884632000001,784.4884632000001,784.5552662,784.5716143,None,down,784.5716143,None,784.5716143,785.4374796,0.33331380000004174,None,2.350236300000006,,,,,,,,,54,001,2020_Jan_13_1334,untitled,3.1.0,60.06078151091312,
461,_5,M,180,R,N,461_5M180RN,HRN,0,125,125,180,,,1.248,787.2270117,787.5191436,787.5191436,787.6359636,787.652221,None,down,787.652221,None,787.652221,788.8844985999999,0.29059890000007726,None,2.5153438000002097,,,,,,,,,54,001,2020_Jan_13_1334,untitled,3.1.0,60.06078151091312,
_,R,N,315,_,_,_RN315__,N,0,126,126,71,,,1.107,790.3821336999999,790.6831003,790.6831003,790.8828881,790.8993516999999,None,up,790.8993516999999,None,790.8993516999999,791.9985276,0.20276140000009946,None,1.999328500000047,,,,,,,,,54,001,2020_Jan_13_1334,untitled,3.1.0,60.06078151091312,
389,_4,N,180,R,N,389_4N180RN,HRN,0,127,127,260,,,0.753,793.1272039999999,793.4155100999999,793.4155100999999,793.6139740000001,793.6375458,None,up,793.6375458,None,793.6375458,794.3629317,0.21661209999979292,None,1.926223200000095,,,,,,,,,54,001,2020_Jan_13_1334,untitled,3.1.0,60.06078151091312,
134,F,N,225,R,N,134FN225RN,HRN,0,128,128,213,,,0.748,795.8223857999999,796.1118268,796.1118268,796.2779716,796.2946287,None,up,796.2946287,None,796.2946287,797.027546,0.2465534000000389,None,1.449648600000046,,,,,,,,,54,001,2020_Jan_13_1334,untitled,3.1.0,60.06078151091312,
130,F,N,45,R,N,130FN045RN,HRN,0,129,129,209,,,1.029,798.0660541,798.3596143,798.3596143,798.4593387,798.4760269999999,None,up,798.4760269999999,None,798.4760269999999,799.4925694000001,0.3084427000001142,None,1.8165350999997827,,,,,,,,,54,001,2020_Jan_13_1334,untitled,3.1.0,60.06078151091312,
197,G,N,180,R,N,197GN180RN,HRN,0,130,130,228,,,1.239,800.5886579,800.8904648,800.8904648,801.0070754000001,801.0238079000001,None,up,801.0238079000001,None,801.0238079000001,802.2571416000001,0.2827620000000479,None,2.9982531999999082,,,,,,,,,54,001,2020_Jan_13_1334,untitled,3.1.0,60.06078151091312,
267,_2,M,90,R,N,267_2M090RN,HRN,0,131,131,146,,,1.202,804.2389155000001,804.5377057999999,804.5377057999999,804.7373265000001,804.7538548,None,down,804.7538548,None,804.7538548,805.9362754000001,0.20609360000003107,None,2.6986709000000246,,,,,,,,,54,001,2020_Jan_13_1334,untitled,3.1.0,60.06078151091312,
144,F,M,315,R,N,144FM315RN,HRN,0,132,132,119,,,0.85,807.7689129,808.0684317,808.0684317,808.1676693,808.1843968000001,None,down,808.1843968000001,None,808.1843968000001,809.0172316999999,0.3048233000001801,None,1.8324923000000126,,,,,,,,,54,001,2020_Jan_13_1334,untitled,3.1.0,60.06078151091312,
259,_2,N,90,R,N,259_2N090RN,HRN,0,133,133,242,,,1.298,810.2399075999999,810.5324963,810.5324963,810.7320602,810.7487699999999,None,up,810.7487699999999,None,810.7487699999999,812.0310019000001,0.21136169999999765,None,2.449131800000032,,,,,,,,,54,001,2020_Jan_13_1334,untitled,3.1.0,60.06078151091312,
_,R,N,270,_,_,_RN270__,N,0,134,134,70,,,1.1320000000000001,813.4161586,813.7127479999999,813.7127479999999,813.9127229000001,813.9293088,None,up,813.9293088,None,813.9293088,815.0456770000001,0.20619919999990088,None,1.8500470999999834,,,,,,,,,54,001,2020_Jan_13_1334,untitled,3.1.0,60.06078151091312,
_,_4,N,45,_,_,__4N045__,N,0,135,135,81,,,1.2590000000000001,816.0256962999999,816.3271745,816.3271745,816.4935567,816.5101878,None,up,816.5101878,None,816.5101878,817.7592373,0.2336185999999998,None,1.9678888000000825,,,,,,,,,54,001,2020_Jan_13_1334,untitled,3.1.0,60.06078151091312,
001,R,N,0,R,N,001RN000RN,HRN,0,136,136,192,,,1.091,818.7182121999999,819.0082032,819.0082032,819.1912423000001,819.2081038000001,None,up,819.2081038000001,None,819.2081038000001,820.290641,0.22855779999986225,None,1.6993684999999914,,,,,,,,,54,001,2020_Jan_13_1334,untitled,3.1.0,60.06078151091312,
_,_4,N,135,_,_,__4N135__,N,0,137,137,83,,,0.723,821.1240857,821.4231041,821.4231041,821.6226354,821.640018,None,up,821.640018,None,821.640018,822.3562832,0.205320699999902,None,2.3314600000001064,,,,,,,,,54,001,2020_Jan_13_1334,untitled,3.1.0,60.06078151091312,
205,G,M,180,R,N,205GM180RN,HRN,0,138,138,132,,,0.805,824.2066193999999,824.5037408999999,824.5037408999999,824.6867272,824.7035317,None,down,824.7035317,None,824.7035317,825.5024645999999,0.22277970000004643,None,1.8490423000000646,,,,,,,,,54,001,2020_Jan_13_1334,untitled,3.1.0,60.06078151091312,
_,_2,N,0,_,_,__2N000__,N,0,139,139,72,,,0.9460000000000001,826.7822301000001,827.0844233,827.0844233,827.2680608999999,827.284453,None,up,827.284453,None,827.284453,828.2173995,0.21771110000008775,None,1.5826933999999255,,,,,,,,,54,001,2020_Jan_13_1334,untitled,3.1.0,60.06078151091312,
263,_2,N,270,R,N,263_2N270RN,HRN,0,140,140,246,,,0.907,829.0834735999999,829.3824778000001,829.3824778000001,829.5825014,829.5989833000001,None,down,829.5989833000001,None,829.5989833000001,830.4982554000001,0.20496670000011363,None,2.2996025999998437,,,,,,,,,54,001,2020_Jan_13_1334,untitled,3.1.0,60.06078151091312,
491,_5,M,90,L,N,491_5M090LN,HLN,0,141,141,186,,,1.274,832.0937627999999,832.3967634,832.3967634,832.6132163,832.629668,None,down,832.629668,None,832.629668,833.9171644999999,0.18156680000015513,None,2.8650023999998666,,,,,,,,,54,001,2020_Jan_13_1334,untitled,3.1.0,60.06078151091312,
133,F,N,180,R,N,133FN180RN,HRN,0,142,142,212,,,1.0170000000000001,835.7362427,836.0267179,836.0267179,836.2098916,836.2266182000001,None,up,836.2266182000001,None,836.2266182000001,837.2257489000001,0.22985459999995328,None,2.1487975999998525,,,,,,,,,54,001,2020_Jan_13_1334,untitled,3.1.0,60.06078151091312,
047,R,M,270,L,N,047RM270LN,HLN,0,143,143,110,,,0.747,838.6959073999999,838.9908178999999,838.9908178999999,839.0907377000001,839.1073633999999,None,down,839.1073633999999,None,839.1073633999999,839.8403873,0.30920930000002045,None,1.665954400000146,,,,,,,,,54,001,2020_Jan_13_1334,untitled,3.1.0,60.06078151091312,
487,_5,N,270,L,N,487_5N270LN,HLN,0,144,144,286,,,0.841,841.0005309000001,841.2902555000001,841.2902555000001,841.4889289,841.5053714999999,None,up,841.5053714999999,None,841.5053714999999,842.3378514000001,0.21450079999999616,None,1.5837991999999304,,,,,,,,,54,001,2020_Jan_13_1334,untitled,3.1.0,60.06078151091312,
298,_2,M,45,L,N,298_2M045LN,HLN,0,145,145,153,,,1.219,843.4332455000001,843.7366217000001,843.7366217000001,843.8033138999999,843.8200453,None,down,843.8200453,None,843.8200453,845.0192145999999,0.33046260000014627,None,2.832276100000172,,,,,,,,,54,001,2020_Jan_13_1334,untitled,3.1.0,60.06078151091312,
258,_2,N,45,R,N,258_2N045RN,HRN,0,146,146,241,,,0.962,846.9076498,847.2007255000001,847.2007255000001,847.3669156999999,847.3836277,None,up,847.3836277,None,847.3836277,848.3336678000001,0.23985930000003464,None,1.8013518000000204,,,,,,,,,54,001,2020_Jan_13_1334,untitled,3.1.0,60.06078151091312,
425,_4,M,0,L,N,425_4M000LN,HLN,0,147,147,168,,,1.357,849.4914124,849.7817961000001,849.7817961000001,849.8982774000001,849.9147301999999,None,up,849.9147301999999,None,849.9147301999999,851.2638179999999,0.29014909999978045,None,2.1155191000000286,,,,,,,,,54,001,2020_Jan_13_1334,untitled,3.1.0,60.06078151091312,
194,G,N,45,R,N,194GN045RN,HRN,0,148,148,225,,,0.9540000000000001,852.2526103,852.5463737,852.5463737,852.7452972000001,852.7620492000001,None,up,852.7620492000001,None,852.7620492000001,853.6944495,0.21115579999991496,None,2.0335454999999456,,,,,,,,,54,001,2020_Jan_13_1334,untitled,3.1.0,60.06078151091312,
488,_5,N,315,L,N,488_5N315LN,HLN,0,149,149,287,,,1.145,855.0071419000001,855.3106906,855.3106906,855.5107284000001,855.5283038,None,up,855.5283038,None,855.5283038,856.6585591999999,0.19763339999985874,None,2.014482799999996,,,,,,,,,54,001,2020_Jan_13_1334,untitled,3.1.0,60.06078151091312,
204,G,M,135,R,N,204GM135RN,HRN,0,150,150,131,,,0.744,857.7530587000001,858.0421375999999,858.0421375999999,858.2580512,858.276916,None,down,858.276916,None,858.276916,859.0080925,0.19766640000011648,None,1.846153299999969,,,,,,,,,54,001,2020_Jan_13_1334,untitled,3.1.0,60.06078151091312,
132,F,N,135,R,N,132FN135RN,HRN,0,151,151,211,,,1.248,860.3536127,860.6555851999999,860.6555851999999,860.8394125,860.8576427999999,None,up,860.8576427999999,None,860.8576427999999,862.0877660000001,0.2193081999998867,None,2.706165700000156,,,,,,,,,54,001,2020_Jan_13_1334,untitled,3.1.0,60.06078151091312,
_,_5,N,45,_,_,__5N045__,N,0,152,152,89,,,1.18,863.8317506999999,864.1213518,864.1213518,864.2857951999999,864.303242,None,up,864.303242,None,864.303242,865.4678547999999,0.2513684000000467,None,1.7983260999999402,,,,,,,,,54,001,2020_Jan_13_1334,untitled,3.1.0,60.06078151091312,
165,F,N,180,L,N,165FN180LN,HLN,0,153,153,220,,,1.36,866.3549127000001,866.6496853000001,866.6496853000001,866.8159416000001,866.832504,None,up,866.832504,None,866.832504,868.1656223,0.2418691000000308,None,2.698961799999779,,,,,,,,,54,001,2020_Jan_13_1334,untitled,3.1.0,60.06078151091312,
198,G,N,225,R,N,198GN225RN,HRN,0,154,154,229,,,1.095,869.7151742000001,870.0135716,870.0135716,870.2466626,870.2630693000001,None,up,870.2630693000001,None,870.2630693000001,871.3454054000001,0.17336639999984982,None,2.3820583000001534,,,,,,,,,54,001,2020_Jan_13_1334,untitled,3.1.0,60.06078151091312,
239,G,M,270,L,N,239GM270LN,HLN,0,155,155,142,,,1.143,872.8973779,873.1941763,873.1941763,873.3607022000001,873.3773160999999,None,down,873.3773160999999,None,873.3773160999999,874.5094578999999,0.24170330000015383,None,2.698814900000116,,,,,,,,,54,001,2020_Jan_13_1334,untitled,3.1.0,60.06078151091312,
208,G,M,315,R,N,208GM315RN,HRN,0,156,156,135,,,1.219,876.2891479,876.5921782,876.5921782,876.7914304000001,876.8082071000001,None,down,876.8082071000001,None,876.8082071000001,878.0074178,0.19878380000000107,None,2.2658192999999756,,,,,,,,,54,001,2020_Jan_13_1334,untitled,3.1.0,60.06078151091312,
135,F,N,270,R,N,135FN270RN,HRN,0,157,157,214,,,0.9390000000000001,879.3083277999999,879.6052427,879.6052427,879.7888186,879.8049415,None,up,879.8049415,None,879.8049415,880.7383471,0.22164930000008098,None,1.6673134000000118,,,,,,,,,54,001,2020_Jan_13_1334,untitled,3.1.0,60.06078151091312,
235,G,M,90,L,N,235GM090LN,HLN,0,158,158,138,,,1.331,881.774271,882.0698129,882.0698129,882.1864252,882.2028499999999,None,down,882.2028499999999,None,882.2028499999999,883.5192174000001,0.2876758999998401,None,2.5829220000000532,,,,,,,,,54,001,2020_Jan_13_1334,untitled,3.1.0,60.06078151091312,
034,R,N,45,L,N,034RN045LN,HLN,0,159,159,201,,,1.231,885.0797815000001,885.3694535,885.3694535,885.5011033000001,885.5200798999999,None,up,885.5200798999999,None,885.5200798999999,886.7326920999999,0.27801640000006955,None,1.912598300000127,,,,,,,,,54,001,2020_Jan_13_1334,untitled,3.1.0,60.06078151091312,
299,_2,M,90,L,N,299_2M090LN,HLN,0,160,160,154,,,1.305,887.6466066999999,887.9487239,887.9487239,888.1479946,888.1644656999999,None,down,888.1644656999999,None,888.1644656999999,889.4479807,0.201395199999979,None,2.5332226999998966,,,,,,,,,54,001,2020_Jan_13_1334,untitled,3.1.0,60.06078151091312,
167,F,N,270,L,N,167FN270LN,HLN,0,161,161,222,,,1.2550000000000001,891.0274618000001,891.3291666,891.3291666,891.4118186000001,891.4283588999999,None,up,891.4283588999999,None,891.4283588999999,892.6773659,0.3137797999997929,None,1.8992763999999625,,,,,,,,,54,001,2020_Jan_13_1334,untitled,3.1.0,60.06078151091312,
043,R,M,90,L,N,043RM090LN,HLN,0,162,162,106,,,0.8300000000000001,893.6202605000001,893.91003,893.91003,894.0433587,894.0609205999999,None,down,894.0609205999999,None,894.0609205999999,894.8755883000001,0.2769591000001128,None,2.065968200000043,,,,,,,,,54,001,2020_Jan_13_1334,untitled,3.1.0,60.06078151091312,
387,_4,N,90,R,N,387_4N090RN,HRN,0,163,163,258,,,1.22,896.3791325,896.6742188999999,896.6742188999999,896.8410626,896.8637904,None,up,896.8637904,None,896.8637904,898.0721885,0.23780669999996462,None,2.175832899999932,,,,,,,,,54,001,2020_Jan_13_1334,untitled,3.1.0,60.06078151091312,
_,_4,M,45,_,_,__4M045__,N,0,164,164,33,,,1.362,899.2120352,899.5046183,899.5046183,899.7543784,899.7709210999999,None,down,899.7709210999999,None,899.7709210999999,901.1204617999999,0.1616622000001371,None,2.3175513999999566,,,,,,,,,54,001,2020_Jan_13_1334,untitled,3.1.0,60.06078151091312,
_,_5,N,270,_,_,__5N270__,N,0,165,165,94,,,0.773,902.3526202999999,902.6525784,902.6525784,902.8029002999999,902.8200732,None,up,902.8200732,None,902.8200732,903.584722,0.25021929999979875,None,1.8977148000001307,,,,,,,,,54,001,2020_Jan_13_1334,untitled,3.1.0,60.06078151091312,
014,R,M,225,R,N,014RM225RN,HRN,0,166,166,101,,,1.342,905.0028440000001,905.2998141999999,905.2998141999999,905.4327976,905.4495065000001,None,down,905.4495065000001,None,905.4495065000001,906.7678264000001,0.2726975999999013,None,2.414722799999936,,,,,,,,,54,001,2020_Jan_13_1334,untitled,3.1.0,60.06078151091312,
264,_2,N,315,R,N,264_2N315RN,HRN,0,167,167,247,,,0.8,908.0777515,908.3805649999999,908.3805649999999,908.5802352999999,908.5967574000001,None,down,908.5967574000001,None,908.5967574000001,909.3793270000001,0.20212070000002313,None,1.9325443000000178,,,,,,,,,54,001,2020_Jan_13_1334,untitled,3.1.0,60.06078151091312,
_,G,N,135,_,_,_GN135__,N,0,168,168,59,,,1.069,910.7146854,911.0112429000001,911.0112429000001,911.2444479999999,911.2608881000001,None,up,911.2608881000001,None,911.2608881000001,912.3111044,0.17530650000003334,None,2.848064599999816,,,,,,,,,54,001,2020_Jan_13_1334,untitled,3.1.0,60.06078151091312,
193,G,N,0,R,N,193GN000RN,HRN,0,169,169,224,,,1.1520000000000001,914.2817888,914.5747856999999,914.5747856999999,914.8246257999999,914.8412062,None,up,914.8412062,None,914.8412062,915.9731329000001,0.1632564999999886,None,1.7815871000000243,,,,,,,,,54,001,2020_Jan_13_1334,untitled,3.1.0,60.06078151091312,
_,F,N,225,_,_,_FN225__,N,0,170,170,53,,,0.729,916.7434192999999,917.0390216000001,917.0390216000001,917.3389878999999,917.3553901,None,up,917.3553901,None,917.3553901,918.0716107000001,0.11239890000001651,None,1.4827523999999812,,,,,,,,,54,001,2020_Jan_13_1334,untitled,3.1.0,60.06078151091312,
492,_5,M,135,L,N,492_5M135LN,HLN,0,171,171,187,,,1.25,919.0205152999999,919.3205916,919.3205916,919.5538965000001,919.5706654,None,down,919.5706654,None,919.5706654,920.8027305999999,0.17218860000002678,None,2.916136300000062,,,,,,,,,54,001,2020_Jan_13_1334,untitled,3.1.0,60.06078151091312,
143,F,M,270,R,N,143FM270RN,HRN,0,172,172,118,,,0.849,922.7361573999999,923.0344799,923.0344799,923.2013174000001,923.2186746,None,down,923.2186746,None,923.2186746,924.0507,0.23385340000004362,None,2.0477710000000116,,,,,,,,,54,001,2020_Jan_13_1334,untitled,3.1.0,60.06078151091312,
038,R,N,225,L,N,038RN225LN,HLN,0,173,173,205,,,1.212,925.5279837,925.817319,925.817319,925.9816453999999,925.998335,None,up,925.998335,None,925.998335,927.1968981,0.24602890000005573,None,2.1322015999999167,,,,,,,,,54,001,2020_Jan_13_1334,untitled,3.1.0,60.06078151091312,
391,_4,N,270,R,N,391_4N270RN,HRN,0,174,174,262,,,0.847,928.3603032000001,928.6628567,928.6628567,928.8706295,928.9084888,None,up,928.9084888,None,928.9084888,929.6948723999999,0.2173998999999185,None,1.6544278000001214,,,,,,,,,54,001,2020_Jan_13_1334,untitled,3.1.0,60.06078151091312,
457,_5,M,0,R,N,457_5M000RN,HRN,0,175,175,176,,,1.024,930.8755199,931.176919,931.176919,931.2769203,931.2933479999999,None,down,931.2933479999999,None,931.2933479999999,932.3090953000001,0.29738109999993867,None,2.4651288000000022,,,,,,,,,54,001,2020_Jan_13_1334,untitled,3.1.0,60.06078151091312,
048,R,M,315,L,N,048RM315LN,HLN,0,176,176,111,,,1.225,933.9370279,934.2255783,934.2255783,934.4739113,934.4905266000001,None,down,934.4905266000001,None,934.4905266000001,935.7064802,0.16877140000019608,None,2.3986959999999726,,,,,,,,,54,001,2020_Jan_13_1334,untitled,3.1.0,60.06078151091312,
455,_5,N,270,R,N,455_5N270RN,HRN,0,177,177,278,,,0.729,937.0783721,937.3715278,937.3715278,937.6046378000001,937.6212806999999,None,up,937.6212806999999,None,937.6212806999999,938.3382032,0.1790177999998832,None,1.483366100000012,,,,,,,,,54,001,2020_Jan_13_1334,untitled,3.1.0,60.06078151091312,
207,G,M,270,R,N,207GM270RN,HRN,0,178,178,134,,,1.1500000000000001,939.322394,939.6194562000001,939.6194562000001,939.8193638,939.8360459,None,down,939.8360459,None,939.8360459,940.9684838000001,0.20624120000002222,None,2.565138700000034,,,,,,,,,54,001,2020_Jan_13_1334,untitled,3.1.0,60.06078151091312,
199,G,N,270,R,N,199GN270RN,HRN,0,179,179,230,,,1.357,942.5885060999999,942.8834452000001,942.8834452000001,943.1165899,943.1331164000001,None,up,943.1331164000001,None,943.1331164000001,944.4659746,0.17703419999998005,None,2.3322330999999394,,,,,,,,,54,001,2020_Jan_13_1334,untitled,3.1.0,60.06078151091312,
_,_5,N,180,_,_,__5N180__,N,0,180,180,92,,,1.283,945.681218,945.9807639,945.9807639,946.1813694,946.1989992000001,None,up,946.1989992000001,None,946.1989992000001,947.4636344999999,0.20481080000013208,None,2.8981665000001158,,,,,,,,,54,001,2020_Jan_13_1334,untitled,3.1.0,60.06078151091312,
004,R,N,135,R,N,004RN135RN,HRN,0,181,181,195,,,1.1340000000000001,949.4181532,949.7108707,949.7108707,949.8107795999999,949.8275868999999,None,up,949.8275868999999,None,949.8275868999999,950.9429063,0.30797149999989415,None,2.1997791999999663,,,,,,,,,54,001,2020_Jan_13_1334,untitled,3.1.0,60.06078151091312,
_,_5,N,135,_,_,__5N135__,N,0,182,182,91,,,0.969,952.3368673,952.6260511,952.6260511,952.7423881,952.7606761,None,up,952.7606761,None,952.7606761,953.7083805,0.2964795000000322,None,1.9640699999999924,,,,,,,,,54,001,2020_Jan_13_1334,untitled,3.1.0,60.06078151091312,
_,_5,M,270,_,_,__5M270__,N,0,183,183,46,,,1.344,955.0289332,955.3231659999999,955.3231659999999,955.4391304000001,955.4558589000001,None,down,955.4558589000001,None,955.4558589000001,956.7888502000001,0.29220090000012533,None,2.5669972999999118,,,,,,,,,54,001,2020_Jan_13_1334,untitled,3.1.0,60.06078151091312,
161,F,N,0,L,N,161FN000LN,HLN,0,184,184,216,,,0.8280000000000001,958.3158473000001,958.6183149000001,958.6183149000001,958.7372680000001,958.7551986999999,None,up,958.7551986999999,None,958.7551986999999,959.5691327,0.2770183000000088,None,1.447761600000149,,,,,,,,,54,001,2020_Jan_13_1334,untitled,3.1.0,60.06078151091312,
_,_2,M,0,_,_,__2M000__,N,0,185,185,24,,,1.288,960.3933844999999,960.6844744,960.6844744,960.9177959000001,960.9350763,None,down,960.9350763,None,960.9350763,962.2169275000001,0.1774663999999575,None,2.747666900000013,,,,,,,,,54,001,2020_Jan_13_1334,untitled,3.1.0,60.06078151091312,
460,_5,M,135,R,N,460_5M135RN,HRN,0,186,186,179,,,0.776,963.8874438,964.1816097999999,964.1816097999999,964.3979784999999,964.4148379000001,None,down,964.4148379000001,None,964.4148379000001,965.1806042000001,0.19417720000001282,None,2.315820399999893,,,,,,,,,54,001,2020_Jan_13_1334,untitled,3.1.0,60.06078151091312,
429,_4,M,180,L,N,429_4M180LN,HLN,0,187,187,172,,,1.315,967.0097390000001,967.3121057000001,967.3121057000001,967.4452445,967.4617089000001,None,down,967.4617089000001,None,967.4617089000001,968.7616979,0.2655457999999271,None,2.64885019999997,,,,,,,,,54,001,2020_Jan_13_1334,untitled,3.1.0,60.06078151091312,
236,G,M,135,L,N,236GM135LN,HLN,0,188,188,139,,,1.367,970.3125213000001,970.6092446,970.6092446,970.8256984,970.8424216000001,None,down,970.8424216000001,None,970.8424216000001,972.1915268,0.19098410000015065,None,2.3832632999999532,,,,,,,,,54,001,2020_Jan_13_1334,untitled,3.1.0,60.06078151091312,
_,F,N,0,_,_,_FN000__,N,0,189,189,48,,,1.025,973.5564850999999,973.8567922,973.8567922,973.9402805,973.9577836000001,None,up,973.9577836000001,None,973.9577836000001,974.9718508999999,0.31705719999990833,None,1.7485271999998986,,,,,,,,,54,001,2020_Jan_13_1334,untitled,3.1.0,60.06078151091312,
_,F,N,90,_,_,_FN090__,N,0,190,190,50,,,0.874,975.9730672999999,976.2716714999999,976.2716714999999,976.4239415,976.4406899,None,up,976.4406899,None,976.4406899,977.303486,0.2546087000000625,None,1.5966713000000254,,,,,,,,,54,001,2020_Jan_13_1334,untitled,3.1.0,60.06078151091312,
_,F,M,45,_,_,_FM045__,N,0,191,191,1,,,0.9470000000000001,978.2703638999999,978.5689441,978.5689441,978.7521770999999,978.7686325,None,down,978.7686325,None,978.7686325,979.7020124999999,0.22139240000001337,None,1.982596199999989,,,,,,,,,54,001,2020_Jan_13_1334,untitled,3.1.0,60.06078151091312,
397,_4,M,180,R,N,397_4M180RN,HRN,0,192,192,164,,,1.123,980.9578861,981.2499995999999,981.2499995999999,981.4664352,981.4830416,None,up,981.4830416,None,981.4830416,982.598692,0.1950394000000415,None,3.3150408999999854,,,,,,,,,54,001,2020_Jan_13_1334,untitled,3.1.0,60.06078151091312,
_,_2,M,270,_,_,__2M270__,N,0,193,193,30,,,1.3960000000000001,984.9821741999999,985.2797333999999,985.2797333999999,985.5127864000001,985.5295401000001,None,down,985.5295401000001,None,985.5295401000001,986.9127776,0.1698825000000852,None,2.7491858999999295,,,,,,,,,54,001,2020_Jan_13_1334,untitled,3.1.0,60.06078151091312,
227,G,N,90,L,N,227GN090LN,HLN,0,194,194,234,,,0.967,988.5951193000001,988.893499,988.893499,988.9934605000001,989.010925,None,up,989.010925,None,989.010925,989.9592696,0.30314130000010664,None,2.2985920999999507,,,,,,,,,54,001,2020_Jan_13_1334,untitled,3.1.0,60.06078151091312,
_,G,N,270,_,_,_GN270__,N,0,195,195,62,,,1.167,991.5908528,991.9082546,991.9082546,992.0243150000001,992.0410939999999,None,up,992.0410939999999,None,992.0410939999999,993.1895672,0.26722700000004806,None,2.798025300000063,,,,,,,,,54,001,2020_Jan_13_1334,untitled,3.1.0,60.06078151091312,
294,_2,N,225,L,N,294_2N225LN,HLN,0,196,196,253,,,0.9440000000000001,995.0303208,995.3210919,995.3210919,995.5545338,995.5708682,None,up,995.5708682,None,995.5708682,996.5035124000001,0.18050909999988107,None,1.7993476999999984,,,,,,,,,54,001,2020_Jan_13_1334,untitled,3.1.0,60.06078151091312,
269,_2,M,180,R,N,269_2M180RN,HRN,0,197,197,148,,,1.395,997.6120381999999,997.9024276,997.9024276,998.0855098,998.1022043,None,down,998.1022043,None,998.1022043,999.4844341,0.22969659999989744,None,3.3145366999999624,,,,,,,,,54,001,2020_Jan_13_1334,untitled,3.1.0,60.06078151091312,
301,_2,M,180,L,N,301_2M180LN,HLN,0,198,198,156,,,0.925,1001.6828435,1001.9818633,1001.9818633,1002.1318228,1002.1484435,None,down,1002.1484435,None,1002.1484435,1003.0645433,0.25460899999984576,None,2.1659967999999026,,,,,,,,,54,001,2020_Jan_13_1334,untitled,3.1.0,60.06078151091312,
451,_5,N,90,R,N,451_5N090RN,HRN,0,199,199,274,,,1.033,1004.5804602999999,1004.8795874,1004.8795874,1005.02935,1005.0461594999999,None,up,1005.0461594999999,None,1005.0461594999999,1006.0616391000001,0.25339169999983824,None,2.0208738999999696,,,,,,,,,54,001,2020_Jan_13_1334,untitled,3.1.0,60.06078151091312,
300,_2,M,135,L,N,300_2M135LN,HLN,0,200,200,155,,,1.03,1007.408406,1007.7103377000001,1007.7103377000001,1007.7936806,1007.8102349000001,None,down,1007.8102349000001,None,1007.8102349000001,1008.826206,0.3216330000000198,None,3.2315934000000652,,,,,,,,,54,001,2020_Jan_13_1334,untitled,3.1.0,60.06078151091312,
229,G,N,180,L,N,229GN180LN,HLN,0,201,201,236,,,1.047,1011.2350472,1011.5241873,1011.5241873,1011.7568996,1011.7735147999999,None,up,1011.7735147999999,None,1011.7735147999999,1012.8061995,0.1817143999999189,None,2.6483835000001363,,,,,,,,,54,001,2020_Jan_13_1334,untitled,3.1.0,60.06078151091312,
_,R,N,0,_,_,_RN000__,N,0,202,202,64,,,1.31,1014.6317204,1014.9209613,1014.9209613,1015.1373527999999,1015.1540242000001,None,up,1015.1540242000001,None,1015.1540242000001,1016.4528889999999,0.19866539999998167,None,1.9991893999999775,,,,,,,,,54,001,2020_Jan_13_1334,untitled,3.1.0,60.06078151091312,
430,_4,M,225,L,N,430_4M225LN,HLN,0,203,203,173,,,0.843,1017.3599607000001,1017.6517257,1017.6517257,1017.8680813000001,1017.8848043999999,None,down,1017.8848043999999,None,1017.8848043999999,1018.7174950000001,0.19538630000010926,None,2.332042400000091,,,,,,,,,54,001,2020_Jan_13_1334,untitled,3.1.0,60.06078151091312,
394,_4,M,45,R,N,394_4M045RN,HRN,0,204,204,161,,,0.836,1020.5291457000001,1020.8302602000001,1020.8302602000001,1020.9324658999999,1020.9494148000001,None,down,1020.9494148000001,None,1020.9494148000001,1021.7645055,0.3003900999999587,None,1.9481908000000203,,,,,,,,,54,001,2020_Jan_13_1334,untitled,3.1.0,60.06078151091312,
_,G,M,315,_,_,_GM315__,N,0,205,205,15,,,1.162,1023.1306122000001,1023.4300447999999,1023.4300447999999,1023.6134423000001,1023.6298157000001,None,down,1023.6298157000001,None,1023.6298157000001,1024.7789809,0.2191963999998734,None,2.448540899999898,,,,,,,,,54,001,2020_Jan_13_1334,untitled,3.1.0,60.06078151091312,
_,_2,M,180,_,_,__2M180__,N,0,206,206,28,,,1.071,1026.2891774,1026.5784304000001,1026.5784304000001,1026.7939044,1026.8108551,None,down,1026.8108551,None,1026.8108551,1027.8595835,0.19978189999983442,None,2.215577799999892,,,,,,,,,54,001,2020_Jan_13_1334,untitled,3.1.0,60.06078151091312,
426,_4,M,45,L,N,426_4M045LN,HLN,0,207,207,169,,,1.0,1029.2312974,1029.5247429,1029.5247429,1029.7413097,1029.7578485,None,down,1029.7578485,None,1029.7578485,1030.7404598,0.19309290000001056,None,2.182710600000064,,,,,,,,,54,001,2020_Jan_13_1334,untitled,3.1.0,60.06078151091312,
_,_2,N,45,_,_,__2N045__,N,0,208,208,73,,,0.762,1032.13828,1032.4387293,1032.4387293,1032.6551992,1032.6718467,None,up,1032.6718467,None,1032.6718467,1033.4216441,0.1868234000000939,None,1.5494180000000597,,,,,,,,,54,001,2020_Jan_13_1334,untitled,3.1.0,60.06078151091312,
483,_5,N,90,L,N,483_5N090LN,HLN,0,209,209,282,,,0.8190000000000001,1034.4624558,1034.7534416,1034.7534416,1034.9366561,1034.953647,None,up,1034.953647,None,1034.953647,1035.7530449,0.22938759999988179,None,1.8326449999999568,,,,,,,,,54,001,2020_Jan_13_1334,untitled,3.1.0,60.06078151091312,
_,F,N,45,_,_,_FN045__,N,0,210,210,49,,,0.9540000000000001,1037.0180441,1037.3181309,1037.3181309,1037.5011814,1037.517677,None,up,1037.517677,None,1037.517677,1038.450735,0.21982170000001133,None,1.4998557999999775,,,,,,,,,54,001,2020_Jan_13_1334,untitled,3.1.0,60.06078151091312,
195,G,N,90,R,N,195GN090RN,HRN,0,211,211,226,,,0.928,1039.2517017,1039.5490925,1039.5490925,1039.7327438,1039.7490614,None,down,1039.7490614,None,1039.7490614,1040.6651216,0.2203804000000673,None,2.03223469999989,,,,,,,,,54,001,2020_Jan_13_1334,untitled,3.1.0,60.06078151091312,
_,F,M,270,_,_,_FM270__,N,0,212,212,6,,,1.139,1041.9766025,1042.2652154,1042.2652154,1042.4966985,1042.5133307,None,down,1042.5133307,None,1042.5133307,1043.6287509000001,0.18448820000003252,None,2.232268799999929,,,,,,,,,54,001,2020_Jan_13_1334,untitled,3.1.0,60.06078151091312,
_,_4,N,315,_,_,__4N315__,N,0,213,213,87,,,1.327,1044.9697757,1045.2609182,1045.2609182,1045.4608545,1045.4775192,None,up,1045.4775192,None,1045.4775192,1046.7930775,0.2127758999999969,None,1.9825290999999652,,,,,,,,,54,001,2020_Jan_13_1334,untitled,3.1.0,60.06078151091312,
033,R,N,0,L,N,033RN000LN,HLN,0,214,214,200,,,1.33,1047.8098102,1048.1082784,1048.1082784,1048.1748995,1048.1918726,None,up,1048.1918726,None,1048.1918726,1049.5071899,0.33835709999993924,None,1.932730300000003,,,,,,,,,54,001,2020_Jan_13_1334,untitled,3.1.0,60.06078151091312,
458,_5,M,45,R,N,458_5M045RN,HRN,0,215,215,177,,,1.118,1050.3785925,1050.6733923,1050.6733923,1050.8398438,1050.8571643,None,up,1050.8571643,None,1050.8571643,1051.9555413,0.24062739999999394,None,2.3804898999999295,,,,,,,,,54,001,2020_Jan_13_1334,untitled,3.1.0,60.06078151091312,
395,_4,M,90,R,N,395_4M090RN,HRN,0,216,216,162,,,1.289,1053.4415683,1053.7368492,1053.7368492,1053.9536392,1053.9708368,None,down,1053.9708368,None,1053.9708368,1055.2355354000001,0.19312250000007225,None,2.2651358000000528,,,,,,,,,54,001,2020_Jan_13_1334,untitled,3.1.0,60.06078151091312,
234,G,M,45,L,N,234GM045LN,HLN,0,217,217,137,,,0.77,1056.4168554,1056.7173234,1056.7173234,1056.9507416,1056.9675197,None,down,1056.9675197,None,1056.9675197,1057.7164297,0.16965140000002066,None,2.165406399999938,,,,,,,,,54,001,2020_Jan_13_1334,untitled,3.1.0,60.06078151091312,
005,R,N,180,R,N,005RN180RN,HRN,0,218,218,196,,,1.2790000000000001,1059.3436521,1059.6328468,1059.6328468,1059.8482181,1059.8646998,None,up,1059.8646998,None,1059.8646998,1061.1304883,0.19992550000006304,None,2.865411600000016,,,,,,,,,54,001,2020_Jan_13_1334,untitled,3.1.0,60.06078151091312,
129,F,N,0,R,N,129FN000RN,HRN,0,219,219,208,,,0.719,1062.9603444,1063.2620002,1063.2620002,1063.4454185,1063.4617115,None,up,1063.4617115,None,1063.4617115,1064.161711,0.2188387999999577,None,1.299013099999911,,,,,,,,,54,001,2020_Jan_13_1334,untitled,3.1.0,60.06078151091312,
423,_4,N,270,L,N,423_4N270LN,HLN,0,220,220,270,,,0.777,1064.9599211,1065.2601199,1065.2601199,1065.4768097,1065.4933522000001,None,up,1065.4933522000001,None,1065.4933522000001,1066.2592599,0.18798850000007405,None,1.4167128000001412,,,,,,,,,54,001,2020_Jan_13_1334,untitled,3.1.0,60.06078151091312,
392,_4,N,315,R,N,392_4N315RN,HRN,0,221,221,263,,,1.324,1067.1532487,1067.4435012,1067.4435012,1067.6247487,1067.6414934,None,up,1067.6414934,None,1067.6414934,1068.9572219,0.2302955000000111,None,1.834570900000017,,,,,,,,,54,001,2020_Jan_13_1334,untitled,3.1.0,60.06078151091312,
393,_4,M,0,R,N,393_4M000RN,HRN,0,222,222,160,,,1.108,1069.7660546,1070.0561214,1070.0561214,1070.1906588,1070.2062137,None,down,1070.2062137,None,1070.2062137,1071.3050529,0.2755985999999666,None,2.0988428999999087,,,,,,,,,54,001,2020_Jan_13_1334,untitled,3.1.0,60.06078151091312,
494,_5,M,225,L,N,494_5M225LN,HLN,0,223,223,189,,,1.291,1072.4945941,1072.7870146,1072.7870146,1073.0200767000001,1073.0367733,None,down,1073.0367733,None,1073.0367733,1074.3189188000001,0.1789146000000983,None,2.398669300000165,,,,,,,,,54,001,2020_Jan_13_1334,untitled,3.1.0,60.06078151091312,
463,_5,M,270,R,N,463_5M270RN,HRN,0,224,224,182,,,1.228,1075.7128185,1076.0017135,1076.0017135,1076.1506154,1076.16714,None,down,1076.16714,None,1076.16714,1077.3828074,0.26643030000013823,None,2.8150276000001213,,,,,,,,,54,001,2020_Jan_13_1334,untitled,3.1.0,60.06078151091312,
016,R,M,315,R,N,016RM315RN,HRN,0,225,225,103,,,1.359,1079.1981695,1079.4977253,1079.4977253,1079.697543,1079.7141868,None,down,1079.7141868,None,1079.7141868,1081.063142,0.20509470000001784,None,2.166007000000036,,,,,,,,,54,001,2020_Jan_13_1334,untitled,3.1.0,60.06078151091312,
013,R,M,180,R,N,013RM180RN,HRN,0,226,226,100,,,0.782,1082.1286095,1082.4287259,1082.4287259,1082.5952301,1082.6118159,None,down,1082.6118159,None,1082.6118159,1083.3778632,0.23399580000000242,None,1.9988098000001173,,,,,,,,,54,001,2020_Jan_13_1334,untitled,3.1.0,60.06078151091312,
_,_5,M,180,_,_,__5M180__,N,0,227,227,44,,,0.791,1084.8445759,1085.1429784,1085.1429784,1085.3259694,1085.3428962,None,down,1085.3428962,None,1085.3428962,1086.1252528,0.2225164000001314,None,1.782340299999987,,,,,,,,,54,001,2020_Jan_13_1334,untitled,3.1.0,60.06078151091312,
_,R,M,90,_,_,_RM090__,N,0,228,228,18,,,1.097,1087.4027506,1087.6908878,1087.6908878,1087.8402922,1087.8572087,None,down,1087.8572087,None,1087.8572087,1088.9397719,0.2668532000000141,None,2.547926800000141,,,,,,,,,54,001,2020_Jan_13_1334,untitled,3.1.0,60.06078151091312,
268,_2,M,135,R,N,268_2M135RN,HRN,0,229,229,147,,,0.746,1090.6193486,1090.9212475,1090.9212475,1091.1210584,1091.1374801,None,down,1091.1374801,None,1091.1374801,1091.8701664,0.203550899999982,None,2.1324767999999494,,,,,,,,,54,001,2020_Jan_13_1334,untitled,3.1.0,60.06078151091312,
225,G,N,0,L,N,225GN000LN,HLN,0,230,230,232,,,1.073,1093.4738432,1093.7687061,1093.7687061,1093.9849735,1094.0017028,None,up,1094.0017028,None,1094.0017028,1095.067284,0.19283299999983683,None,2.066338799999812,,,,,,,,,54,001,2020_Jan_13_1334,untitled,3.1.0,60.06078151091312,
_,G,M,225,_,_,_GM225__,N,0,231,231,13,,,1.071,1096.2865056,1096.5831219,1096.5831219,1096.7827512,1096.799252,None,down,1096.799252,None,1096.799252,1097.865438,0.20504449999998542,None,1.866632299999992,,,,,,,,,54,001,2020_Jan_13_1334,untitled,3.1.0,60.06078151091312,
453,_5,N,180,R,N,453_5N180RN,HRN,0,232,232,276,,,1.2570000000000001,1098.9141061,1099.2139356,1099.2139356,1099.3811735,1099.3977921,None,up,1099.3977921,None,1099.3977921,1100.6458391,0.23454820000006293,None,2.6976508999998714,,,,,,,,,54,001,2020_Jan_13_1334,untitled,3.1.0,60.06078151091312,
266,_2,M,45,R,N,266_2M045RN,HRN,0,233,233,145,,,0.8320000000000001,1102.2810925,1102.5774986,1102.5774986,1102.8106952,1102.8274575,None,down,1102.8274575,None,1102.8274575,1103.6434021,0.17511349999995218,None,1.949262600000111,,,,,,,,,54,001,2020_Jan_13_1334,untitled,3.1.0,60.06078151091312,
_,_2,M,45,_,_,__2M045__,N,0,234,234,25,,,0.764,1104.9657253,1105.2586741,1105.2586741,1105.4917693,1105.5083728,None,down,1105.5083728,None,1105.5083728,1106.2577082,0.17767000000003463,None,1.8826074999999491,,,,,,,,,54,001,2020_Jan_13_1334,untitled,3.1.0,60.06078151091312,
203,G,M,90,R,N,203GM090RN,HRN,0,235,235,130,,,1.308,1107.5937647,1107.8896457,1107.8896457,1108.1059665,1108.1226297,None,down,1108.1226297,None,1108.1226297,1109.4219304,0.19183769999995093,None,2.3154729999998835,,,,,,,,,54,001,2020_Jan_13_1334,untitled,3.1.0,60.06078151091312,
_,F,N,270,_,_,_FN270__,N,0,236,236,54,,,0.795,1110.6460208,1110.9368491,1110.9368491,1111.1533626,1111.169946,None,up,1111.169946,None,1111.169946,1111.9548157,0.19691949999992175,None,1.7499765000000025,,,,,,,,,54,001,2020_Jan_13_1334,untitled,3.1.0,60.06078151091312,
_,G,M,0,_,_,_GM000__,N,0,237,237,8,,,0.781,1113.1488959,1113.4514857,1113.4514857,1113.6344979,1113.6516383,None,down,1113.6516383,None,1113.6516383,1114.417718,0.2159228999998959,None,1.6651385999998638,,,,,,,,,54,001,2020_Jan_13_1334,untitled,3.1.0,60.06078151091312,
464,_5,M,315,R,N,464_5M315RN,HRN,0,238,238,183,,,1.233,1115.6007758,1115.8992493,1115.8992493,1116.0327807,1116.0498682,None,down,1116.0498682,None,1116.0498682,1117.2756298,0.2730837999999949,None,2.4804235999999946,,,,,,,,,54,001,2020_Jan_13_1334,untitled,3.1.0,60.06078151091312,
417,_4,N,0,L,N,417_4N000LN,HLN,0,239,239,264,,,1.208,1118.7193346,1119.0129758,1119.0129758,1119.2462798,1119.262865,None,up,1119.262865,None,1119.262865,1120.4618828,0.17889990000003309,None,1.8657904000001508,,,,,,,,,54,001,2020_Jan_13_1334,untitled,3.1.0,60.06078151091312,
482,_5,N,45,L,N,482_5N045LN,HLN,0,240,240,281,,,1.293,1121.3204624,1121.6107933,1121.6107933,1121.8443991,1121.8607151,None,up,1121.8607151,None,1121.8607151,1123.1427437,0.18112249999990127,None,2.1315395999999964,,,,,,,,,54,001,2020_Jan_13_1334,untitled,3.1.0,60.06078151091312,
481,_5,N,0,L,N,481_5N000LN,HLN,0,241,241,280,,,1.219,1124.1911243,1124.4916623,1124.4916623,1124.7083086,1124.7247439,None,up,1124.7247439,None,1124.7247439,1125.9233806,0.18841790000010405,None,1.7821455999999216,,,,,,,,,54,001,2020_Jan_13_1334,untitled,3.1.0,60.06078151091312,
_,_4,M,225,_,_,__4M225__,N,0,242,242,37,,,1.137,1126.75365,1127.0559377,1127.0559377,1127.2223291,1127.2390607,None,down,1127.2390607,None,1127.2390607,1128.3555582,0.2370317999998406,None,2.066508899999917,,,,,,,,,54,001,2020_Jan_13_1334,untitled,3.1.0,60.06078151091312,
232,G,N,315,L,N,232GN315LN,HLN,0,243,243,239,,,1.0230000000000001,1129.5534505,1129.8540098,1129.8540098,1130.0204958,1130.0371012,None,down,1130.0371012,None,1130.0371012,1131.0529865,0.23517640000000029,None,2.000660200000084,,,,,,,,,54,001,2020_Jan_13_1334,untitled,3.1.0,60.06078151091312,
_,_2,M,225,_,_,__2M225__,N,0,244,244,29,,,0.789,1132.3083836,1132.6082117,1132.6082117,1132.7513940000001,1132.7684711,None,down,1132.7684711,None,1132.7684711,1133.5504996,0.25657330000012735,None,1.5821375999998963,,,,,,,,,54,001,2020_Jan_13_1334,untitled,3.1.0,60.06078151091312,
418,_4,N,45,L,N,418_4N045LN,HLN,0,245,245,265,,,0.854,1134.5496348,1134.8493442,1134.8493442,1135.065898,1135.0827136,None,up,1135.0827136,None,1135.0827136,1135.9151011,0.18837940000003073,None,1.4500404999998864,,,,,,,,,54,001,2020_Jan_13_1334,untitled,3.1.0,60.06078151091312,
_,_4,M,270,_,_,__4M270__,N,0,246,246,38,,,0.891,1136.7323922,1137.0307452,1137.0307452,1137.2473874,1137.2639814,None,up,1137.2639814,None,1137.2639814,1138.1469505,0.1883728999998766,None,1.599429500000042,,,,,,,,,54,001,2020_Jan_13_1334,untitled,3.1.0,60.06078151091312,
385,_4,N,0,R,N,385_4N000RN,HRN,0,247,247,256,,,1.041,1139.0702473000001,1139.3622218,1139.3622218,1139.5786881,1139.5953174,None,up,1139.5953174,None,1139.5953174,1140.6280025,0.19604350000008708,None,1.5327498999999989,,,,,,,,,54,001,2020_Jan_13_1334,untitled,3.1.0,60.06078151091312,
140,F,M,135,R,N,140FM135RN,HRN,0,248,248,115,,,0.787,1141.4165553,1141.710131,1141.710131,1141.8434138,1141.8599547000001,None,down,1141.8599547000001,None,1141.8599547000001,1142.6258975,0.2778441999998904,None,1.8991332000000511,,,,,,,,,54,001,2020_Jan_13_1334,untitled,3.1.0,60.06078151091312,
493,_5,M,180,L,N,493_5M180LN,HLN,0,249,249,188,,,0.877,1143.9845846,1144.2747082,1144.2747082,1144.474683,1144.4915544,None,down,1144.4915544,None,1144.4915544,1145.3573972,0.2139958000000206,None,1.799383300000045,,,,,,,,,54,001,2020_Jan_13_1334,untitled,3.1.0,60.06078151091312,
_,_5,M,225,_,_,__5M225__,N,0,250,250,45,,,0.887,1146.5195939,1146.8206406,1146.8206406,1147.0057127,1147.0221812,None,down,1147.0221812,None,1147.0221812,1147.9051476,0.21273759999985487,None,2.0991801000000123,,,,,,,,,54,001,2020_Jan_13_1334,untitled,3.1.0,60.06078151091312,
012,R,M,135,R,N,012RM135RN,HRN,0,251,251,99,,,0.869,1149.4018626,1149.7032014,1149.7032014,1149.8366661,1149.8529406,None,down,1149.8529406,None,1149.8529406,1150.7021337,0.2698499999999058,None,2.2488792999999987,,,,,,,,,54,001,2020_Jan_13_1334,untitled,3.1.0,60.06078151091312,
_,_4,N,270,_,_,__4N270__,N,0,252,252,86,,,0.871,1152.3261673,1152.6173608,1152.6173608,1152.8172394,1152.8336897,None,up,1152.8336897,None,1152.8336897,1153.6832876,0.21367020000002412,None,2.6984573999998247,,,,,,,,,54,001,2020_Jan_13_1334,untitled,3.1.0,60.06078151091312,
131,F,N,90,R,N,131FN090RN,HRN,0,253,253,210,,,1.091,1155.7865537,1156.0809986,1156.0809986,1156.2475,1156.264108,None,up,1156.264108,None,1156.264108,1157.3463224,0.24250830000005408,None,2.6652206000001115,,,,,,,,,54,001,2020_Jan_13_1334,untitled,3.1.0,60.06078151091312,
037,R,N,180,L,N,037RN180LN,HLN,0,254,254,204,,,0.846,1159.2127955,1159.5114224,1159.5114224,1159.6446952000001,1159.6614317,None,up,1159.6614317,None,1159.6614317,1160.4937297,0.27135130000010577,None,2.132532099999935,,,,,,,,,54,001,2020_Jan_13_1334,untitled,3.1.0,60.06078151091312,
045,R,M,180,L,N,045RM180LN,HLN,0,255,255,108,,,0.792,1162.1140879,1162.4086385,1162.4086385,1162.5088737,1162.5253211,None,down,1162.5253211,None,1162.5253211,1163.3081206,0.3051495000001978,None,1.7171900000000733,,,,,,,,,54,001,2020_Jan_13_1334,untitled,3.1.0,60.06078151091312,
_,F,M,135,_,_,_FM135__,N,0,256,256,3,,,0.776,1164.4995597,1164.7899451,1164.7899451,1164.9564681,1164.9732587,None,down,1164.9732587,None,1164.9732587,1165.739027,0.24505339999996067,None,2.265286099999912,,,,,,,,,54,001,2020_Jan_13_1334,untitled,3.1.0,60.06078151091312,
_,G,N,315,_,_,_GN315__,N,0,257,257,63,,,1.362,1167.4297513,1167.7208116,1167.7208116,1167.9537545,1167.9704133,None,up,1167.9704133,None,1167.9704133,1169.3195758,0.1805319000000054,None,2.3988600999998653,,,,,,,,,54,001,2020_Jan_13_1334,untitled,3.1.0,60.06078151091312,
169,F,M,0,L,N,169FM000LN,HLN,0,258,258,120,,,0.857,1170.5883023,1170.8846818,1170.8846818,1171.0844175,1171.1013703,None,down,1171.1013703,None,1171.1013703,1171.9503305,0.20757620000017596,None,1.8494192999999086,,,,,,,,,54,001,2020_Jan_13_1334,untitled,3.1.0,60.06078151091312,
297,_2,M,0,L,N,297_2M000LN,HLN,0,259,259,152,,,0.792,1173.1833966,1173.4824235,1173.4824235,1173.6656063,1173.6822618,None,down,1173.6822618,None,1173.6822618,1174.464591,0.22040579999998045,None,1.9831343999999262,,,,,,,,,54,001,2020_Jan_13_1334,untitled,3.1.0,60.06078151091312,
231,G,N,270,L,N,231GN270LN,HLN,0,260,260,238,,,0.789,1175.9057699,1176.1968821,1176.1968821,1176.3800237,1176.3968141,None,up,1176.3968141,None,1176.3968141,1177.1795593,0.2255761999999777,None,1.6324678000000858,,,,,,,,,54,001,2020_Jan_13_1334,untitled,3.1.0,60.06078151091312,
262,_2,N,225,R,N,262_2N225RN,HRN,0,261,261,245,,,1.154,1178.2527813,1178.5443875,1178.5443875,1178.7444331,1178.7610305,None,up,1178.7610305,None,1178.7610305,1179.893794,0.21047920000000886,None,2.5822994999998627,,,,,,,,,54,001,2020_Jan_13_1334,untitled,3.1.0,60.06078151091312,
_,F,M,0,_,_,_FM000__,N,0,262,262,0,,,1.026,1181.5457541,1181.8417981,1181.8417981,1182.0582412,1182.0750062,None,down,1182.0750062,None,1182.0750062,1183.0909115,0.19107319999989159,None,1.832666300000028,,,,,,,,,54,001,2020_Jan_13_1334,untitled,3.1.0,60.06078151091312,
261,_2,N,180,R,N,261_2N180RN,HRN,0,263,263,244,,,1.3980000000000001,1184.1169615000001,1184.4061749,1184.4061749,1184.6230058,1184.6393714,None,up,1184.6393714,None,1184.6393714,1186.0215472,0.19851380000000063,None,2.415691700000025,,,,,,,,,54,001,2020_Jan_13_1334,untitled,3.1.0,60.06078151091312,
431,_4,M,270,L,N,431_4M270LN,HLN,0,264,264,174,,,1.348,1187.2652219,1187.5538185,1187.5538185,1187.7698922,1187.7865295,None,up,1187.7865295,None,1187.7865295,1189.1186966,0.1993213000000651,None,2.332262600000149,,,,,,,,,54,001,2020_Jan_13_1334,untitled,3.1.0,60.06078151091312,
_,_5,N,90,_,_,__5N090__,N,0,265,265,90,,,0.792,1190.3179446,1190.6173833,1190.6173833,1190.8345288,1190.8513513,None,up,1190.8513513,None,1190.8513513,1191.6333364,0.1880682999999408,None,2.115577300000041,,,,,,,,,54,001,2020_Jan_13_1334,untitled,3.1.0,60.06078151091312,
_,R,N,225,_,_,_RN225__,N,0,266,266,69,,,0.743,1193.285112,1193.5815852,1193.5815852,1193.681737,1193.6984192,None,up,1193.6984192,None,1193.6984192,1194.4306034,0.3063102000000981,None,1.4746574000000692,,,,,,,,,54,001,2020_Jan_13_1334,untitled,3.1.0,60.06078151091312,
163,F,N,90,L,N,163FN090LN,HLN,0,267,267,218,,,1.071,1195.5108711,1195.8127981,1195.8127981,1195.8964872,1195.9128337,None,up,1195.9128337,None,1195.9128337,1196.9619208,0.3239140000000589,None,1.7659949999999753,,,,,,,,,54,001,2020_Jan_13_1334,untitled,3.1.0,60.06078151091312,
_,F,M,180,_,_,_FM180__,N,0,268,268,4,,,1.3800000000000001,1197.8781273,1198.1776471,1198.1776471,1198.3943183,1198.4107263,None,down,1198.4107263,None,1198.4107263,1199.7761919,0.1882473000000573,None,2.2986176000001706,,,,,,,,,54,001,2020_Jan_13_1334,untitled,3.1.0,60.06078151091312,
_,_2,N,180,_,_,__2N180__,N,0,269,269,76,,,0.989,1200.9127713,1201.2080786,1201.2080786,1201.4247271,1201.4415003,None,up,1201.4415003,None,1201.4415003,1202.4072338,0.19282390000012128,None,2.1321552000001702,,,,,,,,,54,001,2020_Jan_13_1334,untitled,3.1.0,60.06078151091312,
_,R,N,45,_,_,_RN045__,N,0,270,270,65,,,1.0010000000000001,1203.8635268,1204.1558824,1204.1558824,1204.2890121,1204.305419,None,up,1204.305419,None,1204.305419,1205.2880636,0.278898799999979,None,1.8160232999998698,,,,,,,,,54,001,2020_Jan_13_1334,untitled,3.1.0,60.06078151091312,
424,_4,N,315,L,N,424_4N315LN,HLN,0,271,271,271,,,1.156,1206.3265907,1206.6204436,1206.6204436,1206.8368743,1206.8535216,None,up,1206.8535216,None,1206.8535216,1207.9856499,0.19443860000001223,None,1.7328417999999601,,,,,,,,,54,001,2020_Jan_13_1334,untitled,3.1.0,60.06078151091312,
304,_2,M,315,L,N,304_2M315LN,HLN,0,272,272,159,,,1.02,1208.8454768,1209.1355361,1209.1355361,1209.3016505,1209.3179674,None,down,1209.3179674,None,1209.3179674,1210.3170973000001,0.24642360000007102,None,1.8829352999998719,,,,,,,,,54,001,2020_Jan_13_1334,untitled,3.1.0,60.06078151091312,
_,_5,M,315,_,_,__5M315__,N,0,273,273,47,,,1.016,1211.4059164,1211.6991272,1211.6991272,1211.9154535,1211.9320768,None,down,1211.9320768,None,1211.9320768,1212.9314389,0.19233729999996285,None,2.0324686999999813,,,,,,,,,54,001,2020_Jan_13_1334,untitled,3.1.0,60.06078151091312,
_,_5,N,0,_,_,__5N000__,N,0,274,274,88,,,1.078,1214.1612438,1214.4634198,1214.4634198,1214.680024,1214.6965528,None,up,1214.6965528,None,1214.6965528,1215.7629216,0.18523359999994682,None,1.7823401999999078,,,,,,,,,54,001,2020_Jan_13_1334,untitled,3.1.0,60.06078151091312,
200,G,N,315,R,N,200GN315RN,HRN,0,275,275,231,,,1.315,1216.6864123,1216.9778807,1216.9778807,1217.1945901,1217.2108237,None,up,1217.2108237,None,1217.2108237,1218.5099344,0.19671979999998257,None,2.116603899999973,,,,,,,,,54,001,2020_Jan_13_1334,untitled,3.1.0,60.06078151091312,
035,R,N,90,L,N,035RN090LN,HLN,0,276,276,202,,,1.299,1219.6484528,1219.9421322,1219.9421322,1220.0418573,1220.0586568,None,up,1220.0586568,None,1220.0586568,1221.3411594,0.3090541999999914,None,2.182297300000073,,,,,,,,,54,001,2020_Jan_13_1334,untitled,3.1.0,60.06078151091312,
007,R,N,270,R,N,007RN270RN,HRN,0,277,277,198,,,0.763,1222.4834802,1222.7734846,1222.7734846,1222.9562993,1222.9729462,None,up,1222.9729462,None,1222.9729462,1223.722519,0.22847950000004857,None,1.29998240000009,,,,,,,,,54,001,2020_Jan_13_1334,untitled,3.1.0,60.06078151091312,
010,R,M,45,R,N,010RM045RN,HRN,0,278,278,97,,,1.184,1224.6080208,1224.9044382,1224.9044382,1224.9878201,1225.0045908,None,down,1225.0045908,None,1225.0045908,1226.1753259,0.32130260000008093,None,1.9487199000000146,,,,,,,,,54,001,2020_Jan_13_1334,untitled,3.1.0,60.06078151091312,
_,_4,M,135,_,_,__4M135__,N,0,279,279,35,,,1.375,1227.1471022,1227.4361084,1227.4361084,1227.6684053,1227.6852544,None,down,1227.6852544,None,1227.6852544,1229.0505283,0.182495900000049,None,2.4152036999998927,,,,,,,,,54,001,2020_Jan_13_1334,untitled,3.1.0,60.06078151091312,
_,R,M,180,_,_,_RM180__,N,0,280,280,20,,,1.071,1230.2961749,1230.5993224000001,1230.5993224000001,1230.8156216,1230.8322143,None,down,1230.8322143,None,1230.8322143,1231.8816272,0.18490779999979168,None,2.166264700000056,,,,,,,,,54,001,2020_Jan_13_1334,untitled,3.1.0,60.06078151091312,
495,_5,M,270,L,N,495_5M270LN,HLN,0,281,281,190,,,0.718,1233.2125155,1233.5135126,1233.5135126,1233.7132193,1233.7300178,None,down,1233.7300178,None,1233.7300178,1234.4291882,0.20285859999989952,None,2.2652861999999914,,,,,,,,,54,001,2020_Jan_13_1334,untitled,3.1.0,60.06078151091312,
291,_2,N,90,L,N,291_2N090LN,HLN,0,282,282,250,,,1.26,1236.2126789,1236.5106509,1236.5106509,1236.7104851,1236.7272369,None,up,1236.7272369,None,1236.7272369,1237.9764958,0.20644389999984014,None,2.0824914999998327,,,,,,,,,54,001,2020_Jan_13_1334,untitled,3.1.0,60.06078151091312,
141,F,M,180,R,N,141FM180RN,HRN,0,283,283,116,,,0.88,1239.0564958,1239.3584714,1239.3584714,1239.5249194,1239.5415812,None,down,1239.5415812,None,1239.5415812,1240.4077254000001,0.23503520000008393,None,1.6493583999999828,,,,,,,,,54,001,2020_Jan_13_1334,untitled,3.1.0,60.06078151091312,
_,_2,N,225,_,_,__2N225__,N,0,284,284,77,,,1.351,1241.398798,1241.6909807,1241.6909807,1241.9065814,1241.9235385,None,up,1241.9235385,None,1241.9235385,1243.2552978,0.19559360000016568,None,2.4478619999999864,,,,,,,,,54,001,2020_Jan_13_1334,untitled,3.1.0,60.06078151091312,
_,_5,M,45,_,_,__5M045__,N,0,285,285,41,,,1.292,1244.560669,1244.8538053,1244.8538053,1245.0864846,1245.103423,None,down,1245.103423,None,1245.103423,1246.3854912,0.1785189000001992,None,2.332062199999882,,,,,,,,,54,001,2020_Jan_13_1334,untitled,3.1.0,60.06078151091312,
_,G,M,135,_,_,_GM135__,N,0,286,286,11,,,1.11,1247.6322407,1247.9341619,1247.9341619,1248.1506056,1248.1672692,None,down,1248.1672692,None,1248.1672692,1249.2662353,0.18608349999999518,None,2.182188700000097,,,,,,,,,54,001,2020_Jan_13_1334,untitled,3.1.0,60.06078151091312,
398,_4,M,225,R,N,398_4M225RN,HRN,0,287,287,165,,,1.215,1250.5553181,1250.8481449,1250.8481449,1251.065059,1251.0814044,None,down,1251.0814044,None,1251.0814044,1252.2804171,0.19497449999994387,None,2.9484363999999914,,,,,,,,,54,001,2020_Jan_13_1334,untitled,3.1.0,60.06078151091312,
,,,,,,,,,,,,,,,,,,,,,,,,,,,,,1254.0463496,None,1258.7760176,None,1261.4892073,None,1263.8371673,None,,,,,,,
