Number,Letter,type,Orientation,human,face_type,image,picture,trials.thisRepN,trials.thisTrialN,trials.thisN,trials.thisIndex,text.started,text.stopped,stimulus_duration,CROSS.started,CROSS.stopped,BLANK.started,BLANK.stopped,TEST.started,TEST.stopped,key_JUDGE.keys,key_JUDGE.rt,key_JUDGE.started,key_JUDGE.stopped,image_2.started,image_2.stopped,ISI.started,ISI.stopped,q1.started,q1.stopped,q2.started,q2.stopped,q3.started,q3.stopped,text_2.started,text_2.stopped,participant,session,date,expName,psychopyVersion,frameRate,
203,G,M,90,R,N,203GM090RN,HRN,0,0,0,130,532.4222959999988,None,0.79,550.6728265000002,550.6728265000002,550.6728265000002,550.8391202000003,550.8391202000003,None,down,2.5472238000002108,550.8391202000003,None,550.8391202000003,551.506174099999,0.5118941000000632,None,,,,,,,,,55,001,2020_Jan_13_1650,untitled,3.1.0,60.040335097361954,
_,_5,N,180,_,_,__5N180__,N,0,1,1,92,,,1.29,553.6722670999989,553.9681091999992,553.9681091999992,554.1177945999989,554.1177945999989,None,down,2.8157788999997138,554.1177945999989,None,554.1177945999989,555.4003214999993,0.2659650000005058,None,,,,,,,,,55,001,2020_Jan_13_1650,untitled,3.1.0,60.040335097361954,
_,_5,M,270,_,_,__5M270__,N,0,2,2,46,,,0.913,557.2169251999985,557.5152550999992,557.5152550999992,557.6484297999996,557.6651232999993,None,down,2.0999714999998105,557.6651232999993,None,557.6651232999993,558.5645404999996,0.2719259999994392,None,,,,,,,,,55,001,2020_Jan_13_1650,untitled,3.1.0,60.040335097361954,
143,F,M,270,R,N,143FM270RN,HRN,0,3,3,118,,,0.795,560.0901185999992,560.3802039000002,560.3802039000002,560.4792399999988,560.4960830999989,None,down,2.1003220999991754,560.4960830999989,None,560.4960830999989,561.2787487999994,0.3136733000010281,None,,,,,,,,,55,001,2020_Jan_13_1650,untitled,3.1.0,60.040335097361954,
_,_4,M,225,_,_,__4M225__,N,0,4,4,37,,,1.305,562.9218490000003,563.2110524999989,563.2110524999989,563.3104984000001,563.3269177999991,None,down,2.465484000000288,563.3269177999991,None,563.3269177999991,564.626123099999,0.31380189999981667,None,,,,,,,,,55,001,2020_Jan_13_1650,untitled,3.1.0,60.040335097361954,
009,R,M,0,R,N,009RM000RN,HRN,0,5,5,96,,,0.917,566.058291899999,566.3589283999991,566.3589283999991,566.5376660000002,566.5376660000002,None,down,2.285342999999557,566.5376660000002,None,566.5376660000002,567.4231479999999,0.2515363000002253,None,,,,,,,,,55,001,2020_Jan_13_1650,untitled,3.1.0,60.040335097361954,
_,_2,M,180,_,_,__2M180__,N,0,6,6,28,,,1.395,569.1191278999995,569.4216199000002,569.4216199000002,569.5382097000002,569.5547657999996,None,None,,569.5547657999996,None,569.5547657999996,570.9369224999991,0.28412919999937003,None,,,,,,,,,55,001,2020_Jan_13_1650,untitled,3.1.0,60.040335097361954,
_,F,N,0,_,_,_FN000__,N,0,7,7,48,,,0.737,573.3401479999993,573.6347960000003,573.6347960000003,573.7343106999997,573.7511029999987,573.3401479999993,up,1.6334900000001653,573.7511029999987,None,573.7511029999987,574.467417599999,0.3108995999991748,None,,,,,,,,,55,001,2020_Jan_13_1650,untitled,3.1.0,60.040335097361954,
268,_2,M,135,R,N,268_2M135RN,HRN,0,8,8,147,,,0.73,575.7094402999992,575.999233999999,575.999233999999,576.0989677999987,576.1158837999992,None,up,2.0497059999997873,576.1158837999992,None,576.1158837999992,576.8315805999991,0.31123509999997623,None,,,,,,,,,55,001,2020_Jan_13_1650,untitled,3.1.0,60.040335097361954,
015,R,M,270,R,N,015RM270RN,HRN,0,9,9,102,,,0.98,578.5065027,578.7967185999987,578.7967185999987,578.8797543000001,578.8964371000002,None,down,2.666367199999513,578.8964371000002,None,578.8964371000002,579.8630553999992,0.3273226999990584,None,,,,,,,,,55,001,2020_Jan_13_1650,untitled,3.1.0,60.040335097361954,
226,G,N,45,L,N,226GN045LN,HLN,0,10,10,233,,,1.209,581.9333852999989,582.2270570000001,582.2270570000001,582.2770596999999,582.2939095000002,None,up,2.4320917000004556,582.2939095000002,None,582.2939095000002,583.4925915999993,0.3529114999982994,None,,,,,,,,,55,001,2020_Jan_13_1650,untitled,3.1.0,60.040335097361954,
227,G,N,90,L,N,227GN090LN,HLN,0,11,11,234,,,0.8220000000000001,584.9259832999996,585.2245403999987,585.2245403999987,585.4408700999993,585.4576638999988,None,up,2.2330736000003526,585.4576638999988,None,585.4576638999988,586.2569224999988,0.18850900000143156,None,,,,,,,,,55,001,2020_Jan_13_1650,untitled,3.1.0,60.040335097361954,
_,_4,N,90,_,_,__4N090__,N,0,12,12,82,,,1.01,587.8929474999986,588.1886486999992,588.1886486999992,588.4051514000002,588.42166,None,up,2.2494505000013305,588.42166,None,588.42166,589.4207666999991,0.19034389999978885,None,,,,,,,,,55,001,2020_Jan_13_1650,untitled,3.1.0,60.040335097361954,
_,G,M,270,_,_,_GM270__,N,0,13,13,14,,,0.8170000000000001,590.9506731000001,591.2522676999997,591.2522676999997,591.3857690999994,591.4025173999999,None,down,1.8504014000009192,591.4025173999999,None,591.4025173999999,592.2016193999989,0.2688066999999137,None,,,,,,,,,55,001,2020_Jan_13_1650,untitled,3.1.0,60.040335097361954,
489,_5,M,0,L,N,489_5M000LN,HLN,0,14,14,184,,,0.856,593.5809874999995,593.8836753999985,593.8836753999985,593.9671586999993,593.9835561999989,None,down,2.3985204999989946,593.9835561999989,None,593.9835561999989,594.8327370999996,0.3160979000003863,None,,,,,,,,,55,001,2020_Jan_13_1650,untitled,3.1.0,60.040335097361954,
_,R,M,45,_,_,_RM045__,N,0,15,15,17,,,0.711,596.6064405999987,596.8984629999995,596.8984629999995,597.1186296999986,597.1465059999991,None,down,1.6358055999990029,597.1465059999991,None,597.1465059999991,597.8133524999994,0.2129263999995601,None,,,,,,,,,55,001,2020_Jan_13_1650,untitled,3.1.0,60.040335097361954,
297,_2,M,0,L,N,297_2M000LN,HLN,0,16,16,152,,,1.2650000000000001,598.9681889999993,599.2621755,599.2621755,599.4953595999996,599.5118994999993,None,up,2.199298600000475,599.5118994999993,None,599.5118994999993,600.7607805999996,0.17574530000092636,None,,,,,,,,,55,001,2020_Jan_13_1650,untitled,3.1.0,60.040335097361954,
460,_5,M,135,R,N,460_5M135RN,HRN,0,17,17,179,,,1.3940000000000001,601.9333269999988,602.2265410999989,602.2265410999989,602.4265789000001,602.4427502999988,None,down,3.3149419000001217,602.4427502999988,None,602.4427502999988,603.8252010999986,0.21103969999967376,None,,,,,,,,,55,001,2020_Jan_13_1650,untitled,3.1.0,60.040335097361954,
129,F,N,0,R,N,129FN000RN,HRN,0,18,18,208,,,0.767,606.0457079999996,606.3394922999996,606.3394922999996,606.4728447999987,606.4892688,None,up,1.7175708999984636,606.4892688,None,606.4892688,607.2384900999987,0.2766468000008899,None,,,,,,,,,55,001,2020_Jan_13_1650,untitled,3.1.0,60.040335097361954,
427,_4,M,90,L,N,427_4M090LN,HLN,0,19,19,170,,,1.1300000000000001,608.4844770999989,608.7854909999987,608.7854909999987,608.9208221999997,608.9371274999994,None,down,3.082366100001309,608.9371274999994,None,608.9371274999994,610.0525911999994,0.2644194999993488,None,,,,,,,,,55,001,2020_Jan_13_1650,untitled,3.1.0,60.040335097361954,
265,_2,M,0,R,N,265_2M000RN,HRN,0,20,20,144,,,1.224,612.349331899999,612.6523617000003,612.6523617000003,612.7349712999985,612.7522266999986,None,up,2.547915800001647,612.7522266999986,None,612.7522266999986,613.9659264999991,0.3139436999990721,None,,,,,,,,,55,001,2020_Jan_13_1650,untitled,3.1.0,60.040335097361954,
170,F,M,45,L,N,170FM045LN,HLN,0,21,21,121,,,0.806,615.5898753000001,615.8811440999998,615.8811440999998,616.0142464,616.0308561000002,None,down,2.033641300000454,616.0308561000002,None,616.0308561000002,616.8306728999996,0.2779888999994,None,,,,,,,,,55,001,2020_Jan_13_1650,untitled,3.1.0,60.040335097361954,
_,_2,M,90,_,_,__2M090__,N,0,22,22,26,,,0.75,618.2646741999997,618.5619558999988,618.5619558999988,618.7786607999988,618.7951761999993,None,down,2.681460600000719,618.7951761999993,None,618.7951761999993,619.5280313000003,0.18814609999935783,None,,,,,,,,,55,001,2020_Jan_13_1650,untitled,3.1.0,60.040335097361954,
386,_4,N,45,R,N,386_4N045RN,HRN,0,23,23,257,,,1.094,621.6810163999999,621.975665599999,621.975665599999,622.1922140999995,622.2089501999999,None,up,2.3995566999983566,622.2089501999999,None,622.2089501999999,623.2912452,0.19302539999989676,None,,,,,,,,,55,001,2020_Jan_13_1650,untitled,3.1.0,60.040335097361954,
394,_4,M,45,R,N,394_4M045RN,HRN,0,24,24,161,,,1.2650000000000001,624.9596302999998,625.2560706999993,625.2560706999993,625.3227698999999,625.3409157999995,None,down,2.13280610000038,625.3409157999995,None,625.3409157999995,626.5889083999991,0.33745019999878423,None,,,,,,,,,55,001,2020_Jan_13_1650,untitled,3.1.0,60.040335097361954,
302,_2,M,225,L,N,302_2M225LN,HLN,0,25,25,157,,,1.243,627.8757139999998,628.1563709999991,628.1707275999997,628.2052470999988,628.2052470999988,None,up,2.8633475000006,628.2052470999988,None,628.2052470999988,629.4359003999998,0.38356130000101984,None,,,,,,,,,55,001,2020_Jan_13_1650,untitled,3.1.0,60.040335097361954,
461,_5,M,180,R,N,461_5M180RN,HRN,0,26,26,180,,,1.3760000000000001,631.2587898999991,631.5507486999995,631.5507486999995,631.7837156999994,631.8005632999993,None,None,,631.8005632999993,None,631.8005632999993,633.1659246999989,0.17948799999976472,None,,,,,,,,,55,001,2020_Jan_13_1650,untitled,3.1.0,60.040335097361954,
167,F,N,270,L,N,167FN270LN,HLN,0,27,27,222,,,1.004,635.5669765999992,635.8633531999985,635.8633531999985,635.9799535000002,635.9967419999994,635.5669765999992,up,2.6484662999991997,635.9967419999994,None,635.9967419999994,636.9792165999988,0.29151810000075784,None,,,,,,,,,55,001,2020_Jan_13_1650,untitled,3.1.0,60.040335097361954,
418,_4,N,45,L,N,418_4N045LN,HLN,0,28,28,265,,,1.076,638.842430499999,639.1441682999994,639.1441682999994,639.3612076999998,639.3782100999997,None,up,2.0313256999997975,639.3782100999997,None,639.3782100999997,640.4433479999989,0.18656860000010056,None,,,,,,,,,55,001,2020_Jan_13_1650,untitled,3.1.0,60.040335097361954,
303,_2,M,270,L,N,303_2M270LN,HLN,0,29,29,158,,,1.342,641.6092792999989,641.9083109000003,641.9083109000003,642.1250260999986,642.1416272999995,None,down,2.5332286000011663,642.1416272999995,None,642.1416272999995,643.4746063999992,0.18855509999957576,None,,,,,,,,,55,001,2020_Jan_13_1650,untitled,3.1.0,60.040335097361954,
175,F,M,270,L,N,175FM270LN,HLN,0,30,30,126,,,0.778,644.8686134999989,645.1568489000001,645.1568489000001,645.3886136000001,645.4054428,None,down,2.1159938999990118,645.4054428,None,645.4054428,646.1712516999996,0.1829864000010275,None,,,,,,,,,55,001,2020_Jan_13_1650,untitled,3.1.0,60.040335097361954,
490,_5,M,45,L,N,490_5M045LN,HLN,0,31,31,185,,,0.747,647.7246779999987,648.0197071000002,648.0197071000002,648.2361931999985,648.2528977000002,None,up,2.615209600000526,648.2528977000002,None,648.2528977000002,648.985480899999,0.19225060000098892,None,,,,,,,,,55,001,2020_Jan_13_1650,untitled,3.1.0,60.040335097361954,
_,_4,M,135,_,_,__4M135__,N,0,32,32,35,,,1.262,651.075649299999,651.3668805999987,651.3668805999987,651.5831681999989,651.6000356999994,None,down,3.031796499999473,651.6000356999994,None,651.6000356999994,652.8488129999987,0.19630169999982172,None,,,,,,,,,55,001,2020_Jan_13_1650,untitled,3.1.0,60.040335097361954,
_,F,N,45,_,_,_FN045__,N,0,33,33,49,,,0.865,654.9322892,655.2304132999998,655.2304132999998,655.3470937999991,655.3641205999993,None,up,1.8321842000004835,655.3641205999993,None,655.3641205999993,656.2121676999996,0.28890230000070005,None,,,,,,,,,55,001,2020_Jan_13_1650,untitled,3.1.0,60.040335097361954,
206,G,M,225,R,N,206GM225RN,HRN,0,34,34,133,,,1.008,657.3875922999996,657.6779435999997,657.6779435999997,657.9110372999985,657.9277308000001,None,down,1.8493883999999525,657.9277308000001,None,657.9277308000001,658.9282450999999,0.18051180000111344,None,,,,,,,,,55,001,2020_Jan_13_1650,untitled,3.1.0,60.040335097361954,
_,R,N,90,_,_,_RN090__,N,0,35,35,66,,,0.932,660.0659435999987,660.3591369999995,660.3591369999995,660.4920396999987,660.5088839,None,up,2.149115599999277,660.5088839,None,660.5088839,661.4246017999994,0.2777319000015268,None,,,,,,,,,55,001,2020_Jan_13_1650,untitled,3.1.0,60.040335097361954,
134,F,N,225,R,N,134FN225RN,HRN,0,36,36,213,,,1.121,662.8624404000002,663.1564758999994,663.1564758999994,663.3728310999995,663.3897266999993,None,up,2.6151482999994187,663.3897266999993,None,663.3897266999993,664.488673599999,0.1934921000010945,None,,,,,,,,,55,001,2020_Jan_13_1650,untitled,3.1.0,60.040335097361954,
495,_5,M,270,L,N,495_5M270LN,HLN,0,37,37,190,,,1.058,666.2081447,666.5035413999994,666.5035413999994,666.7203086999998,666.7365677999987,None,down,2.6485654000007344,666.7365677999987,None,666.7365677999987,667.7857457999999,0.19270659999892814,None,,,,,,,,,55,001,2020_Jan_13_1650,untitled,3.1.0,60.040335097361954,
_,G,N,135,_,_,_GN135__,N,0,38,38,59,,,1.042,669.6774368999995,669.9671046999993,669.9671046999993,670.100876999999,670.1173225000002,None,up,2.1499736000005214,670.1173225000002,None,670.1173225000002,671.1496520000001,0.2815528999999515,None,,,,,,,,,55,001,2020_Jan_13_1650,untitled,3.1.0,60.040335097361954,
484,_5,N,135,L,N,484_5N135LN,HLN,0,39,39,283,,,1.048,672.4927557999999,672.7825539999994,672.7825539999994,672.9812667999995,672.9979203999992,None,down,2.681764099999782,672.9979203999992,None,672.9979203999992,674.0308546999986,0.21463780000158295,None,,,,,,,,,55,001,2020_Jan_13_1650,untitled,3.1.0,60.040335097361954,
142,F,M,225,R,N,142FM225RN,HRN,0,40,40,117,,,1.361,675.8618874999993,676.161602799999,676.161602799999,676.394967799999,676.4121147999995,None,down,2.9648975000000064,676.4121147999995,None,676.4121147999995,677.7607900999992,0.17159799999899406,None,,,,,,,,,55,001,2020_Jan_13_1650,untitled,3.1.0,60.040335097361954,
483,_5,N,90,L,N,483_5N090LN,HLN,0,41,41,282,,,0.845,679.5814910999998,679.8752671000002,679.8752671000002,680.0915564999996,680.1083925000003,None,up,1.832462200000009,680.1083925000003,None,680.1083925000003,680.9409355999996,0.19365269999980228,None,,,,,,,,,55,001,2020_Jan_13_1650,untitled,3.1.0,60.040335097361954,
_,R,M,225,_,_,_RM225__,N,0,42,42,21,,,1.187,682.2379341999986,682.5394108,682.5394108,682.6560850999995,682.6733673999988,None,down,2.3815570999995543,682.6733673999988,None,682.6733673999988,683.838128899999,0.2856451999996352,None,,,,,,,,,55,001,2020_Jan_13_1650,untitled,3.1.0,60.040335097361954,
_,G,M,0,_,_,_GM000__,N,0,43,43,8,,,1.3780000000000001,685.3458868999987,685.6372547999999,685.6372547999999,685.7703294999992,685.7875027999999,None,up,2.5144678999986354,685.7875027999999,None,685.7875027999999,687.1526575999997,0.28014620000067225,None,,,,,,,,,55,001,2020_Jan_13_1650,untitled,3.1.0,60.040335097361954,
228,G,N,135,L,N,228GN135LN,HLN,0,44,44,235,,,0.913,688.4839539999994,688.784146,688.784146,689.0176914999993,689.033892899999,None,up,2.348630599999524,689.033892899999,None,689.033892899999,689.9340443000001,0.17117700000017066,None,,,,,,,,,55,001,2020_Jan_13_1650,untitled,3.1.0,60.040335097361954,
454,_5,N,225,R,N,454_5N225RN,HRN,0,45,45,277,,,0.707,691.6602364999999,691.9488986999986,691.9488986999986,692.0978946999985,692.1145238999998,None,up,2.1329118000012386,692.1145238999998,None,692.1145238999998,692.8137841999996,0.26739979999911156,None,,,,,,,,,55,001,2020_Jan_13_1650,untitled,3.1.0,60.040335097361954,
_,G,N,315,_,_,_GN315__,N,0,46,46,63,,,1.239,694.520009599999,694.8120485999989,694.8120485999989,694.9620919999998,694.9789105,None,up,2.4815992999992886,694.9789105,None,694.9789105,696.2107966999993,0.2614999999987049,None,,,,,,,,,55,001,2020_Jan_13_1650,untitled,3.1.0,60.040335097361954,
_,R,N,45,_,_,_RN045__,N,0,47,47,65,,,1.188,697.761959899999,698.0595107999998,698.0595107999998,698.1764246999992,698.1928295999987,None,up,1.9508106000012049,698.1928295999987,None,698.1928295999987,699.3583901999991,0.2904123999996955,None,,,,,,,,,55,001,2020_Jan_13_1650,untitled,3.1.0,60.040335097361954,
496,_5,M,315,L,N,496_5M315LN,HLN,0,48,48,191,,,1.29,700.3377404999992,700.6403915999999,700.6403915999999,700.8568970999986,700.8736513999993,None,down,2.198856999999407,700.8736513999993,None,700.8736513999993,702.1561294000003,0.1827017000014166,None,,,,,,,,,55,001,2020_Jan_13_1650,untitled,3.1.0,60.040335097361954,
385,_4,N,0,R,N,385_4N000RN,HRN,0,49,49,256,,,1.026,703.2531755999989,703.5544981000003,703.5544981000003,703.7878376999997,703.8044906999985,None,up,1.7816953000001376,703.8044906999985,None,703.8044906999985,704.8199179999992,0.16979879999962577,None,,,,,,,,,55,001,2020_Jan_13_1650,untitled,3.1.0,60.040335097361954,
194,G,N,45,R,N,194GN045RN,HRN,0,50,50,225,,,1.185,705.9359177999995,706.2355546999988,706.2355546999988,706.3020132999991,706.3189865999993,None,up,1.8155595999996876,706.3189865999993,None,706.3189865999993,707.5018927000001,0.332863499999803,None,,,,,,,,,55,001,2020_Jan_13_1650,untitled,3.1.0,60.040335097361954,
230,G,N,225,L,N,230GN225LN,HLN,0,51,51,237,,,1.113,708.4242126999998,708.7169079999985,708.7169079999985,708.8499351999999,708.8665703999995,None,down,2.2489038000003347,708.8665703999995,None,708.8665703999995,709.9656207999997,0.27884999999878346,None,,,,,,,,,55,001,2020_Jan_13_1650,untitled,3.1.0,60.040335097361954,
_,_5,M,225,_,_,__5M225__,N,0,52,52,45,,,0.785,711.397745799999,711.6974519999985,711.6974519999985,711.8308295999996,711.8477187999997,None,down,2.967268899999908,711.8477187999997,None,711.8477187999997,712.6138861999989,0.27068400000098336,None,,,,,,,,,55,001,2020_Jan_13_1650,untitled,3.1.0,60.040335097361954,
172,F,M,135,L,N,172FM135LN,HLN,0,53,53,123,,,0.989,715.0193342999992,715.3110288999997,715.3110288999997,715.5277281999988,715.5443816999996,None,up,2.3980898999998317,715.5443816999996,None,715.5443816999996,716.5265113999994,0.19279529999948863,None,,,,,,,,,55,001,2020_Jan_13_1650,untitled,3.1.0,60.040335097361954,
421,_4,N,180,L,N,421_4N180LN,HLN,0,54,54,268,,,1.381,718.1710910000002,718.4733357999994,718.4733357999994,718.6589874000001,718.6748431999986,None,up,3.315802299999632,718.6748431999986,None,718.6748431999986,720.0401246999991,0.21606689999862283,None,,,,,,,,,55,001,2020_Jan_13_1650,untitled,3.1.0,60.040335097361954,
204,G,M,135,R,N,204GM135RN,HRN,0,55,55,131,,,1.02,722.1649877,722.4544042999987,722.4544042999987,722.705323799999,722.7215572999994,None,up,2.183825300000535,722.7215572999994,None,722.7215572999994,723.7205522999993,0.16383089999908407,None,,,,,,,,,55,001,2020_Jan_13_1650,untitled,3.1.0,60.040335097361954,
200,G,N,315,R,N,200GN315RN,HRN,0,56,56,231,,,1.298,725.1275311999998,725.4189293999989,725.4189293999989,725.6187377999995,725.6368250999985,None,up,2.366309299999557,725.6368250999985,None,725.6368250999985,726.9182669000002,0.21066310000060184,None,,,,,,,,,55,001,2020_Jan_13_1650,untitled,3.1.0,60.040335097361954,
_,_2,N,270,_,_,__2N270__,N,0,57,57,78,,,1.1280000000000001,728.2036063999985,728.499656,728.499656,728.7159081999998,728.7326283000002,None,down,2.3492614000006142,728.7326283000002,None,728.7326283000002,729.8482895999987,0.18882490000032703,None,,,,,,,,,55,001,2020_Jan_13_1650,untitled,3.1.0,60.040335097361954,
_,_2,M,135,_,_,__2M135__,N,0,58,58,27,,,0.967,731.2842612999993,731.5800565999998,731.5800565999998,731.7966294999987,731.8136825999991,None,down,2.964400000000751,731.8136825999991,None,731.8136825999991,732.7624457999991,0.1899459999985993,None,,,,,,,,,55,001,2020_Jan_13_1650,untitled,3.1.0,60.040335097361954,
197,G,N,180,R,N,197GN180RN,HRN,0,59,59,228,,,0.764,734.9859462999993,735.277065799999,735.277065799999,735.4933475999987,735.5104412000001,None,down,2.5317998999998963,735.5104412000001,None,735.5104412000001,736.2603493999995,0.19691450000027544,None,,,,,,,,,55,001,2020_Jan_13_1650,untitled,3.1.0,60.040335097361954,
300,_2,M,135,L,N,300_2M135LN,HLN,0,60,60,155,,,1.166,738.3374871999986,738.6404972,738.6404972,738.7570599999999,738.7738360999992,None,down,2.7322242000009282,738.7738360999992,None,738.7738360999992,739.922709299999,0.28432730000167794,None,,,,,,,,,55,001,2020_Jan_13_1650,untitled,3.1.0,60.040335097361954,
_,_4,M,315,_,_,__4M315__,N,0,61,61,39,,,1.12,741.8126917999998,742.1043996999997,742.1043996999997,742.2209251999993,742.2378160999997,None,down,2.7657163000003493,742.2378160999997,None,742.2378160999997,743.3368852999993,0.29526959999930114,None,,,,,,,,,55,001,2020_Jan_13_1650,untitled,3.1.0,60.040335097361954,
491,_5,M,90,L,N,491_5M090LN,HLN,0,62,62,186,,,1.1480000000000001,745.2175707999995,745.5180302999997,745.5180302999997,745.7177071999995,745.7344687999994,None,down,2.565884300000107,745.7344687999994,None,745.7344687999994,746.8669770999986,0.20206019999932323,None,,,,,,,,,55,001,2020_Jan_13_1650,untitled,3.1.0,60.040335097361954,
419,_4,N,90,L,N,419_4N090LN,HLN,0,63,63,266,,,1.21,748.531033199999,748.8317947999985,748.8317947999985,749.0152890999998,749.0320414999987,None,up,2.0992518000002747,749.0320414999987,None,749.0320414999987,750.2304941999992,0.21762830000079703,None,,,,,,,,,55,001,2020_Jan_13_1650,untitled,3.1.0,60.040335097361954,
174,F,M,225,L,N,174FM225LN,HLN,0,64,64,125,,,0.784,751.3619463999985,751.6640668999989,751.6640668999989,751.8674216999989,751.9022413000002,None,down,2.3090002999997523,751.9022413000002,None,751.9022413000002,752.6293987999998,0.21430880000116304,None,,,,,,,,,55,001,2020_Jan_13_1650,untitled,3.1.0,60.040335097361954,
294,_2,N,225,L,N,294_2N225LN,HLN,0,65,65,253,,,1.365,754.4486962999999,754.7433499999988,754.7433499999988,754.9263534999991,754.9432558999997,None,up,3.448865600001227,754.9432558999997,None,754.9432558999997,756.2918359999985,0.22669219999988854,None,,,,,,,,,55,001,2020_Jan_13_1650,untitled,3.1.0,60.040335097361954,
035,R,N,90,L,N,035RN090LN,HLN,0,66,66,202,,,1.032,758.7069493999988,759.0061293999988,759.0061293999988,759.1063776999999,759.1229496999986,None,up,2.1154275000008056,759.1229496999986,None,759.1229496999986,760.1385720999988,0.30322119999982533,None,,,,,,,,,55,001,2020_Jan_13_1650,untitled,3.1.0,60.040335097361954,
_,_4,M,180,_,_,__4M180__,N,0,67,67,36,,,0.905,761.4433981000002,761.7377177999988,761.7377177999988,761.9542958999991,761.9723326999992,None,up,1.9309297999989212,761.9723326999992,None,761.9723326999992,762.8541669999995,0.192957799999931,None,,,,,,,,,55,001,2020_Jan_13_1650,untitled,3.1.0,60.040335097361954,
_,F,M,315,_,_,_FM315__,N,0,68,68,7,,,0.759,764.2469046999995,764.5371176999997,764.5371176999997,764.6181135999996,764.6361020999993,None,down,1.8316454000014346,764.6361020999993,None,764.6361020999993,765.3836672999987,0.33063769999898796,None,,,,,,,,,55,001,2020_Jan_13_1650,untitled,3.1.0,60.040335097361954,
237,G,M,180,L,N,237GM180LN,HLN,0,69,69,140,,,1.372,766.8401472999994,767.1615745999989,767.1615745999989,767.2405707999987,767.2405707999987,None,None,,767.2405707999987,None,767.2405707999987,768.5644102999995,0.3560698000001139,None,,,,,,,,,55,001,2020_Jan_13_1650,untitled,3.1.0,60.040335097361954,
_,_4,M,45,_,_,__4M045__,N,0,70,70,33,,,1.196,770.8677946999996,771.1621360999998,771.1621360999998,771.3795746999986,771.3953959999999,770.8677946999996,down,2.915597200000775,771.3953959999999,None,771.3953959999999,772.5776163999999,0.1946680999990349,None,,,,,,,,,55,001,2020_Jan_13_1650,untitled,3.1.0,60.040335097361954,
_,G,M,90,_,_,_GM090__,N,0,71,71,10,,,0.92,774.6083877000001,774.9090884999987,774.9090884999987,775.0259237999999,775.042086899999,None,down,2.032533499999772,775.042086899999,None,775.042086899999,775.9413802999989,0.2855543999994552,None,,,,,,,,,55,001,2020_Jan_13_1650,untitled,3.1.0,60.040335097361954,
041,R,M,0,L,N,041RM000LN,HLN,0,72,72,104,,,1.344,777.3565331999998,777.6565443,777.6565443,777.7897027999988,777.8064373999987,None,down,2.233412199999293,777.8064373999987,None,777.8064373999987,779.1389975000002,0.2709713999993255,None,,,,,,,,,55,001,2020_Jan_13_1650,untitled,3.1.0,60.040335097361954,
132,F,N,135,R,N,132FN135RN,HRN,0,73,73,211,,,1.1,780.3686019999986,780.6705509999993,780.6705509999993,780.7539299,780.7705869000001,None,up,2.548973600001773,780.7705869000001,None,780.7705869000001,781.853063999999,0.31593160000011267,None,,,,,,,,,55,001,2020_Jan_13_1650,untitled,3.1.0,60.040335097361954,
001,R,N,0,R,N,001RN000RN,HRN,0,74,74,192,,,0.727,783.6143226999993,783.9179449000003,783.9179449000003,784.0343287999985,784.0509047999985,None,up,1.4996209000000817,784.0509047999985,None,784.0509047999985,784.7672255999987,0.2840186999983416,None,,,,,,,,,55,001,2020_Jan_13_1650,untitled,3.1.0,60.040335097361954,
449,_5,N,0,R,N,449_5N000RN,HRN,0,75,75,272,,,0.725,785.8377414999995,786.1324515999986,786.1324515999986,786.2658950999994,786.2824765999994,None,down,1.6494605999996566,786.2824765999994,None,786.2824765999994,786.9983586999988,0.27634609999950044,None,,,,,,,,,55,001,2020_Jan_13_1650,untitled,3.1.0,60.040335097361954,
456,_5,N,315,R,N,456_5N315RN,HRN,0,76,76,279,,,1.366,788.2172984999997,788.5136946000002,788.5136946000002,788.6470011000001,788.6636519999993,None,up,2.4161269000014727,788.6636519999993,None,788.6636519999993,790.0131290999998,0.2742830999995931,None,,,,,,,,,55,001,2020_Jan_13_1650,untitled,3.1.0,60.040335097361954,
171,F,M,90,L,N,171FM090LN,HLN,0,77,77,122,,,0.888,791.2865511,791.5777734000003,791.5777734000003,791.7942325999993,791.8112196999991,None,down,2.8650749000007636,791.8112196999991,None,791.8112196999991,792.6779463000003,0.1947509000001446,None,,,,,,,,,55,001,2020_Jan_13_1650,untitled,3.1.0,60.040335097361954,
_,G,M,180,_,_,_GM180__,N,0,78,78,12,,,0.905,794.9960448999991,795.2911587999988,795.2911587999988,795.3912639999999,795.4084707999991,None,down,2.2826519000009284,795.4084707999991,None,795.4084707999991,796.3070356999997,0.30718570000135514,None,,,,,,,,,55,001,2020_Jan_13_1650,untitled,3.1.0,60.040335097361954,
429,_4,M,180,L,N,429_4M180LN,HLN,0,79,79,172,,,0.7030000000000001,798.0176947,798.3226123999993,798.3226123999993,798.4057023999994,798.4254504,None,up,2.2465543000016623,798.4254504,None,798.4254504,799.121272299999,0.31173909999961325,None,,,,,,,,,55,001,2020_Jan_13_1650,untitled,3.1.0,60.040335097361954,
424,_4,N,315,L,N,424_4N315LN,HLN,0,80,80,271,,,0.758,800.8537543999992,801.1529498,801.1529498,801.3859680999994,801.4026226999995,None,up,1.6995211000012205,801.4026226999995,None,801.4026226999995,802.151761699999,0.17057409999870288,None,,,,,,,,,55,001,2020_Jan_13_1650,untitled,3.1.0,60.040335097361954,
_,_2,N,45,_,_,__2N045__,N,0,81,81,73,,,0.899,803.2958288999998,803.5853492999995,803.5853492999995,803.8169815000001,803.8336483000003,None,up,1.69972769999913,803.8336483000003,None,803.8336483000003,804.7164941999999,0.18248459999995248,None,,,,,,,,,55,001,2020_Jan_13_1650,untitled,3.1.0,60.040335097361954,
455,_5,N,270,R,N,455_5N270RN,HRN,0,82,82,278,,,0.812,805.7424985999987,806.031724299999,806.031724299999,806.248234499999,806.2650225999987,None,up,1.5169090000017604,806.2650225999987,None,806.2650225999987,807.0639520999994,0.19764439999926253,None,,,,,,,,,55,001,2020_Jan_13_1650,untitled,3.1.0,60.040335097361954,
457,_5,M,0,R,N,457_5M000RN,HRN,0,83,83,176,,,0.979,807.9934592999998,808.2967928999988,808.2967928999988,808.4964362999999,808.5132979999998,None,down,2.2324276999988797,808.5132979999998,None,808.5132979999998,809.4790987999986,0.19990789999974368,None,,,,,,,,,55,001,2020_Jan_13_1650,untitled,3.1.0,60.040335097361954,
_,_2,M,0,_,_,__2M000__,N,0,84,84,24,,,0.92,810.9660340999999,811.2605105999992,811.2605105999992,811.4603602999996,811.4770286999992,None,down,2.0365579999997863,811.4770286999992,None,811.4770286999992,812.3763399,0.20674090000102296,None,,,,,,,,,55,001,2020_Jan_13_1650,untitled,3.1.0,60.040335097361954,
033,R,N,0,L,N,033RN000LN,HLN,0,85,85,200,,,1.357,813.8700468999996,814.1582077999992,814.1582077999992,814.2414595999999,814.2580797999999,None,up,1.9487591999986762,814.2580797999999,None,814.2580797999999,815.5900741999994,0.33353729999907955,None,,,,,,,,,55,001,2020_Jan_13_1650,untitled,3.1.0,60.040335097361954,
431,_4,M,270,L,N,431_4M270LN,HLN,0,86,86,174,,,1.047,816.4441638999997,816.7391434000001,816.7391434000001,816.922365299999,816.9390105999992,None,down,1.9338712000007945,816.9390105999992,None,816.9390105999992,817.9714875999998,0.2260971999985486,None,,,,,,,,,55,001,2020_Jan_13_1650,untitled,3.1.0,60.040335097361954,
293,_2,N,180,L,N,293_2N180LN,HLN,0,87,87,252,,,1.205,819.1743627999986,819.4700764999998,819.4700764999998,819.5870933999995,819.6033766,None,down,2.4986704000002646,819.6033766,None,819.6033766,820.8020958999987,0.2892178000001877,None,,,,,,,,,55,001,2020_Jan_13_1650,untitled,3.1.0,60.040335097361954,
_,R,N,180,_,_,_RN180__,N,0,88,88,68,,,1.117,822.3095704999996,822.6007377999995,822.6007377999995,822.8181143999991,822.8347068000003,None,down,2.581132499999512,822.8347068000003,None,822.8347068000003,823.9330035999992,0.19672259999970265,None,,,,,,,,,55,001,2020_Jan_13_1650,untitled,3.1.0,60.040335097361954,
464,_5,M,315,R,N,464_5M315RN,HRN,0,89,89,183,,,1.0210000000000001,825.7662289999989,826.0646663999996,826.0646663999996,826.1313637999992,826.1491025999985,None,down,2.1310604000009334,826.1491025999985,None,826.1491025999985,827.1473817999995,0.3381976000000577,None,,,,,,,,,55,001,2020_Jan_13_1650,untitled,3.1.0,60.040335097361954,
299,_2,M,90,L,N,299_2M090LN,HLN,0,90,90,154,,,0.8,828.6513885999993,828.9459757999994,828.9459757999994,828.9962864999998,829.0155576999987,None,down,2.5116594999999506,829.0155576999987,None,829.0155576999987,829.7950568999986,0.3551934999995865,None,,,,,,,,,55,001,2020_Jan_13_1650,untitled,3.1.0,60.040335097361954,
_,_2,N,90,_,_,__2N090__,N,0,91,91,74,,,0.805,831.7394612999997,832.0425730999996,832.0425730999996,832.2422848999995,832.2590439999985,None,up,1.5161824999995588,832.2590439999985,None,832.2590439999985,833.0414693999992,0.20088030000079016,None,,,,,,,,,55,001,2020_Jan_13_1650,untitled,3.1.0,60.040335097361954,
011,R,M,90,R,N,011RM090RN,HRN,0,92,92,98,,,1.175,833.984017499999,834.2738786999998,834.2738786999998,834.4902079999993,834.5070724999987,None,down,2.3321078999997553,834.5070724999987,None,834.5070724999987,835.6726003999993,0.19662160000007134,None,,,,,,,,,55,001,2020_Jan_13_1650,untitled,3.1.0,60.040335097361954,
008,R,N,315,R,N,008RN315RN,HRN,0,93,93,199,,,1.27,837.0886025999989,837.3876650000002,837.3876650000002,837.5542714000003,837.5710229999986,None,up,1.949868300000162,837.5710229999986,None,837.5710229999986,838.8209153999996,0.23793120000118506,None,,,,,,,,,55,001,2020_Jan_13_1650,untitled,3.1.0,60.040335097361954,
397,_4,M,180,R,N,397_4M180RN,HRN,0,94,94,164,,,0.771,839.851230799999,840.1520278999997,840.1520278999997,840.2352574999986,840.2530111999986,None,down,1.7158066000010876,840.2530111999986,None,840.2530111999986,841.0023024000002,0.31776999999965483,None,,,,,,,,,55,001,2020_Jan_13_1650,untitled,3.1.0,60.040335097361954,
493,_5,M,180,L,N,493_5M180LN,HLN,0,95,95,188,,,1.072,842.1992419999988,842.5002556,842.5002556,842.6830157999993,842.7067114999991,None,up,2.164256200001546,842.7067114999991,None,842.7067114999991,843.7656668999989,0.2156556999998429,None,,,,,,,,,55,001,2020_Jan_13_1650,untitled,3.1.0,60.040335097361954,
261,_2,N,180,R,N,261_2N180RN,HRN,0,96,96,244,,,0.861,845.2344973999989,845.5308745000002,845.5308745000002,845.5981369000001,845.5981369000001,None,up,2.34841249999954,845.5981369000001,None,845.5981369000001,846.4470529999999,0.3469699999986915,None,,,,,,,,,55,001,2020_Jan_13_1650,untitled,3.1.0,60.040335097361954,
266,_2,M,45,R,N,266_2M045RN,HRN,0,97,97,145,,,1.345,848.2089557999989,848.5115747999989,848.5115747999989,848.6616556999998,848.6781917999997,None,down,3.132602700001371,848.6781917999997,None,848.6781917999997,850.0101646000003,0.25115789999836124,None,,,,,,,,,55,001,2020_Jan_13_1650,untitled,3.1.0,60.040335097361954,
_,_4,N,270,_,_,__4N270__,N,0,98,98,86,,,1.185,852.1058235,852.4082210999986,852.4082210999986,852.5246707999995,852.5414779000002,None,up,2.2823735999991186,852.5414779000002,None,852.5414779000002,853.7069350999991,0.2833356000010099,None,,,,,,,,,55,001,2020_Jan_13_1650,untitled,3.1.0,60.040335097361954,
_,_2,M,315,_,_,__2M315__,N,0,99,99,31,,,1.103,855.0397398999994,855.3387027999997,855.3387027999997,855.5386796999992,855.5565571999996,None,down,2.697951699999976,855.5565571999996,None,855.5565571999996,856.6384553999997,0.20430630000009842,None,,,,,,,,,55,001,2020_Jan_13_1650,untitled,3.1.0,60.040335097361954,
395,_4,M,90,R,N,395_4M090RN,HRN,0,100,100,162,,,0.753,858.4659181999996,858.7539660999992,858.7539660999992,858.968906099999,858.9859636000001,None,down,1.967548499998884,858.9859636000001,None,858.9859636000001,859.7191781000001,0.197867299999416,None,,,,,,,,,55,001,2020_Jan_13_1650,untitled,3.1.0,60.040335097361954,
240,G,M,315,L,N,240GM315LN,HLN,0,101,101,143,,,1.117,861.2424119999996,861.5335350999994,861.5335350999994,861.6666862000002,861.6834863999993,None,down,2.498796500000026,861.6834863999993,None,861.6834863999993,862.7990078999992,0.27391090000128315,None,,,,,,,,,55,001,2020_Jan_13_1650,untitled,3.1.0,60.040335097361954,
229,G,N,180,L,N,229GN180LN,HLN,0,102,102,236,,,0.795,864.4974285999997,864.7976472999999,864.7976472999999,864.8972119999999,864.9140337999997,None,up,2.298657600000297,864.9140337999997,None,864.9140337999997,865.6964621999996,0.3038935999993555,None,,,,,,,,,55,001,2020_Jan_13_1650,untitled,3.1.0,60.040335097361954,
422,_4,N,225,L,N,422_4N225LN,HLN,0,103,103,269,,,1.254,867.4067083999998,867.6961875999987,867.6961875999987,867.927795399999,867.9444278999999,None,up,2.7993736999997054,867.9444278999999,None,867.9444278999999,869.1768235999989,0.18258760000026086,None,,,,,,,,,55,001,2020_Jan_13_1650,untitled,3.1.0,60.040335097361954,
048,R,M,315,L,N,048RM315LN,HLN,0,104,104,111,,,1.281,871.0035296999995,871.2928654999996,871.2928654999996,871.458603699999,871.4756765000002,None,down,2.265291100000468,871.4756765000002,None,871.4756765000002,872.7408539999997,0.24897979999877862,None,,,,,,,,,55,001,2020_Jan_13_1650,untitled,3.1.0,60.040335097361954,
_,_2,M,225,_,_,__2M225__,N,0,105,105,29,,,0.786,873.9423310999991,874.2393192999989,874.2393192999989,874.4553732999993,874.4723063999991,None,up,1.7030317000007926,874.4723063999991,None,874.4723063999991,875.2548466999997,0.18681560000004538,None,,,,,,,,,55,001,2020_Jan_13_1650,untitled,3.1.0,60.040335097361954,
_,_4,M,90,_,_,__4M090__,N,0,106,106,34,,,1.337,876.4431796999997,876.7369490000001,876.7369490000001,876.886854299999,876.9034429999992,None,down,2.365338800000245,876.9034429999992,None,876.9034429999992,878.2355009000003,0.25380849999964994,None,,,,,,,,,55,001,2020_Jan_13_1650,untitled,3.1.0,60.040335097361954,
043,R,M,90,L,N,043RM090LN,HLN,0,107,107,106,,,1.268,879.4691738000001,879.7677027999998,879.7677027999998,879.9841559999986,880.0006014999999,None,down,2.283968799998547,880.0006014999999,None,880.0006014999999,881.2494994999997,0.18918209999901592,None,,,,,,,,,55,001,2020_Jan_13_1650,untitled,3.1.0,60.040335097361954,
_,F,M,90,_,_,_FM090__,N,0,108,108,2,,,1.064,882.5913235999997,882.8815297000001,882.8815297000001,882.998350599999,883.0148211999986,None,down,2.0508691999984876,883.0148211999986,None,883.0148211999986,884.0638996999987,0.2954177999999956,None,,,,,,,,,55,001,2020_Jan_13_1650,untitled,3.1.0,60.040335097361954,
_,G,N,225,_,_,_GN225__,N,0,109,109,61,,,1.385,885.3761580999999,885.6775493999994,885.6775493999994,885.7797002999996,885.7975460999987,None,up,2.7634653999994043,885.7975460999987,None,885.7975460999987,887.1783575999998,0.29231330000038724,None,,,,,,,,,55,001,2020_Jan_13_1650,untitled,3.1.0,60.040335097361954,
263,_2,N,270,R,N,263_2N270RN,HRN,0,110,110,246,,,1.06,888.7244159000002,889.0259800999993,889.0259800999993,889.2751738999996,889.2916127999997,None,up,2.438782799999899,889.2916127999997,None,889.2916127999997,890.3416318999989,0.15242009999928996,None,,,,,,,,,55,001,2020_Jan_13_1650,untitled,3.1.0,60.040335097361954,
387,_4,N,90,R,N,387_4N090RN,HRN,0,111,111,258,,,1.175,892.0042519999988,892.2913749999989,892.2913749999989,892.4566266999991,892.4566266999991,None,up,2.48305849999997,892.4566266999991,None,892.4566266999991,893.6229070999998,0.2563802000004216,None,,,,,,,,,55,001,2020_Jan_13_1650,untitled,3.1.0,60.040335097361954,
012,R,M,135,R,N,012RM135RN,HRN,0,112,112,99,,,1.315,895.180800099999,895.4705152999995,895.4705152999995,895.6539065999987,895.6703977999987,None,down,3.2987527000004775,895.6703977999987,None,895.6703977999987,896.9694209999998,0.230079900000419,None,,,,,,,,,55,001,2020_Jan_13_1650,untitled,3.1.0,60.040335097361954,
163,F,N,90,L,N,163FN090LN,HLN,0,113,113,218,,,1.333,899.2678989999986,899.5670819999996,899.5670819999996,899.6834413999986,899.7000520999991,None,up,2.1495205000010174,899.7000520999991,None,899.7000520999991,901.0157467999998,0.2866297000000486,None,,,,,,,,,55,001,2020_Jan_13_1650,untitled,3.1.0,60.040335097361954,
014,R,M,225,R,N,014RM225RN,HRN,0,114,114,101,,,1.359,902.0413291999994,902.3311140999995,902.3311140999995,902.5643906999994,902.5808983999996,None,down,2.432725099999516,902.5808983999996,None,902.5808983999996,903.9298749999998,0.18050059999950463,None,,,,,,,,,55,001,2020_Jan_13_1650,untitled,3.1.0,60.040335097361954,
_,G,M,315,_,_,_GM315__,N,0,115,115,15,,,1.222,905.2143312999997,905.5117559999999,905.5117559999999,905.7283489000001,905.7510832999997,None,down,2.7259107999998378,905.7510832999997,None,905.7510832999997,906.9619256999995,0.18868649999967602,None,,,,,,,,,55,001,2020_Jan_13_1650,untitled,3.1.0,60.040335097361954,
_,R,M,270,_,_,_RM270__,N,0,116,116,22,,,1.016,908.6548905,908.9437202999998,908.9437202999998,909.1917493000001,909.2085781999995,None,down,2.2163579999996728,909.2085781999995,None,909.2085781999995,910.2076056999995,0.1671561000002839,None,,,,,,,,,55,001,2020_Jan_13_1650,untitled,3.1.0,60.040335097361954,
430,_4,M,225,L,N,430_4M225LN,HLN,0,117,117,173,,,1.129,911.6143317999995,911.9062033999999,911.9062033999999,912.1397070000003,912.1560228999988,None,up,2.7836577000016405,912.1560228999988,None,912.1560228999988,913.2714866999995,0.17821350000122038,None,,,,,,,,,55,001,2020_Jan_13_1650,untitled,3.1.0,60.040335097361954,
262,_2,N,225,R,N,262_2N225RN,HRN,0,118,118,245,,,1.207,915.1362599999993,915.4365226999998,915.4365226999998,915.6527460999987,915.6698750999985,None,up,2.3160347000011825,915.6698750999985,None,915.6698750999985,916.8694114999998,0.1844187000006059,None,,,,,,,,,55,001,2020_Jan_13_1650,untitled,3.1.0,60.040335097361954,
257,_2,N,0,R,N,257_2N000RN,HRN,0,119,119,240,,,1.158,918.2553816999989,918.5504062,918.5504062,918.7007276999993,918.7175712999997,None,up,1.785563600000387,918.7175712999997,None,918.7175712999997,919.8659783999992,0.25806139999986044,None,,,,,,,,,55,001,2020_Jan_13_1650,untitled,3.1.0,60.040335097361954,
393,_4,M,0,R,N,393_4M000RN,HRN,0,120,120,160,,,1.298,920.8441566000001,921.1482770999992,921.1482770999992,921.2147729999997,921.2316890999991,None,down,2.2847532000014326,921.2316890999991,None,921.2316890999991,922.5184221999989,0.32717719999891415,None,,,,,,,,,55,001,2020_Jan_13_1650,untitled,3.1.0,60.040335097361954,
423,_4,N,270,L,N,423_4N270LN,HLN,0,121,121,270,,,1.057,923.7385015,924.0286899000002,924.0286899000002,924.2288037999988,924.2454031999987,None,up,1.8825870000000577,924.2454031999987,None,924.2454031999987,925.2948954999993,0.21043830000053276,None,,,,,,,,,55,001,2020_Jan_13_1650,untitled,3.1.0,60.040335097361954,
173,F,M,180,L,N,173FM180LN,HLN,0,122,122,124,,,1.369,926.3194050999991,926.6100688999995,926.6100688999995,926.8437035999996,926.8612925999987,None,down,2.1809644000004482,926.8612925999987,None,926.8612925999987,928.2087723999994,0.18027970000002824,None,,,,,,,,,55,001,2020_Jan_13_1650,untitled,3.1.0,60.040335097361954,
492,_5,M,135,L,N,492_5M135LN,HLN,0,123,123,187,,,1.314,929.2543962,929.5576740999986,929.5576740999986,929.7571587000002,929.7740945999994,None,down,2.9813763000001927,929.7740945999994,None,929.7740945999994,931.0729894999986,0.20041949999904318,None,,,,,,,,,55,001,2020_Jan_13_1650,untitled,3.1.0,60.040335097361954,
045,R,M,180,L,N,045RM180LN,HLN,0,124,124,108,,,0.9530000000000001,933.0271174999998,933.3211249999986,933.3211249999986,933.4710039000001,933.4875569999986,None,down,2.6665389999998297,933.4875569999986,None,933.4875569999986,934.4203218000002,0.2606759999998758,None,,,,,,,,,55,001,2020_Jan_13_1650,untitled,3.1.0,60.040335097361954,
225,G,N,0,L,N,225GN000LN,HLN,0,125,125,232,,,1.224,936.4314008999991,936.7344988999994,936.7344988999994,936.867897099999,936.884426999999,None,down,2.1345643999993626,936.884426999999,None,936.884426999999,938.0893853999987,0.2643119000003935,None,,,,,,,,,55,001,2020_Jan_13_1650,untitled,3.1.0,60.040335097361954,
161,F,N,0,L,N,161FN000LN,HLN,0,126,126,216,,,1.2550000000000001,939.2490228999995,939.5486700999991,939.5486700999991,939.7485619999989,939.7485619999989,None,up,1.784176799999841,939.7485619999989,None,939.7485619999989,940.9973491000001,0.21429229999921517,None,,,,,,,,,55,001,2020_Jan_13_1650,untitled,3.1.0,60.040335097361954,
_,R,N,315,_,_,_RN315__,N,0,127,127,71,,,1.2530000000000001,941.7294012999992,942.0299319999995,942.0299319999995,942.2463305000001,942.2628824999993,None,up,1.7991492999990442,942.2628824999993,None,942.2628824999993,943.4954379999999,0.18537560000004305,None,,,,,,,,,55,001,2020_Jan_13_1650,untitled,3.1.0,60.040335097361954,
272,_2,M,315,R,N,272_2M315RN,HRN,0,128,128,151,,,1.2,944.2593681999988,944.5610195999998,944.5610195999998,944.7775576999993,944.7941457999987,None,down,2.834239699999671,944.7941457999987,None,944.7941457999987,945.9764766999997,0.18637630000011995,None,,,,,,,,,55,001,2020_Jan_13_1650,untitled,3.1.0,60.040335097361954,
004,R,N,135,R,N,004RN135RN,HRN,0,129,129,195,,,0.973,947.8216954999989,948.1092969999991,948.1092969999991,948.3409131999997,948.3577594999988,None,up,2.399900600001274,948.3577594999988,None,948.3577594999988,949.3234102999995,0.178932500000883,None,,,,,,,,,55,001,2020_Jan_13_1650,untitled,3.1.0,60.040335097361954,
485,_5,N,180,L,N,485_5N180LN,HLN,0,130,130,284,,,0.991,950.9913958999987,951.2885518000003,951.2885518000003,951.4721019999997,951.4887889999991,None,up,2.732888399999865,951.4887889999991,None,951.4887889999991,952.4709870999995,0.21977869999864197,None,,,,,,,,,55,001,2020_Jan_13_1650,untitled,3.1.0,60.040335097361954,
010,R,M,45,R,N,010RM045RN,HRN,0,131,131,97,,,1.2590000000000001,954.5219287999989,954.8190119999999,954.8190119999999,954.9519179999988,954.9519179999988,None,down,2.6489733999987948,954.9519179999988,None,954.9519179999988,956.2008249999999,0.2793248999987554,None,,,,,,,,,55,001,2020_Jan_13_1650,untitled,3.1.0,60.040335097361954,
450,_5,N,45,R,N,450_5N045RN,HRN,0,132,132,273,,,1.336,957.7750201999988,958.0658379999986,958.0658379999986,958.3157004999994,958.3321227999986,None,up,2.1322311999992962,958.3321227999986,None,958.3321227999986,959.6477993999997,0.16411429999971006,None,,,,,,,,,55,001,2020_Jan_13_1650,untitled,3.1.0,60.040335097361954,
462,_5,M,225,R,N,462_5M225RN,HRN,0,133,133,181,,,0.762,960.6521747999996,960.9466734999987,960.9466734999987,961.1798127999991,961.1963805999985,None,down,2.848622900000919,961.1963805999985,None,961.1963805999985,961.9459784999999,0.17707589999918127,None,,,,,,,,,55,001,2020_Jan_13_1650,untitled,3.1.0,60.040335097361954,
_,F,N,180,_,_,_FN180__,N,0,134,134,52,,,1.2550000000000001,964.3324784999986,964.6273839999994,964.6273839999994,964.760054299999,964.7773906999992,None,up,2.698009199999433,964.7773906999992,None,964.7773906999992,966.009458999999,0.27666080000017246,None,,,,,,,,,55,001,2020_Jan_13_1650,untitled,3.1.0,60.040335097361954,
003,R,N,90,R,N,003RN090RN,HRN,0,135,135,194,,,1.34,967.7118969000003,968.0072749999999,968.0072749999999,968.1903059999986,968.2069049999991,None,up,2.001169500001197,968.2069049999991,None,968.2069049999991,969.5409273999994,0.2221719999997731,None,,,,,,,,,55,001,2020_Jan_13_1650,untitled,3.1.0,60.040335097361954,
198,G,N,225,R,N,198GN225RN,HRN,0,136,136,229,,,1.393,970.4180467999995,970.7073091999991,970.7073091999991,970.9214272999998,970.938068899999,None,up,2.6151131999995414,970.938068899999,None,970.938068899999,972.3201714999996,0.1970989000001282,None,,,,,,,,,55,001,2020_Jan_13_1650,untitled,3.1.0,60.040335097361954,
233,G,M,0,L,N,233GM000LN,HLN,0,137,137,136,,,1.131,973.8901467999985,974.1851299999998,974.1851299999998,974.2685068999999,974.2850307999997,None,down,2.2002666000007594,974.2850307999997,None,974.2850307999997,975.4007010999994,0.32554850000087754,None,,,,,,,,,55,001,2020_Jan_13_1650,untitled,3.1.0,60.040335097361954,
_,_5,N,315,_,_,__5N315__,N,0,138,138,95,,,1.223,976.7627756999991,977.066025099999,977.066025099999,977.1992520999993,977.2158650999991,None,up,1.982883499998934,977.2158650999991,None,977.2158650999991,978.4314304,0.2662380999991001,None,,,,,,,,,55,001,2020_Jan_13_1650,untitled,3.1.0,60.040335097361954,
428,_4,M,135,L,N,428_4M135LN,HLN,0,139,139,171,,,0.909,979.396031799999,979.6971095999997,979.6971095999997,979.9132451999994,979.9301540999986,None,None,,979.9301540999986,None,979.9301540999986,980.8296778999993,0.18166520000158926,None,,,,,,,,,55,001,2020_Jan_13_1650,untitled,3.1.0,60.040335097361954,
195,G,N,90,R,N,195GN090RN,HRN,0,140,140,226,,,1.189,983.6377895999995,983.9264291999989,983.9264291999989,984.126633599999,984.1433887000003,983.6377895999995,up,2.2999356999989686,984.1433887000003,None,984.1433887000003,985.3097612999991,0.21625479999966046,None,,,,,,,,,55,001,2020_Jan_13_1650,untitled,3.1.0,60.040335097361954,
_,_5,N,135,_,_,__5N135__,N,0,141,141,91,,,0.752,986.6357576999999,986.9240018,986.9240018,987.1585360999998,987.1740184999999,None,up,1.449794899999688,987.1740184999999,None,987.1740184999999,987.906456499999,0.1804905000008148,None,,,,,,,,,55,001,2020_Jan_13_1650,untitled,3.1.0,60.040335097361954,
047,R,M,270,L,N,047RM270LN,HLN,0,142,142,110,,,0.732,988.8031191999999,989.1057674999993,989.1057674999993,989.3387420999989,989.3553696999988,None,down,1.5505842000002303,989.3553696999988,None,989.3553696999988,990.071523999999,0.16607649999968999,None,,,,,,,,,55,001,2020_Jan_13_1650,untitled,3.1.0,60.040335097361954,
463,_5,M,270,R,N,463_5M270RN,HRN,0,143,143,182,,,0.771,991.1038152000001,991.4035855000002,991.4035855000002,991.6254895999991,991.6456831999985,None,down,1.9234732000004442,991.6456831999985,None,991.6456831999985,992.3859978,0.18657510000048205,None,,,,,,,,,55,001,2020_Jan_13_1650,untitled,3.1.0,60.040335097361954,
002,R,N,45,R,N,002RN045RN,HRN,0,144,144,193,,,0.9560000000000001,993.7794111000003,994.0685311999987,994.0685311999987,994.2849303000003,994.3019396,None,up,1.699525599999106,994.3019396,None,994.3019396,995.2500920000002,0.19901500000014494,None,,,,,,,,,55,001,2020_Jan_13_1650,untitled,3.1.0,60.040335097361954,
207,G,M,270,R,N,207GM270RN,HRN,0,145,145,134,,,1.0130000000000001,996.1823955999989,996.482528999999,996.482528999999,996.7154880999988,996.7326405999993,None,down,2.099408299998686,996.7326405999993,None,996.7326405999993,997.7319004000001,0.16884460000073886,None,,,,,,,,,55,001,2020_Jan_13_1650,untitled,3.1.0,60.040335097361954,
_,_4,N,225,_,_,__4N225__,N,0,146,146,85,,,0.836,999.017765999999,999.3134544999994,999.3134544999994,999.5464314000001,999.5634023999992,None,up,1.8840817000000243,999.5634023999992,None,999.5634023999992,1000.3799435000001,0.17435430000114138,None,,,,,,,,,55,001,2020_Jan_13_1650,untitled,3.1.0,60.040335097361954,
459,_5,M,90,R,N,459_5M090RN,HRN,0,147,147,178,,,1.191,1001.6440212999987,1001.9442294,1001.9442294,1002.1606962999995,1002.1773990000002,None,down,2.5656402000004164,1002.1773990000002,None,1002.1773990000002,1003.3606318000002,0.18461010000100941,None,,,,,,,,,55,001,2020_Jan_13_1650,untitled,3.1.0,60.040335097361954,
140,F,M,135,R,N,140FM135RN,HRN,0,148,148,115,,,1.3960000000000001,1004.9385490999994,1005.2413510999995,1005.2413510999995,1005.4579930999989,1005.4749315999998,None,down,2.4333839999999327,1005.4749315999998,None,1005.4749315999998,1006.8568039000002,0.18354079999880923,None,,,,,,,,,55,001,2020_Jan_13_1650,untitled,3.1.0,60.040335097361954,
481,_5,N,0,L,N,481_5N000LN,HLN,0,149,149,280,,,1.316,1008.1025444999996,1008.4053883999986,1008.4053883999986,1008.6225533999987,1008.6386978999999,None,up,1.9830962000014551,1008.6386978999999,None,1008.6386978999999,1009.9374608999988,0.18302700000094774,None,,,,,,,,,55,001,2020_Jan_13_1650,untitled,3.1.0,60.040335097361954,
_,R,N,0,_,_,_RN000__,N,0,150,150,64,,,0.726,1010.8963580999989,1011.1863345000002,1011.1863345000002,1011.3360987999986,1011.352805999999,None,up,1.3846152000005532,1011.352805999999,None,1011.352805999999,1012.0692419999996,0.2588391000008414,None,,,,,,,,,55,001,2020_Jan_13_1650,untitled,3.1.0,60.040335097361954,
392,_4,N,315,R,N,392_4N315RN,HRN,0,151,151,263,,,1.112,1013.0755826999994,1013.3681431999994,1013.3681431999994,1013.4516286999988,1013.4685633999998,None,up,1.7339877000013075,1013.4685633999998,None,1013.4685633999998,1014.5667949999988,0.3252302000000782,None,,,,,,,,,55,001,2020_Jan_13_1650,untitled,3.1.0,60.040335097361954,
_,_2,N,315,_,_,__2N315__,N,0,152,152,79,,,1.319,1015.3812254999993,1015.682864299999,1015.682864299999,1015.9187815999994,1015.9383734000003,None,up,2.4092282000001433,1015.9383734000003,None,1015.9383734000003,1017.2314639999986,0.16796319999957632,None,,,,,,,,,55,001,2020_Jan_13_1650,untitled,3.1.0,60.040335097361954,
296,_2,N,315,L,N,296_2N315LN,HLN,0,153,153,255,,,0.744,1018.6386772999995,1018.9294730000001,1018.9294730000001,1019.0627968999997,1019.0795739999994,None,up,1.282962299999781,1019.0795739999994,None,1019.0795739999994,1019.8122284000001,0.27901920000113023,None,,,,,,,,,55,001,2020_Jan_13_1650,untitled,3.1.0,60.040335097361954,
391,_4,N,270,R,N,391_4N270RN,HRN,0,154,154,262,,,0.862,1020.7024830999999,1020.9943557999995,1020.9943557999995,1021.0779490999994,1021.0943723,None,up,1.5678060000009282,1021.0943723,None,1021.0943723,1021.9435968999987,0.32854129999941506,None,,,,,,,,,55,001,2020_Jan_13_1650,untitled,3.1.0,60.040335097361954,
208,G,M,315,R,N,208GM315RN,HRN,0,155,155,135,,,1.223,1022.854879999999,1023.1437338999986,1023.1437338999986,1023.3758529999996,1023.3922975999994,None,down,2.2009288999997807,1023.3922975999994,None,1023.3922975999994,1024.6080783999987,0.1817659000007552,None,,,,,,,,,55,001,2020_Jan_13_1650,untitled,3.1.0,60.040335097361954,
169,F,M,0,L,N,169FM000LN,HLN,0,156,156,120,,,1.0090000000000001,1025.8109373999996,1026.106599499999,1026.106599499999,1026.3064017999986,1026.323103499999,None,up,1.8500681000004988,1026.323103499999,None,1026.323103499999,1027.3227314999986,0.20595830000092974,None,,,,,,,,,55,001,2020_Jan_13_1650,untitled,3.1.0,60.040335097361954,
_,_2,N,135,_,_,__2N135__,N,0,157,157,75,,,0.966,1028.4265294999987,1028.7213099,1028.7213099,1028.8881380999992,1028.9051712,None,up,2.548739400001068,1028.9051712,None,1028.9051712,1029.8538754,0.23922589999892807,None,,,,,,,,,55,001,2020_Jan_13_1650,untitled,3.1.0,60.040335097361954,
_,F,N,135,_,_,_FN135__,N,0,158,158,51,,,0.9440000000000001,1031.762445299999,1032.051433999999,1032.051433999999,1032.1680287999989,1032.1846750999994,None,down,2.1152084000004834,1032.1846750999994,None,1032.1846750999994,1033.1170311999995,0.2906201999994664,None,,,,,,,,,55,001,2020_Jan_13_1650,untitled,3.1.0,60.040335097361954,
487,_5,N,270,L,N,487_5N270LN,HLN,0,159,159,286,,,1.061,1034.4841175000001,1034.782350399999,1034.782350399999,1035.0155765,1035.0320182999985,None,up,1.849437000000762,1035.0320182999985,None,1035.0320182999985,1036.081290099999,0.17343139999866253,None,,,,,,,,,55,001,2020_Jan_13_1650,untitled,3.1.0,60.040335097361954,
013,R,M,180,R,N,013RM180RN,HRN,0,160,160,100,,,1.166,1037.174236499999,1037.4641027999987,1037.4641027999987,1037.5965469000002,1037.6134029999994,None,down,2.6316396000001987,1037.6134029999994,None,1037.6134029999994,1038.7622501999995,0.28182160000142176,None,,,,,,,,,55,001,2020_Jan_13_1650,untitled,3.1.0,60.040335097361954,
451,_5,N,90,R,N,451_5N090RN,HRN,0,161,161,274,,,1.0070000000000001,1040.4361504999997,1040.7272060999985,1040.7272060999985,1040.9603367,1040.9770484,None,up,1.78247569999985,1040.9770484,None,1040.9770484,1041.9760439000001,0.18022540000129084,None,,,,,,,,,55,001,2020_Jan_13_1650,untitled,3.1.0,60.040335097361954,
291,_2,N,90,L,N,291_2N090LN,HLN,0,162,162,250,,,0.978,1042.9736667999987,1043.2752261999995,1043.2752261999995,1043.475203099999,1043.4919321999987,None,up,1.5834846999987349,1043.4919321999987,None,1043.4919321999987,1044.4576918999992,0.2019490999991831,None,,,,,,,,,55,001,2020_Jan_13_1650,untitled,3.1.0,60.040335097361954,
_,_5,N,90,_,_,__5N090__,N,0,163,163,90,,,0.76,1045.3132229999992,1045.6063629,1045.6063629,1045.7896701999998,1045.806996899999,None,up,1.3511504999987665,1045.806996899999,None,1045.806996899999,1046.5560484999987,0.22535830000015267,None,,,,,,,,,55,001,2020_Jan_13_1650,untitled,3.1.0,60.040335097361954,
236,G,M,135,L,N,236GM135LN,HLN,0,164,164,139,,,1.157,1047.4496929999987,1047.7391638999998,1047.7391638999998,1047.8709609999987,1047.8876388999997,None,down,3.3317616999993334,1047.8876388999997,None,1047.8876388999997,1049.0369988999992,0.2784467000001314,None,,,,,,,,,55,001,2020_Jan_13_1650,untitled,3.1.0,60.040335097361954,
_,G,N,45,_,_,_GN045__,N,0,165,165,57,,,0.757,1051.4895586999992,1051.7842280999994,1051.7842280999994,1051.9339600999992,1051.9505247999987,None,up,1.78274699999929,1051.9505247999987,None,1051.9505247999987,1052.7001990999997,0.2572452999993402,None,,,,,,,,,55,001,2020_Jan_13_1650,untitled,3.1.0,60.040335097361954,
_,R,M,135,_,_,_RM135__,N,0,166,166,19,,,0.9490000000000001,1053.8926627,1054.1831494999988,1054.1831494999988,1054.448435299999,1054.4649725,None,down,3.015067700000145,1054.4649725,None,1054.4649725,1055.3977509999986,0.14922409999962838,None,,,,,,,,,55,001,2020_Jan_13_1650,untitled,3.1.0,60.040335097361954,
390,_4,N,225,R,N,390_4N225RN,HRN,0,167,167,261,,,1.1300000000000001,1057.6743867999994,1057.962792799999,1057.962792799999,1058.195984099999,1058.2127519999995,None,down,2.332305099998848,1058.2127519999995,None,1058.2127519999995,1059.327970299999,0.18314829999872018,None,,,,,,,,,55,001,2020_Jan_13_1650,untitled,3.1.0,60.040335097361954,
_,_4,M,0,_,_,__4M000__,N,0,168,168,32,,,1.395,1060.855403399999,1061.1440684999998,1061.1440684999998,1061.2592079999995,1061.2766943999995,None,down,2.71454040000026,1061.2766943999995,None,1061.2766943999995,1062.6602551999986,0.2961808000000019,None,,,,,,,,,55,001,2020_Jan_13_1650,untitled,3.1.0,60.040335097361954,
420,_4,N,135,L,N,420_4N135LN,HLN,0,169,169,267,,,1.156,1064.1605592999986,1064.4564192999987,1064.4564192999987,1064.7061852999996,1064.7231032,None,up,2.732425800000783,1064.7231032,None,1064.7231032,1065.8555507,0.15875880000021425,None,,,,,,,,,55,001,2020_Jan_13_1650,untitled,3.1.0,60.040335097361954,
_,R,M,315,_,_,_RM315__,N,0,170,170,23,,,1.0050000000000001,1067.6450041999997,1067.9371384999995,1067.9371384999995,1068.1697926999987,1068.1865902999998,None,down,2.1821885999997903,1068.1865902999998,None,1068.1865902999998,1069.1692698999996,0.1777420999987953,None,,,,,,,,,55,001,2020_Jan_13_1650,untitled,3.1.0,60.040335097361954,
_,F,M,270,_,_,_FM270__,N,0,171,171,6,,,0.974,1070.5825060999996,1070.8845093,1070.8845093,1071.0839328999991,1071.1009638999985,None,None,,1071.1009638999985,None,1071.1009638999985,1072.0666021999987,0.20294339999963995,None,,,,,,,,,55,001,2020_Jan_13_1650,untitled,3.1.0,60.040335097361954,
_,F,M,0,_,_,_FM000__,N,0,172,172,0,,,1.3760000000000001,1074.891327199999,1075.1813194999995,1075.1813194999995,1075.2807455000002,1075.297185899999,1074.891327199999,down,2.2491528000009566,1075.297185899999,None,1075.297185899999,1076.6627104999989,0.31210289999944507,None,,,,,,,,,55,001,2020_Jan_13_1650,untitled,3.1.0,60.040335097361954,
130,F,N,45,R,N,130FN045RN,HRN,0,173,173,209,,,1.381,1077.7963400999997,1078.1157008999999,1078.1157008999999,1078.2769178999988,1078.2769178999988,None,up,2.2838864999994257,1078.2769178999988,None,1078.2769178999988,1079.643177,0.2355451000003086,None,,,,,,,,,55,001,2020_Jan_13_1650,untitled,3.1.0,60.040335097361954,
486,_5,N,225,L,N,486_5N225LN,HLN,0,174,174,285,,,1.083,1080.7489752000001,1081.042186999999,1081.042186999999,1081.2754556,1081.292010699999,None,up,2.1822419999989506,1081.292010699999,None,1081.292010699999,1082.3578644999998,0.17691200000081153,None,,,,,,,,,55,001,2020_Jan_13_1650,untitled,3.1.0,60.040335097361954,
139,F,M,90,R,N,139FM090RN,HRN,0,175,175,114,,,1.049,1083.7749269999986,1084.072759499999,1084.072759499999,1084.1894195999994,1084.2062411999996,None,down,2.265270199999577,1084.2062411999996,None,1084.2062411999996,1085.2389289999992,0.28935850000016217,None,,,,,,,,,55,001,2020_Jan_13_1650,untitled,3.1.0,60.040335097361954,
_,_5,M,135,_,_,__5M135__,N,0,176,176,43,,,1.307,1086.6854631999995,1086.987023399999,1086.987023399999,1087.186635,1087.203632499999,None,up,2.598267200000919,1087.203632499999,None,1087.203632499999,1088.5021457000003,0.20296529999905033,None,,,,,,,,,55,001,2020_Jan_13_1650,untitled,3.1.0,60.040335097361954,
_,_2,N,180,_,_,__2N180__,N,0,177,177,76,,,1.105,1089.9990555999993,1090.3007404,1090.3007404,1090.5175934999988,1090.5350319999998,None,down,3.4363457999988896,1090.5350319999998,None,1090.5350319999998,1091.616725599999,0.18602800000007846,None,,,,,,,,,55,001,2020_Jan_13_1650,untitled,3.1.0,60.040335097361954,
259,_2,N,90,R,N,259_2N090RN,HRN,0,178,178,242,,,1.2770000000000001,1094.2026490999997,1094.4968799999988,1094.4968799999988,1094.6969197999988,1094.6969197999988,None,up,2.151469899999938,1094.6969197999988,None,1094.6969197999988,1095.9624403999987,0.21682119999968563,None,,,,,,,,,55,001,2020_Jan_13_1650,untitled,3.1.0,60.040335097361954,
_,R,M,180,_,_,_RM180__,N,0,179,179,20,,,0.8320000000000001,1097.0372836999995,1097.3278403999993,1097.3278403999993,1097.5612363,1097.5777949000003,None,down,2.3318893000014214,1097.5777949000003,None,1097.5777949000003,1098.3938562000003,0.17735049999828334,None,,,,,,,,,55,001,2020_Jan_13_1650,untitled,3.1.0,60.040335097361954,
_,_2,M,270,_,_,__2M270__,N,0,180,180,30,,,1.0,1100.1020399999998,1100.392060799999,1100.392060799999,1100.6259279999995,1100.6416868999986,None,down,2.698329400000148,1100.6416868999986,None,1100.6416868999986,1101.6254602999998,0.1815777000010712,None,,,,,,,,,55,001,2020_Jan_13_1650,untitled,3.1.0,60.040335097361954,
176,F,M,315,L,N,176FM315LN,HLN,0,181,181,127,,,0.723,1103.5282865999998,1103.822122399999,1103.822122399999,1104.0552513999992,1104.071955899999,None,down,1.9493130999999266,1104.071955899999,None,1104.071955899999,1104.7712933000003,0.17722980000144162,None,,,,,,,,,55,001,2020_Jan_13_1650,untitled,3.1.0,60.040335097361954,
_,_2,M,45,_,_,__2M045__,N,0,182,182,25,,,1.0130000000000001,1106.2598461999987,1106.5531395999988,1106.5531395999988,1106.736632799999,1106.753326099999,None,down,2.7175466999997298,1106.753326099999,None,1106.753326099999,1107.752043999999,0.22587899999962247,None,,,,,,,,,55,001,2020_Jan_13_1650,untitled,3.1.0,60.040335097361954,
234,G,M,45,L,N,234GM045LN,HLN,0,183,183,137,,,0.977,1109.7100314,1110.0002491999985,1110.0002491999985,1110.1831488999997,1110.2000599000003,None,down,3.3478546000005736,1110.2000599000003,None,1110.2000599000003,1111.1656482999988,0.22546200000033423,None,,,,,,,,,55,001,2020_Jan_13_1650,untitled,3.1.0,60.040335097361954,
201,G,M,0,R,N,201GM000RN,HRN,0,184,184,128,,,0.934,1113.7250669999994,1114.0136563999986,1114.0136563999986,1114.2629736,1114.2796402999993,None,down,2.2321827999985544,1114.2796402999993,None,1114.2796402999993,1115.195366599999,0.1661696999999549,None,,,,,,,,,55,001,2020_Jan_13_1650,untitled,3.1.0,60.040335097361954,
_,F,N,90,_,_,_FN090__,N,0,185,185,50,,,1.242,1116.7925930000001,1117.0937687999995,1117.0937687999995,1117.2270109,1117.2436412999996,None,up,2.231791300000623,1117.2436412999996,None,1117.2436412999996,1118.4765578999995,0.2700404000006529,None,,,,,,,,,55,001,2020_Jan_13_1650,untitled,3.1.0,60.040335097361954,
235,G,M,90,L,N,235GM090LN,HLN,0,186,186,138,,,1.106,1119.741782699999,1120.0413122999998,1120.0413122999998,1120.1928372000002,1120.2094713999995,None,down,2.380516899998838,1120.2094713999995,None,1120.2094713999995,1121.2906284,0.2542073000004166,None,,,,,,,,,55,001,2020_Jan_13_1650,untitled,3.1.0,60.040335097361954,
269,_2,M,180,R,N,269_2M180RN,HRN,0,187,187,148,,,0.895,1122.8123512000002,1123.1054403999988,1123.1054403999988,1123.3050772999995,1123.321780799999,None,down,3.3489892999987205,1123.321780799999,None,1123.321780799999,1124.2043033999998,0.20917350000127044,None,,,,,,,,,55,001,2020_Jan_13_1650,untitled,3.1.0,60.040335097361954,
271,_2,M,270,R,N,271_2M270RN,HRN,0,188,188,150,,,1.163,1126.9267203999989,1127.2184658999995,1127.2184658999995,1127.3849119999995,1127.4016295000001,None,down,2.698413200001596,1127.4016295000001,None,1127.4016295000001,1128.5508677999987,0.2416826000007859,None,,,,,,,,,55,001,2020_Jan_13_1650,untitled,3.1.0,60.040335097361954,
231,G,N,270,L,N,231GN270LN,HLN,0,189,189,238,,,1.385,1130.2929821999987,1130.5820607999995,1130.5820607999995,1130.8154089,1130.8322223999985,None,up,2.7318341999998665,1130.8322223999985,None,1130.8322223999985,1132.1975439999987,0.18196790000001783,None,,,,,,,,,55,001,2020_Jan_13_1650,untitled,3.1.0,60.040335097361954,
482,_5,N,45,L,N,482_5N045LN,HLN,0,190,190,281,,,0.836,1133.7824225999993,1134.0791773,1134.0791773,1134.2789514999986,1134.2957451999991,None,up,2.3490792000011425,1134.2957451999991,None,1134.2957451999991,1135.1115008999986,0.20705180000004475,None,,,,,,,,,55,001,2020_Jan_13_1650,untitled,3.1.0,60.040335097361954,
_,G,N,180,_,_,_GN180__,N,0,191,191,60,,,0.735,1136.9568252999998,1137.2601687999995,1137.2601687999995,1137.3597706,1137.3769204,None,up,2.416100500000539,1137.3769204,None,1137.3769204,1138.0924419999992,0.29721280000012484,None,,,,,,,,,55,001,2020_Jan_13_1650,untitled,3.1.0,60.040335097361954,
400,_4,M,315,R,N,400_4M315RN,HRN,0,192,192,167,,,0.748,1140.0889929999994,1140.3886364999998,1140.3886364999998,1140.5086677999989,1140.5259711999988,None,down,2.6307598000003054,1140.5259711999988,None,1140.5259711999988,1141.2565815999988,0.28014099999927566,None,,,,,,,,,55,001,2020_Jan_13_1650,untitled,3.1.0,60.040335097361954,
389,_4,N,180,R,N,389_4N180RN,HRN,0,193,193,260,,,0.926,1143.348180699999,1143.6379013999995,1143.6379013999995,1143.8706569999995,1143.8873199999998,None,down,2.998136300000624,1143.8873199999998,None,1143.8873199999998,1144.8032146999994,0.18060869999862916,None,,,,,,,,,55,001,2020_Jan_13_1650,untitled,3.1.0,60.040335097361954,
494,_5,M,225,L,N,494_5M225LN,HLN,0,194,194,189,,,0.706,1147.0863591999987,1147.3843364999993,1147.3843364999993,1147.6009865999986,1147.6171999999988,None,down,3.0823350999999093,1147.6171999999988,None,1147.6171999999988,1148.300249599999,0.18953700000020035,None,,,,,,,,,55,001,2020_Jan_13_1650,untitled,3.1.0,60.040335097361954,
_,G,N,270,_,_,_GN270__,N,0,195,195,62,,,0.766,1150.8923658999993,1151.1819954000002,1151.1819954000002,1151.4147754999995,1151.4310576999997,None,up,2.1655198999997083,1151.4310576999997,None,1151.4310576999997,1152.1804658,0.18180670000037935,None,,,,,,,,,55,001,2020_Jan_13_1650,untitled,3.1.0,60.040335097361954,
399,_4,M,270,R,N,399_4M270RN,HRN,0,196,196,166,,,1.31,1153.8181373999996,1154.1114280000002,1154.1114280000002,1154.3124248999993,1154.3282062999988,None,down,2.9152966999990895,1154.3282062999988,None,1154.3282062999988,1155.6337711999986,0.20875150000028952,None,,,,,,,,,55,001,2020_Jan_13_1650,untitled,3.1.0,60.040335097361954,
452,_5,N,135,R,N,452_5N135RN,HRN,0,197,197,275,,,1.284,1157.4088446999995,1157.7084001000003,1157.7084001000003,1157.9584396999999,1157.9750136000002,None,up,2.433555700001307,1157.9750136000002,None,1157.9750136000002,1159.2406844999987,0.15450199999941105,None,,,,,,,,,55,001,2020_Jan_13_1650,untitled,3.1.0,60.040335097361954,
_,F,M,45,_,_,_FM045__,N,0,198,198,1,,,0.897,1160.5969229999992,1160.8891206999997,1160.8891206999997,1161.1222546999998,1161.1388785999989,None,down,2.799032900000384,1161.1388785999989,None,1161.1388785999989,1162.021550399999,0.17717919999995502,None,,,,,,,,,55,001,2020_Jan_13_1650,untitled,3.1.0,60.040335097361954,
_,F,N,225,_,_,_FN225__,N,0,199,199,53,,,1.374,1164.1283726000001,1164.4194305,1164.4194305,1164.6528495999992,1164.6692714,None,up,2.4812880999998015,1164.6692714,None,1164.6692714,1166.0347032999998,0.17966729999898234,None,,,,,,,,,55,001,2020_Jan_13_1650,untitled,3.1.0,60.040335097361954,
_,_2,N,0,_,_,__2N000__,N,0,200,200,72,,,1.088,1167.3340659999994,1167.6334651999987,1167.6334651999987,1167.8663371999992,1167.8833290000002,None,up,1.9670110000006389,1167.8833290000002,None,1167.8833290000002,1168.9488962999985,0.17199819999950705,None,,,,,,,,,55,001,2020_Jan_13_1650,untitled,3.1.0,60.040335097361954,
144,F,M,315,R,N,144FM315RN,HRN,0,201,201,119,,,1.106,1170.1020575999992,1170.397519,1170.397519,1170.563987399999,1170.5806359999988,None,down,2.000048899999456,1170.5806359999988,None,1170.5806359999988,1171.6808629999996,0.23921560000053432,None,,,,,,,,,55,001,2020_Jan_13_1650,untitled,3.1.0,60.040335097361954,
136,F,N,315,R,N,136FN315RN,HRN,0,202,202,215,,,1.12,1172.7790148999993,1173.078417499999,1173.078417499999,1173.2947812999992,1173.3117069,None,up,2.0823724000001675,1173.3117069,None,1173.3117069,1174.4105734999994,0.18752409999979136,None,,,,,,,,,55,001,2020_Jan_13_1650,untitled,3.1.0,60.040335097361954,
_,R,N,225,_,_,_RN225__,N,0,203,203,69,,,0.905,1175.5959729999995,1175.8925695999988,1175.8925695999988,1176.1091574000002,1176.125895699999,None,up,1.7991352000008192,1176.125895699999,None,1176.125895699999,1177.0083931999998,0.19035580000127084,None,,,,,,,,,55,001,2020_Jan_13_1650,untitled,3.1.0,60.040335097361954,
_,G,M,45,_,_,_GM045__,N,0,204,204,9,,,1.237,1178.1270847999986,1178.4239730999998,1178.4239730999998,1178.6402788999985,1178.657002599999,None,down,2.4489393000003474,1178.657002599999,None,1178.657002599999,1179.8724551999985,0.19060300000091956,None,,,,,,,,,55,001,2020_Jan_13_1650,untitled,3.1.0,60.040335097361954,
_,R,M,90,_,_,_RM090__,N,0,205,205,18,,,1.037,1181.3068874,1181.6042897999996,1181.6042897999996,1181.8207911999998,1181.8374678,None,up,2.5481450999996014,1181.8374678,None,1181.8374678,1182.853787,0.18892869999945106,None,,,,,,,,,55,001,2020_Jan_13_1650,untitled,3.1.0,60.040335097361954,
301,_2,M,180,L,N,301_2M180LN,HLN,0,206,206,156,,,0.761,1184.6090055999994,1184.9017781999992,1184.9017781999992,1185.1018273999998,1185.1179107999997,None,down,2.883263600000646,1185.1179107999997,None,1185.1179107999997,1185.8672928999986,0.20970909999959986,None,,,,,,,,,55,001,2020_Jan_13_1650,untitled,3.1.0,60.040335097361954,
040,R,N,315,L,N,040RN315LN,HLN,0,207,207,207,,,1.295,1188.1961708999988,1188.4982499999987,1188.4982499999987,1188.7147872999994,1188.7316295,None,up,2.8996282999996765,1188.7316295,None,1188.7316295,1190.0138570999989,0.18408439999984694,None,,,,,,,,,55,001,2020_Jan_13_1650,untitled,3.1.0,60.040335097361954,
165,F,N,180,L,N,165FN180LN,HLN,0,208,208,220,,,1.335,1191.8253851999998,1192.1270239999994,1192.1270239999994,1192.3453596999989,1192.3628258999997,None,up,2.364345300000423,1192.3628258999997,None,1192.3628258999997,1193.6771919999992,0.1829302000005555,None,,,,,,,,,55,001,2020_Jan_13_1650,untitled,3.1.0,60.040335097361954,
_,F,N,270,_,_,_FN270__,N,0,209,209,54,,,1.317,1194.9158241999994,1195.2094216999994,1195.2094216999994,1195.4423614999996,1195.4589519,None,up,2.348636099999567,1195.4589519,None,1195.4589519,1196.7578252999992,0.17744149999998626,None,,,,,,,,,55,001,2020_Jan_13_1650,untitled,3.1.0,60.040335097361954,
_,R,N,135,_,_,_RN135__,N,0,210,210,67,,,1.1,1197.9939454999985,1198.2897291999998,1198.2897291999998,1198.5235084999986,1198.5401122000003,None,up,2.281973499999367,1198.5401122000003,None,1198.5401122000003,1199.6245916999997,0.1753337999998621,None,,,,,,,,,55,001,2020_Jan_13_1650,untitled,3.1.0,60.040335097361954,
_,_4,N,0,_,_,__4N000__,N,0,211,211,80,,,1.004,1201.0655241999993,1201.3536666,1201.3536666,1201.5367766,1201.5535741999993,None,up,1.7663274000005913,1201.5535741999993,None,1201.5535741999993,1202.538015,0.2304241000001639,None,,,,,,,,,55,001,2020_Jan_13_1650,untitled,3.1.0,60.040335097361954,
295,_2,N,270,L,N,295_2N270LN,HLN,0,212,212,254,,,0.765,1203.6057705999992,1203.9015674999991,1203.9015674999991,1204.0348035999996,1204.0514354999996,None,up,2.2487318000003143,1204.0514354999996,None,1204.0514354999996,1204.8010540999985,0.2750202999995963,None,,,,,,,,,55,001,2020_Jan_13_1650,untitled,3.1.0,60.040335097361954,
298,_2,M,45,L,N,298_2M045LN,HLN,0,213,213,153,,,0.793,1206.4952145999996,1206.7840861999994,1206.7840861999994,1207.0159359999998,1207.0321929000002,None,up,2.0325213999985863,1207.0321929000002,None,1207.0321929000002,1207.8150172999995,0.18326259999957983,None,,,,,,,,,55,001,2020_Jan_13_1650,untitled,3.1.0,60.040335097361954,
232,G,N,315,L,N,232GN315LN,HLN,0,214,214,239,,,0.913,1209.3425212999991,1209.6470341999993,1209.6470341999993,1209.7797054999992,1209.7967176999991,None,up,1.8496790999997756,1209.7967176999991,None,1209.7967176999991,1210.6958226999996,0.26665850000063074,None,,,,,,,,,55,001,2020_Jan_13_1650,untitled,3.1.0,60.040335097361954,
_,F,M,180,_,_,_FM180__,N,0,215,215,4,,,1.285,1211.8495592,1212.1442910999995,1212.1442910999995,1212.360792399999,1212.3775208999996,None,None,,1212.3775208999996,None,1212.3775208999996,1213.6430256999993,0.19209199999932025,None,,,,,,,,,55,001,2020_Jan_13_1650,untitled,3.1.0,60.040335097361954,
202,G,M,45,R,N,202GM045RN,HRN,0,216,216,129,,,0.986,1216.0912169000003,1216.390983199999,1216.390983199999,1216.5577885000002,1216.5738294000002,1216.0912169000003,up,2.2326117000011436,1216.5738294000002,None,1216.5738294000002,1217.5396056999998,0.2362740999997186,None,,,,,,,,,55,001,2020_Jan_13_1650,untitled,3.1.0,60.040335097361954,
_,_5,M,0,_,_,__5M000__,N,0,217,217,40,,,1.024,1219.0263333000003,1219.3213789000001,1219.3213789000001,1219.5212402999987,1219.5380542999992,None,down,2.700154800000746,1219.5380542999992,None,1219.5380542999992,1220.5540638999992,0.20517450000079407,None,,,,,,,,,55,001,2020_Jan_13_1650,untitled,3.1.0,60.040335097361954,
_,_4,M,270,_,_,__4M270__,N,0,218,218,38,,,1.026,1222.4216846999989,1222.7184395999993,1222.7184395999993,1222.9515895999994,1222.9683874999992,None,down,2.264881700000842,1222.9683874999992,None,1222.9683874999992,1223.984116399999,0.17261390000021493,None,,,,,,,,,55,001,2020_Jan_13_1650,untitled,3.1.0,60.040335097361954,
193,G,N,0,R,N,193GN000RN,HRN,0,219,219,224,,,0.836,1225.4302735,1225.7325986999986,1225.7325986999986,1225.9490281999988,1225.9659436999991,None,down,1.7666392999999516,1225.9659436999991,None,1225.9659436999991,1226.7818081999994,0.18587579999984882,None,,,,,,,,,55,001,2020_Jan_13_1650,untitled,3.1.0,60.040335097361954,
034,R,N,45,L,N,034RN045LN,HLN,0,220,220,201,,,1.008,1228.0466457000002,1228.3468849,1228.3468849,1228.446734199999,1228.4635096000002,None,up,1.8001702000001387,1228.4635096000002,None,1228.4635096000002,1229.4623297999988,0.3026135999989492,None,,,,,,,,,55,001,2020_Jan_13_1650,untitled,3.1.0,60.040335097361954,
488,_5,N,315,L,N,488_5N315LN,HLN,0,221,221,287,,,0.891,1230.4988438,1230.7949487999995,1230.7949487999995,1230.9783295999987,1230.9954208999989,None,up,1.931911499999842,1230.9954208999989,None,1230.9954208999989,1231.8776321999994,0.22151839999969525,None,,,,,,,,,55,001,2020_Jan_13_1650,untitled,3.1.0,60.040335097361954,
036,R,N,135,L,N,036RN135LN,HLN,0,222,222,203,,,0.841,1233.2085258999996,1233.5102938,1233.5102938,1233.6432286999989,1233.6619465999993,None,up,2.129862100000537,1233.6619465999993,None,1233.6619465999993,1234.4918660000003,0.2702956000011909,None,,,,,,,,,55,001,2020_Jan_13_1650,untitled,3.1.0,60.040335097361954,
238,G,M,225,L,N,238GM225LN,HLN,0,223,223,141,,,1.379,1235.9790164999995,1236.2732808,1236.2732808,1236.5065851999989,1236.5231343999985,None,down,2.449328400000013,1236.5231343999985,None,1236.5231343999985,1237.888930699999,0.17644520000067132,None,,,,,,,,,55,001,2020_Jan_13_1650,untitled,3.1.0,60.040335097361954,
260,_2,N,135,R,N,260_2N135RN,HRN,0,224,224,243,,,1.1320000000000001,1239.2517321999985,1239.554014199999,1239.554014199999,1239.6873097999996,1239.7036677999986,None,up,2.549418099999457,1239.7036677999986,None,1239.7036677999986,1240.8193735999994,0.26786229999925126,None,,,,,,,,,55,001,2020_Jan_13_1650,untitled,3.1.0,60.040335097361954,
239,G,M,270,L,N,239GM270LN,HLN,0,225,225,142,,,1.0030000000000001,1242.4327596000003,1242.7342173999987,1242.7342173999987,1242.9675353999992,1242.9842893999994,None,down,2.516945499999565,1242.9842893999994,None,1242.9842893999994,1243.966638599999,0.16842870000073162,None,,,,,,,,,55,001,2020_Jan_13_1650,untitled,3.1.0,60.040335097361954,
_,_5,M,45,_,_,__5M045__,N,0,226,226,41,,,1.067,1245.7210741,1246.0151136999993,1246.0151136999993,1246.2149847,1246.2319982999998,None,down,2.565779399999883,1246.2319982999998,None,1246.2319982999998,1247.280901099999,0.20817800000077114,None,,,,,,,,,55,001,2020_Jan_13_1650,untitled,3.1.0,60.040335097361954,
_,_4,N,180,_,_,__4N180__,N,0,227,227,84,,,0.719,1249.0746639999998,1249.3846517999991,1249.3846517999991,1249.5118091999993,1249.529827299999,None,up,3.048924499998975,1249.529827299999,None,1249.529827299999,1250.2280484999992,0.26287070000034873,None,,,,,,,,,55,001,2020_Jan_13_1650,untitled,3.1.0,60.040335097361954,
_,R,N,270,_,_,_RN270__,N,0,228,228,70,,,0.933,1252.8540885000002,1253.1424571999996,1253.1424571999996,1253.2920625999996,1253.3085687999992,None,up,2.300433599999451,1253.3085687999992,None,1253.3085687999992,1254.2244297999987,0.264362699999765,None,,,,,,,,,55,001,2020_Jan_13_1650,untitled,3.1.0,60.040335097361954,
131,F,N,90,R,N,131FN090RN,HRN,0,229,229,210,,,1.127,1255.8186335999999,1256.1076249999987,1256.1076249999987,1256.3226273,1256.3392671000001,None,up,2.2321452000014688,1256.3392671000001,None,1256.3392671000001,1257.4548497999986,0.1977908999997453,None,,,,,,,,,55,001,2020_Jan_13_1650,untitled,3.1.0,60.040335097361954,
162,F,N,45,L,N,162FN045LN,HLN,0,230,230,217,,,0.746,1258.7895749,1259.0867584999996,1259.0867584999996,1259.2865774000002,1259.3031716999994,None,up,1.349660900001254,1259.3031716999994,None,1259.3031716999994,1260.035737099999,0.20653459999994084,None,,,,,,,,,55,001,2020_Jan_13_1650,untitled,3.1.0,60.040335097361954,
_,R,M,0,_,_,_RM000__,N,0,231,231,16,,,1.2770000000000001,1260.8487876999989,1261.1517972000001,1261.1517972000001,1261.3685659000002,1261.385491699999,None,down,2.264684699999634,1261.385491699999,None,1261.385491699999,1262.6505863999992,0.18452239999896847,None,,,,,,,,,55,001,2020_Jan_13_1650,untitled,3.1.0,60.040335097361954,
388,_4,N,135,R,N,388_4N135RN,HRN,0,232,232,259,,,0.856,1263.8313254999994,1264.1325984999985,1264.1325984999985,1264.3669573999996,1264.3849320999998,None,up,2.247169500000382,1264.3849320999998,None,1264.3849320999998,1265.2158592999986,0.17032130000006873,None,,,,,,,,,55,001,2020_Jan_13_1650,untitled,3.1.0,60.040335097361954,
016,R,M,315,R,N,016RM315RN,HRN,0,233,233,103,,,0.737,1266.8082439999998,1267.0975284999986,1267.0975284999986,1267.3463247,1267.362825799999,None,down,1.81628339999952,1267.362825799999,None,1267.362825799999,1268.0792474999998,0.1646045999987109,None,,,,,,,,,55,001,2020_Jan_13_1650,untitled,3.1.0,60.040335097361954,
432,_4,M,315,L,N,432_4M315LN,HLN,0,234,234,175,,,1.199,1269.3671125,1269.6611840999994,1269.6611840999994,1269.894145799999,1269.910674499999,None,down,3.1152873000010004,1269.910674499999,None,1269.910674499999,1271.0931351999989,0.17484890000014275,None,,,,,,,,,55,001,2020_Jan_13_1650,untitled,3.1.0,60.040335097361954,
_,_4,N,45,_,_,__4N045__,N,0,235,235,81,,,0.792,1273.2140365999985,1273.5076778999992,1273.5076778999992,1273.7407011999985,1273.7572994999991,None,up,1.7993111999985558,1273.7572994999991,None,1273.7572994999991,1274.5400468999997,0.17721100000017032,None,,,,,,,,,55,001,2020_Jan_13_1650,untitled,3.1.0,60.040335097361954,
290,_2,N,45,L,N,290_2N045LN,HLN,0,236,236,249,,,1.06,1275.7469600999993,1276.0392655999985,1276.0392655999985,1276.2718793999993,1276.2884345999992,None,up,1.9502558999993198,1276.2884345999992,None,1276.2884345999992,1277.3376517999986,0.17956240000057733,None,,,,,,,,,55,001,2020_Jan_13_1650,untitled,3.1.0,60.040335097361954,
270,_2,M,225,R,N,270_2M225RN,HRN,0,237,237,149,,,1.324,1278.4739295,1278.7697374,1278.7697374,1278.9531345999985,1278.9697306999988,None,down,2.5650312999987364,1278.9697306999988,None,1278.9697306999988,1280.2729280999993,0.22114400000100431,None,,,,,,,,,55,001,2020_Jan_13_1650,untitled,3.1.0,60.040335097361954,
_,G,M,225,_,_,_GM225__,N,0,238,238,13,,,0.839,1281.7170494000002,1282.016826699999,1282.016826699999,1282.2501850999997,1282.2666873999988,None,up,2.6488680000002205,1282.2666873999988,None,1282.2666873999988,1283.0823216999997,0.171696500001417,None,,,,,,,,,55,001,2020_Jan_13_1650,untitled,3.1.0,60.040335097361954,
_,G,N,0,_,_,_GN000__,N,0,239,239,56,,,1.3760000000000001,1285.1007998999994,1285.397215699999,1285.397215699999,1285.6310407,1285.646983499999,None,up,2.1834557999991375,1285.646983499999,None,1285.646983499999,1287.0125215999997,0.1742246999983763,None,,,,,,,,,55,001,2020_Jan_13_1650,untitled,3.1.0,60.040335097361954,
133,F,N,180,R,N,133FN180RN,HRN,0,240,240,212,,,1.3800000000000001,1288.030119699999,1288.3278679999985,1288.3278679999985,1288.5445209999998,1288.5608889999985,None,up,3.0810750000000553,1288.5608889999985,None,1288.5608889999985,1289.926940899999,0.1881800999999541,None,,,,,,,,,55,001,2020_Jan_13_1650,untitled,3.1.0,60.040335097361954,
044,R,M,135,L,N,044RM135LN,HLN,0,241,241,107,,,0.9480000000000001,1291.8332233,1292.1247783999988,1292.1247783999988,1292.3582938,1292.3753650999988,None,down,2.015531799999735,1292.3753650999988,None,1292.3753650999988,1293.3073516999993,0.17971330000000307,None,,,,,,,,,55,001,2020_Jan_13_1650,untitled,3.1.0,60.040335097361954,
_,F,M,225,_,_,_FM225__,N,0,242,242,5,,,0.9430000000000001,1294.5999496999993,1294.8886406000001,1294.8886406000001,1295.1055390000001,1295.1220402999988,None,down,2.367295499998363,1295.1220402999988,None,1295.1220402999988,1296.0411936,0.19641969999975117,None,,,,,,,,,55,001,2020_Jan_13_1650,untitled,3.1.0,60.040335097361954,
_,_5,M,180,_,_,__5M180__,N,0,243,243,44,,,1.074,1297.6792786999995,1297.9693740000002,1297.9693740000002,1298.2029427999987,1298.2193829999997,None,None,,1298.2193829999997,None,1298.2193829999997,1299.2854107000003,0.17874689999916882,None,,,,,,,,,55,001,2020_Jan_13_1650,untitled,3.1.0,60.040335097361954,
_,F,N,315,_,_,_FN315__,N,0,244,244,55,,,1.153,1301.8767069999994,1302.165729799999,1302.165729799999,1302.398908199999,1302.4157962999998,1301.8767069999994,up,2.1316238999988855,1302.4157962999998,None,1302.4157962999998,1303.5484027000002,0.18276689999947848,None,,,,,,,,,55,001,2020_Jan_13_1650,untitled,3.1.0,60.040335097361954,
_,_4,N,135,_,_,__4N135__,N,0,245,245,83,,,1.249,1304.7397627999999,1305.0301751999996,1305.0301751999996,1305.263036799999,1305.2798480000001,None,up,2.431912199999715,1305.2798480000001,None,1305.2798480000001,1306.512147899999,0.1816740000012942,None,,,,,,,,,55,001,2020_Jan_13_1650,untitled,3.1.0,60.040335097361954,
396,_4,M,135,R,N,396_4M135RN,HRN,0,246,246,163,,,0.978,1307.9344474999998,1308.227460099999,1308.227460099999,1308.4271431999987,1308.444030999999,None,None,,1308.444030999999,None,1308.444030999999,1309.4097597,0.2116359999999986,None,,,,,,,,,55,001,2020_Jan_13_1650,untitled,3.1.0,60.040335097361954,
196,G,N,135,R,N,196GN135RN,HRN,0,247,247,227,,,0.968,1312.1898609,1312.4900241999985,1312.4900241999985,1312.6408624999985,1312.6408624999985,1312.1898609,up,2.748767400000361,1312.6408624999985,None,1312.6408624999985,1313.6058895999995,0.2632355000005191,None,,,,,,,,,55,001,2020_Jan_13_1650,untitled,3.1.0,60.040335097361954,
164,F,N,135,L,N,164FN135LN,HLN,0,248,248,219,,,1.2690000000000001,1315.5745174999993,1315.8706364999998,1315.8706364999998,1316.1037982999987,1316.1215381000002,None,up,2.398601200000485,1316.1215381000002,None,1316.1215381000002,1317.3693988999985,0.17426720000003115,None,,,,,,,,,55,001,2020_Jan_13_1650,untitled,3.1.0,60.040335097361954,
_,G,M,135,_,_,_GM135__,N,0,249,249,11,,,0.963,1318.7325450999997,1319.0346450999987,1319.0346450999987,1319.2342838999994,1319.2511287999987,None,down,1.9836999000017386,1319.2511287999987,None,1319.2511287999987,1320.2001037999999,0.20019239999965066,None,,,,,,,,,55,001,2020_Jan_13_1650,untitled,3.1.0,60.040335097361954,
398,_4,M,225,R,N,398_4M225RN,HRN,0,250,250,165,,,1.0170000000000001,1321.4493734999996,1321.7489822999996,1321.7489822999996,1321.9485895999987,1321.9652375999995,None,up,2.365696700000626,1321.9652375999995,None,1321.9652375999995,1322.9643457999991,0.20236730000033276,None,,,,,,,,,55,001,2020_Jan_13_1650,untitled,3.1.0,60.040335097361954,
_,_4,N,315,_,_,__4N315__,N,0,251,251,87,,,1.171,1324.5510969999996,1324.846534299999,1324.846534299999,1325.0462912999992,1325.0634140999991,None,down,2.3158550999996805,1325.0634140999991,None,1325.0634140999991,1326.2121011,0.20687600000019302,None,,,,,,,,,55,001,2020_Jan_13_1650,untitled,3.1.0,60.040335097361954,
264,_2,N,315,R,N,264_2N315RN,HRN,0,252,252,247,,,0.752,1327.7047743000003,1328.0242717,1328.0242717,1328.0947613999997,1328.1124522999999,None,up,2.0303658000011637,1328.1124522999999,None,1328.1124522999999,1328.8590200999988,0.30744050000066636,None,,,,,,,,,55,001,2020_Jan_13_1650,untitled,3.1.0,60.040335097361954,
458,_5,M,45,R,N,458_5M045RN,HRN,0,253,253,177,,,1.1420000000000001,1330.347124599999,1330.6411505999986,1330.6411505999986,1330.857366799999,1330.8744449999995,None,down,2.6487578999986,1330.8744449999995,None,1330.8744449999995,1332.0064174999989,0.19326709999950253,None,,,,,,,,,55,001,2020_Jan_13_1650,untitled,3.1.0,60.040335097361954,
_,_2,N,225,_,_,__2N225__,N,0,254,254,77,,,1.106,1333.7217396999986,1334.0217328999988,1334.0217328999988,1334.2379523,1334.2545444999996,None,up,2.615470999999161,1334.2545444999996,None,1334.2545444999996,1335.3539724999991,0.1874089000011736,None,,,,,,,,,55,001,2020_Jan_13_1650,untitled,3.1.0,60.040335097361954,
_,_5,N,0,_,_,__5N000__,N,0,255,255,88,,,1.046,1337.0858780999988,1337.3850550999996,1337.3850550999996,1337.584922099999,1337.601593899999,None,up,1.8674154999989696,1337.601593899999,None,1337.601593899999,1338.6348237000002,0.20414530000016384,None,,,,,,,,,55,001,2020_Jan_13_1650,untitled,3.1.0,60.040335097361954,
205,G,M,180,R,N,205GM180RN,HRN,0,256,256,132,,,0.738,1339.7846111,1340.0830485999995,1340.0830485999995,1340.1830542999996,1340.2003573999991,None,down,1.931463499999154,1340.2003573999991,None,1340.2003573999991,1340.9326727999996,0.3019746000009036,None,,,,,,,,,55,001,2020_Jan_13_1650,untitled,3.1.0,60.040335097361954,
_,_5,N,225,_,_,__5N225__,N,0,257,257,93,,,0.708,1342.3199661999988,1342.6139170999995,1342.6139170999995,1342.8475808999992,1342.864333399999,None,up,1.6321826000003057,1342.864333399999,None,1342.864333399999,1343.5479615999993,0.1772371999995812,None,,,,,,,,,55,001,2020_Jan_13_1650,untitled,3.1.0,60.040335097361954,
425,_4,M,0,L,N,425_4M000LN,HLN,0,258,258,168,,,1.182,1344.7287502,1345.0283572999997,1345.0283572999997,1345.211605299999,1345.2281301000003,None,down,2.382717700000285,1345.2281301000003,None,1345.2281301000003,1346.394073399999,0.2206618999989587,None,,,,,,,,,55,001,2020_Jan_13_1650,untitled,3.1.0,60.040335097361954,
304,_2,M,315,L,N,304_2M315LN,HLN,0,259,259,159,,,0.776,1347.8006064,1348.0924827999988,1348.0924827999988,1348.3255768999989,1348.3423375000002,None,down,2.3996045000003505,1348.3423375000002,None,1348.3423375000002,1349.1085337999993,0.17852850000053877,None,,,,,,,,,55,001,2020_Jan_13_1650,untitled,3.1.0,60.040335097361954,
038,R,N,225,L,N,038RN225LN,HLN,0,260,260,205,,,1.3940000000000001,1351.014291399999,1351.3065749999987,1351.3065749999987,1351.4563245999998,1351.4729817999996,None,up,2.7158096999992267,1351.4729817999996,None,1351.4729817999996,1352.8550199000001,0.26165409999885014,None,,,,,,,,,55,001,2020_Jan_13_1650,untitled,3.1.0,60.040335097361954,
141,F,M,180,R,N,141FM180RN,HRN,0,261,261,116,,,0.748,1354.3796794999998,1354.6702363999993,1354.6702363999993,1354.9035660999998,1354.9206666999999,None,down,1.9660081999991235,1354.9206666999999,None,1354.9206666999999,1355.6532092999987,0.17889309999918623,None,,,,,,,,,55,001,2020_Jan_13_1650,untitled,3.1.0,60.040335097361954,
_,_5,M,90,_,_,__5M090__,N,0,262,262,42,,,1.0110000000000001,1357.1455135999986,1357.4355344999985,1357.4355344999985,1357.6008602000002,1357.6175562999997,None,down,2.3493572999996104,1357.6175562999997,None,1357.6175562999997,1358.6165232999992,0.24548739999954705,None,,,,,,,,,55,001,2020_Jan_13_1650,untitled,3.1.0,60.040335097361954,
006,R,N,225,R,N,006RN225RN,HRN,0,263,263,197,,,1.081,1360.1652992999989,1360.4651206999988,1360.4651206999988,1360.6813833999986,1360.6982049999988,None,up,1.9989504000004672,1360.6982049999988,None,1360.6982049999988,1361.7639346999986,0.18682389999958104,None,,,,,,,,,55,001,2020_Jan_13_1650,untitled,3.1.0,60.040335097361954,
166,F,N,225,L,N,166FN225LN,HLN,0,264,264,221,,,1.168,1362.8900612999987,1363.1793632999997,1363.1793632999997,1363.4122857000002,1363.4291481,None,up,1.8989483999994263,1363.4291481,None,1363.4291481,1364.5784650999994,0.1820677000014257,None,,,,,,,,,55,001,2020_Jan_13_1650,untitled,3.1.0,60.040335097361954,
_,_5,N,270,_,_,__5N270__,N,0,265,265,94,,,0.731,1365.5354988,1365.8271604000001,1365.8271604000001,1366.0437906999996,1366.0601628999993,None,up,2.2492153999992297,1366.0601628999993,None,1366.0601628999993,1366.7762371999997,0.1957989999991696,None,,,,,,,,,55,001,2020_Jan_13_1650,untitled,3.1.0,60.040335097361954,
267,_2,M,90,R,N,267_2M090RN,HRN,0,266,266,146,,,1.291,1368.516044599999,1368.8078166999985,1368.8078166999985,1369.0241030999987,1369.0408472,None,down,2.585492300000624,1369.0408472,None,1369.0408472,1370.3231110999986,0.19490330000007816,None,,,,,,,,,55,001,2020_Jan_13_1650,untitled,3.1.0,60.040335097361954,
417,_4,N,0,L,N,417_4N000LN,HLN,0,267,267,264,,,1.141,1371.8615386000001,1372.155096999999,1372.155096999999,1372.355001599999,1372.355001599999,None,up,2.4334091000000626,1372.355001599999,None,1372.355001599999,1373.4867367999996,0.21820520000073884,None,,,,,,,,,55,001,2020_Jan_13_1650,untitled,3.1.0,60.040335097361954,
258,_2,N,45,R,N,258_2N045RN,HRN,0,268,268,241,,,1.0230000000000001,1375.1012477999993,1375.4020944999993,1375.4020944999993,1375.5022573999995,1375.5190652000001,None,up,1.750417400000515,1375.5190652000001,None,1375.5190652000001,1376.5347069,0.2972668000002159,None,,,,,,,,,55,001,2020_Jan_13_1650,untitled,3.1.0,60.040335097361954,
_,_5,N,45,_,_,__5N045__,N,0,269,269,89,,,0.847,1377.5401358999989,1377.8331065000002,1377.8331065000002,1377.9832095000002,1377.9996924999996,None,up,1.366281999999046,1377.9996924999996,None,1377.9996924999996,1378.8322241999995,0.2595239999991463,None,,,,,,,,,55,001,2020_Jan_13_1650,untitled,3.1.0,60.040335097361954,
_,F,M,135,_,_,_FM135__,N,0,270,270,3,,,0.904,1379.5681372999989,1379.864803999999,1379.864803999999,1380.0813739999994,1380.0977447999994,None,down,2.300754299998516,1380.0977447999994,None,1380.0977447999994,1380.9807666999986,0.190287299999909,None,,,,,,,,,55,001,2020_Jan_13_1650,untitled,3.1.0,60.040335097361954,
453,_5,N,180,R,N,453_5N180RN,HRN,0,271,271,276,,,0.98,1382.5970992999992,1382.8953592999987,1382.8953592999987,1383.1118486999985,1383.1287980999987,None,up,2.1675085999995645,1383.1287980999987,None,1383.1287980999987,1384.0953802999993,0.18722510000043258,None,,,,,,,,,55,001,2020_Jan_13_1650,untitled,3.1.0,60.040335097361954,
289,_2,N,0,L,N,289_2N000LN,HLN,0,272,272,248,,,0.843,1385.4880661999996,1385.7776736999986,1385.7776736999986,1386.0095573999988,1386.0260292999992,None,up,1.3679404000013164,1386.0260292999992,None,1386.0260292999992,1386.8594092000003,0.18049629999950412,None,,,,,,,,,55,001,2020_Jan_13_1650,untitled,3.1.0,60.040335097361954,
007,R,N,270,R,N,007RN270RN,HRN,0,273,273,198,,,0.973,1387.6416934999997,1387.9411978999997,1387.9411978999997,1388.1082115999998,1388.1251918999988,None,up,1.6005549000001338,1388.1251918999988,None,1388.1251918999988,1389.090387799999,0.2341653999992559,None,,,,,,,,,55,001,2020_Jan_13_1650,untitled,3.1.0,60.040335097361954,
046,R,M,225,L,N,046RM225LN,HLN,0,274,274,109,,,1.06,1389.9372007000002,1390.2398362999993,1390.2398362999993,1390.4411779999991,1390.4804616000001,None,down,2.290588399999251,1390.4804616000001,None,1390.4804616000001,1391.5045998999994,0.1986933999996836,None,,,,,,,,,55,001,2020_Jan_13_1650,untitled,3.1.0,60.040335097361954,
039,R,N,270,L,N,039RN270LN,HLN,0,275,275,206,,,0.963,1392.9680095999993,1393.2698377999986,1393.2698377999986,1393.4862943999997,1393.5029565999994,None,up,1.5996509999986301,1393.5029565999994,None,1393.5029565999994,1394.4523704000003,0.1862753999994311,None,,,,,,,,,55,001,2020_Jan_13_1650,untitled,3.1.0,60.040335097361954,
137,F,M,0,R,N,137FM000RN,HRN,0,276,276,112,,,1.1340000000000001,1395.2974642999998,1395.585880999999,1395.585880999999,1395.817804299999,1395.8341757999988,None,down,1.9823311000000103,1395.8341757999988,None,1395.8341757999988,1396.9500372000002,0.183784699998796,None,,,,,,,,,55,001,2020_Jan_13_1650,untitled,3.1.0,60.040335097361954,
138,F,M,45,R,N,138FM045RN,HRN,0,277,277,113,,,0.717,1398.0093367999998,1398.2986696999997,1398.2986696999997,1398.5333487999997,1398.548607499999,None,down,1.682548599999791,1398.548607499999,None,1398.548607499999,1399.2478460000002,0.18177400000058697,None,,,,,,,,,55,001,2020_Jan_13_1650,untitled,3.1.0,60.040335097361954,
042,R,M,45,L,N,042RM045LN,HLN,0,278,278,105,,,1.1340000000000001,1400.4272657000001,1400.7282387999985,1400.7282387999985,1400.9465365999986,1400.9636785000002,None,down,1.9326125000006869,1400.9636785000002,None,1400.9636785000002,1402.079119,0.18459310000071127,None,,,,,,,,,55,001,2020_Jan_13_1650,untitled,3.1.0,60.040335097361954,
_,G,N,90,_,_,_GN090__,N,0,279,279,58,,,0.709,1403.1160467999998,1403.4109647999994,1403.4109647999994,1403.6109844999992,1403.628521999999,None,up,1.6653963000007934,1403.628521999999,None,1403.628521999999,1404.326586199999,0.20648439999968105,None,,,,,,,,,55,001,2020_Jan_13_1650,untitled,3.1.0,60.040335097361954,
135,F,N,270,R,N,135FN270RN,HRN,0,280,280,214,,,1.333,1405.529754199999,1405.8263534999987,1405.8263534999987,1406.0098079999989,1406.0280757,None,up,1.9797815999991144,1406.0280757,None,1406.0280757,1407.3406378,0.22140610000133165,None,,,,,,,,,55,001,2020_Jan_13_1650,untitled,3.1.0,60.040335097361954,
168,F,N,315,L,N,168FN315LN,HLN,0,281,281,223,,,1.1460000000000001,1408.2054938,1408.5063840999992,1408.5063840999992,1408.7228759999998,1408.7395283999995,None,up,1.7658869999995659,1408.7395283999995,None,1408.7395283999995,1409.8719394,0.185900299999048,None,,,,,,,,,55,001,2020_Jan_13_1650,untitled,3.1.0,60.040335097361954,
037,R,N,180,L,N,037RN180LN,HLN,0,282,282,204,,,1.098,1410.7960174,1411.0876659999994,1411.0876659999994,1411.2211933999988,1411.2373960999994,None,up,1.882557099999758,1411.2373960999994,None,1411.2373960999994,1412.3200734000002,0.27987750000102096,None,,,,,,,,,55,001,2020_Jan_13_1650,untitled,3.1.0,60.040335097361954,
426,_4,M,45,L,N,426_4M045LN,HLN,0,283,283,169,,,1.241,1413.3141225,1413.6027687999995,1413.6027687999995,1413.8354340999995,1413.851754199999,None,down,2.065660000000207,1413.851754199999,None,1413.851754199999,1415.0842393000003,0.18293049999920186,None,,,,,,,,,55,001,2020_Jan_13_1650,untitled,3.1.0,60.040335097361954,
005,R,N,180,R,N,005RN180RN,HRN,0,284,284,196,,,0.895,1416.1119722999993,1416.4148628999992,1416.4148628999992,1416.6336303999997,1416.6497578999988,None,up,1.5498487000004388,1416.6497578999988,None,1416.6497578999988,1417.5326853999995,0.18340429999989283,None,,,,,,,,,55,001,2020_Jan_13_1650,untitled,3.1.0,60.040335097361954,
199,G,N,270,R,N,199GN270RN,HRN,0,285,285,230,,,0.861,1418.4354573,1418.7312325000003,1418.7312325000003,1418.9141820999994,1418.931219,None,up,1.4497919000004913,1418.931219,None,1418.931219,1419.7801476999994,0.2225761000008788,None,,,,,,,,,55,001,2020_Jan_13_1650,untitled,3.1.0,60.040335097361954,
292,_2,N,135,L,N,292_2N135LN,HLN,0,286,286,251,,,1.297,1420.6336909000001,1420.9289331,1420.9289331,1421.0955023999995,1421.1121323999996,None,down,2.216852600000493,1421.1121323999996,None,1421.1121323999996,1422.3942373999998,0.23911130000124103,None,,,,,,,,,55,001,2020_Jan_13_1650,untitled,3.1.0,60.040335097361954,
_,_5,M,315,_,_,__5M315__,N,0,287,287,47,,,1.214,1423.5393280999997,1423.8279057,1423.8279057,1424.0429824999992,1424.0595242999989,None,down,1.99949050000032,1424.0595242999989,None,1424.0595242999989,1425.2587255999988,0.19893729999967036,None,,,,,,,,,55,001,2020_Jan_13_1650,untitled,3.1.0,60.040335097361954,
,,,,,,,,,,,,,,,,,,,,,,,,,,,,,1426.0750169999992,None,1430.7707226000002,None,1433.2853723999997,None,1437.3895125999989,None,,,,,,,
