Number,Letter,type,Orientation,human,face_type,image,picture,trials.thisRepN,trials.thisTrialN,trials.thisN,trials.thisIndex,text.started,text.stopped,stimulus_duration,CROSS.started,CROSS.stopped,BLANK.started,BLANK.stopped,TEST.started,TEST.stopped,key_JUDGE.keys,key_JUDGE.rt,key_JUDGE.started,key_JUDGE.stopped,image_2.started,image_2.stopped,ISI.started,ISI.stopped,q1.started,q1.stopped,q2.started,q2.stopped,q3.started,q3.stopped,text_2.started,text_2.stopped,participant,session,date,expName,psychopyVersion,frameRate,
_,_5,N,180,_,_,__5N180__,N,0,0,0,92,915.3617430999875,None,0.795,978.7007264999847,979.0018701999797,979.0018701999797,979.1853861999989,979.2039487999864,None,up,2.7303958000265993,979.2039487999864,None,979.2039487999864,979.983831599995,0.21907939997618087,None,,,,,,,,,5,001,2019_Dec_23_1026,untitled,3.1.0,60.20161520618148,
419,_4,N,90,L,N,419_4N090LN,HLN,0,1,1,266,,,0.786,982.2622083000024,982.5498779999907,982.5498779999907,982.7157909999951,982.7326945999812,None,up,2.2503080000169575,982.7326945999812,None,982.7326945999812,983.5168259999773,0.24550340001587756,None,,,,,,,,,5,001,2019_Dec_23_1026,untitled,3.1.0,60.20161520618148,
451,_5,N,90,R,N,451_5N090RN,HRN,0,2,2,274,,,1.213,985.2117902000027,985.5129751999921,985.5129751999921,985.6960363999824,985.7130353999964,None,up,2.066666200000327,985.7130353999964,None,985.7130353999964,986.9123661999765,0.2173878000176046,None,,,,,,,,,5,001,2019_Dec_23_1026,untitled,3.1.0,60.20161520618148,
_,F,M,135,_,_,_FM135__,N,0,3,3,3,,,1.11,987.9537105000054,988.2442153999873,988.2442153999873,988.4944249999826,988.5108594000048,None,down,2.5351171999936923,988.5108594000048,None,988.5108594000048,989.6117624999897,0.16140440001618117,None,,,,,,,,,5,001,2019_Dec_23_1026,untitled,3.1.0,60.20161520618148,
453,_5,N,180,R,N,453_5N180RN,HRN,0,4,4,276,,,1.322,991.1922402999771,991.4909917000041,991.4909917000041,991.7582019999973,991.7778333000024,None,up,2.547962999989977,991.7778333000024,None,991.7778333000024,993.0924855000048,0.13532760000089183,None,,,,,,,,,5,001,2019_Dec_23_1026,untitled,3.1.0,60.20161520618148,
426,_4,M,45,L,N,426_4M045LN,HLN,0,5,5,169,,,1.191,994.4539549000037,994.7548370999866,994.7548370999866,995.0378532999894,995.0546234999783,None,down,2.9658418000035454,995.0546234999783,None,995.0546234999783,996.2377756999922,0.1153393000131473,None,,,,,,,,,5,001,2019_Dec_23_1026,untitled,3.1.0,60.20161520618148,
_,G,M,270,_,_,_GM270__,N,0,6,6,14,,,0.774,998.2054940999951,998.5024341999961,998.5024341999961,998.7353362999856,998.7522433999984,None,down,2.650662599975476,998.7522433999984,None,998.7522433999984,999.51805839999,0.17212120001204312,None,,,,,,,,,5,001,2019_Dec_23_1026,untitled,3.1.0,60.20161520618148,
400,_4,M,315,R,N,400_4M315RN,HRN,0,7,7,167,,,0.704,1001.6251360999886,1001.9151804999856,1001.9151804999856,1002.1158884000033,1002.1323147999938,None,down,2.1995957999897655,1002.1323147999938,None,1002.1323147999938,1002.8314663999772,0.20864589998382144,None,,,,,,,,,5,001,2019_Dec_23_1026,untitled,3.1.0,60.20161520618148,
_,_4,M,315,_,_,__4M315__,N,0,8,8,39,,,0.96,1004.540519400005,1004.8297925999796,1004.8297925999796,1005.0460310000053,1005.0632528999995,None,down,1.965969299984863,1005.0632528999995,None,1005.0632528999995,1006.0145896000031,0.19750559999374673,None,,,,,,,,,5,001,2019_Dec_23_1026,untitled,3.1.0,60.20161520618148,
_,G,N,45,_,_,_GN045__,N,0,9,9,57,,,1.185,1007.2708823999856,1007.5602036000055,1007.5602036000055,1007.7437154999934,1007.760122799984,None,up,3.0816655000089668,1007.760122799984,None,1007.760122799984,1008.9264139999868,0.2293900000222493,None,,,,,,,,,5,001,2019_Dec_23_1026,untitled,3.1.0,60.20161520618148,
_,_4,M,180,_,_,__4M180__,N,0,10,10,36,,,0.841,1011.0168873999792,1011.3071954000043,1011.3071954000043,1011.5574421999918,1011.5755714999977,None,up,2.2501685000024736,1011.5755714999977,None,1011.5755714999977,1012.4070123999845,0.16379869999946095,None,,,,,,,,,5,001,2019_Dec_23_1026,untitled,3.1.0,60.20161520618148,
130,F,N,45,R,N,130FN045RN,HRN,0,11,11,209,,,1.185,1013.9790320000029,1014.2711288999999,1014.2711288999999,1014.5375620999839,1014.5538111999922,None,up,2.2701098000106867,1014.5538111999922,None,1014.5538111999922,1015.7372275999805,0.14163680002093315,None,,,,,,,,,5,001,2019_Dec_23_1026,untitled,3.1.0,60.20161520618148,
_,G,M,0,_,_,_GM000__,N,0,12,12,8,,,1.293,1017.0465850000037,1017.3355520000041,1017.3355520000041,1017.5357322999917,1017.5522280999867,None,None,,1017.5522280999867,None,1017.5522280999867,1018.8344652999949,0.2105169999995269,None,,,,,,,,,5,001,2019_Dec_23_1026,untitled,3.1.0,60.20161520618148,
271,_2,M,270,R,N,271_2M270RN,HRN,0,13,13,150,,,1.37,1021.2489807999809,1021.5487260999798,1021.5487260999798,1021.7320390999957,1021.7489772999834,1021.2489807999809,down,3.0471373999898788,1021.7489772999834,None,1021.7489772999834,1023.0971900000004,0.22229689999949187,None,,,,,,,,,5,001,2019_Dec_23_1026,untitled,3.1.0,60.20161520618148,
462,_5,M,225,R,N,462_5M225RN,HRN,0,14,14,181,,,0.992,1024.934342099994,1025.2282280999934,1025.2282280999934,1025.5114118999918,1025.5285973999999,None,None,,1025.5285973999999,None,1025.5285973999999,1026.5112705999927,0.12801549999858253,None,,,,,,,,,5,001,2019_Dec_23_1026,untitled,3.1.0,60.20161520618148,
165,F,N,180,L,N,165FN180LN,HLN,0,15,15,220,,,0.836,1029.1370584999968,1029.4247226000007,1029.4247226000007,1029.708534299978,1029.7250268999778,1029.1370584999968,up,2.0338453000003938,1029.7250268999778,None,1029.7250268999778,1030.540738199983,0.132287999993423,None,,,,,,,,,5,001,2019_Dec_23_1026,untitled,3.1.0,60.20161520618148,
171,F,M,90,L,N,171FM090LN,HLN,0,16,16,122,,,1.355,1031.8905153999804,1032.1888922999788,1032.1888922999788,1032.4715566999803,1032.4889969999786,None,down,2.7480827999825124,1032.4889969999786,None,1032.4889969999786,1033.837960999983,0.12139590000151657,None,,,,,,,,,5,001,2019_Dec_23_1026,untitled,3.1.0,60.20161520618148,
140,F,M,135,R,N,140FM135RN,HRN,0,17,17,115,,,1.033,1035.3997972999932,1035.7025266999844,1035.7025266999844,1035.9521237000008,1035.9699182999902,None,down,3.148217999987537,1035.9699182999902,None,1035.9699182999902,1036.9844642999815,0.1552291999978479,None,,,,,,,,,5,001,2019_Dec_23_1026,untitled,3.1.0,60.20161520618148,
_,R,M,270,_,_,_RM270__,N,0,18,18,22,,,1.227,1039.2071791999915,1039.5323576999945,1039.54880769999,1039.8320855000056,1039.8485639999853,None,down,2.400001700007124,1039.8485639999853,None,1039.8485639999853,1041.0650147999986,0.08175139999366365,None,,,,,,,,,5,001,2019_Dec_23_1026,untitled,3.1.0,60.20161520618148,
267,_2,M,90,R,N,267_2M090RN,HRN,0,19,19,146,,,0.979,1042.4643628999765,1042.7632070999825,1042.7632070999825,1042.9662462999986,1042.9854004999797,None,down,2.9958947999984957,1042.9854004999797,None,1042.9854004999797,1043.945794500003,0.20270280001568608,None,,,,,,,,,5,001,2019_Dec_23_1026,untitled,3.1.0,60.20161520618148,
_,G,M,315,_,_,_GM315__,N,0,20,20,15,,,0.9480000000000001,1046.2043129999947,1046.492915699986,1046.492915699986,1046.693291100004,1046.7101124000037,None,down,2.916964600008214,1046.7101124000037,None,1046.7101124000037,1047.642834600003,0.2097164999868255,None,,,,,,,,,5,001,2019_Dec_23_1026,untitled,3.1.0,60.20161520618148,
136,F,N,315,R,N,136FN315RN,HRN,0,21,21,215,,,1.317,1049.749015199981,1050.0405587999849,1050.0565308999794,1050.3402496000053,1050.3570518000051,None,up,2.8155473999795504,1050.3570518000051,None,1050.3570518000051,1051.656158400001,0.11032259999774396,None,,,,,,,,,5,001,2019_Dec_23_1026,untitled,3.1.0,60.20161520618148,
395,_4,M,90,R,N,395_4M090RN,HRN,0,22,22,162,,,0.8260000000000001,1053.2902708000038,1053.586945099989,1053.6040560999827,1053.8869678000046,1053.9054150999873,None,down,2.3968471999978647,1053.9054150999873,None,1053.9054150999873,1054.7198181999847,0.10658820002572611,None,,,,,,,,,5,001,2019_Dec_23_1026,untitled,3.1.0,60.20161520618148,
430,_4,M,225,L,N,430_4M225LN,HLN,0,23,23,173,,,0.751,1056.5214107999927,1056.817064599978,1056.817064599978,1057.0175062000053,1057.034294699988,None,None,,1057.034294699988,None,1057.034294699988,1057.7673588999896,0.2080998000164982,None,,,,,,,,,5,001,2019_Dec_23_1026,untitled,3.1.0,60.20161520618148,
392,_4,N,315,R,N,392_4N315RN,HRN,0,24,24,263,,,0.986,1060.628777899983,1060.9305314999947,1060.9305314999947,1061.2143810999987,1061.230845699989,1060.628777899983,up,1.7854780000052415,1061.230845699989,None,1061.230845699989,1062.1967582999787,0.12177150000934489,None,,,,,,,,,5,001,2019_Dec_23_1026,untitled,3.1.0,60.20161520618148,
_,_5,M,135,_,_,__5M135__,N,0,25,25,43,,,1.089,1063.2384684999997,1063.528239999985,1063.528239999985,1063.7289547999972,1063.7463130999822,None,down,2.165173599991249,1063.7463130999822,None,1063.7463130999822,1064.8275924999907,0.20987769999192096,None,,,,,,,,,5,001,2019_Dec_23_1026,untitled,3.1.0,60.20161520618148,
424,_4,N,315,L,N,424_4N315LN,HLN,0,26,26,271,,,0.8210000000000001,1066.0350677999959,1066.3255897999916,1066.3255897999916,1066.6264636999986,1066.6425314999942,None,up,1.5501039999944624,1066.6425314999942,None,1066.6425314999942,1067.458961299999,0.11175589999766089,None,,,,,,,,,5,001,2019_Dec_23_1026,untitled,3.1.0,60.20161520618148,
_,R,N,0,_,_,_RN000__,N,0,27,27,64,,,0.761,1068.4063581999799,1068.7071091999824,1068.7071091999824,1068.9074565999908,1068.9242114999797,None,up,1.902092200005427,1068.9242114999797,None,1068.9242114999797,1069.673644800001,0.2013516000006348,None,,,,,,,,,5,001,2019_Dec_23_1026,untitled,3.1.0,60.20161520618148,
270,_2,M,225,R,N,270_2M225RN,HRN,0,28,28,149,,,1.228,1070.9538919999904,1071.2550435999874,1071.2550435999874,1071.5378986999858,1071.5550920999958,None,down,2.60154020000482,1071.5550920999958,None,1071.5550920999958,1072.7701337999897,0.11522909998893738,None,,,,,,,,,5,001,2019_Dec_23_1026,untitled,3.1.0,60.20161520618148,
_,_4,M,90,_,_,__4M090__,N,0,29,29,34,,,0.8300000000000001,1074.2837162999786,1074.5853286999918,1074.5853286999918,1074.8686614999897,1074.8857039999857,None,up,1.8178437000024132,1074.8857039999857,None,1074.8857039999857,1075.7026559999795,0.11484560000826605,None,,,,,,,,,5,001,2019_Dec_23_1026,untitled,3.1.0,60.20161520618148,
_,G,M,180,_,_,_GM180__,N,0,30,30,12,,,0.916,1076.9284254999948,1077.2185463999922,1077.2185463999922,1077.4185178999905,1077.433561599988,None,down,2.864409000001615,1077.433561599988,None,1077.433561599988,1078.3326129000052,0.21348930001840927,None,,,,,,,,,5,001,2019_Dec_23_1026,untitled,3.1.0,60.20161520618148,
298,_2,M,45,L,N,298_2M045LN,HLN,0,31,31,153,,,0.966,1080.4136397999828,1080.7137635999825,1080.729902799998,1081.0133530999883,1081.0301560999942,None,down,2.218572200014023,1081.0301560999942,None,1081.0301560999942,1081.9796986999863,0.10612840001704171,None,,,,,,,,,5,001,2019_Dec_23_1026,untitled,3.1.0,60.20161520618148,
162,F,N,45,L,N,162FN045LN,HLN,0,32,32,217,,,1.2650000000000001,1083.479423199984,1083.7770324999874,1083.7770324999874,1083.961247899977,1083.9801198999921,None,up,2.130786800000351,1083.9801198999921,None,1083.9801198999921,1085.2265921999933,0.21966269999393262,None,,,,,,,,,5,001,2019_Dec_23_1026,untitled,3.1.0,60.20161520618148,
036,R,N,135,L,N,036RN135LN,HLN,0,33,33,203,,,1.0170000000000001,1086.339340799983,1086.641589499981,1086.641589499981,1086.8264706000045,1086.8420305000036,None,up,1.9527973999793176,1086.8420305000036,None,1086.8420305000036,1087.840933200001,0.21683660001144744,None,,,,,,,,,5,001,2019_Dec_23_1026,untitled,3.1.0,60.20161520618148,
_,R,N,315,_,_,_RN315__,N,0,34,34,71,,,1.297,1089.0152594999818,1089.3056567999884,1089.3056567999884,1089.5061104999913,1089.5228779999889,None,up,2.149018600001,1089.5228779999889,None,1089.5228779999889,1090.8053437999915,0.20776759998989291,None,,,,,,,,,5,001,2019_Dec_23_1026,untitled,3.1.0,60.20161520618148,
_,_5,N,270,_,_,__5N270__,N,0,35,35,94,,,1.304,1091.8005298999778,1092.1032438999973,1092.1032438999973,1092.3872073999955,1092.4035790000053,None,up,2.0504417000047397,1092.4035790000053,None,1092.4035790000053,1093.7015200000023,0.11727749998681247,None,,,,,,,,,5,001,2019_Dec_23_1026,untitled,3.1.0,60.20161520618148,
397,_4,M,180,R,N,397_4M180RN,HRN,0,36,36,164,,,0.724,1094.5934619999898,1094.8840943999821,1094.8840943999821,1095.168052699999,1095.1855177999823,None,up,1.7022594999871217,1095.1855177999823,None,1095.1855177999823,1095.89974719999,0.12878990001627244,None,,,,,,,,,5,001,2019_Dec_23_1026,untitled,3.1.0,60.20161520618148,
269,_2,M,180,R,N,269_2M180RN,HRN,0,37,37,148,,,0.731,1097.0203704999876,1097.3151804999798,1097.3151804999798,1097.5992132999818,1097.615607899992,None,down,2.3181948000274133,1097.615607899992,None,1097.615607899992,1098.331240999978,0.12119760000496171,None,,,,,,,,,5,001,2019_Dec_23_1026,untitled,3.1.0,60.20161520618148,
463,_5,M,270,R,N,463_5M270RN,HRN,0,38,38,182,,,0.9420000000000001,1100.1448131999932,1100.4460221999907,1100.4460221999907,1100.6461605999793,1100.6633938000014,None,down,3.1171750999928918,1100.6633938000014,None,1100.6633938000014,1101.595365599991,0.2004970999842044,None,,,,,,,,,5,001,2019_Dec_23_1026,untitled,3.1.0,60.20161520618148,
297,_2,M,0,L,N,297_2M000LN,HLN,0,39,39,152,,,1.34,1103.8978416000027,1104.1924875999975,1104.2096543999796,1104.4930815999978,1104.5100384999823,None,down,2.3815600000089034,1104.5100384999823,None,1104.5100384999823,1105.8423707000038,0.1069050999940373,None,,,,,,,,,5,001,2019_Dec_23_1026,untitled,3.1.0,60.20161520618148,
459,_5,M,90,R,N,459_5M090RN,HRN,0,40,40,178,,,1.256,1106.9961810999957,1107.3065731999814,1107.3236051999847,1107.6067632999911,1107.6257989000005,None,down,2.6495692000025883,1107.6257989000005,None,1107.6257989000005,1108.856284199981,0.09564179999870248,None,,,,,,,,,5,001,2019_Dec_23_1026,untitled,3.1.0,60.20161520618148,
_,_4,N,270,_,_,__4N270__,N,0,41,41,86,,,0.853,1110.4254055999918,1110.7206908999942,1110.7206908999942,1110.987224899989,1111.0040255999775,None,up,1.6985524999909103,1111.0040255999775,None,1111.0040255999775,1111.8522945999866,0.13924100002623163,None,,,,,,,,,5,001,2019_Dec_23_1026,untitled,3.1.0,60.20161520618148,
_,_2,M,315,_,_,__2M315__,N,0,42,42,31,,,0.9520000000000001,1112.9221172999823,1113.218274599989,1113.218274599989,1113.4188037999847,1113.435275900003,None,down,1.8011720000067726,1113.435275900003,None,1113.435275900003,1114.3679694999882,0.212224699993385,None,,,,,,,,,5,001,2019_Dec_23_1026,untitled,3.1.0,60.20161520618148,
482,_5,N,45,L,N,482_5N045LN,HLN,0,43,43,281,,,0.865,1115.4734663999989,1115.7663111999864,1115.7663111999864,1115.9498618999787,1115.9668671999825,None,up,1.5165151999972295,1115.9668671999825,None,1115.9668671999825,1116.8151175999956,0.2228645000141114,None,,,,,,,,,5,001,2019_Dec_23_1026,untitled,3.1.0,60.20161520618148,
_,_2,M,135,_,_,__2M135__,N,0,44,44,27,,,0.921,1117.6045795999817,1117.8984820999904,1117.9140602999832,1118.197817599983,1118.215969199984,None,down,1.8483624999935273,1118.215969199984,None,1118.215969199984,1119.1309582999966,0.10754759999690577,None,,,,,,,,,5,001,2019_Dec_23_1026,untitled,3.1.0,60.20161520618148,
_,_4,M,135,_,_,__4M135__,N,0,45,45,35,,,1.183,1120.170923400001,1120.4782590999966,1120.4952090999868,1120.7786266999901,1120.7955012999882,None,up,2.5990860000019893,1120.7955012999882,None,1120.7955012999882,1121.961379699991,0.09488449999480508,None,,,,,,,,,5,001,2019_Dec_23_1026,untitled,3.1.0,60.20161520618148,
385,_4,N,0,R,N,385_4N000RN,HRN,0,46,46,256,,,0.845,1123.5154000000039,1123.8090073999774,1123.8253003999998,1124.1109546999796,1124.1272931999993,None,up,1.8300448000081815,1124.1272931999993,None,1124.1272931999993,1124.9585891999886,0.11011609999695793,None,,,,,,,,,5,001,2019_Dec_23_1026,untitled,3.1.0,60.20161520618148,
_,_5,M,45,_,_,__5M045__,N,0,47,47,41,,,0.732,1126.0848630999972,1126.376030399988,1126.376030399988,1126.6735339000006,1126.6903046999942,None,up,1.7330110000038985,1126.6903046999942,None,1126.6903046999942,1127.4066264999856,0.11889979999978095,None,,,,,,,,,5,001,2019_Dec_23_1026,untitled,3.1.0,60.20161520618148,
484,_5,N,135,L,N,484_5N135LN,HLN,0,48,48,283,,,1.307,1128.5497107999981,1128.8381790999847,1128.8381790999847,1129.138460599992,1129.1575416999985,None,up,2.3637832999811508,1129.1575416999985,None,1129.1575416999985,1130.4538880999899,0.11409780001849867,None,,,,,,,,,5,001,2019_Dec_23_1026,untitled,3.1.0,60.20161520618148,
456,_5,N,315,R,N,456_5N315RN,HRN,0,49,49,279,,,1.203,1131.644719200005,1131.93500149998,1131.93500149998,1132.2347632999881,1132.2511721999908,None,up,1.7839839999796823,1132.2511721999908,None,1132.2511721999908,1133.4345179999946,0.1120060000102967,None,,,,,,,,,5,001,2019_Dec_23_1026,untitled,3.1.0,60.20161520618148,
_,_2,N,90,_,_,__2N090__,N,0,50,50,74,,,0.773,1134.1749202999927,1134.4663073999982,1134.4663073999982,1134.7519366999913,1134.766926899989,None,up,1.4000067000160925,1134.766926899989,None,1134.766926899989,1135.5317691999953,0.12798699998529628,None,,,,,,,,,5,001,2019_Dec_23_1026,untitled,3.1.0,60.20161520618148,
489,_5,M,0,L,N,489_5M000LN,HLN,0,51,51,184,,,1.312,1136.2935656000045,1136.5817765999818,1136.5817765999818,1136.880861099984,1136.898187099985,None,down,2.6328821000061,1136.898187099985,None,1136.898187099985,1138.1974148000008,0.1147058000206016,None,,,,,,,,,5,001,2019_Dec_23_1026,untitled,3.1.0,60.20161520618148,
_,_5,N,45,_,_,__5N045__,N,0,52,52,89,,,0.9470000000000001,1139.67618509999,1139.9643313999986,1139.9643313999986,1140.245300999988,1140.2618500999815,None,up,1.5344621999829542,1140.2618500999815,None,1140.2618500999815,1141.1944321999908,0.13141209998866543,None,,,,,,,,,5,001,2019_Dec_23_1026,untitled,3.1.0,60.20161520618148,
300,_2,M,135,L,N,300_2M135LN,HLN,0,53,53,155,,,0.774,1141.9114704999956,1142.2099768999906,1142.2261482999893,1142.509996799985,1142.526393099979,None,down,2.3665725000028033,1142.526393099979,None,1142.526393099979,1143.2929764,0.10280260001309216,None,,,,,,,,,5,001,2019_Dec_23_1026,untitled,3.1.0,60.20161520618148,
014,R,M,225,R,N,014RM225RN,HRN,0,54,54,101,,,1.371,1145.025550499995,1145.323491099989,1145.323491099989,1145.6076339999854,1145.6239503999823,None,up,2.450699299981352,1145.6239503999823,None,1145.6239503999823,1146.9887446999783,0.12120080000022426,None,,,,,,,,,5,001,2019_Dec_23_1026,untitled,3.1.0,60.20161520618148,
263,_2,N,270,R,N,263_2N270RN,HRN,0,55,55,246,,,0.835,1148.2956478999986,1148.5873395999952,1148.5873395999952,1148.7870229999826,1148.8035990999779,None,up,1.8512724000029266,1148.8035990999779,None,1148.8035990999779,1149.6194381999958,0.2065530999971088,None,,,,,,,,,5,001,2019_Dec_23_1026,untitled,3.1.0,60.20161520618148,
257,_2,N,0,R,N,257_2N000RN,HRN,0,56,56,240,,,1.347,1150.8511709999875,1151.1517508999968,1151.1517508999968,1151.3680983999802,1151.3848043000035,None,up,2.4170422999886796,1151.3848043000035,None,1151.3848043000035,1152.717417799984,0.18500960001256317,None,,,,,,,,,5,001,2019_Dec_23_1026,untitled,3.1.0,60.20161520618148,
_,R,N,135,_,_,_RN135__,N,0,57,57,67,,,1.3,1154.0242383999866,1154.3160547000007,1154.3160547000007,1154.515675499977,1154.5323743000044,None,up,1.9029245999990962,1154.5323743000044,None,1154.5323743000044,1155.8151151999773,0.21156840000185184,None,,,,,,,,,5,001,2019_Dec_23_1026,untitled,3.1.0,60.20161520618148,
387,_4,N,90,R,N,387_4N090RN,HRN,0,58,58,258,,,1.3800000000000001,1156.5499398999964,1156.8470719000034,1156.8637030999816,1157.1470064999885,1157.164041299984,None,up,2.1482977000123356,1157.164041299984,None,1157.164041299984,1158.5297388999898,0.10385640000458807,None,,,,,,,,,5,001,2019_Dec_23_1026,untitled,3.1.0,60.20161520618148,
457,_5,M,0,R,N,457_5M000RN,HRN,0,59,59,176,,,0.793,1159.4262701999978,1159.7276568999805,1159.744910999987,1160.028074300004,1160.0464052000025,None,down,1.8645817999786232,1160.0464052000025,None,1160.0464052000025,1160.8273715999967,0.10365809997892939,None,,,,,,,,,5,001,2019_Dec_23_1026,untitled,3.1.0,60.20161520618148,
_,F,M,270,_,_,_FM270__,N,0,60,60,6,,,1.1500000000000001,1162.0627563000016,1162.3589634999807,1162.3589634999807,1162.6257293999952,1162.6425420999876,None,down,2.378277000010712,1162.6425420999876,None,1162.6425420999876,1163.774788699986,0.13900190001004376,None,,,,,,,,,5,001,2019_Dec_23_1026,untitled,3.1.0,60.20161520618148,
_,_2,N,45,_,_,__2N045__,N,0,61,61,73,,,1.0170000000000001,1165.1321029999817,1165.422682799981,1165.4560392999847,1165.7399501999898,1165.7566737000016,None,up,1.6352253000077326,1165.7566737000016,None,1165.7566737000016,1166.7556646000012,0.10116869999910705,None,,,,,,,,,5,001,2019_Dec_23_1026,untitled,3.1.0,60.20161520618148,
302,_2,M,225,L,N,302_2M225LN,HLN,0,62,62,157,,,1.2,1167.504603599984,1167.8037580999953,1167.820490299986,1168.104225899995,1168.1217836999858,None,down,2.181191099982243,1168.1217836999858,None,1168.1217836999858,1169.303301899985,0.10211310000158846,None,,,,,,,,,5,001,2019_Dec_23_1026,untitled,3.1.0,60.20161520618148,
033,R,N,0,L,N,033RN000LN,HLN,0,63,63,200,,,1.16,1170.5248334999778,1170.8182424999832,1170.8182424999832,1171.0184832999948,1171.035326799989,None,up,1.9677255999995396,1171.035326799989,None,1171.035326799989,1172.1836405999784,0.21314440001151524,None,,,,,,,,,5,001,2019_Dec_23_1026,untitled,3.1.0,60.20161520618148,
488,_5,N,315,L,N,488_5N315LN,HLN,0,64,64,287,,,1.038,1173.1345597000036,1173.4327000000048,1173.4327000000048,1173.7160878999857,1173.734469899995,None,up,2.6456638000090607,1173.734469899995,None,1173.734469899995,1174.7648471999855,0.12012720000348054,None,,,,,,,,,5,001,2019_Dec_23_1026,untitled,3.1.0,60.20161520618148,
011,R,M,90,R,N,011RM090RN,HRN,0,65,65,98,,,1.2510000000000001,1176.461431499978,1176.7960310000053,1176.8131580000045,1177.096306899999,1177.1132361000055,None,down,2.249222500016913,1177.1132361000055,None,1177.1132361000055,1178.3450666999852,0.07347179998760112,None,,,,,,,,,5,001,2019_Dec_23_1026,untitled,3.1.0,60.20161520618148,
394,_4,M,45,R,N,394_4M045RN,HRN,0,66,66,161,,,1.374,1179.49320919998,1179.7942605999997,1179.7942605999997,1180.077566299995,1180.0938733999792,None,down,2.330534100008663,1180.0938733999792,None,1180.0938733999792,1181.4585169999918,0.12003780002123676,None,,,,,,,,,5,001,2019_Dec_23_1026,untitled,3.1.0,60.20161520618148,
493,_5,M,180,L,N,493_5M180LN,HLN,0,67,67,188,,,0.847,1182.4949367999798,1182.840778199985,1182.8572140999895,1183.140249499993,1183.157313499978,None,up,2.050110800017137,1183.157313499978,None,1183.157313499978,1183.9903055999894,0.06288710000808351,None,,,,,,,,,5,001,2019_Dec_23_1026,untitled,3.1.0,60.20161520618148,
_,G,M,45,_,_,_GM045__,N,0,68,68,9,,,1.36,1185.4300859999785,1185.7214364999963,1185.7214364999963,1185.923340599984,1185.9387743999832,None,down,3.133569900004659,1185.9387743999832,None,1185.9387743999832,1187.2879638999875,0.21137500001350418,None,,,,,,,,,5,001,2019_Dec_23_1026,untitled,3.1.0,60.20161520618148,
_,G,M,90,_,_,_GM090__,N,0,69,69,10,,,0.8240000000000001,1189.2828683999833,1189.5861196999904,1189.5861196999904,1189.7855357999797,1189.8021908999945,None,down,2.300159399979748,1189.8021908999945,None,1189.8021908999945,1190.6181357000023,0.19915510001010261,None,,,,,,,,,5,001,2019_Dec_23_1026,untitled,3.1.0,60.20161520618148,
042,R,M,45,L,N,042RM045LN,HLN,0,70,70,105,,,1.014,1192.242378199997,1192.5328592000005,1192.5328592000005,1192.816110099986,1192.8327341999975,None,down,1.9163342000101693,1192.8327341999975,None,1192.8327341999975,1193.8322395999858,0.12975360002019443,None,,,,,,,,,5,001,2019_Dec_23_1026,untitled,3.1.0,60.20161520618148,
_,F,N,270,_,_,_FN270__,N,0,71,71,54,,,1.123,1194.9714213999978,1195.2633881999936,1195.2633881999936,1195.4639012999833,1195.4809362999804,None,up,2.0317536999937147,1195.4809362999804,None,1195.4809362999804,1196.5961977999832,0.20789970000623725,None,,,,,,,,,5,001,2019_Dec_23_1026,untitled,3.1.0,60.20161520618148,
_,F,N,45,_,_,_FN045__,N,0,72,72,49,,,1.053,1197.614806700003,1197.9278501999797,1197.9444695999846,1198.2279110999953,1198.2445571999997,None,up,1.6495886000047904,1198.2445571999997,None,1198.2445571999997,1199.277521299984,0.09414709999691695,None,,,,,,,,,5,001,2019_Dec_23_1026,untitled,3.1.0,60.20161520618148,
_,_2,M,0,_,_,__2M000__,N,0,73,73,24,,,0.989,1200.1048474999843,1200.3938936999766,1200.3938936999766,1200.6097557999892,1200.6261434000044,None,down,2.748814599995967,1200.6261434000044,None,1200.6261434000044,1201.5918456999934,0.20120199999655597,None,,,,,,,,,5,001,2019_Dec_23_1026,untitled,3.1.0,60.20161520618148,
196,G,N,135,R,N,196GN135RN,HRN,0,74,74,227,,,0.8230000000000001,1203.5280955999915,1203.823303799989,1203.823303799989,1204.0896009999851,1204.1062948000035,None,up,1.7334208999818657,1204.1062948000035,None,1204.1062948000035,1204.922273299977,0.1403000999998767,None,,,,,,,,,5,001,2019_Dec_23_1026,untitled,3.1.0,60.20161520618148,
225,G,N,0,L,N,225GN000LN,HLN,0,75,75,232,,,0.851,1206.04913509998,1206.337083899998,1206.337083899998,1206.5542907000054,1206.5708882999897,None,up,1.4332275000051595,1206.5708882999897,None,1206.5708882999897,1207.403361100005,0.19526929999119602,None,,,,,,,,,5,001,2019_Dec_23_1026,untitled,3.1.0,60.20161520618148,
423,_4,N,270,L,N,423_4N270LN,HLN,0,76,76,270,,,0.9570000000000001,1208.1399159999855,1208.4356228999968,1208.4356228999968,1208.7193619000027,1208.735732400004,None,up,1.5832111000199802,1208.735732400004,None,1208.735732400004,1209.6848630000022,0.12417009999626316,None,,,,,,,,,5,001,2019_Dec_23_1026,untitled,3.1.0,60.20161520618148,
389,_4,N,180,R,N,389_4N180RN,HRN,0,77,77,260,,,0.905,1210.454746399977,1210.750530899997,1210.750530899997,1211.0334599000053,1211.0502602999914,None,up,2.3676028000190854,1211.0502602999914,None,1211.0502602999914,1211.9501227999863,0.11975349998101592,None,,,,,,,,,5,001,2019_Dec_23_1026,untitled,3.1.0,60.20161520618148,
_,_5,M,90,_,_,__5M090__,N,0,78,78,42,,,0.797,1213.5570174999884,1213.847727299988,1213.847727299988,1214.1303810999962,1214.1470752999885,None,down,2.3682009000040125,1214.1470752999885,None,1214.1470752999885,1214.930440199998,0.12889749999158084,None,,,,,,,,,5,001,2019_Dec_23_1026,untitled,3.1.0,60.20161520618148,
460,_5,M,135,R,N,460_5M135RN,HRN,0,79,79,179,,,1.053,1216.6406449999777,1216.9300406999828,1216.9300406999828,1217.2285230999987,1217.2453728999826,None,down,2.817031799990218,1217.2453728999826,None,1217.2453728999826,1218.2943945000006,0.11389470001449808,None,,,,,,,,,5,001,2019_Dec_23_1026,untitled,3.1.0,60.20161520618148,
227,G,N,90,L,N,227GN090LN,HLN,0,80,80,234,,,1.317,1220.2711896999972,1220.5603957999847,1220.5603957999847,1220.775431099988,1220.791962599993,None,up,1.9853168000117876,1220.791962599993,None,1220.791962599993,1222.0916611999855,0.1978876999928616,None,,,,,,,,,5,001,2019_Dec_23_1026,untitled,3.1.0,60.20161520618148,
_,R,M,0,_,_,_RM000__,N,0,81,81,16,,,0.85,1222.9001324999845,1223.1903795999824,1223.1903795999824,1223.489446099993,1223.5061568999954,None,down,1.71833110001171,1223.5061568999954,None,1223.5061568999954,1224.3392191999883,0.11227550002513453,None,,,,,,,,,5,001,2019_Dec_23_1026,untitled,3.1.0,60.20161520618148,
260,_2,N,135,R,N,260_2N135RN,HRN,0,82,82,243,,,1.065,1225.3369146999903,1225.637095699989,1225.6535108999815,1225.9372225999832,1225.953990799986,None,up,1.848988300014753,1225.953990799986,None,1225.953990799986,1227.003481199994,0.10161169999628328,None,,,,,,,,,5,001,2019_Dec_23_1026,untitled,3.1.0,60.20161520618148,
135,F,N,270,R,N,135FN270RN,HRN,0,83,83,214,,,1.034,1227.9398739000026,1228.2348946999991,1228.2348946999991,1228.51823289998,1228.5352102000033,None,up,1.8352670000167564,1228.5352102000033,None,1228.5352102000033,1229.5513281000021,0.1241065000067465,None,,,,,,,,,5,001,2019_Dec_23_1026,untitled,3.1.0,60.20161520618148,
034,R,N,45,L,N,034RN045LN,HLN,0,84,84,201,,,1.209,1230.5882691000006,1230.882112899999,1230.882112899999,1231.0830428999907,1231.099531999993,None,up,1.8186280999798328,1231.099531999993,None,1231.099531999993,1232.2985789999948,0.2052016999805346,None,,,,,,,,,5,001,2019_Dec_23_1026,untitled,3.1.0,60.20161520618148,
396,_4,M,135,R,N,396_4M135RN,HRN,0,85,85,163,,,0.998,1233.0442570000014,1233.3321275000053,1233.3321275000053,1233.6307949000038,1233.6475047999993,None,up,2.018260500015458,1233.6475047999993,None,1233.6475047999993,1234.6296754999785,0.11387070000637323,None,,,,,,,,,5,001,2019_Dec_23_1026,untitled,3.1.0,60.20161520618148,
231,G,N,270,L,N,231GN270LN,HLN,0,86,86,238,,,0.896,1235.8922303,1236.1945870000054,1236.1945870000054,1236.3781605999975,1236.3950206000009,None,up,1.6517573999881279,1236.3950206000009,None,1236.3950206000009,1237.276560999977,0.21493099999497645,None,,,,,,,,,5,001,2019_Dec_23_1026,untitled,3.1.0,60.20161520618148,
390,_4,N,225,R,N,390_4N225RN,HRN,0,87,87,261,,,0.744,1238.1740848000045,1238.4756788999948,1238.4756788999948,1238.7598282999825,1238.776306099986,None,up,1.416371800005436,1238.776306099986,None,1238.776306099986,1239.5100906000007,0.11615309998160228,None,,,,,,,,,5,001,2019_Dec_23_1026,untitled,3.1.0,60.20161520618148,
_,_2,M,225,_,_,__2M225__,N,0,88,88,29,,,1.3780000000000001,1240.329003699997,1240.6246146000049,1240.6246146000049,1240.907436999987,1240.9243541999895,None,down,2.452141700021457,1240.9243541999895,None,1240.9243541999895,1242.2890987999854,0.12321790002170019,None,,,,,,,,,5,001,2019_Dec_23_1026,untitled,3.1.0,60.20161520618148,
002,R,N,45,R,N,002RN045RN,HRN,0,89,89,193,,,0.705,1243.4977755,1243.7880829999922,1243.804163599998,1244.0879804999859,1244.1068145000027,None,up,1.4493401999934576,1244.1068145000027,None,1244.1068145000027,1244.804267999978,0.11088809999637306,None,,,,,,,,,5,001,2019_Dec_23_1026,untitled,3.1.0,60.20161520618148,
194,G,N,45,R,N,194GN045RN,HRN,0,90,90,225,,,0.784,1245.6755225999805,1245.9690420999832,1245.9856947999797,1246.2699501999887,1246.2864083999884,None,up,1.250116799987154,1246.2864083999884,None,1246.2864083999884,1247.0523760999786,0.1084440000122413,None,,,,,,,,,5,001,2019_Dec_23_1026,untitled,3.1.0,60.20161520618148,
_,F,M,90,_,_,_FM090__,N,0,91,91,2,,,0.777,1247.7591285999806,1248.0505408000026,1248.0505408000026,1248.2517203000025,1248.2678421000019,None,down,1.8690950000018347,1248.2678421000019,None,1248.2678421000019,1249.0334746000008,0.2108826999901794,None,,,,,,,,,5,001,2019_Dec_23_1026,untitled,3.1.0,60.20161520618148,
_,G,M,225,_,_,_GM225__,N,0,92,92,13,,,1.393,1250.3362660999992,1250.631885699986,1250.631885699986,1250.849224399979,1250.8656018000038,None,down,2.4994613000017125,1250.8656018000038,None,1250.8656018000038,1252.2475580000028,0.18843639999977313,None,,,,,,,,,5,001,2019_Dec_23_1026,untitled,3.1.0,60.20161520618148,
015,R,M,270,R,N,015RM270RN,HRN,0,93,93,102,,,1.037,1253.4994674999907,1253.7956003999861,1253.7956003999861,1254.0793988999794,1254.0961064999865,None,down,2.1184805000084452,1254.0961064999865,None,1254.0961064999865,1255.1284672000038,0.12199109999346547,None,,,,,,,,,5,001,2019_Dec_23_1026,untitled,3.1.0,60.20161520618148,
236,G,M,135,L,N,236GM135LN,HLN,0,94,94,139,,,0.8160000000000001,1256.3497818000033,1256.6433389000013,1256.6433389000013,1256.9268968999968,1256.9434316999977,None,down,2.118587100005243,1256.9434316999977,None,1256.9434316999977,1257.7423559000017,0.12429030000930652,None,,,,,,,,,5,001,2019_Dec_23_1026,untitled,3.1.0,60.20161520618148,
258,_2,N,45,R,N,258_2N045RN,HRN,0,95,95,241,,,0.8280000000000001,1259.178914899996,1259.4742648999963,1259.490254799981,1259.7745636999898,1259.7924534999765,None,up,1.8986026000056881,1259.7924534999765,None,1259.7924534999765,1260.608610299998,0.10623669999768026,None,,,,,,,,,5,001,2019_Dec_23_1026,untitled,3.1.0,60.20161520618148,
495,_5,M,270,L,N,495_5M270LN,HLN,0,96,96,190,,,1.095,1261.9045725000033,1262.2054516999924,1262.2054516999924,1262.4071234999865,1262.422399300005,None,down,2.2689473000064027,1262.422399300005,None,1262.422399300005,1263.5048128000053,0.20039959999849088,None,,,,,,,,,5,001,2019_Dec_23_1026,untitled,3.1.0,60.20161520618148,
132,F,N,135,R,N,132FN135RN,HRN,0,97,97,211,,,0.912,1264.8380180999811,1265.1358888999966,1265.1358888999966,1265.402731499984,1265.4196249999804,None,up,1.764784700004384,1265.4196249999804,None,1265.4196249999804,1266.318758999987,0.13597169998683967,None,,,,,,,,,5,001,2019_Dec_23_1026,untitled,3.1.0,60.20161520618148,
491,_5,M,90,L,N,491_5M090LN,HLN,0,98,98,186,,,1.068,1267.2584632999788,1267.6001194999844,1267.6168043999933,1267.9025326999836,1267.9175222999766,None,down,2.51411280001048,1267.9175222999766,None,1267.9175222999766,1268.9679001999903,0.06677320000017062,None,,,,,,,,,5,001,2019_Dec_23_1026,untitled,3.1.0,60.20161520618148,
_,G,N,0,_,_,_GN000__,N,0,99,99,56,,,1.321,1270.6481880999927,1270.9475869000016,1270.9475869000016,1271.147845200001,1271.1642925999768,None,up,2.083004600019194,1271.1642925999768,None,1271.1642925999768,1272.4664493000018,0.208226700022351,None,,,,,,,,,5,001,2019_Dec_23_1026,untitled,3.1.0,60.20161520618148,
016,R,M,315,R,N,016RM315RN,HRN,0,100,100,103,,,1.116,1273.36655039998,1273.6619094999915,1273.6786038999853,1273.9619804999966,1273.9792019999877,None,down,1.9003935000218917,1273.9792019999877,None,1273.9792019999877,1275.078152699978,0.10838039999362081,None,,,,,,,,,5,001,2019_Dec_23_1026,untitled,3.1.0,60.20161520618148,
206,G,M,225,R,N,206GM225RN,HRN,0,101,101,133,,,1.302,1276.004027499992,1276.293978599977,1276.293978599977,1276.5920579999802,1276.608865599992,None,up,2.282588999980362,1276.608865599992,None,1276.608865599992,1277.891288599989,0.11417500002426095,None,,,,,,,,,5,001,2019_Dec_23_1026,untitled,3.1.0,60.20161520618148,
450,_5,N,45,R,N,450_5N045RN,HRN,0,102,102,273,,,0.837,1279.0073300999939,1279.3068880999926,1279.3244264999812,1279.6073875000002,1279.623793799983,None,up,1.6000747999933083,1279.623793799983,None,1279.623793799983,1280.4397902000055,0.1060113999992609,None,,,,,,,,,5,001,2019_Dec_23_1026,untitled,3.1.0,60.20161520618148,
418,_4,N,45,L,N,418_4N045LN,HLN,0,103,103,265,,,1.225,1281.3304814999865,1281.6381439999968,1281.6550090999808,1281.93875869998,1281.9550474999996,None,up,1.90298799998709,1281.9550474999996,None,1281.9550474999996,1283.1707336999825,0.09534110000822693,None,,,,,,,,,5,001,2019_Dec_23_1026,untitled,3.1.0,60.20161520618148,
496,_5,M,315,L,N,496_5M315LN,HLN,0,104,104,191,,,1.351,1283.9819410000055,1284.2710883999825,1284.2710883999825,1284.568638800003,1284.5851295999892,None,down,2.550368800002616,1284.5851295999892,None,1284.5851295999892,1285.9184433000046,0.1132608000189066,None,,,,,,,,,5,001,2019_Dec_23_1026,untitled,3.1.0,60.20161520618148,
432,_4,M,315,L,N,432_4M315LN,HLN,0,105,105,175,,,0.805,1287.2577085999947,1287.5497432999837,1287.5664180000022,1287.8501840999816,1287.8669278000016,None,down,2.731913199997507,1287.8669278000016,None,1287.8669278000016,1288.6656356999883,0.11046160000842065,None,,,,,,,,,5,001,2019_Dec_23_1026,untitled,3.1.0,60.20161520618148,
_,_4,M,225,_,_,__4M225__,N,0,106,106,37,,,1.0070000000000001,1290.709941899986,1290.998494600004,1291.0307512999862,1291.3146943000029,1291.3303695999784,None,up,2.1515781999914907,1291.3303695999784,None,1291.3303695999784,1292.3294382999884,0.09982020000461489,None,,,,,,,,,5,001,2019_Dec_23_1026,untitled,3.1.0,60.20161520618148,
301,_2,M,180,L,N,301_2M180LN,HLN,0,107,107,156,,,1.229,1293.6130784999987,1293.911047200003,1293.911047200003,1294.1948057999834,1294.2113202000037,None,up,2.500650100002531,1294.2113202000037,None,1294.2113202000037,1295.4267515999964,0.11883140000281855,None,,,,,,,,,5,001,2019_Dec_23_1026,untitled,3.1.0,60.20161520618148,
268,_2,M,135,R,N,268_2M135RN,HRN,0,108,108,147,,,1.224,1296.8330227999832,1297.1244910999958,1297.1416172999889,1297.4249833999784,1297.441735100001,None,down,2.9660548999963794,1297.441735100001,None,1297.441735100001,1298.6572814999963,0.10798030000296421,None,,,,,,,,,5,001,2019_Dec_23_1026,untitled,3.1.0,60.20161520618148,
494,_5,M,225,L,N,494_5M225LN,HLN,0,109,109,189,,,0.897,1300.547206599993,1300.8380420999893,1300.8380420999893,1301.1215722999768,1301.138632599992,None,down,2.533683599991491,1301.138632599992,None,1301.138632599992,1302.0212365000043,0.1276990000042133,None,,,,,,,,,5,001,2019_Dec_23_1026,untitled,3.1.0,60.20161520618148,
143,F,M,270,R,N,143FM270RN,HRN,0,110,110,118,,,1.216,1303.8092344999895,1304.1017216999899,1304.1017216999899,1304.3873310000054,1304.402585599979,None,down,2.115562199993292,1304.402585599979,None,1304.402585599979,1305.6014622999937,0.12514260000898503,None,,,,,,,,,5,001,2019_Dec_23_1026,untitled,3.1.0,60.20161520618148,
_,_5,M,270,_,_,__5M270__,N,0,111,111,46,,,1.08,1306.7389969999786,1307.0330405999848,1307.0330405999848,1307.2326081999927,1307.2491047999938,None,down,2.0836201999918558,1307.2491047999938,None,1307.2491047999938,1308.3154409999843,0.21048740000696853,None,,,,,,,,,5,001,2019_Dec_23_1026,untitled,3.1.0,60.20161520618148,
203,G,M,90,R,N,203GM090RN,HRN,0,112,112,130,,,1.048,1309.5475523999776,1309.8469912,1309.8469912,1310.0473273999814,1310.0642268999945,None,down,3.2008447000116576,1310.0642268999945,None,1310.0642268999945,1311.0964402999962,0.2015689999971073,None,,,,,,,,,5,001,2019_Dec_23_1026,untitled,3.1.0,60.20161520618148,
195,G,N,90,R,N,195GN090RN,HRN,0,113,113,226,,,1.037,1313.3837620999839,1313.6769188999897,1313.6933238999918,1313.977136100002,1313.9935652999848,None,up,2.416037299990421,1313.9935652999848,None,1313.9935652999848,1315.0255033999856,0.10823350001010112,None,,,,,,,,,5,001,2019_Dec_23_1026,untitled,3.1.0,60.20161520618148,
422,_4,N,225,L,N,422_4N225LN,HLN,0,114,114,269,,,1.2570000000000001,1316.5490240999789,1316.841163199977,1316.841163199977,1317.124662199989,1317.1412986999785,None,up,2.316985100012971,1317.1412986999785,None,1317.1412986999785,1318.3905591999937,0.12809109999216162,None,,,,,,,,,5,001,2019_Dec_23_1026,untitled,3.1.0,60.20161520618148,
233,G,M,0,L,N,233GM000LN,HLN,0,115,115,136,,,0.91,1319.6798832999775,1319.9714441999968,1319.9714441999968,1320.1716508999816,1320.1889198999852,None,down,2.8485185999888927,1320.1889198999852,None,1320.1889198999852,1321.0877714999951,0.20997889997670427,None,,,,,,,,,5,001,2019_Dec_23_1026,untitled,3.1.0,60.20161520618148,
144,F,M,315,R,N,144FM315RN,HRN,0,116,116,119,,,1.0210000000000001,1323.162985699979,1323.4520303999889,1323.4520303999889,1323.7520171999931,1323.7686206999933,None,down,2.2518183999927714,1323.7686206999933,None,1323.7686206999933,1324.7844978999929,0.11361579998629168,None,,,,,,,,,5,001,2019_Dec_23_1026,untitled,3.1.0,60.20161520618148,
_,_2,N,180,_,_,__2N180__,N,0,117,117,76,,,0.765,1326.1899087000056,1326.4830848999845,1326.4830848999845,1326.7329251999909,1326.7496110999782,None,up,1.6689970000006724,1326.7496110999782,None,1326.7496110999782,1327.4990175999992,0.15850520000094548,None,,,,,,,,,5,001,2019_Dec_23_1026,untitled,3.1.0,60.20161520618148,
139,F,M,90,R,N,139FM090RN,HRN,0,118,118,114,,,0.912,1328.537611799984,1328.830334600003,1328.847527899983,1329.130594599992,1329.1474449999805,None,down,1.784368299995549,1329.1474449999805,None,1329.1474449999805,1330.0475628999993,0.10798840000643395,None,,,,,,,,,5,001,2019_Dec_23_1026,untitled,3.1.0,60.20161520618148,
228,G,N,135,L,N,228GN135LN,HLN,0,119,119,235,,,1.201,1331.0340901000018,1331.3451064999972,1331.3614069999894,1331.6454007999855,1331.6619062999962,None,up,2.3684403999941424,1331.6619062999962,None,1331.6619062999962,1332.8440642999776,0.0932293999940157,None,,,,,,,,,5,001,2019_Dec_23_1026,untitled,3.1.0,60.20161520618148,
_,_2,N,135,_,_,__2N135__,N,0,120,120,75,,,0.882,1334.1454613999813,1334.4419710999937,1334.458460199996,1334.7427017999871,1334.7590350999963,None,up,2.199517500004731,1334.7590350999963,None,1334.7590350999963,1335.6249032999913,0.1028468000004068,None,,,,,,,,,5,001,2019_Dec_23_1026,untitled,3.1.0,60.20161520618148,
005,R,N,180,R,N,005RN180RN,HRN,0,121,121,196,,,1.079,1337.0853247999912,1337.3753462999885,1337.3753462999885,1337.673590499995,1337.6947638999845,None,up,1.8995691999734845,1337.6947638999845,None,1337.6947638999845,1338.7554110999918,0.11526140000205487,None,,,,,,,,,5,001,2019_Dec_23_1026,untitled,3.1.0,60.20161520618148,
458,_5,M,45,R,N,458_5M045RN,HRN,0,122,122,177,,,1.1360000000000001,1339.7218109999958,1340.0206795999839,1340.0206795999839,1340.3037156999926,1340.3209592999774,None,up,1.8496873999829404,1340.3209592999774,None,1340.3209592999774,1341.4578260999988,0.11502759999711998,None,,,,,,,,,5,001,2019_Dec_23_1026,untitled,3.1.0,60.20161520618148,
388,_4,N,135,R,N,388_4N135RN,HRN,0,123,123,259,,,0.85,1342.3018534999865,1342.6022841999948,1342.6022841999948,1342.8857126999937,1342.9021315999853,None,up,1.5999716999940574,1342.9021315999853,None,1342.9021315999853,1343.7346236000012,0.11943910000263713,None,,,,,,,,,5,001,2019_Dec_23_1026,untitled,3.1.0,60.20161520618148,
_,_4,N,225,_,_,__4N225__,N,0,124,124,85,,,1.025,1344.5993039000023,1344.916262499988,1344.9328587999917,1345.2166713000042,1345.233335500001,None,up,1.7378263999999035,1345.233335500001,None,1345.233335500001,1346.2493443999847,0.0857724999950733,None,,,,,,,,,5,001,2019_Dec_23_1026,untitled,3.1.0,60.20161520618148,
486,_5,N,225,L,N,486_5N225LN,HLN,0,125,125,285,,,1.399,1347.1026036999829,1347.3974591000006,1347.3974591000006,1347.6810550999944,1347.6979231000005,None,up,1.9687524999899324,1347.6979231000005,None,1347.6979231000005,1349.0800922999915,0.12030130001949146,None,,,,,,,,,5,001,2019_Dec_23_1026,untitled,3.1.0,60.20161520618148,
_,_5,N,90,_,_,__5N090__,N,0,126,126,90,,,1.2790000000000001,1349.7801899999904,1350.078424599982,1350.095144299994,1350.3786775000044,1350.3956751999795,None,up,1.931894800014561,1350.3956751999795,None,1350.3956751999795,1351.661243999988,0.1017308000009507,None,,,,,,,,,5,001,2019_Dec_23_1026,untitled,3.1.0,60.20161520618148,
175,F,M,270,L,N,175FM270LN,HLN,0,127,127,126,,,1.256,1352.4439664999954,1352.7430156999908,1352.7593589999888,1353.0431737999897,1353.0595342000015,None,down,1.985756100009894,1353.0595342000015,None,1353.0595342000015,1354.2925835999777,0.106581499974709,None,,,,,,,,,5,001,2019_Dec_23_1026,untitled,3.1.0,60.20161520618148,
138,F,M,45,R,N,138FM045RN,HRN,0,128,128,113,,,1.254,1355.1714076999924,1355.473730800004,1355.473730800004,1355.7574828999932,1355.7763320999802,None,down,2.298568600002909,1355.7763320999802,None,1355.7763320999802,1357.0240909999993,0.11546949998592027,None,,,,,,,,,5,001,2019_Dec_23_1026,untitled,3.1.0,60.20161520618148,
207,G,M,270,R,N,207GM270RN,HRN,0,129,129,134,,,0.8230000000000001,1358.2048916999775,1358.5049047999782,1358.5049047999782,1358.7879797999922,1358.8048356999934,None,down,2.4159523000125773,1358.8048356999934,None,1358.8048356999934,1359.620073099999,0.1171621999819763,None,,,,,,,,,5,001,2019_Dec_23_1026,untitled,3.1.0,60.20161520618148,
_,F,M,45,_,_,_FM045__,N,0,130,130,1,,,0.743,1361.373808799981,1361.6683817000012,1361.6683817000012,1361.9352042999817,1361.952717499982,None,down,1.6706525999761652,1361.952717499982,None,1361.952717499982,1362.6849099999818,0.1420665000041481,None,,,,,,,,,5,001,2019_Dec_23_1026,untitled,3.1.0,60.20161520618148,
_,_4,N,0,_,_,__4N000__,N,0,131,131,80,,,1.006,1363.7670154999942,1364.066481499991,1364.066481499991,1364.3331912999856,1364.3501183000044,None,up,1.6999261000019033,1364.3501183000044,None,1364.3501183000044,1365.3493825999903,0.1331118000089191,None,,,,,,,,,5,001,2019_Dec_23_1026,untitled,3.1.0,60.20161520618148,
_,_5,N,135,_,_,__5N135__,N,0,132,132,91,,,1.245,1366.165077499987,1366.464784699987,1366.4805044999812,1366.7649612999812,1366.7813097999897,None,down,2.1681037999805994,1366.7813097999897,None,1366.7813097999897,1368.0138073999842,0.10277110000606626,None,,,,,,,,,5,001,2019_Dec_23_1026,untitled,3.1.0,60.20161520618148,
237,G,M,180,L,N,237GM180LN,HLN,0,133,133,140,,,1.101,1369.0670223999768,1369.3617258000013,1369.3785364999785,1369.6620550999942,1369.6787753999815,None,down,2.5329433000006247,1369.6787753999815,None,1369.6787753999815,1370.7625895999954,0.10710669998661615,None,,,,,,,,,5,001,2019_Dec_23_1026,untitled,3.1.0,60.20161520618148,
142,F,M,225,R,N,142FM225RN,HRN,0,134,134,117,,,0.8140000000000001,1372.282096799987,1372.6257271999784,1372.6422261999978,1372.9255707999982,1372.942257799994,None,down,1.4493127999885473,1372.942257799994,None,1372.942257799994,1373.7420461000002,0.06350690001272596,None,,,,,,,,,5,001,2019_Dec_23_1026,untitled,3.1.0,60.20161520618148,
_,R,N,90,_,_,_RN090__,N,0,135,135,66,,,1.303,1374.5105348999787,1374.8079486999777,1374.8238311999885,1375.107566999999,1375.1240653999848,None,up,2.2175534000271,1375.1240653999848,None,1375.1240653999848,1376.4061619999993,0.11111410000012256,None,,,,,,,,,5,001,2019_Dec_23_1026,untitled,3.1.0,60.20161520618148,
420,_4,N,135,L,N,420_4N135LN,HLN,0,136,136,267,,,0.868,1377.4658728999784,1377.7547335999843,1377.7547335999843,1378.0544156999968,1378.0706750999962,None,up,1.6173898999986704,1378.0706750999962,None,1378.0706750999962,1378.921028599987,0.1122087000112515,None,,,,,,,,,5,001,2019_Dec_23_1026,untitled,3.1.0,60.20161520618148,
137,F,M,0,R,N,137FM000RN,HRN,0,137,137,112,,,0.7030000000000001,1379.8066674000002,1380.1023336999933,1380.1190673999954,1380.401909599983,1380.4186127999856,None,down,1.802611400024034,1380.4186127999856,None,1380.4186127999856,1381.1020976,0.10705849999794737,None,,,,,,,,,5,001,2019_Dec_23_1026,untitled,3.1.0,60.20161520618148,
_,_5,N,0,_,_,__5N000__,N,0,138,138,88,,,0.975,1382.350936599978,1382.6498506999924,1382.6498506999924,1382.9335898999998,1382.9507077999879,None,up,1.6846171999932267,1382.9507077999879,None,1382.9507077999879,1383.9163168999949,0.1179009000188671,None,,,,,,,,,5,001,2019_Dec_23_1026,untitled,3.1.0,60.20161520618148,
168,F,N,315,L,N,168FN315LN,HLN,0,139,139,223,,,0.871,1384.8695622999803,1385.165242499992,1385.165242499992,1385.3486162000045,1385.3651321999787,None,up,1.7668509999930393,1385.3651321999787,None,1385.3651321999787,1386.2299164999858,0.22217220001039095,None,,,,,,,,,5,001,2019_Dec_23_1026,untitled,3.1.0,60.20161520618148,
046,R,M,225,L,N,046RM225LN,HLN,0,140,140,109,,,1.395,1387.4033674999955,1387.6957563000033,1387.6957563000033,1387.8460728999926,1387.8628431999823,None,None,,1387.8628431999823,None,1387.8628431999823,1389.2449900999782,0.2565314999956172,None,,,,,,,,,5,001,2019_Dec_23_1026,untitled,3.1.0,60.20161520618148,
163,F,N,90,L,N,163FN090LN,HLN,0,141,141,218,,,0.751,1391.4743653000041,1391.7604365999869,1391.7604365999869,1392.0430574999773,1392.0595465999795,1391.4743653000041,up,1.582432900002459,1392.0595465999795,None,1392.0595465999795,1392.7928306999966,0.13331830000970513,None,,,,,,,,,5,001,2019_Dec_23_1026,untitled,3.1.0,60.20161520618148,
293,_2,N,180,L,N,293_2N180LN,HLN,0,142,142,252,,,0.93,1393.8107605999976,1394.1068375000032,1394.1068375000032,1394.3592433999875,1394.3741849999933,None,up,1.5996400000003632,1394.3741849999933,None,1394.3741849999933,1395.2898391000053,0.1603608000150416,None,,,,,,,,,5,001,2019_Dec_23_1026,untitled,3.1.0,60.20161520618148,
_,_5,N,225,_,_,__5N225__,N,0,143,143,93,,,1.0110000000000001,1396.0951671999937,1396.38798889998,1396.4050127999799,1396.6883381999796,1396.7067752000003,None,up,1.7648523999960162,1396.7067752000003,None,1396.7067752000003,1397.7045003999956,0.11052550000022165,None,,,,,,,,,5,001,2019_Dec_23_1026,untitled,3.1.0,60.20161520618148,
047,R,M,270,L,N,047RM270LN,HLN,0,144,144,110,,,1.34,1398.5879945000052,1398.8858471999993,1398.9033204999869,1399.1865050999913,1399.2036739999894,None,down,2.117283999978099,1399.2036739999894,None,1399.2036739999894,1400.5362055999867,0.10399979999056086,None,,,,,,,,,5,001,2019_Dec_23_1026,untitled,3.1.0,60.20161520618148,
230,G,N,225,L,N,230GN225LN,HLN,0,145,145,237,,,1.075,1401.5520270999987,1401.8502466999926,1401.8502466999926,1402.0340678999783,1402.050522399979,None,up,1.749863800010644,1402.050522399979,None,1402.050522399979,1403.1160569999774,0.2189125000149943,None,,,,,,,,,5,001,2019_Dec_23_1026,untitled,3.1.0,60.20161520618148,
_,G,N,270,_,_,_GN270__,N,0,146,146,62,,,1.31,1404.0174549999938,1404.3147232999909,1404.3147232999909,1404.5159244999813,1404.53102699999,None,up,1.8993011999991722,1404.53102699999,None,1404.53102699999,1405.830336599989,0.20415579999098554,None,,,,,,,,,5,001,2019_Dec_23_1026,untitled,3.1.0,60.20161520618148,
289,_2,N,0,L,N,289_2N000LN,HLN,0,147,147,248,,,1.194,1406.6805753999797,1406.9789467999944,1406.9789467999944,1407.1460726999794,1407.1627540999907,None,up,2.399139000015566,1407.1627540999907,None,1407.1627540999907,1408.3450615000038,0.24217610000050627,None,,,,,,,,,5,001,2019_Dec_23_1026,untitled,3.1.0,60.20161520618148,
_,F,N,135,_,_,_FN135__,N,0,148,148,51,,,1.357,1409.7765923999832,1410.0762383999827,1410.0762383999827,1410.2766802999831,1410.2939165999996,None,up,2.1181294999842066,1410.2939165999996,None,1410.2939165999996,1411.6421193999995,0.20234640000853688,None,,,,,,,,,5,001,2019_Dec_23_1026,untitled,3.1.0,60.20161520618148,
234,G,M,45,L,N,234GM045LN,HLN,0,149,149,137,,,1.056,1412.5717330999905,1412.859394500003,1412.859394500003,1413.1244700999814,1413.1409698999778,None,down,2.798722400009865,1413.1409698999778,None,1413.1409698999778,1414.189779999986,0.1475847999972757,None,,,,,,,,,5,001,2019_Dec_23_1026,untitled,3.1.0,60.20161520618148,
039,R,N,270,L,N,039RN270LN,HLN,0,150,150,206,,,0.888,1416.1592179999861,1416.4540606999944,1416.4540606999944,1416.6543075999944,1416.6708572999923,None,up,1.4986714999831747,1416.6708572999923,None,1416.6708572999923,1417.5367572999967,0.20832499998505227,None,,,,,,,,,5,001,2019_Dec_23_1026,untitled,3.1.0,60.20161520618148,
262,_2,N,225,R,N,262_2N225RN,HRN,0,151,151,245,,,1.0030000000000001,1418.252609999996,1418.5858881000022,1418.6027613999904,1418.8880979999958,1418.8880979999958,None,up,1.6306522999948356,1418.8880979999958,None,1418.8880979999958,1419.8874920999806,0.07504130000597797,None,,,,,,,,,5,001,2019_Dec_23_1026,untitled,3.1.0,60.20161520618148,
_,G,N,135,_,_,_GN135__,N,0,152,152,59,,,1.096,1420.724672899989,1421.016751499992,1421.016751499992,1421.2340490999923,1421.2524404999858,None,up,2.218911800009664,1421.2524404999858,None,1421.2524404999858,1422.3332341999921,0.1938054999918677,None,,,,,,,,,5,001,2019_Dec_23_1026,untitled,3.1.0,60.20161520618148,
043,R,M,90,L,N,043RM090LN,HLN,0,153,153,106,,,1.027,1423.6008863000025,1423.8975812999997,1423.8975812999997,1424.1806820999773,1424.1971301999874,None,down,1.8684293999976944,1424.1971301999874,None,1424.1971301999874,1425.2128439999942,0.11871410001185723,None,,,,,,,,,5,001,2019_Dec_23_1026,untitled,3.1.0,60.20161520618148,
166,F,N,225,L,N,166FN225LN,HLN,0,154,154,221,,,0.988,1426.18634439999,1426.4787951000035,1426.495645499992,1426.7789315999835,1426.7961498999794,None,up,1.5496552000113297,1426.7961498999794,None,1426.7961498999794,1427.7780585,0.10951770000974648,None,,,,,,,,,5,001,2019_Dec_23_1026,untitled,3.1.0,60.20161520618148,
_,R,N,180,_,_,_RN180__,N,0,155,155,68,,,1.027,1428.4645619999792,1428.7599181999976,1428.7765934999916,1429.0610441000026,1429.0769990999834,None,up,1.8328061000211164,1429.0769990999834,None,1429.0769990999834,1430.0931531999959,0.10744399999384768,None,,,,,,,,,5,001,2019_Dec_23_1026,untitled,3.1.0,60.20161520618148,
131,F,N,90,R,N,131FN090RN,HRN,0,156,156,210,,,1.186,1431.008146499982,1431.3240185999894,1431.3409935999953,1431.6246431999898,1431.6416427999793,None,up,1.7155583999992814,1431.6416427999793,None,1431.6416427999793,1432.8062008999987,0.08871320000616834,None,,,,,,,,,5,001,2019_Dec_23_1026,untitled,3.1.0,60.20161520618148,
452,_5,N,135,R,N,452_5N135RN,HRN,0,157,157,275,,,0.707,1433.4324235999957,1433.7723164999916,1433.7892578000028,1434.0729326999863,1434.091381199978,None,up,1.3979420999821741,1434.091381199978,None,1434.091381199978,1434.7719108999881,0.06776759997592308,None,,,,,,,,,5,001,2019_Dec_23_1026,untitled,3.1.0,60.20161520618148,
292,_2,N,135,L,N,292_2N135LN,HLN,0,158,158,251,,,1.344,1435.629150599998,1435.9201674999786,1435.9201674999786,1436.2037451999786,1436.219901799981,None,up,2.254038599989144,1436.219901799981,None,1436.219901799981,1437.5532890000031,0.12715290000778623,None,,,,,,,,,5,001,2019_Dec_23_1026,untitled,3.1.0,60.20161520618148,
295,_2,N,270,L,N,295_2N270LN,HLN,0,159,159,254,,,0.706,1438.6012741999875,1438.9015260000015,1438.9015260000015,1439.1841640999774,1439.200762499997,None,up,1.671703100000741,1439.200762499997,None,1439.200762499997,1439.9012698000006,0.11652219999814406,None,,,,,,,,,5,001,2019_Dec_23_1026,untitled,3.1.0,60.20161520618148,
386,_4,N,45,R,N,386_4N045RN,HRN,0,160,160,257,,,0.983,1441.0013848999806,1441.2989438999793,1441.2989438999793,1441.5986082000018,1441.5986082000018,None,up,1.6030414999986533,1441.5986082000018,None,1441.5986082000018,1442.5809430999798,0.1176465000025928,None,,,,,,,,,5,001,2019_Dec_23_1026,untitled,3.1.0,60.20161520618148,
296,_2,N,315,L,N,296_2N315LN,HLN,0,161,161,255,,,1.054,1443.3189548999944,1443.6135025999974,1443.6301980999997,1443.9139411999786,1443.9307345999987,None,up,1.8995559999893885,1443.9307345999987,None,1443.9307345999987,1444.9800864999997,0.10505250000278465,None,,,,,,,,,5,001,2019_Dec_23_1026,untitled,3.1.0,60.20161520618148,
_,_2,M,90,_,_,__2M090__,N,0,162,162,26,,,1.181,1445.9540072999953,1446.2448945999786,1446.2448945999786,1446.545759600005,1446.5618987999915,None,down,2.3325515000033192,1446.5618987999915,None,1446.5618987999915,1447.7276643999794,0.11239080000086688,None,,,,,,,,,5,001,2019_Dec_23_1026,untitled,3.1.0,60.20161520618148,
_,_2,M,180,_,_,__2M180__,N,0,163,163,28,,,0.9520000000000001,1449.0264901999908,1449.3253388000012,1449.3253388000012,1449.609464499983,1449.6257362999895,None,down,3.0150907000061125,1449.6257362999895,None,1449.6257362999895,1450.5583424999786,0.12033239999436773,None,,,,,,,,,5,001,2019_Dec_23_1026,untitled,3.1.0,60.20161520618148,
161,F,N,0,L,N,161FN000LN,HLN,0,164,164,216,,,0.708,1452.7647558999888,1453.0560435999942,1453.0560435999942,1453.3558364999772,1453.3725203999784,None,up,1.7847900000051595,1453.3725203999784,None,1453.3725203999784,1454.0718979999947,0.11163269999087788,None,,,,,,,,,5,001,2019_Dec_23_1026,untitled,3.1.0,60.20161520618148,
232,G,N,315,L,N,232GN315LN,HLN,0,165,165,239,,,0.878,1455.283903499978,1455.5867648999847,1455.5867648999847,1455.8705735999974,1455.887982699991,None,up,1.9157330000016373,1455.887982699991,None,1455.887982699991,1456.7528510999982,0.11551280002458952,None,,,,,,,,,5,001,2019_Dec_23_1026,untitled,3.1.0,60.20161520618148,
_,F,N,90,_,_,_FN090__,N,0,166,166,50,,,1.137,1457.9486641999974,1458.2510306999902,1458.2510306999902,1458.5190000000002,1458.5346852999937,None,up,1.7665868000185583,1458.5346852999937,None,1458.5346852999937,1459.666950999992,0.13115989998914301,None,,,,,,,,,5,001,2019_Dec_23_1026,untitled,3.1.0,60.20161520618148,
_,R,M,315,_,_,_RM315__,N,0,167,167,23,,,1.2630000000000001,1460.5282488999947,1460.8173700000043,1460.8173700000043,1461.017311100004,1461.0326524999982,None,down,2.0013889000110794,1461.0326524999982,None,1461.0326524999982,1462.28185509998,0.214103599981172,None,,,,,,,,,5,001,2019_Dec_23_1026,untitled,3.1.0,60.20161520618148,
_,_4,N,45,_,_,__4N045__,N,0,168,168,81,,,0.77,1463.1479049999907,1463.4465721999877,1463.463111399993,1463.7468459999945,1463.7634196,None,up,1.4205455999763217,1463.7634196,None,1463.7634196,1464.5128418999957,0.10295010000118054,None,,,,,,,,,5,001,2019_Dec_23_1026,untitled,3.1.0,60.20161520618148,
_,R,M,180,_,_,_RM180__,N,0,169,169,20,,,1.185,1465.3994596999837,1465.694469399983,1465.694469399983,1465.8950460999913,1465.911707799998,None,up,3.115065800026059,1465.911707799998,None,1465.911707799998,1467.0772148999968,0.20291130000259727,None,,,,,,,,,5,001,2019_Dec_23_1026,untitled,3.1.0,60.20161520618148,
_,G,N,315,_,_,_GN315__,N,0,170,170,63,,,0.859,1469.1645232999872,1469.4578944999957,1469.4578944999957,1469.7416322999925,1469.7583683999837,None,up,2.0676903999992646,1469.7583683999837,None,1469.7583683999837,1470.6096389000013,0.1297082999954,None,,,,,,,,,5,001,2019_Dec_23_1026,untitled,3.1.0,60.20161520618148,
492,_5,M,135,L,N,492_5M135LN,HLN,0,171,171,187,,,1.0070000000000001,1471.9596922000055,1472.2555798999965,1472.2555798999965,1472.5382250999974,1472.5549027999805,None,down,1.8666832999733742,1472.5549027999805,None,1472.5549027999805,1473.5548717999773,0.1219915000256151,None,,,,,,,,,5,001,2019_Dec_23_1026,untitled,3.1.0,60.20161520618148,
_,_2,N,270,_,_,__2N270__,N,0,172,172,78,,,0.9,1474.5179672999948,1474.8364115000004,1474.8530502999783,1475.1361140999943,1475.1529821000004,None,up,2.0666687000193633,1475.1529821000004,None,1475.1529821000004,1476.036221199989,0.08780459998524748,None,,,,,,,,,5,001,2019_Dec_23_1026,untitled,3.1.0,60.20161520618148,
259,_2,N,90,R,N,259_2N090RN,HRN,0,173,173,242,,,1.006,1477.4072913999844,1477.7005251999944,1477.7005251999944,1477.9346167999902,1477.9522298999946,None,up,1.766466600005515,1477.9522298999946,None,1477.9522298999946,1478.9501936000015,0.17486870000720955,None,,,,,,,,,5,001,2019_Dec_23_1026,untitled,3.1.0,60.20161520618148,
008,R,N,315,R,N,008RN315RN,HRN,0,174,174,199,,,0.782,1479.814576899982,1480.132188299991,1480.1486103999778,1480.4321716999984,1480.4489674999786,None,up,1.6684451999899466,1480.4489674999786,None,1480.4489674999786,1481.2152260000003,0.08470289999968372,None,,,,,,,,,5,001,2019_Dec_23_1026,untitled,3.1.0,60.20161520618148,
485,_5,N,180,L,N,485_5N180LN,HLN,0,175,175,284,,,1.381,1482.337533199985,1482.6297508999996,1482.6297508999996,1482.8303665999847,1482.8467721999914,None,up,3.100053799978923,1482.8467721999914,None,1482.8467721999914,1484.212501300004,0.2090959000051953,None,,,,,,,,,5,001,2019_Dec_23_1026,untitled,3.1.0,60.20161520618148,
461,_5,M,180,R,N,461_5M180RN,HRN,0,176,176,180,,,1.309,1486.0666122999974,1486.3598611999769,1486.3763143999968,1486.6599079000007,1486.6768414999824,None,None,,1486.6768414999824,None,1486.6768414999824,1487.9756400999904,0.10878390001016669,None,,,,,,,,,5,001,2019_Dec_23_1026,untitled,3.1.0,60.20161520618148,
399,_4,M,270,R,N,399_4M270RN,HRN,0,177,177,166,,,0.791,1490.2615048000007,1490.5564003000036,1490.5727477000037,1490.856046300003,1490.8726714999939,1490.2615048000007,up,1.7010391000076197,1490.8726714999939,None,1490.8726714999939,1491.6559694999887,0.1109234000032302,None,,,,,,,,,5,001,2019_Dec_23_1026,untitled,3.1.0,60.20161520618148,
_,_5,M,225,_,_,__5M225__,N,0,178,178,45,,,0.925,1492.785640999995,1493.08714649998,1493.08714649998,1493.2876945000025,1493.3044141999853,None,None,,1493.3044141999853,None,1493.3044141999853,1494.220218100003,0.20255300001008436,None,,,,,,,,,5,001,2019_Dec_23_1026,untitled,3.1.0,60.20161520618148,
035,R,N,90,L,N,035RN090LN,HLN,0,179,179,202,,,1.2730000000000001,1496.972649000003,1497.2667662999884,1497.2667662999884,1497.4838847999927,1497.5007608000014,1496.972649000003,up,2.0326284999900963,1497.5007608000014,None,1497.5007608000014,1498.7500150999986,0.19430679999641143,None,,,,,,,,,5,001,2019_Dec_23_1026,untitled,3.1.0,60.20161520618148,
040,R,N,315,L,N,040RN315LN,HLN,0,180,180,207,,,1.203,1499.7664179999847,1500.065310999984,1500.065310999984,1500.2487553999817,1500.2651104999823,None,up,2.0644738000119105,1500.2651104999823,None,1500.2651104999823,1501.4474066999974,0.22084259998518974,None,,,,,,,,,5,001,2019_Dec_23_1026,untitled,3.1.0,60.20161520618148,
_,F,M,225,_,_,_FM225__,N,0,181,181,5,,,1.164,1502.495105799986,1502.7958017999772,1502.7958017999772,1503.0459590999817,1503.0628892999957,None,down,2.0662573000008706,1503.0628892999957,None,1503.0628892999957,1504.2116792000015,0.1570118999807164,None,,,,,,,,,5,001,2019_Dec_23_1026,untitled,3.1.0,60.20161520618148,
205,G,M,180,R,N,205GM180RN,HRN,0,182,182,132,,,1.0010000000000001,1505.259029399982,1505.5597968999937,1505.5597968999937,1505.8442076999927,1505.860318299994,None,down,2.498828300012974,1505.860318299994,None,1505.860318299994,1506.8416353999928,0.11879489998682402,None,,,,,,,,,5,001,2019_Dec_23_1026,untitled,3.1.0,60.20161520618148,
134,F,N,225,R,N,134FN225RN,HRN,0,183,183,213,,,0.833,1508.4847368999908,1508.7749513000017,1508.7749513000017,1509.0738092999964,1509.0905694999965,None,up,1.4849574000108987,1509.0905694999965,None,1509.0905694999965,1509.906382599991,0.11418019997654483,None,,,,,,,,,5,001,2019_Dec_23_1026,untitled,3.1.0,60.20161520618148,
037,R,N,180,L,N,037RN180LN,HLN,0,184,184,204,,,1.0,1510.6943859999883,1510.988338700001,1511.004909899988,1511.2888376000046,1511.3053762000054,None,up,1.8832166999927722,1511.3053762000054,None,1511.3053762000054,1512.2877434999973,0.107892100000754,None,,,,,,,,,5,001,2019_Dec_23_1026,untitled,3.1.0,60.20161520618148,
487,_5,N,270,L,N,487_5N270LN,HLN,0,185,185,286,,,1.2770000000000001,1513.3070854999823,1513.6024553999887,1513.6192261999822,1513.9025241000054,1513.9189577999932,None,up,1.8678016999911051,1513.9189577999932,None,1513.9189577999932,1515.185465699993,0.10720570001285523,None,,,,,,,,,5,001,2019_Dec_23_1026,untitled,3.1.0,60.20161520618148,
_,R,M,90,_,_,_RM090__,N,0,186,186,18,,,1.056,1515.9408167999936,1516.2346429000027,1516.2346429000027,1516.50053629998,1516.5183254999865,None,down,1.9025893000070937,1516.5183254999865,None,1516.5183254999865,1517.5671874999825,0.1404569000005722,None,,,,,,,,,5,001,2019_Dec_23_1026,untitled,3.1.0,60.20161520618148,
481,_5,N,0,L,N,481_5N000LN,HLN,0,187,187,280,,,1.2570000000000001,1518.643197700003,1518.9318537999934,1518.9318537999934,1519.1319173999946,1519.148167199979,None,up,1.8832141000020783,1519.148167199979,None,1519.148167199979,1520.397634699999,0.20845189999090508,None,,,,,,,,,5,001,2019_Dec_23_1026,untitled,3.1.0,60.20161520618148,
229,G,N,180,L,N,229GN180LN,HLN,0,188,188,236,,,0.872,1521.1621522999776,1521.462843299989,1521.462843299989,1521.7456564999884,1521.7627548000019,None,up,1.6515639999997802,1521.7627548000019,None,1521.7627548000019,1522.6296803999867,0.11897969999699853,None,,,,,,,,,5,001,2019_Dec_23_1026,untitled,3.1.0,60.20161520618148,
_,G,N,225,_,_,_GN225__,N,0,189,189,61,,,1.1320000000000001,1523.619920199999,1523.9102279999934,1523.9102279999934,1524.1275445999927,1524.1443138000031,None,up,1.7005998000095133,1524.1443138000031,None,1524.1443138000031,1525.2600029000023,0.19450240000151098,None,,,,,,,,,5,001,2019_Dec_23_1026,untitled,3.1.0,60.20161520618148,
_,_4,M,0,_,_,__4M000__,N,0,190,190,32,,,1.174,1525.966867399984,1526.2587818999891,1526.275115700002,1526.5587397000054,1526.5757297999808,None,down,2.700010900007328,1526.5757297999808,None,1526.5757297999808,1527.7413905999856,0.10984469999675639,None,,,,,,,,,5,001,2019_Dec_23_1026,untitled,3.1.0,60.20161520618148,
235,G,M,90,L,N,235GM090LN,HLN,0,191,191,138,,,1.226,1529.4898964999884,1529.789431399986,1529.789431399986,1529.9889053999796,1530.0056595999922,None,up,1.8348045999882743,1530.0056595999922,None,1530.0056595999922,1531.2213875000016,0.20280500000808388,None,,,,,,,,,5,001,2019_Dec_23_1026,untitled,3.1.0,60.20161520618148,
208,G,M,315,R,N,208GM315RN,HRN,0,192,192,135,,,1.209,1531.964088299981,1532.2533652999846,1532.2699731999892,1532.5531794999843,1532.5696299999836,None,down,2.631477100017946,1532.5696299999836,None,1532.5696299999836,1533.767813399987,0.1121106999926269,None,,,,,,,,,5,001,2019_Dec_23_1026,untitled,3.1.0,60.20161520618148,
_,F,N,315,_,_,_FN315__,N,0,193,193,55,,,1.1520000000000001,1535.3950823999767,1535.6845776999835,1535.6845776999835,1535.9165065999841,1535.9330349999946,None,up,1.7989969000045676,1535.9330349999946,None,1535.9330349999946,1537.0663594999933,0.18686109999543987,None,,,,,,,,,5,001,2019_Dec_23_1026,untitled,3.1.0,60.20161520618148,
038,R,N,225,L,N,038RN225LN,HLN,0,194,194,205,,,0.891,1537.9274682999821,1538.217512000003,1538.217512000003,1538.4476203999948,1538.4645382000017,None,up,1.6820764000003692,1538.4645382000017,None,1538.4645382000017,1539.3309029999946,0.18789810000453144,None,,,,,,,,,5,001,2019_Dec_23_1026,untitled,3.1.0,60.20161520618148,
_,F,M,0,_,_,_FM000__,N,0,195,195,0,,,1.218,1540.3343093000003,1540.6289604000049,1540.6289604000049,1540.862066200003,1540.878705399984,None,down,1.8993112999887671,1540.878705399984,None,1540.878705399984,1542.0775452999806,0.18115870002657175,None,,,,,,,,,5,001,2019_Dec_23_1026,untitled,3.1.0,60.20161520618148,
464,_5,M,315,R,N,464_5M315RN,HRN,0,196,196,183,,,0.733,1542.8885929999815,1543.176759199996,1543.2103304000048,1543.4931778000027,1543.5095887999923,None,down,1.6032485000032466,1543.5095887999923,None,1543.5095887999923,1544.226261999982,0.10048889997415245,None,,,,,,,,,5,001,2019_Dec_23_1026,untitled,3.1.0,60.20161520618148,
417,_4,N,0,L,N,417_4N000LN,HLN,0,197,197,264,,,1.243,1545.2319720999803,1545.5250823999813,1545.542783699988,1545.8247484999883,1545.8410756999801,None,up,2.001300900010392,1545.8410756999801,None,1545.8410756999801,1547.0742592999886,0.10544299997854978,None,,,,,,,,,5,001,2019_Dec_23_1026,untitled,3.1.0,60.20161520618148,
239,G,M,270,L,N,239GM270LN,HLN,0,198,198,142,,,0.973,1547.962563499983,1548.255917100003,1548.2726653999998,1548.556050299987,1548.573044699995,None,down,1.9677930000179913,1548.573044699995,None,1548.573044699995,1549.539157799998,0.10934930000803433,None,,,,,,,,,5,001,2019_Dec_23_1026,untitled,3.1.0,60.20161520618148,
041,R,M,0,L,N,041RM000LN,HLN,0,199,199,104,,,0.714,1550.6606133999885,1550.9539546000015,1550.9699651999981,1551.2538642,1551.2706576999917,None,down,1.6162924000236671,1551.2706576999917,None,1551.2706576999917,1551.9697673000046,0.10815590000129305,None,,,,,,,,,5,001,2019_Dec_23_1026,untitled,3.1.0,60.20161520618148,
261,_2,N,180,R,N,261_2N180RN,HRN,0,200,200,244,,,0.9450000000000001,1553.02024849999,1553.3181357999856,1553.3181357999856,1553.601486999978,1553.6178526000003,None,up,2.1500668000080623,1553.6178526000003,None,1553.6178526000003,1554.5499741999956,0.11997070000506938,None,,,,,,,,,5,001,2019_Dec_23_1026,untitled,3.1.0,60.20161520618148,
304,_2,M,315,L,N,304_2M315LN,HLN,0,201,201,159,,,0.734,1555.9642213000043,1556.2654592999897,1556.2654592999897,1556.4824254999985,1556.500209299993,None,down,2.516961799992714,1556.500209299993,None,1556.500209299993,1557.215402300004,0.18314709997503087,None,,,,,,,,,5,001,2019_Dec_23_1026,untitled,3.1.0,60.20161520618148,
_,_2,N,0,_,_,__2N000__,N,0,202,202,72,,,1.0150000000000001,1559.1406387999887,1559.4299277999962,1559.4299277999962,1559.730007199978,1559.7464751999942,None,up,1.9872993000026327,1559.7464751999942,None,1559.7464751999942,1560.7465976999956,0.11192520000622608,None,,,,,,,,,5,001,2019_Dec_23_1026,untitled,3.1.0,60.20161520618148,
_,R,M,225,_,_,_RM225__,N,0,203,203,21,,,1.291,1561.8475497000036,1562.1447467999824,1562.1604662000027,1562.4440873999847,1562.4606762999902,None,down,2.6011481000168715,1562.4606762999902,None,1562.4606762999902,1563.7433221999963,0.10131729999557137,None,,,,,,,,,5,001,2019_Dec_23_1026,untitled,3.1.0,60.20161520618148,
454,_5,N,225,R,N,454_5N225RN,HRN,0,204,204,277,,,0.974,1565.1770843999984,1565.4740779999993,1565.4907085000013,1565.7745271000022,1565.7915991999907,None,up,1.8330563000054099,1565.7915991999907,None,1565.7915991999907,1566.757377300004,0.10454790000221692,None,,,,,,,,,5,001,2019_Dec_23_1026,untitled,3.1.0,60.20161520618148,
_,F,N,0,_,_,_FN000__,N,0,205,205,48,,,0.891,1567.8405909999856,1568.1381539999857,1568.1381539999857,1568.3386751999788,1568.3550628999947,None,up,1.6871880000107922,1568.3550628999947,None,1568.3550628999947,1569.2375940999773,0.20417120002093725,None,,,,,,,,,5,001,2019_Dec_23_1026,untitled,3.1.0,60.20161520618148,
_,_4,N,180,_,_,__4N180__,N,0,206,206,84,,,0.804,1570.156713399978,1570.4537281999947,1570.4697449999803,1570.7536106999905,1570.7702257999917,None,up,2.050205500010634,1570.7702257999917,None,1570.7702257999917,1571.5695259999775,0.10292850001133047,None,,,,,,,,,5,001,2019_Dec_23_1026,untitled,3.1.0,60.20161520618148,
490,_5,M,45,L,N,490_5M045LN,HLN,0,207,207,185,,,1.325,1572.9440128999995,1573.2343106000044,1573.2343106000044,1573.5346181999776,1573.5510236999835,None,down,2.9007331999891903,1573.5510236999835,None,1573.5510236999835,1574.86682559998,0.11256409998168238,None,,,,,,,,,5,001,2019_Dec_23_1026,untitled,3.1.0,60.20161520618148,
129,F,N,0,R,N,129FN000RN,HRN,0,208,208,208,,,0.9400000000000001,1576.5754731000052,1576.8648136999982,1576.8648136999982,1577.1647076999943,1577.1817497999873,None,up,1.6341375000192784,1577.1817497999873,None,1577.1817497999873,1578.11403539998,0.11189239998930134,None,,,,,,,,,5,001,2019_Dec_23_1026,untitled,3.1.0,60.20161520618148,
170,F,M,45,L,N,170FM045LN,HLN,0,209,209,121,,,0.916,1578.9434389999951,1579.245665800001,1579.245665800001,1579.5292120999948,1579.5462370000023,None,down,1.951041799999075,1579.5462370000023,None,1579.5462370000023,1580.4451413999777,0.1159971000161022,None,,,,,,,,,5,001,2019_Dec_23_1026,untitled,3.1.0,60.20161520618148,
265,_2,M,0,R,N,265_2M000RN,HRN,0,210,210,144,,,1.35,1581.5993974999874,1581.91013199999,1581.9264212999842,1582.210000399995,1582.2271125999978,None,down,2.2334225999948103,1582.2271125999978,None,1582.2271125999978,1583.5594350000028,0.09257769997930154,None,,,,,,,,,5,001,2019_Dec_23_1026,untitled,3.1.0,60.20161520618148,
_,R,N,270,_,_,_RN270__,N,0,211,211,70,,,1.222,1584.5960969000007,1584.8903432999796,1584.8903432999796,1585.1906401999877,1585.1906401999877,None,up,1.9378188999835402,1585.1906401999877,None,1585.1906401999877,1586.406806599989,0.11611239999183454,None,,,,,,,,,5,001,2019_Dec_23_1026,untitled,3.1.0,60.20161520618148,
001,R,N,0,R,N,001RN000RN,HRN,0,212,212,192,,,0.9430000000000001,1587.281121099979,1587.5718944999971,1587.5718944999971,1587.8387957999948,1587.8554886000056,None,up,1.5996716000081506,1587.8554886000056,None,1587.8554886000056,1588.7878407999815,0.1402576000255067,None,,,,,,,,,5,001,2019_Dec_23_1026,untitled,3.1.0,60.20161520618148,
431,_4,M,270,L,N,431_4M270LN,HLN,0,213,213,174,,,0.769,1589.6567166000023,1589.9536869000003,1589.9536869000003,1590.1712045999884,1590.186683899985,None,down,2.1690870000165887,1590.186683899985,None,1590.186683899985,1590.9356819999812,0.18872840001131408,None,,,,,,,,,5,001,2019_Dec_23_1026,untitled,3.1.0,60.20161520618148,
_,F,M,180,_,_,_FM180__,N,0,214,214,4,,,0.8320000000000001,1592.5001270999783,1592.8004081999825,1592.8004081999825,1593.0674486999924,1593.0843548999983,None,up,1.6859191000112332,1593.0843548999983,None,1593.0843548999983,1593.901526599977,0.13115540001308545,None,,,,,,,,,5,001,2019_Dec_23_1026,untitled,3.1.0,60.20161520618148,
_,F,M,315,_,_,_FM315__,N,0,215,215,7,,,1.318,1594.9893750000047,1595.2815650999837,1595.2815650999837,1595.4980687999923,1595.4980687999923,None,down,2.235545900010038,1595.4980687999923,None,1595.4980687999923,1596.81665969998,0.20329840001068078,None,,,,,,,,,5,001,2019_Dec_23_1026,untitled,3.1.0,60.20161520618148,
294,_2,N,225,L,N,294_2N225LN,HLN,0,216,216,253,,,0.989,1597.8504604999907,1598.145442499983,1598.1622817000025,1598.4462675999966,1598.4624667000026,None,up,1.7523436999763362,1598.4624667000026,None,1598.4624667000026,1599.4452365000034,0.10519709999789484,None,,,,,,,,,5,001,2019_Dec_23_1026,untitled,3.1.0,60.20161520618148,
048,R,M,315,L,N,048RM315LN,HLN,0,217,217,111,,,1.369,1600.3350528999872,1600.6274910999928,1600.6437787000032,1600.9271506999794,1600.9439793000056,None,down,2.0308923999837134,1600.9439793000056,None,1600.9439793000056,1602.3091300999804,0.10897539998404682,None,,,,,,,,,5,001,2019_Dec_23_1026,untitled,3.1.0,60.20161520618148,
391,_4,N,270,R,N,391_4N270RN,HRN,0,218,218,262,,,0.907,1603.0478639999928,1603.3912273999886,1603.407801399997,1603.6916052000015,1603.7083509999793,None,up,1.6523111999849789,1603.7083509999793,None,1603.7083509999793,1604.590296499984,0.06586100001004525,None,,,,,,,,,5,001,2019_Dec_23_1026,untitled,3.1.0,60.20161520618148,
421,_4,N,180,L,N,421_4N180LN,HLN,0,219,219,268,,,0.9530000000000001,1605.4926518999855,1605.7894363999949,1605.7894363999949,1606.0723574000003,1606.0895029999956,None,down,2.6006360999890603,1606.0895029999956,None,1606.0895029999956,1607.0385792999878,0.12080289999721572,None,,,,,,,,,5,001,2019_Dec_23_1026,untitled,3.1.0,60.20161520618148,
133,F,N,180,R,N,133FN180RN,HRN,0,220,220,212,,,1.24,1608.8196464999928,1609.1196429999836,1609.1196429999836,1609.4032615000033,1609.4198787999921,None,up,2.268427100003464,1609.4198787999921,None,1609.4198787999921,1610.652111399977,0.11778210001648404,None,,,,,,,,,5,001,2019_Dec_23_1026,untitled,3.1.0,60.20161520618148,
173,F,M,180,L,N,173FM180LN,HLN,0,221,221,124,,,0.713,1611.804106399999,1612.0999292999913,1612.116761399986,1612.4004502999887,1612.4176242999965,None,down,1.631234600004973,1612.4176242999965,None,1612.4176242999965,1613.1164163999783,0.10515730001498014,None,,,,,,,,,5,001,2019_Dec_23_1026,untitled,3.1.0,60.20161520618148,
201,G,M,0,R,N,201GM000RN,HRN,0,222,222,128,,,0.971,1614.165868799988,1614.4650554999826,1614.482023199991,1614.7649856999924,1614.7820358999888,None,down,2.6348581000056583,1614.7820358999888,None,1614.7820358999888,1615.7309320999775,0.1087485000025481,None,,,,,,,,,5,001,2019_Dec_23_1026,untitled,3.1.0,60.20161520618148,
012,R,M,135,R,N,012RM135RN,HRN,0,223,223,99,,,0.806,1617.549436500005,1617.8451511999883,1617.8451511999883,1618.1289274999872,1618.1454941999982,None,down,1.982143699977314,1618.1454941999982,None,1618.1454941999982,1618.9447837999905,0.12152149999747053,None,,,,,,,,,5,001,2019_Dec_23_1026,untitled,3.1.0,60.20161520618148,
010,R,M,45,R,N,010RM045RN,HRN,0,224,224,97,,,1.096,1620.2542933999794,1620.5430387999804,1620.5430387999804,1620.8430742999772,1620.859920399991,None,down,1.6995101000065915,1620.859920399991,None,1620.859920399991,1621.9423110999924,0.11461220000637695,None,,,,,,,,,5,001,2019_Dec_23_1026,untitled,3.1.0,60.20161520618148,
_,_4,M,270,_,_,__4M270__,N,0,225,225,38,,,0.9480000000000001,1622.666840299993,1622.957310800004,1622.9909607000009,1623.2746022999927,1623.2909734999994,None,down,2.4001922000024933,1623.2909734999994,None,1623.2909734999994,1624.2235795999877,0.09961610002210364,None,,,,,,,,,5,001,2019_Dec_23_1026,untitled,3.1.0,60.20161520618148,
_,_2,M,45,_,_,__2M045__,N,0,226,226,25,,,1.283,1625.810063699988,1626.1047611999966,1626.1216080999875,1626.405098599993,1626.4217871,None,down,2.349052700010361,1626.4217871,None,1626.4217871,1627.6879511000006,0.10644709999905899,None,,,,,,,,,5,001,2019_Dec_23_1026,untitled,3.1.0,60.20161520618148,
_,R,N,225,_,_,_RN225__,N,0,227,227,69,,,1.1300000000000001,1628.891944699979,1629.1852648999775,1629.201837999979,1629.4857093000028,1629.5024911999935,None,up,1.9175630999961868,1629.5024911999935,None,1629.5024911999935,1630.6180585999973,0.11049130000174046,None,,,,,,,,,5,001,2019_Dec_23_1026,untitled,3.1.0,60.20161520618148,
_,_5,N,315,_,_,__5N315__,N,0,228,228,95,,,0.921,1631.535291999986,1631.8331145999837,1631.849766899977,1632.1335250999837,1632.1501513999829,None,up,1.949882399989292,1632.1501513999829,None,1632.1501513999829,1633.0662104999938,0.10476839999319054,None,,,,,,,,,5,001,2019_Dec_23_1026,untitled,3.1.0,60.20161520618148,
264,_2,N,315,R,N,264_2N315RN,HRN,0,229,229,247,,,1.32,1634.2308544999978,1634.5309777999937,1634.5309777999937,1634.8142533999926,1634.832718699996,None,down,2.150980900012655,1634.832718699996,None,1634.832718699996,1636.129918599996,0.11964540000190027,None,,,,,,,,,5,001,2019_Dec_23_1026,untitled,3.1.0,60.20161520618148,
172,F,M,135,L,N,172FM135LN,HLN,0,230,230,123,,,1.329,1637.1141726999776,1637.411566099996,1637.411566099996,1637.695193499996,1637.7119611999951,None,down,2.6656089999887627,1637.7119611999951,None,1637.7119611999951,1639.0265010999865,0.11974299998837523,None,,,,,,,,,5,001,2019_Dec_23_1026,untitled,3.1.0,60.20161520618148,
266,_2,M,45,R,N,266_2M045RN,HRN,0,231,231,145,,,1.172,1640.5032885999826,1640.7941087999789,1640.7941087999789,1641.092349899991,1641.1089804999938,None,down,2.083140500006266,1641.1089804999938,None,1641.1089804999938,1642.2747470999893,0.11448960000416264,None,,,,,,,,,5,001,2019_Dec_23_1026,untitled,3.1.0,60.20161520618148,
141,F,M,180,R,N,141FM180RN,HRN,0,232,232,116,,,0.724,1643.3020391000027,1643.6060248999856,1643.6225637999887,1643.906798299984,1643.9230246999941,None,down,1.9341439999989234,1643.9230246999941,None,1643.9230246999941,1644.6402086000016,0.09804489999078214,None,,,,,,,,,5,001,2019_Dec_23_1026,untitled,3.1.0,60.20161520618148,
202,G,M,45,R,N,202GM045RN,HRN,0,233,233,129,,,0.787,1646.0817911999766,1646.3707174999872,1646.3707174999872,1646.57105269999,1646.5876317999791,None,down,2.1828566000040155,1646.5876317999791,None,1646.5876317999791,1647.3538332000026,0.21225790001335554,None,,,,,,,,,5,001,2019_Dec_23_1026,untitled,3.1.0,60.20161520618148,
169,F,M,0,L,N,169FM000LN,HLN,0,234,234,120,,,1.311,1648.8991276999877,1649.1862929000054,1649.1862929000054,1649.4851923999959,1649.5017078999954,None,down,2.0000691000022925,1649.5017078999954,None,1649.5017078999954,1650.8004520999966,0.11704310000641271,None,,,,,,,,,5,001,2019_Dec_23_1026,untitled,3.1.0,60.20161520618148,
290,_2,N,45,L,N,290_2N045LN,HLN,0,235,235,249,,,1.1,1651.6330479999888,1651.932573099999,1651.932573099999,1652.216222499992,1652.2325262999802,None,up,1.8658840999996755,1652.2325262999802,None,1652.2325262999802,1653.3150281999842,0.11974919997737743,None,,,,,,,,,5,001,2019_Dec_23_1026,untitled,3.1.0,60.20161520618148,
226,G,N,45,L,N,226GN045LN,HLN,0,236,236,233,,,0.855,1654.2869982999982,1654.5803600999934,1654.5803600999934,1654.8138913000003,1654.8304541999823,None,up,1.584223200014094,1654.8304541999823,None,1654.8304541999823,1655.6632569999783,0.17925409998861142,None,,,,,,,,,5,001,2019_Dec_23_1026,untitled,3.1.0,60.20161520618148,
_,_5,M,0,_,_,__5M000__,N,0,237,237,40,,,1.12,1656.535639699985,1656.8286606000038,1656.8448324999772,1657.1282527000003,1657.145143599977,None,down,2.1350052000198048,1657.145143599977,None,1657.145143599977,1658.2606335000019,0.10982839998905547,None,,,,,,,,,5,001,2019_Dec_23_1026,untitled,3.1.0,60.20161520618148,
303,_2,M,270,L,N,303_2M270LN,HLN,0,238,238,158,,,1.194,1659.4039498999773,1659.6942923000024,1659.6942923000024,1659.9926737999776,1660.009319100005,None,down,3.3485879999934696,1660.009319100005,None,1660.009319100005,1661.1914288999978,0.11339720000978559,None,,,,,,,,,5,001,2019_Dec_23_1026,untitled,3.1.0,60.20161520618148,
174,F,M,225,L,N,174FM225LN,HLN,0,239,239,125,,,1.057,1663.505372899992,1663.8050819999771,1663.8050819999771,1664.0722366999835,1664.090449899988,None,down,2.331113299995195,1664.090449899988,None,1664.090449899988,1665.1381360999949,0.13790010000229813,None,,,,,,,,,5,001,2019_Dec_23_1026,untitled,3.1.0,60.20161520618148,
240,G,M,315,L,N,240GM315LN,HLN,0,240,240,143,,,1.347,1666.573456699989,1666.8691408000013,1666.8691408000013,1667.136417200003,1667.1527601999987,None,down,2.236222900013672,1667.1527601999987,None,1667.1527601999987,1668.4877663999796,0.1405637999996543,None,,,,,,,,,5,001,2019_Dec_23_1026,untitled,3.1.0,60.20161520618148,
238,G,M,225,L,N,238GM225LN,HLN,0,241,241,141,,,1.083,1669.5134490999917,1669.8020698000037,1669.8020698000037,1670.1004732000001,1670.1170226999966,None,down,2.1330812000087462,1670.1170226999966,None,1670.1170226999966,1671.1827248999907,0.11203899999964051,None,,,,,,,,,5,001,2019_Dec_23_1026,untitled,3.1.0,60.20161520618148,
449,_5,N,0,R,N,449_5N000RN,HRN,0,242,242,272,,,0.902,1672.3723571999872,1672.664586400002,1672.680834800005,1672.9667646999878,1672.9817577999784,None,up,1.651939199975459,1672.9817577999784,None,1672.9817577999784,1673.863714099978,0.11018839999451302,None,,,,,,,,,5,001,2019_Dec_23_1026,untitled,3.1.0,60.20161520618148,
176,F,M,315,L,N,176FM315LN,HLN,0,243,243,127,,,0.793,1674.7636978999944,1675.0630916999944,1675.0630916999944,1675.3460156999936,1675.3625003999914,None,down,2.2819052999839187,1675.3625003999914,None,1675.3625003999914,1676.1452926000056,0.1188652999990154,None,,,,,,,,,5,001,2019_Dec_23_1026,untitled,3.1.0,60.20161520618148,
003,R,N,90,R,N,003RN090RN,HRN,0,244,244,194,,,0.89,1677.7650700999948,1678.0601359999855,1678.0760523999925,1678.3610897999897,1678.3767016000056,None,down,1.4356251000135671,1678.3767016000056,None,1678.3767016000056,1679.2591290999844,0.1102254000143148,None,,,,,,,,,5,001,2019_Dec_23_1026,untitled,3.1.0,60.20161520618148,
044,R,M,135,L,N,044RM135LN,HLN,0,245,245,107,,,0.874,1679.9295669999847,1680.2242422999989,1680.2406964999973,1680.5246577999787,1680.5414979000052,None,up,1.599600499990629,1680.5414979000052,None,1680.5414979000052,1681.40747429998,0.10719889999018051,None,,,,,,,,,5,001,2019_Dec_23_1026,untitled,3.1.0,60.20161520618148,
272,_2,M,315,R,N,272_2M315RN,HRN,0,246,246,151,,,0.866,1682.2670448999852,1682.5563389000017,1682.5563389000017,1682.8556697999884,1682.8727380000055,None,down,1.8827452999830712,1682.8727380000055,None,1682.8727380000055,1683.7221431999933,0.11483479998423718,None,,,,,,,,,5,001,2019_Dec_23_1026,untitled,3.1.0,60.20161520618148,
291,_2,N,90,L,N,291_2N090LN,HLN,0,247,247,250,,,0.974,1684.8769088999834,1685.1699980999983,1685.1872212000017,1685.4700578000047,1685.4893195999903,None,up,1.965473899996141,1685.4893195999903,None,1685.4893195999903,1686.4527410999872,0.10863549998612143,None,,,,,,,,,5,001,2019_Dec_23_1026,untitled,3.1.0,60.20161520618148,
427,_4,M,90,L,N,427_4M090LN,HLN,0,248,248,170,,,1.074,1687.5737113999785,1687.8688871999911,1687.8841088000045,1688.1687287999957,1688.1845710999914,None,down,1.935670199978631,1688.1845710999914,None,1688.1845710999914,1689.2503517000005,0.10811649999232031,None,,,,,,,,,5,001,2019_Dec_23_1026,untitled,3.1.0,60.20161520618148,
167,F,N,270,L,N,167FN270LN,HLN,0,249,249,222,,,1.032,1690.3315326999873,1690.631611299992,1690.631611299992,1690.8320308999973,1690.84915189998,None,up,2.6347907000163104,1690.84915189998,None,1690.84915189998,1691.8647130999889,0.20069590001367033,None,,,,,,,,,5,001,2019_Dec_23_1026,untitled,3.1.0,60.20161520618148,
_,F,N,180,_,_,_FN180__,N,0,250,250,52,,,0.8140000000000001,1693.6958791999787,1693.9957430999784,1693.9957430999784,1694.1959850999992,1694.212705199985,None,up,2.3028216999955475,1694.212705199985,None,1694.212705199985,1695.011675799993,0.19990850001340732,None,,,,,,,,,5,001,2019_Dec_23_1026,untitled,3.1.0,60.20161520618148,
393,_4,M,0,R,N,393_4M000RN,HRN,0,251,251,160,,,0.785,1696.6616566999874,1696.9595722999948,1696.9595722999948,1697.2268765000044,1697.2433887999796,None,down,1.8500677999982145,1697.2433887999796,None,1697.2433887999796,1698.009502699977,0.13406270000268705,None,,,,,,,,,5,001,2019_Dec_23_1026,untitled,3.1.0,60.20161520618148,
299,_2,M,90,L,N,299_2M090LN,HLN,0,252,252,154,,,1.097,1699.2157751999912,1699.5101603999792,1699.523848199984,1699.8079749000026,1699.8247562999895,None,down,2.481881699990481,1699.8247562999895,None,1699.8247562999895,1700.9068334999902,0.11024489998817444,None,,,,,,,,,5,001,2019_Dec_23_1026,untitled,3.1.0,60.20161520618148,
_,R,N,45,_,_,_RN045__,N,0,253,253,65,,,1.2570000000000001,1702.4050059999863,1702.7212476999848,1702.738388800004,1703.0217270999856,1703.038335499994,None,up,1.9827794000157155,1703.038335499994,None,1703.038335499994,1704.2708115999994,0.09040889999596402,None,,,,,,,,,5,001,2019_Dec_23_1026,untitled,3.1.0,60.20161520618148,
_,G,M,135,_,_,_GM135__,N,0,254,254,11,,,0.897,1705.2418743000017,1705.535506699991,1705.535506699991,1705.7357016000024,1705.7524927999766,None,down,2.06697690000874,1705.7524927999766,None,1705.7524927999766,1706.6356025999994,0.20962549999239855,None,,,,,,,,,5,001,2019_Dec_23_1026,untitled,3.1.0,60.20161520618148,
197,G,N,180,R,N,197GN180RN,HRN,0,255,255,228,,,1.2630000000000001,1708.033108499978,1708.333363999991,1708.333363999991,1708.5335170000035,1708.5507421999937,None,up,2.665812499995809,1708.5507421999937,None,1708.5507421999937,1709.7990669999854,0.2005230999784544,None,,,,,,,,,5,001,2019_Dec_23_1026,untitled,3.1.0,60.20161520618148,
_,_2,M,270,_,_,__2M270__,N,0,256,256,30,,,1.354,1711.3353701999877,1711.6304321999778,1711.6469129000034,1711.9307474999805,1711.9473083000048,None,down,2.553174400003627,1711.9473083000048,None,1711.9473083000048,1713.278895800002,0.1080851000151597,None,,,,,,,,,5,001,2019_Dec_23_1026,untitled,3.1.0,60.20161520618148,
455,_5,N,270,R,N,455_5N270RN,HRN,0,257,257,278,,,1.07,1714.5969885999803,1714.9107813999872,1714.9272869999986,1715.2110191999818,1715.2277552000014,None,up,1.9485650000278838,1715.2277552000014,None,1715.2277552000014,1716.2936893999868,0.08714970000437461,None,,,,,,,,,5,001,2019_Dec_23_1026,untitled,3.1.0,60.20161520618148,
_,_4,N,90,_,_,__4N090__,N,0,258,258,82,,,1.1460000000000001,1717.2831035999989,1717.5923363000038,1717.6083755999862,1717.8918807999871,1717.9086873999913,None,up,1.8165736000228208,1717.9086873999913,None,1717.9086873999913,1719.041556799988,0.09704909997526556,None,,,,,,,,,5,001,2019_Dec_23_1026,untitled,3.1.0,60.20161520618148,
004,R,N,135,R,N,004RN135RN,HRN,0,259,259,195,,,1.305,1719.8501328999992,1720.1398988,1720.1398988,1720.4396235999884,1720.4566605,None,up,2.083491099998355,1720.4566605,None,1720.4566605,1721.7555438999843,0.11347529999329709,None,,,,,,,,,5,001,2019_Dec_23_1026,untitled,3.1.0,60.20161520618148,
_,R,M,135,_,_,_RM135__,N,0,260,260,19,,,1.122,1722.626241399994,1722.9535362999886,1722.9702857999946,1723.2539863999991,1723.2707098999817,None,up,1.6831449000164866,1723.2707098999817,None,1723.2707098999817,1724.3688693000004,0.07744299998739734,None,,,,,,,,,5,001,2019_Dec_23_1026,untitled,3.1.0,60.20161520618148,
_,G,N,90,_,_,_GN090__,N,0,261,261,58,,,1.211,1725.1026311999885,1725.4021240999864,1725.4021240999864,1725.6687359999924,1725.6860824000032,None,up,1.9355836000177078,1725.6860824000032,None,1725.6860824000032,1726.8841012000048,0.13700340001378208,None,,,,,,,,,5,001,2019_Dec_23_1026,untitled,3.1.0,60.20161520618148,
007,R,N,270,R,N,007RN270RN,HRN,0,262,262,198,,,1.329,1727.765742699994,1728.0658321999945,1728.0658321999945,1728.33317659999,1728.349575899978,None,up,1.9358486999990419,1728.349575899978,None,1728.349575899978,1729.6653471000027,0.13348449999466538,None,,,,,,,,,5,001,2019_Dec_23_1026,untitled,3.1.0,60.20161520618148,
425,_4,M,0,L,N,425_4M000LN,HLN,0,263,263,168,,,1.34,1730.39788829998,1730.6969408000004,1730.713735600002,1730.9970429999812,1731.0155856999918,None,up,2.830461599980481,1731.0155856999918,None,1731.0155856999918,1732.346168899996,0.10125100001459941,None,,,,,,,,,5,001,2019_Dec_23_1026,untitled,3.1.0,60.20161520618148,
_,R,M,45,_,_,_RM045__,N,0,264,264,17,,,1.361,1733.9647383999836,1734.2606467999867,1734.2769487999904,1734.5598432999977,1734.5772604999947,None,down,2.099645300011616,1734.5772604999947,None,1734.5772604999947,1735.9266069000005,0.10595100000500679,None,,,,,,,,,5,001,2019_Dec_23_1026,untitled,3.1.0,60.20161520618148,
398,_4,M,225,R,N,398_4M225RN,HRN,0,265,265,165,,,1.1380000000000001,1736.8043428999954,1737.0935313999944,1737.0935313999944,1737.3921843999997,1737.4083760999783,None,up,1.9683085999859031,1737.4083760999783,None,1737.4083760999783,1738.5410305999976,0.11612829999648966,None,,,,,,,,,5,001,2019_Dec_23_1026,untitled,3.1.0,60.20161520618148,
193,G,N,0,R,N,193GN000RN,HRN,0,266,266,224,,,1.294,1739.594810999988,1739.8889965999988,1739.8889965999988,1740.0890877000056,1740.105152299977,None,up,2.0335943999816664,1740.105152299977,None,1740.105152299977,1741.3880907999992,0.2044463999918662,None,,,,,,,,,5,001,2019_Dec_23_1026,untitled,3.1.0,60.20161520618148,
200,G,N,315,R,N,200GN315RN,HRN,0,267,267,231,,,1.397,1742.2653482999885,1742.553318899998,1742.553318899998,1742.8533995999896,1742.8703459999815,None,up,2.033148999995319,1742.8703459999815,None,1742.8703459999815,1744.2527311999875,0.11404409998795018,None,,,,,,,,,5,001,2019_Dec_23_1026,untitled,3.1.0,60.20161520618148,
009,R,M,0,R,N,009RM000RN,HRN,0,268,268,96,,,0.9500000000000001,1745.032749999984,1745.3197986999876,1745.3197986999876,1745.6178521999973,1745.6345541999908,None,down,1.7176879000035115,1745.6345541999908,None,1745.6345541999908,1746.566778599983,0.11679720002575777,None,,,,,,,,,5,001,2019_Dec_23_1026,untitled,3.1.0,60.20161520618148,
_,_2,N,225,_,_,__2N225__,N,0,269,269,77,,,0.735,1747.4824880999804,1747.782062399987,1747.782062399987,1748.0661309999996,1748.0825608999876,None,up,1.390192200022284,1748.0825608999876,None,1748.0825608999876,1748.7986100999988,0.11887780000688508,None,,,,,,,,,5,001,2019_Dec_23_1026,untitled,3.1.0,60.20161520618148,
198,G,N,225,R,N,198GN225RN,HRN,0,270,270,229,,,0.967,1749.5876991999976,1749.8799945999926,1749.8971457000007,1750.1973657000053,1750.1973657000053,None,up,1.5487898999999743,1750.1973657000053,None,1750.1973657000053,1751.1633736999938,0.10392729999148287,None,,,,,,,,,5,001,2019_Dec_23_1026,untitled,3.1.0,60.20161520618148,
006,R,N,225,R,N,006RN225RN,HRN,0,271,271,197,,,0.972,1751.815038300003,1752.1617842999985,1752.1783032999956,1752.4621302000014,1752.4804636999907,None,up,1.4859664000105113,1752.4804636999907,None,1752.4804636999907,1753.427991799981,0.06139320001238957,None,,,,,,,,,5,001,2019_Dec_23_1026,untitled,3.1.0,60.20161520618148,
429,_4,M,180,L,N,429_4M180LN,HLN,0,272,272,172,,,1.1300000000000001,1754.1746530999953,1754.475938699994,1754.475938699994,1754.676849499985,1754.693383099977,None,up,2.065858099987963,1754.693383099977,None,1754.693383099977,1755.8089633999916,0.19770349998725578,None,,,,,,,,,5,001,2019_Dec_23_1026,untitled,3.1.0,60.20161520618148,
_,F,N,225,_,_,_FN225__,N,0,273,273,53,,,0.857,1756.960871999996,1757.2571004999918,1757.2571004999918,1757.4740538999904,1757.4908918,None,up,1.9353813000197988,1757.4908918,None,1757.4908918,1758.3235655000026,0.19366389999049716,None,,,,,,,,,5,001,2019_Dec_23_1026,untitled,3.1.0,60.20161520618148,
_,_5,M,315,_,_,__5M315__,N,0,274,274,47,,,0.793,1759.6358435000002,1759.9381005000032,1759.9381005000032,1760.1396141999867,1760.1554593000037,None,down,2.184689299989259,1760.1554593000037,None,1760.1554593000037,1760.9379408999812,0.1982856999966316,None,,,,,,,,,5,001,2019_Dec_23_1026,untitled,3.1.0,60.20161520618148,
199,G,N,270,R,N,199GN270RN,HRN,0,275,275,230,,,1.317,1762.4575515000033,1762.752326899994,1762.7685654999805,1763.0525729999936,1763.0691966000013,None,up,1.9657634999894071,1763.0691966000013,None,1763.0691966000013,1764.3685504999885,0.10668810000061058,None,,,,,,,,,5,001,2019_Dec_23_1026,untitled,3.1.0,60.20161520618148,
164,F,N,135,L,N,164FN135LN,HLN,0,276,276,219,,,0.9430000000000001,1765.1825050000043,1765.4840677999891,1765.4840677999891,1765.7501985999988,1765.76688369998,None,up,1.6362077000085264,1765.76688369998,None,1765.76688369998,1766.7007228999864,0.13662249999470077,None,,,,,,,,,5,001,2019_Dec_23_1026,untitled,3.1.0,60.20161520618148,
_,_5,M,180,_,_,__5M180__,N,0,277,277,44,,,1.202,1767.6146532999992,1767.9144872000034,1767.9144872000034,1768.1152815999812,1768.1315983999812,None,down,2.665770000021439,1768.1315983999812,None,1768.1315983999812,1769.3140694999893,0.20064940000884235,None,,,,,,,,,5,001,2019_Dec_23_1026,untitled,3.1.0,60.20161520618148,
_,_4,N,315,_,_,__4N315__,N,0,278,278,87,,,1.079,1770.9139986999799,1771.2117471999954,1771.228298699978,1771.5133557999798,1771.5301675999945,None,up,1.8013035999902058,1771.5301675999945,None,1771.5301675999945,1772.593971299997,0.10532219999004155,None,,,,,,,,,5,001,2019_Dec_23_1026,untitled,3.1.0,60.20161520618148,
483,_5,N,90,L,N,483_5N090LN,HLN,0,279,279,282,,,0.928,1773.461987399991,1773.7590607999882,1773.7590607999882,1774.0428446999867,1774.0596977999958,None,up,1.5490965999779291,1774.0596977999958,None,1774.0596977999958,1774.9758078999876,0.11946710001211613,None,,,,,,,,,5,001,2019_Dec_23_1026,untitled,3.1.0,60.20161520618148,
045,R,M,180,L,N,045RM180LN,HLN,0,280,280,108,,,0.875,1775.8327677999914,1776.1243600999878,1776.1243600999878,1776.3251167999988,1776.3407112999994,None,down,2.0845756999915466,1776.3407112999994,None,1776.3407112999994,1777.2063455999887,0.21398860000772402,None,,,,,,,,,5,001,2019_Dec_23_1026,untitled,3.1.0,60.20161520618148,
_,G,N,180,_,_,_GN180__,N,0,281,281,60,,,1.121,1778.6249669999816,1778.9220733999973,1778.9220733999973,1779.138671599998,1779.1554032999848,None,up,2.099384100001771,1779.1554032999848,None,1779.1554032999848,1780.270979599998,0.18845279997913167,None,,,,,,,,,5,001,2019_Dec_23_1026,untitled,3.1.0,60.20161520618148,
013,R,M,180,R,N,013RM180RN,HRN,0,282,282,100,,,1.0190000000000001,1781.3811736999778,1781.6707542999939,1781.6707542999939,1781.969636599999,1781.9867340000055,None,down,2.731800400011707,1781.9867340000055,None,1781.9867340000055,1782.9853263999976,0.115309899993008,None,,,,,,,,,5,001,2019_Dec_23_1026,untitled,3.1.0,60.20161520618148,
428,_4,M,135,L,N,428_4M135LN,HLN,0,283,283,171,,,1.145,1784.8595641999855,1785.1500144999882,1785.1500144999882,1785.4338184999942,1785.4498195999768,None,up,1.953418999997666,1785.4498195999768,None,1785.4498195999768,1786.583169599995,0.13006999998469837,None,,,,,,,,,5,001,2019_Dec_23_1026,untitled,3.1.0,60.20161520618148,
_,_2,N,315,_,_,__2N315__,N,0,284,284,79,,,0.884,1787.5317337999877,1787.8305636000005,1787.8305636000005,1788.1143659999943,1788.1311090999807,None,up,1.785157700011041,1788.1311090999807,None,1788.1311090999807,1788.9973044999933,0.11753119999775663,None,,,,,,,,,5,001,2019_Dec_23_1026,untitled,3.1.0,60.20161520618148,
_,_4,M,45,_,_,__4M045__,N,0,285,285,33,,,0.9560000000000001,1790.0529180000012,1790.344811899995,1790.344811899995,1790.6280708999839,1790.6445394000039,None,down,1.8551798999833409,1790.6445394000039,None,1790.6445394000039,1791.5943473999796,0.12577139999484643,None,,,,,,,,,5,001,2019_Dec_23_1026,untitled,3.1.0,60.20161520618148,
204,G,M,135,R,N,204GM135RN,HRN,0,286,286,131,,,0.8310000000000001,1792.5929665000003,1792.9095055999933,1792.9265489999962,1793.2097422999796,1793.22642359999,None,down,2.0527889000077266,1793.22642359999,None,1793.22642359999,1794.0442539999785,0.08355239999946207,None,,,,,,,,,5,001,2019_Dec_23_1026,untitled,3.1.0,60.20161520618148,
_,_4,N,135,_,_,__4N135__,N,0,287,287,83,,,1.319,1795.4168558999954,1795.7085249999946,1795.7085249999946,1795.990711999999,1796.0072743999772,None,up,2.7676323000050616,1796.0072743999772,None,1796.0072743999772,1797.324727500003,0.12655350001296028,None,,,,,,,,,5,001,2019_Dec_23_1026,untitled,3.1.0,60.20161520618148,
,,,,,,,,,,,,,,,,,,,,,,,,,,,,,1798.7906885999837,None,1804.2832794999995,None,1806.3484313999943,None,1810.8109604000056,None,,,,,,,
