Number,Letter,type,Orientation,human,face_type,image,picture,trials.thisRepN,trials.thisTrialN,trials.thisN,trials.thisIndex,text.started,text.stopped,stimulus_duration,CROSS.started,CROSS.stopped,BLANK.started,BLANK.stopped,TEST.started,TEST.stopped,key_JUDGE.keys,key_JUDGE.rt,key_JUDGE.started,key_JUDGE.stopped,image_2.started,image_2.stopped,ISI.started,ISI.stopped,q1.started,q1.stopped,q2.started,q2.stopped,q3.started,q3.stopped,text_2.started,text_2.stopped,participant,session,date,expName,psychopyVersion,frameRate,
385,_4,N,0,R,N,385_4N000RN,HRN,0,0,0,256,442.76591030001873,None,0.9430000000000001,513.1005791000207,513.34788820002,513.34788820002,513.5982431000157,513.6170845000015,None,up,3.231609099981142,513.6170845000015,None,513.6170845000015,514.5470578999957,0.16092430002754554,None,,,,,,,,,6,001,2019_Dec_23_1051,untitled,3.1.0,60.34802707359426,
046,R,M,225,L,N,046RM225LN,HLN,0,1,1,109,,,1.33,517.0080706000153,517.3438681999978,517.3605633999978,517.6445891000039,517.6445891000039,None,None,,517.6445891000039,None,517.6445891000039,518.9792020000168,0.07449610001640394,None,,,,,,,,,6,001,2019_Dec_23_1051,untitled,3.1.0,60.34802707359426,
455,_5,N,270,R,N,455_5N270RN,HRN,0,2,2,278,,,1.274,521.203416400007,521.5404350000026,521.5568398000032,521.8406108000199,521.8573190000025,521.203416400007,up,2.1364878000167664,521.8573190000025,None,521.8573190000025,523.1062702000199,0.07221600000048056,None,,,,,,,,,6,001,2019_Dec_23_1051,untitled,3.1.0,60.34802707359426,
174,F,M,225,L,N,174FM225LN,HLN,0,3,3,125,,,1.175,524.1180291000055,524.4213976000028,524.4213976000028,524.7045003999956,524.7211166000052,None,down,2.183422900008736,524.7211166000052,None,524.7211166000052,525.8874801000056,0.11423310000100173,None,,,,,,,,,6,001,2019_Dec_23_1051,untitled,3.1.0,60.34802707359426,
258,_2,N,45,R,N,258_2N045RN,HRN,0,4,4,241,,,1.04,527.009351500019,527.3186803999997,527.3353025999968,527.6182259000198,527.6349279000133,None,down,2.3545625999977347,527.6349279000133,None,527.6349279000133,528.6680990000023,0.09488550000241958,None,,,,,,,,,6,001,2019_Dec_23_1051,untitled,3.1.0,60.34802707359426,
136,F,N,315,R,N,136FN315RN,HRN,0,5,5,215,,,1.238,530.099211599998,530.4159312999982,530.4159312999982,530.701644899993,530.7179704000009,None,up,2.596996799984481,530.7179704000009,None,530.7179704000009,531.9478700000036,0.09886570001253858,None,,,,,,,,,6,001,2019_Dec_23_1051,untitled,3.1.0,60.34802707359426,
_,_5,M,45,_,_,__5M045__,N,0,6,6,41,,,1.329,533.4104708000086,533.7299052000162,533.7476244000136,534.0298280999996,534.0469788000046,None,up,2.851589600002626,534.0469788000046,None,534.0469788000046,535.3625019000028,0.08373319997917861,None,,,,,,,,,6,001,2019_Dec_23_1051,untitled,3.1.0,60.34802707359426,
424,_4,N,315,L,N,424_4N315LN,HLN,0,7,7,271,,,1.075,537.0209193000046,537.3100785000133,537.3268352000159,537.6102244000067,537.6271363999986,None,None,,537.6271363999986,None,537.6271363999986,538.6926994000096,0.11044170000241138,None,,,,,,,,,6,001,2019_Dec_23_1051,untitled,3.1.0,60.34802707359426,
005,R,N,180,R,N,005RN180RN,HRN,0,8,8,196,,,0.904,541.1987629000214,541.5227485999931,541.5396960000216,541.8229455999972,541.8394479000126,541.1987629000214,None,,541.8394479000126,None,541.8394479000126,542.7222656999948,0.08349369998904876,None,,,,,,,,,6,001,2019_Dec_23_1051,untitled,3.1.0,60.34802707359426,
237,G,M,180,L,N,237GM180LN,HLN,0,9,9,140,,,1.21,545.4034729000123,545.7192095000064,545.7360456000024,546.019342900021,546.0362554000167,545.4034729000123,None,,546.0362554000167,None,546.0362554000167,547.2349385000125,0.09135920001426712,None,,,,,,,,,6,001,2019_Dec_23_1051,untitled,3.1.0,60.34802707359426,
450,_5,N,45,R,N,450_5N045RN,HRN,0,10,10,273,,,1.217,549.6237714000163,549.9160227999964,549.9160227999964,550.2156342999951,550.232181600004,549.6237714000163,up,2.9508207000035327,550.232181600004,None,550.232181600004,551.4323803000152,0.11292079999111593,None,,,,,,,,,6,001,2019_Dec_23_1051,untitled,3.1.0,60.34802707359426,
389,_4,N,180,R,N,389_4N180RN,HRN,0,11,11,260,,,1.1340000000000001,553.310832600022,553.612549100013,553.612549100013,553.8954235000128,553.9130858000135,None,down,2.800972600001842,553.9130858000135,None,553.9130858000135,555.028449400008,0.11669299998902716,None,,,,,,,,,6,001,2019_Dec_23_1051,untitled,3.1.0,60.34802707359426,
173,F,M,180,L,N,173FM180LN,HLN,0,12,12,124,,,0.762,556.8327180000197,557.1271468000195,557.1423359000182,557.4262813999958,557.4428594000055,None,up,2.784892099996796,557.4428594000055,None,557.4428594000055,558.1921979000035,0.1087522000016179,None,,,,,,,,,6,001,2019_Dec_23_1051,untitled,3.1.0,60.34802707359426,
462,_5,M,225,R,N,462_5M225RN,HRN,0,13,13,181,,,0.722,560.336672400008,560.6397790000192,560.6561559000111,560.9401710999955,560.9567339000059,None,up,1.9831692000152543,560.9567339000059,None,560.9567339000059,561.6724676000013,0.09851650000200607,None,,,,,,,,,6,001,2019_Dec_23_1051,untitled,3.1.0,60.34802707359426,
_,_2,N,90,_,_,__2N090__,N,0,14,14,74,,,0.9570000000000001,563.063355100021,563.3546563000127,563.3546563000127,563.654108799994,563.6712753000029,None,up,1.9661953000177164,563.6712753000029,None,563.6712753000029,564.620534799993,0.11263509999844246,None,,,,,,,,,6,001,2019_Dec_23_1051,untitled,3.1.0,60.34802707359426,
008,R,N,315,R,N,008RN315RN,HRN,0,15,15,199,,,0.927,565.7625173999986,566.0514975000115,566.0514975000115,566.3510947000177,566.3678324000211,None,up,2.7688624000002164,566.3678324000211,None,566.3678324000211,567.2845475000213,0.11242459999630228,None,,,,,,,,,6,001,2019_Dec_23_1051,untitled,3.1.0,60.34802707359426,
036,R,N,135,L,N,036RN135LN,HLN,0,16,16,203,,,0.923,569.249422199995,569.5487871000078,569.5653574000171,569.8482140999986,569.8649985000084,None,down,2.3484319999988656,569.8649985000084,None,569.8649985000084,570.781335800013,0.1021570999873802,None,,,,,,,,,6,001,2019_Dec_23_1051,untitled,3.1.0,60.34802707359426,
_,_4,N,225,_,_,__4N225__,N,0,17,17,85,,,1.2650000000000001,572.3006952000142,572.6292287000106,572.6458473000093,572.9291264000058,572.9454167000076,None,down,3.048201700003119,572.9454167000076,None,572.9454167000076,574.1951909000054,0.0798963000124786,None,,,,,,,,,6,001,2019_Dec_23_1051,untitled,3.1.0,60.34802707359426,
142,F,M,225,R,N,142FM225RN,HRN,0,18,18,117,,,1.293,576.0663701000158,576.4098603000166,576.4263339000172,576.7090580000076,576.7265549000003,None,up,2.8472954999888316,576.7265549000003,None,576.7265549000003,578.0087015000172,0.06511409999802709,None,,,,,,,,,6,001,2019_Dec_23_1051,untitled,3.1.0,60.34802707359426,
294,_2,N,225,L,N,294_2N225LN,HLN,0,19,19,253,,,0.812,579.6733464999998,579.9893972999998,580.0061512000102,580.290219699993,580.3065226000035,None,up,2.0529218000010587,580.3065226000035,None,580.3065226000035,581.1056680000038,0.09087840002030134,None,,,,,,,,,6,001,2019_Dec_23_1051,untitled,3.1.0,60.34802707359426,
038,R,N,225,L,N,038RN225LN,HLN,0,20,20,205,,,0.96,582.4776023000013,582.7713356000022,582.7878043999954,583.0702644000121,583.0869381999946,None,up,2.931062000017846,583.0869381999946,None,583.0869381999946,584.0367935000104,0.10590789999696426,None,,,,,,,,,6,001,2019_Dec_23_1051,untitled,3.1.0,60.34802707359426,
_,F,N,315,_,_,_FN315__,N,0,21,21,55,,,1.1,586.1001689000113,586.433772999997,586.4515452000196,586.7341526999953,586.7508065000002,None,up,2.4688081000058446,586.7508065000002,None,586.7508065000002,587.8324835000094,0.07141219999175519,None,,,,,,,,,6,001,2019_Dec_23_1051,untitled,3.1.0,60.34802707359426,
272,_2,M,315,R,N,272_2M315RN,HRN,0,22,22,151,,,0.741,589.3402020000212,589.6315821000026,589.6481032000156,589.9318451000145,589.9480940000212,None,down,2.3155456999957096,589.9480940000212,None,589.9480940000212,590.6811146000109,0.10964880001847632,None,,,,,,,,,6,001,2019_Dec_23_1051,untitled,3.1.0,60.34802707359426,
_,_4,N,90,_,_,__4N090__,N,0,23,23,82,,,0.723,592.3500897000195,592.6785214999982,592.6952527000103,592.9793658000126,592.9954042000172,None,up,2.2355647000076715,592.9954042000172,None,592.9954042000172,593.6945182000054,0.07689509997726418,None,,,,,,,,,6,001,2019_Dec_23_1051,untitled,3.1.0,60.34802707359426,
_,_5,M,315,_,_,__5M315__,N,0,24,24,47,,,0.9500000000000001,595.3660096999956,595.6592075999943,595.6592075999943,595.9421758000099,595.9596439000161,None,up,2.648131199995987,595.9596439000161,None,595.9596439000161,596.8918701999937,0.12392539999564178,None,,,,,,,,,6,001,2019_Dec_23_1051,untitled,3.1.0,60.34802707359426,
235,G,M,90,L,N,235GM090LN,HLN,0,25,25,138,,,1.365,598.698621699994,599.0228986000002,599.039650199993,599.326276000007,599.3411820000038,None,up,3.2463384000002407,599.3411820000038,None,599.3411820000038,600.688701600011,0.08136209999793209,None,,,,,,,,,6,001,2019_Dec_23_1051,untitled,3.1.0,60.34802707359426,
_,_2,N,180,_,_,__2N180__,N,0,26,26,76,,,1.3900000000000001,602.6860845000192,603.0029206000036,603.0196342999989,603.3026396000059,603.3196296000096,None,down,2.702539899997646,603.3196296000096,None,603.3196296000096,604.7021164000034,0.08719540000311099,None,,,,,,,,,6,001,2019_Dec_23_1051,untitled,3.1.0,60.34802707359426,
426,_4,M,45,L,N,426_4M045LN,HLN,0,27,27,169,,,0.9500000000000001,606.1418112000101,606.4332194000017,606.4498402000172,606.7335003000044,606.7499564000173,None,down,2.6652962999942247,606.7499564000173,None,606.7499564000173,607.7217518000107,0.10866540001006797,None,,,,,,,,,6,001,2019_Dec_23_1051,untitled,3.1.0,60.34802707359426,
_,_5,M,90,_,_,__5M090__,N,0,28,28,42,,,0.865,609.5005071000196,609.8301434000023,609.8466441000055,610.1319685000053,610.1473463000148,None,down,2.547870399983367,610.1473463000148,None,610.1473463000148,610.9989639999985,0.07759960001567379,None,,,,,,,,,6,001,2019_Dec_23_1051,untitled,3.1.0,60.34802707359426,
293,_2,N,180,L,N,293_2N180LN,HLN,0,29,29,252,,,1.311,612.8058809000067,613.0940851000196,613.1273527000158,613.41109400001,613.4278228000039,None,up,2.199122799996985,613.4278228000039,None,613.4278228000039,614.7274536000041,0.10002410001470707,None,,,,,,,,,6,001,2019_Dec_23_1051,untitled,3.1.0,60.34802707359426,
169,F,M,0,L,N,169FM000LN,HLN,0,30,30,120,,,1.219,615.7450451000186,616.0416506000038,616.0579665999976,616.3415411000024,616.3605637000001,None,down,2.179350600024918,616.3605637000001,None,616.3605637000001,617.5733798000147,0.10539430001517758,None,,,,,,,,,6,001,2019_Dec_23_1051,untitled,3.1.0,60.34802707359426,
_,G,N,180,_,_,_GN180__,N,0,31,31,60,,,1.1360000000000001,618.6296302000119,618.9548429000133,618.9720316000166,619.2559767000203,619.274244500004,None,down,3.0320759000023827,619.274244500004,None,619.274244500004,620.3873662000115,0.08120369998505339,None,,,,,,,,,6,001,2019_Dec_23_1051,untitled,3.1.0,60.34802707359426,
_,G,M,225,_,_,_GM225__,N,0,32,32,13,,,0.727,622.4363068999955,622.7355623000185,622.7355623000185,623.0193575000158,623.0360999999975,None,up,3.447872400021879,623.0360999999975,None,623.0360999999975,623.7517245000054,0.11740930000087246,None,,,,,,,,,6,001,2019_Dec_23_1051,untitled,3.1.0,60.34802707359426,
_,F,M,0,_,_,_FM000__,N,0,33,33,0,,,0.72,626.6023835999949,626.8986253000039,626.915671900002,627.200773300021,627.2158496000047,None,down,2.169785999984015,627.2158496000047,None,627.2158496000047,627.9143959000066,0.10743179998826236,None,,,,,,,,,6,001,2019_Dec_23_1051,untitled,3.1.0,60.34802707359426,
489,_5,M,0,L,N,489_5M000LN,HLN,0,34,34,184,,,1.2610000000000001,629.509686800011,629.8113317000098,629.8113317000098,630.0966568000149,630.113321700017,None,down,2.915506399993319,630.113321700017,None,630.113321700017,631.3619693999935,0.11289459999534301,None,,,,,,,,,6,001,2019_Dec_23_1051,untitled,3.1.0,60.34802707359426,
_,_5,N,45,_,_,__5N045__,N,0,35,35,89,,,1.298,633.1450449000113,633.4430187999969,633.459937800013,633.7427670000179,633.7598915999988,None,up,2.4684974999981932,633.7598915999988,None,633.7598915999988,635.0421198999975,0.10557320000953041,None,,,,,,,,,6,001,2019_Dec_23_1051,untitled,3.1.0,60.34802707359426,
263,_2,N,270,R,N,263_2N270RN,HRN,0,36,36,246,,,1.158,636.3503110000165,636.6401268000191,636.656719199993,636.9404342000198,636.9573243000195,None,up,2.751528299995698,636.9573243000195,None,636.9573243000195,638.1066903000174,0.11083099999814294,None,,,,,,,,,6,001,2019_Dec_23_1051,untitled,3.1.0,60.34802707359426,
002,R,N,45,R,N,002RN045RN,HRN,0,37,37,193,,,1.183,639.830226399994,640.121321100014,640.1373176000197,640.4205343000067,640.4375179000199,None,up,2.5854586999921594,640.4375179000199,None,640.4375179000199,641.6031322000199,0.11098320002201945,None,,,,,,,,,6,001,2019_Dec_23_1051,untitled,3.1.0,60.34802707359426,
228,G,N,135,L,N,228GN135LN,HLN,0,38,38,235,,,1.183,643.136920799996,643.4340505000146,643.4506085000176,643.7349182000034,643.7515532000107,None,down,2.2815669999981765,643.7515532000107,None,643.7515532000107,644.9167872999969,0.10221270000329241,None,,,,,,,,,6,001,2019_Dec_23_1051,untitled,3.1.0,60.34802707359426,
493,_5,M,180,L,N,493_5M180LN,HLN,0,39,39,188,,,0.9540000000000001,646.1508770000073,646.447859900014,646.4653511000215,646.7480092000042,646.764565999998,None,down,3.1685461000015493,646.764565999998,None,646.764565999998,647.6970283999981,0.10659300000406802,None,,,,,,,,,6,001,2019_Dec_23_1051,untitled,3.1.0,60.34802707359426,
202,G,M,45,R,N,202GM045RN,HRN,0,40,40,129,,,0.733,650.0497087000113,650.3452252999996,650.3618198000186,650.6452697000059,650.661874500016,None,down,2.164715500024613,650.661874500016,None,650.661874500016,651.3769023000204,0.10658140000305139,None,,,,,,,,,6,001,2019_Dec_23_1051,untitled,3.1.0,60.34802707359426,
485,_5,N,180,L,N,485_5N180LN,HLN,0,41,41,284,,,0.71,652.9320333999931,653.243335600011,653.2588778000209,653.5425913000072,653.5592460000189,None,down,1.8021547000098508,653.5592460000189,None,653.5592460000189,654.2588009000174,0.09734509998816065,None,,,,,,,,,6,001,2019_Dec_23_1051,untitled,3.1.0,60.34802707359426,
_,F,N,135,_,_,_FN135__,N,0,42,42,51,,,0.796,655.4903669000196,655.7901820999978,655.7901820999978,656.0740890000015,656.089887500013,None,down,2.652733900002204,656.089887500013,None,656.089887500013,656.8731623000058,0.1182422999991104,None,,,,,,,,,6,001,2019_Dec_23_1051,untitled,3.1.0,60.34802707359426,
_,F,N,180,_,_,_FN180__,N,0,43,43,52,,,1.3820000000000001,658.8553112999944,659.1541334000067,659.1702874000184,659.4541908999963,659.470799200004,None,down,2.898996400006581,659.470799200004,None,659.470799200004,660.8362856000022,0.10197629997855984,None,,,,,,,,,6,001,2019_Dec_23_1051,untitled,3.1.0,60.34802707359426,
457,_5,M,0,R,N,457_5M000RN,HRN,0,44,44,176,,,1.05,662.484843800019,662.7838609000028,662.8005440999987,663.0836165999935,663.1006350000098,None,down,2.733495699998457,663.1006350000098,None,663.1006350000098,664.1329154999985,0.10432499999296851,None,,,,,,,,,6,001,2019_Dec_23_1051,untitled,3.1.0,60.34802707359426,
_,_2,M,90,_,_,__2M090__,N,0,45,45,26,,,0.966,665.9405606999935,666.247675599996,666.2646038999956,666.5477972000081,666.5648148000182,None,up,3.0691557000100147,666.5648148000182,None,666.5648148000182,667.513941000012,0.09746630000881851,None,,,,,,,,,6,001,2019_Dec_23_1051,untitled,3.1.0,60.34802707359426,
_,_4,N,270,_,_,__4N270__,N,0,46,46,86,,,1.073,669.7470575000043,670.0442195000069,670.0608662000159,670.3449951999937,670.361192100012,None,down,2.1496532000019215,670.361192100012,None,670.361192100012,671.4269628000038,0.10240689999773167,None,,,,,,,,,6,001,2019_Dec_23_1051,untitled,3.1.0,60.34802707359426,
010,R,M,45,R,N,010RM045RN,HRN,0,47,47,97,,,1.033,672.6255097000103,672.9252267999982,672.9417910000193,673.2250618000107,673.2418141000089,None,down,2.0664528999768663,673.2418141000089,None,673.2418141000089,674.2585243000067,0.1032818999956362,None,,,,,,,,,6,001,2019_Dec_23_1051,untitled,3.1.0,60.34802707359426,
206,G,M,225,R,N,206GM225RN,HRN,0,48,48,133,,,1.228,675.41973340002,675.7231067999965,675.7394277999992,676.0229254000005,676.0397005999985,None,down,2.331773699988844,676.0397005999985,None,676.0397005999985,677.2551920000114,0.1004428000014741,None,,,,,,,,,6,001,2019_Dec_23_1051,untitled,3.1.0,60.34802707359426,
428,_4,M,135,L,N,428_4M135LN,HLN,0,49,49,171,,,1.105,678.4980529000168,678.7887009000115,678.7887009000115,679.0864191000001,679.1032498000131,None,down,2.116809099999955,679.1032498000131,None,679.1032498000131,680.1850418999966,0.11761980000301264,None,,,,,,,,,6,001,2019_Dec_23_1051,untitled,3.1.0,60.34802707359426,
_,_2,N,270,_,_,__2N270__,N,0,50,50,78,,,0.767,681.3346797999984,681.6342448999931,681.6508098000195,681.9345649000024,681.9513143000077,None,up,1.9986304999911226,681.9513143000077,None,681.9513143000077,682.7006149000081,0.10387890000129119,None,,,,,,,,,6,001,2019_Dec_23_1051,untitled,3.1.0,60.34802707359426,
_,R,N,135,_,_,_RN135__,N,0,51,51,67,,,1.285,684.0800353999948,684.3820448000042,684.3820448000042,684.6653604000167,684.6845049000112,None,down,2.4322607000067364,684.6845049000112,None,684.6845049000112,685.9470180000062,0.11991700000362471,None,,,,,,,,,6,001,2019_Dec_23_1051,untitled,3.1.0,60.34802707359426,
_,_5,M,270,_,_,__5M270__,N,0,52,52,46,,,1.16,687.2344031000102,687.5291981000046,687.5463961000205,687.8297662000114,687.8460672000074,None,down,2.4016153999837115,687.8460672000074,None,687.8460672000074,688.9958334999974,0.10694090000470169,None,,,,,,,,,6,001,2019_Dec_23_1051,untitled,3.1.0,60.34802707359426,
417,_4,N,0,L,N,417_4N000LN,HLN,0,53,53,264,,,1.154,690.3595157999953,690.6598744000075,690.6764701000066,690.9597809000115,690.9762166000146,None,up,2.931269099994097,690.9762166000146,None,690.9762166000146,692.1247360999987,0.10030439999536611,None,,,,,,,,,6,001,2019_Dec_23_1051,untitled,3.1.0,60.34802707359426,
_,R,M,90,_,_,_RM090__,N,0,54,54,18,,,1.016,693.9970474000147,694.3237724000064,694.3398327000032,694.6226899000176,694.6405712999986,None,down,2.0977630999987014,694.6405712999986,None,694.6405712999986,695.6388102000055,0.08036309998715296,None,,,,,,,,,6,001,2019_Dec_23_1051,untitled,3.1.0,60.34802707359426,
492,_5,M,135,L,N,492_5M135LN,HLN,0,55,55,187,,,1.311,696.8196873000124,697.1539468000119,697.1707051999983,697.4547329000197,697.4714529000048,None,down,2.2157099999894854,697.4714529000048,None,697.4714529000048,698.7697613000055,0.07360340000013821,None,,,,,,,,,6,001,2019_Dec_23_1051,untitled,3.1.0,60.34802707359426,
392,_4,N,315,R,N,392_4N315RN,HRN,0,56,56,263,,,0.705,699.8036724000121,700.1018891000131,700.1203564000025,700.4029596000037,700.4187929000182,None,down,2.8858374999836087,700.4187929000182,None,700.4187929000182,701.1180953000148,0.10502039999119006,None,,,,,,,,,6,001,2019_Dec_23_1051,untitled,3.1.0,60.34802707359426,
304,_2,M,315,L,N,304_2M315LN,HLN,0,57,57,159,,,0.86,703.4286035000114,703.7322820000118,703.7322820000118,704.0151175000065,704.0319182999956,None,up,3.3658213000162505,704.0319182999956,None,704.0319182999956,704.8813766000094,0.11319709999952465,None,,,,,,,,,6,001,2019_Dec_23_1051,untitled,3.1.0,60.34802707359426,
_,_5,M,0,_,_,__5M000__,N,0,58,58,40,,,1.239,707.4952065999969,707.8113243000116,707.8283276000002,708.1116131000163,708.1284867000068,None,down,3.0491209999891,708.1284867000068,None,708.1284867000068,709.3598313000111,0.0878147000039462,None,,,,,,,,,6,001,2019_Dec_23_1051,untitled,3.1.0,60.34802707359426,
420,_4,N,135,L,N,420_4N135LN,HLN,0,59,59,267,,,1.193,711.2946888000006,711.5918087000027,711.6082052999991,711.8920028000139,711.9087526999938,None,None,,711.9087526999938,None,711.9087526999938,713.0903622000187,0.10572369999135844,None,,,,,,,,,6,001,2019_Dec_23_1051,untitled,3.1.0,60.34802707359426,
297,_2,M,0,L,N,297_2M000LN,HLN,0,60,60,152,,,1.072,715.496389900014,715.7880927000078,715.7880927000078,716.0881661000021,716.1078274000029,715.496389900014,down,3.07876760000363,716.1078274000029,None,716.1078274000029,717.1544611999998,0.11307149997446686,None,,,,,,,,,6,001,2019_Dec_23_1051,untitled,3.1.0,60.34802707359426,
016,R,M,315,R,N,016RM315RN,HRN,0,61,61,103,,,0.901,719.3041718000022,719.6013774000166,719.6195060000173,719.9014752999938,719.9182908000075,None,down,1.8171583999937866,719.9182908000075,None,719.9182908000075,720.8004694000119,0.10674420002033003,None,,,,,,,,,6,001,2019_Dec_23_1051,untitled,3.1.0,60.34802707359426,
200,G,N,315,R,N,200GN315RN,HRN,0,62,62,231,,,1.171,721.8784269000171,722.1679116000014,722.1679116000014,722.4492724000011,722.4669539000024,None,down,3.2633730999950785,722.4669539000024,None,722.4669539000024,723.6319727000082,0.1290257000073325,None,,,,,,,,,6,001,2019_Dec_23_1051,untitled,3.1.0,60.34802707359426,
422,_4,N,225,L,N,422_4N225LN,HLN,0,63,63,269,,,1.329,725.8307554000057,726.1455381000123,726.1631513000175,726.4456517000217,726.4623330000031,None,None,,726.4623330000031,None,726.4623330000031,727.7777843000076,0.09073880000505596,None,,,,,,,,,6,001,2019_Dec_23_1051,untitled,3.1.0,60.34802707359426,
_,_2,N,0,_,_,__2N000__,N,0,64,64,72,,,0.738,730.0533817000105,730.342288600019,730.342288600019,730.6420154999942,730.6589912000054,730.0533817000105,up,2.2326580000226386,730.6589912000054,None,730.6589912000054,731.3746133999957,0.11623519999557175,None,,,,,,,,,6,001,2019_Dec_23_1051,untitled,3.1.0,60.34802707359426,
164,F,N,135,L,N,164FN135LN,HLN,0,65,65,219,,,0.887,733.0134064000158,733.3063538999995,733.3228310999984,733.6066562000196,733.623250500008,None,up,1.9514035999891348,733.623250500008,None,733.623250500008,734.4912210000039,0.11046870000427589,None,,,,,,,,,6,001,2019_Dec_23_1051,untitled,3.1.0,60.34802707359426,
170,F,M,45,L,N,170FM045LN,HLN,0,66,66,121,,,0.9470000000000001,735.6928450000123,735.9866417000012,736.0040662999963,736.2867176000145,736.3061996000179,None,up,2.499137700011488,736.3061996000179,None,736.3061996000179,737.2363158999942,0.1070054000010714,None,,,,,,,,,6,001,2019_Dec_23_1051,untitled,3.1.0,60.34802707359426,
453,_5,N,180,R,N,453_5N180RN,HRN,0,67,67,276,,,1.254,738.9065632999991,739.2172319999954,739.233949800022,739.5171197000018,739.533798599994,None,down,2.6337466999830212,739.533798599994,None,739.533798599994,740.7828573000152,0.09177780000027269,None,,,,,,,,,6,001,2019_Dec_23_1051,untitled,3.1.0,60.34802707359426,
238,G,M,225,L,N,238GM225LN,HLN,0,68,68,141,,,0.9540000000000001,742.2650313000195,742.5808260000194,742.5981412999972,742.8817483000166,742.8984190000047,None,down,3.1310879999946337,742.8984190000047,None,742.8984190000047,743.8306008999934,0.08858070001588203,None,,,,,,,,,6,001,2019_Dec_23_1051,untitled,3.1.0,60.34802707359426,
264,_2,N,315,R,N,264_2N315RN,HRN,0,69,69,247,,,1.3880000000000001,746.0994431000145,746.444957300002,746.4615202000132,746.7454413000087,746.7616876999964,None,up,3.4498398000141606,746.7616876999964,None,746.7616876999964,748.1272988000128,0.06243360001826659,None,,,,,,,,,6,001,2019_Dec_23_1051,untitled,3.1.0,60.34802707359426,
483,_5,N,90,L,N,483_5N090LN,HLN,0,70,70,282,,,0.999,750.3472030000121,750.6405215999985,750.6405215999985,750.9247939000197,750.9411432000052,None,up,2.2866260000155307,750.9411432000052,None,750.9411432000052,751.922999500006,0.12415650000912137,None,,,,,,,,,6,001,2019_Dec_23_1051,untitled,3.1.0,60.34802707359426,
_,F,M,315,_,_,_FM315__,N,0,71,71,7,,,0.8160000000000001,753.3468761999975,753.6384071000211,753.6549677000148,753.9385225000151,753.9553865000198,None,down,1.948774999997113,753.9553865000198,None,753.9553865000198,754.7539730000135,0.10868659999687225,None,,,,,,,,,6,001,2019_Dec_23_1051,untitled,3.1.0,60.34802707359426,
257,_2,N,0,R,N,257_2N000RN,HRN,0,72,72,240,,,1.308,755.9932239000045,756.3192342999973,756.3358615000034,756.6188903000148,756.6356739000184,None,up,2.7018248999956995,756.6356739000184,None,756.6356739000184,757.9339295999962,0.0806293000059668,None,,,,,,,,,6,001,2019_Dec_23_1051,untitled,3.1.0,60.34802707359426,
_,_2,N,315,_,_,__2N315__,N,0,73,73,79,,,1.053,759.4558008000022,759.7491977000027,759.7656606000091,760.0499407000025,760.0667064000154,None,up,1.7860068999871146,760.0667064000154,None,760.0667064000154,761.1158027000201,0.10642769999685697,None,,,,,,,,,6,001,2019_Dec_23_1051,untitled,3.1.0,60.34802707359426,
418,_4,N,45,L,N,418_4N045LN,HLN,0,74,74,265,,,1.106,761.9673458000179,762.2641083000053,762.2805445000122,762.5642362000071,762.5809841000009,None,up,2.286170500010485,762.5809841000009,None,762.5809841000009,763.6800503999984,0.10405269998591393,None,,,,,,,,,6,001,2019_Dec_23_1051,untitled,3.1.0,60.34802707359426,
487,_5,N,270,L,N,487_5N270LN,HLN,0,75,75,286,,,0.999,764.9914621000062,765.2947574999998,765.2947574999998,765.5787466000183,765.5951175999944,None,up,1.8349032999831252,765.5951175999944,None,765.5951175999944,766.5769782999996,0.11269420001190156,None,,,,,,,,,6,001,2019_Dec_23_1051,untitled,3.1.0,60.34802707359426,
_,_4,M,0,_,_,__4M000__,N,0,76,76,32,,,1.1480000000000001,767.5427264000173,767.8423463999934,767.8589605000161,768.1430314000172,768.1598138000118,None,up,2.0686432000075,768.1598138000118,None,768.1598138000118,769.2947686999978,0.10124560000258498,None,,,,,,,,,6,001,2019_Dec_23_1051,untitled,3.1.0,60.34802707359426,
395,_4,M,90,R,N,395_4M090RN,HRN,0,77,77,162,,,0.8180000000000001,770.3431126000069,770.6403347000014,770.6567295000132,770.9398167000036,770.9564356000046,None,down,2.216086600004928,770.9564356000046,None,770.9564356000046,771.75820750001,0.10437369998544455,None,,,,,,,,,6,001,2019_Dec_23_1051,untitled,3.1.0,60.34802707359426,
486,_5,N,225,L,N,486_5N225LN,HLN,0,78,78,285,,,1.3860000000000001,773.2982148000156,773.5873866000038,773.5873866000038,773.887638300017,773.9045696000103,None,None,,773.9045696000103,None,773.9045696000103,775.3132815000135,0.11476389999734238,None,,,,,,,,,6,001,2019_Dec_23_1051,untitled,3.1.0,60.34802707359426,
429,_4,M,180,L,N,429_4M180LN,HLN,0,79,79,172,,,0.8310000000000001,777.4799917000055,777.7692375000042,777.8002394000068,778.0841544000141,778.1015068000124,777.4799917000055,down,2.1314181000052486,778.1015068000124,None,778.1015068000124,778.916538599995,0.10221320000709966,None,,,,,,,,,6,001,2019_Dec_23_1051,untitled,3.1.0,60.34802707359426,
_,R,N,180,_,_,_RN180__,N,0,80,80,68,,,0.909,780.3542874999985,780.6485625000205,780.6645553999988,780.9484174000099,780.9652071000019,None,down,2.0349239999777637,780.9652071000019,None,780.9652071000019,781.8641926000128,0.10776800001622178,None,,,,,,,,,6,001,2019_Dec_23_1051,untitled,3.1.0,60.34802707359426,
400,_4,M,315,R,N,400_4M315RN,HRN,0,81,81,167,,,1.02,783.1151765999966,783.4120294000022,783.4291775000165,783.7126739000087,783.7293385000085,None,down,2.731742600008147,783.7293385000085,None,783.7293385000085,784.7440270000079,0.10388369997963309,None,,,,,,,,,6,001,2019_Dec_23_1051,untitled,3.1.0,60.34802707359426,
003,R,N,90,R,N,003RN090RN,HRN,0,82,82,194,,,1.219,786.5502129000088,786.8759627999971,786.8922727000026,787.1762552,787.1931468000112,None,down,2.6495607999968342,787.1931468000112,None,787.1931468000112,788.3922179999936,0.08128419998683967,None,,,,,,,,,6,001,2019_Dec_23_1051,untitled,3.1.0,60.34802707359426,
_,R,N,45,_,_,_RN045__,N,0,83,83,65,,,1.139,789.9590006000071,790.2566131000058,790.2733805000025,790.5564944000216,790.5733658999961,None,down,1.8856161000148859,790.5733658999961,None,790.5733658999961,791.7056213000033,0.10533289998420514,None,,,,,,,,,6,001,2019_Dec_23_1051,untitled,3.1.0,60.34802707359426,
013,R,M,180,R,N,013RM180RN,HRN,0,84,84,100,,,0.747,792.5918647000217,792.8875537000131,792.8875537000131,793.1709169000096,793.1878937000001,None,down,1.833582999999635,793.1878937000001,None,793.1878937000001,793.9194422000146,0.12026820000028238,None,,,,,,,,,6,001,2019_Dec_23_1051,untitled,3.1.0,60.34802707359426,
458,_5,M,45,R,N,458_5M045RN,HRN,0,85,85,177,,,0.837,795.1242226000177,795.435233199998,795.4522144999937,795.735327500006,795.7526992000057,None,down,2.1473899999982677,795.7526992000057,None,795.7526992000057,796.5700077000074,0.09340620000148192,None,,,,,,,,,6,001,2019_Dec_23_1051,untitled,3.1.0,60.34802707359426,
_,G,N,45,_,_,_GN045__,N,0,86,86,57,,,0.906,797.9677916000073,798.3161555000115,798.3324714000046,798.6156526000123,798.6322011000011,None,up,2.165786700003082,798.6322011000011,None,798.6322011000011,799.515842199995,0.05985719998716377,None,,,,,,,,,6,001,2019_Dec_23_1051,untitled,3.1.0,60.34802707359426,
_,R,M,225,_,_,_RM225__,N,0,87,87,21,,,1.216,800.8921334000188,801.2132675000175,801.230245600018,801.5131993000105,801.52978110002,None,down,2.6660407000163104,801.52978110002,None,801.52978110002,802.7298055000138,0.08536759999697097,None,,,,,,,,,6,001,2019_Dec_23_1051,untitled,3.1.0,60.34802707359426,
431,_4,M,270,L,N,431_4M270LN,HLN,0,88,88,174,,,0.962,804.2958798000182,804.6112715000054,804.6272538000194,804.910323899996,804.9269696999982,None,up,2.319240399985574,804.9269696999982,None,804.9269696999982,805.8767459999945,0.0909828000003472,None,,,,,,,,,6,001,2019_Dec_23_1051,untitled,3.1.0,60.34802707359426,
_,R,M,270,_,_,_RM270__,N,0,89,89,22,,,0.92,807.3562711999984,807.6576394000149,807.674488699995,807.9570647999935,807.9736556000134,None,up,3.0180245999945328,807.9736556000134,None,807.9736556000134,808.8907805000199,0.09918200000538491,None,,,,,,,,,6,001,2019_Dec_23_1051,untitled,3.1.0,60.34802707359426,
388,_4,N,135,R,N,388_4N135RN,HRN,0,90,90,259,,,1.0090000000000001,811.1055021000211,811.4047940000019,811.4209841999982,811.7041247000161,811.7208412000036,None,up,2.8830548000114504,811.7208412000036,None,811.7208412000036,812.720745700004,0.10289199999533594,None,,,,,,,,,6,001,2019_Dec_23_1051,untitled,3.1.0,60.34802707359426,
204,G,M,135,R,N,204GM135RN,HRN,0,91,91,131,,,1.3880000000000001,814.6864250999934,815.0177176000143,815.034753999993,815.3175914000021,815.3345421999984,None,down,2.2865682000119705,815.3345421999984,None,815.3345421999984,816.7001214000047,0.07446839998010546,None,,,,,,,,,6,001,2019_Dec_23_1051,untitled,3.1.0,60.34802707359426,
260,_2,N,135,R,N,260_2N135RN,HRN,0,92,92,243,,,1.284,817.7357731999946,818.0318835999933,818.0486260000034,818.3328534000029,818.3495554999972,None,up,2.8506120999809355,818.3495554999972,None,818.3495554999972,819.6146721999976,0.1039701999980025,None,,,,,,,,,6,001,2019_Dec_23_1051,untitled,3.1.0,60.34802707359426,
296,_2,N,315,L,N,296_2N315LN,HLN,0,93,93,255,,,1.006,821.3294779999997,821.6293459000008,821.6293459000008,821.9127955000149,821.9294821000076,None,down,2.2352529000199866,821.9294821000076,None,821.9294821000076,822.9291669999948,0.11809659999562427,None,,,,,,,,,6,001,2019_Dec_23_1051,untitled,3.1.0,60.34802707359426,
233,G,M,0,L,N,233GM000LN,HLN,0,94,94,136,,,1.22,824.2766927000193,824.5769420000142,824.5929731999931,824.8767200000002,824.8934524999931,None,up,2.8682600999891292,824.8934524999931,None,824.8934524999931,826.1107393999991,0.09971549999318086,None,,,,,,,,,6,001,2019_Dec_23_1051,untitled,3.1.0,60.34802707359426,
_,F,N,90,_,_,_FN090__,N,0,95,95,50,,,1.1280000000000001,827.8719207000104,828.1735959000071,828.1903089999978,828.4759424999938,828.4905965999933,None,up,2.21818909997819,828.4905965999933,None,828.4905965999933,829.6059208000079,0.09924619999947026,None,,,,,,,,,6,001,2019_Dec_23_1051,untitled,3.1.0,60.34802707359426,
140,F,M,135,R,N,140FM135RN,HRN,0,96,96,115,,,0.868,830.8380847999942,831.1376860000018,831.1376860000018,831.4203851000057,831.4370402000204,None,up,1.686603699985426,831.4370402000204,None,831.4370402000204,832.3028193000064,0.11792229997809045,None,,,,,,,,,6,001,2019_Dec_23_1051,untitled,3.1.0,60.34802707359426,
165,F,N,180,L,N,165FN180LN,HLN,0,97,97,220,,,0.837,833.2410626000201,833.5352677000046,833.5521983999934,833.8355763000145,833.8524022000202,None,up,2.0494723999872804,833.8524022000202,None,833.8524022000202,834.6838988999953,0.10658969997894019,None,,,,,,,,,6,001,2019_Dec_23_1051,untitled,3.1.0,60.34802707359426,
_,G,M,315,_,_,_GM315__,N,0,98,98,15,,,1.362,836.0113454000093,836.3012382000161,836.3326841999951,836.6165846000076,836.6332389000163,None,up,2.8646282000117935,836.6332389000163,None,836.6332389000163,837.9809769999993,0.1006072000018321,None,,,,,,,,,6,001,2019_Dec_23_1051,untitled,3.1.0,60.34802707359426,
_,F,N,45,_,_,_FN045__,N,0,99,99,49,,,1.323,839.6088978000043,839.8978076000058,839.9297974000219,840.2135572000116,840.2300369000004,None,up,2.6370264000142924,840.2300369000004,None,840.2300369000004,841.5454985999968,0.10072259997832589,None,,,,,,,,,6,001,2019_Dec_23_1051,untitled,3.1.0,60.34802707359426,
009,R,M,0,R,N,009RM000RN,HRN,0,100,100,96,,,0.88,842.9786665000138,843.2768741000036,843.2936089000141,843.5768162000168,843.5938135000179,None,up,2.150029300013557,843.5938135000179,None,843.5938135000179,844.4595130000089,0.10090889999992214,None,,,,,,,,,6,001,2019_Dec_23_1051,untitled,3.1.0,60.34802707359426,
137,F,M,0,R,N,137FM000RN,HRN,0,101,101,112,,,1.366,845.8520401999995,846.1577861999976,846.1738436000014,846.4574601000058,846.4746488000092,None,down,2.450701499998104,846.4746488000092,None,846.4746488000092,847.822753800021,0.09914869998465292,None,,,,,,,,,6,001,2019_Dec_23_1051,untitled,3.1.0,60.34802707359426,
386,_4,N,45,R,N,386_4N045RN,HRN,0,102,102,257,,,0.8250000000000001,849.0542510999949,849.3545472999976,849.3545472999976,849.6383848999976,849.6568772000028,None,up,2.2977730999991763,849.6568772000028,None,849.6568772000028,850.4713981999957,0.1161067999782972,None,,,,,,,,,6,001,2019_Dec_23_1051,untitled,3.1.0,60.34802707359426,
_,_5,N,180,_,_,__5N180__,N,0,103,103,92,,,0.79,852.0785742000153,852.3693019000057,852.3693019000057,852.6690393000026,852.685801500018,None,down,2.4317173000017647,852.685801500018,None,852.685801500018,853.4684794000059,0.11344449999160133,None,,,,,,,,,6,001,2019_Dec_23_1051,untitled,3.1.0,60.34802707359426,
419,_4,N,90,L,N,419_4N090LN,HLN,0,104,104,266,,,0.93,855.2161296000122,855.5326130000176,855.5494843000197,855.8332846999983,855.8499432000099,None,up,2.236143499991158,855.8499432000099,None,855.8499432000099,856.765549600008,0.08922419999726117,None,,,,,,,,,6,001,2019_Dec_23_1051,untitled,3.1.0,60.34802707359426,
464,_5,M,315,R,N,464_5M315RN,HRN,0,105,105,183,,,0.843,858.2038939000049,858.4966126999934,858.5132019000011,858.7970047999988,858.8138310000068,None,down,2.2644471999956295,858.8138310000068,None,858.8138310000068,859.6467609000101,0.1069671000004746,None,,,,,,,,,6,001,2019_Dec_23_1051,untitled,3.1.0,60.34802707359426,
_,G,N,135,_,_,_GN135__,N,0,106,106,59,,,0.922,861.164519300015,861.4941904000007,861.5107891999942,861.7939597000077,861.8108760000032,None,up,2.931576300004963,861.8108760000032,None,861.8108760000032,862.710868299997,0.07703989997389726,None,,,,,,,,,6,001,2019_Dec_23_1051,untitled,3.1.0,60.34802707359426,
262,_2,N,225,R,N,262_2N225RN,HRN,0,107,107,245,,,1.246,864.8454846999957,865.1579512000026,865.1744826000067,865.457894799998,865.4753271999944,None,up,2.26753519999329,865.4753271999944,None,865.4753271999944,866.7079945000005,0.09327010001288727,None,,,,,,,,,6,001,2019_Dec_23_1051,untitled,3.1.0,60.34802707359426,
393,_4,M,0,R,N,393_4M000RN,HRN,0,108,108,160,,,1.343,867.8628972000151,868.1555741000047,868.1716065999935,868.4553633000178,868.4726268000086,None,up,2.5832819000061136,868.4726268000086,None,868.4726268000086,869.8042499000148,0.10925280000083148,None,,,,,,,,,6,001,2019_Dec_23_1051,untitled,3.1.0,60.34802707359426,
141,F,M,180,R,N,141FM180RN,HRN,0,109,109,116,,,0.918,871.1677193999931,871.468386099994,871.4856061000028,871.7686951000069,871.7853337000124,None,down,2.4329066000063904,871.7853337000124,None,871.7853337000124,872.6869784000155,0.10095570000703447,None,,,,,,,,,6,001,2019_Dec_23_1051,untitled,3.1.0,60.34802707359426,
161,F,N,0,L,N,161FN000LN,HLN,0,110,110,216,,,0.903,874.341891899996,874.6331211999932,874.6331211999932,874.9340255999996,874.9521606000199,None,up,2.0287672000122257,874.9521606000199,None,874.9521606000199,875.8321419999993,0.11235889999079518,None,,,,,,,,,6,001,2019_Dec_23_1051,untitled,3.1.0,60.34802707359426,
398,_4,M,225,R,N,398_4M225RN,HRN,0,111,111,165,,,0.973,877.0654824000085,877.3969732999976,877.4137111000018,877.6967146999959,877.7134121000126,None,up,2.736724599992158,877.7134121000126,None,877.7134121000126,878.6633483000041,0.07721210000454448,None,,,,,,,,,6,001,2019_Dec_23_1051,untitled,3.1.0,60.34802707359426,
399,_4,M,270,R,N,399_4M270RN,HRN,0,112,112,166,,,1.085,880.5781916000124,880.8774617000017,880.8774617000017,881.1611294000177,881.1778209000186,None,up,2.567986899986863,881.1778209000186,None,881.1778209000186,882.242694000015,0.11707820001174696,None,,,,,,,,,6,001,2019_Dec_23_1051,untitled,3.1.0,60.34802707359426,
044,R,M,135,L,N,044RM135LN,HLN,0,113,113,107,,,0.784,883.8639676000166,884.1579935000045,884.1748426000122,884.4580808000173,884.4749916000001,None,up,1.9688411000242922,884.4749916000001,None,884.4749916000001,885.2407873000193,0.10730590001912788,None,,,,,,,,,6,001,2019_Dec_23_1051,untitled,3.1.0,60.34802707359426,
_,_2,M,135,_,_,__2M135__,N,0,114,114,27,,,1.389,886.5522907999984,886.8550700000196,886.8727263000037,887.155585600005,887.1726492000162,None,up,2.465639400004875,887.1726492000162,None,887.1726492000162,888.5545507000061,0.09714879997773096,None,,,,,,,,,6,001,2019_Dec_23_1051,untitled,3.1.0,60.34802707359426,
176,F,M,315,L,N,176FM315LN,HLN,0,115,115,127,,,1.354,889.759465900017,890.0528657000104,890.069496000011,890.3559148000204,890.370643000002,None,down,2.3975361000047997,890.370643000002,None,890.370643000002,891.7175464000029,0.10991769999964163,None,,,,,,,,,6,001,2019_Dec_23_1051,untitled,3.1.0,60.34802707359426,
138,F,M,45,R,N,138FM045RN,HRN,0,116,116,113,,,1.372,892.8521085999964,893.1830394999997,893.199655400007,893.4831356000213,893.5001530000009,None,up,2.7829698999994434,893.5001530000009,None,893.5001530000009,894.8481698000105,0.07595459997537546,None,,,,,,,,,6,001,2019_Dec_23_1051,untitled,3.1.0,60.34802707359426,
391,_4,N,270,R,N,391_4N270RN,HRN,0,117,117,262,,,1.2690000000000001,896.3926070000161,896.6979530999961,896.7141933999956,896.9972238000191,897.0135432000097,None,down,2.381717300013406,897.0135432000097,None,897.0135432000097,898.2787136000115,0.0974763999984134,None,,,,,,,,,6,001,2019_Dec_23_1051,untitled,3.1.0,60.34802707359426,
129,F,N,0,R,N,129FN000RN,HRN,0,118,118,208,,,0.753,899.4682102999941,899.8114094000193,899.8276398000016,900.111149400007,900.1279189000197,None,up,1.9329604000085965,900.1279189000197,None,900.1279189000197,900.8605475999939,0.06554540002252907,None,,,,,,,,,6,001,2019_Dec_23_1051,untitled,3.1.0,60.34802707359426,
199,G,N,270,R,N,199GN270RN,HRN,0,119,119,230,,,0.789,902.1805192000174,902.4758105000074,902.4924079000193,902.775517800008,902.7923852000094,None,up,2.3656636999803595,902.7923852000094,None,902.7923852000094,903.575204599998,0.10888020001584664,None,,,,,,,,,6,001,2019_Dec_23_1051,untitled,3.1.0,60.34802707359426,
037,R,N,180,L,N,037RN180LN,HLN,0,120,120,204,,,0.898,905.2715501000057,905.572696999996,905.5892957000178,905.8734759000072,905.8890894000069,None,up,2.681899000017438,905.8890894000069,None,905.8890894000069,906.7710757000023,0.10086330000194721,None,,,,,,,,,6,001,2019_Dec_23_1051,untitled,3.1.0,60.34802707359426,
456,_5,N,315,R,N,456_5N315RN,HRN,0,121,121,279,,,0.9590000000000001,908.6708566000161,908.9860139999946,909.0029540999967,909.2867787000141,909.3036492000101,None,up,2.13154050000594,909.3036492000101,None,909.3036492000101,910.2519949999987,0.08998079999582842,None,,,,,,,,,6,001,2019_Dec_23_1051,untitled,3.1.0,60.34802707359426,
490,_5,M,45,L,N,490_5M045LN,HLN,0,122,122,185,,,1.1440000000000001,911.5275292000151,911.8506940999941,911.8670830000192,912.1499631000042,912.1668984999997,None,up,2.7992887999862432,912.1668984999997,None,912.1668984999997,913.2832170000183,0.08309699999517761,None,,,,,,,,,6,001,2019_Dec_23_1051,untitled,3.1.0,60.34802707359426,
229,G,N,180,L,N,229GN180LN,HLN,0,123,123,236,,,0.895,915.0859781000181,915.3806875000009,915.3979578000144,915.6811862000031,915.6980353000108,None,up,2.3657548000046518,915.6980353000108,None,915.6980353000108,916.5803336999961,0.10858479997841641,None,,,,,,,,,6,001,2019_Dec_23_1051,untitled,3.1.0,60.34802707359426,
421,_4,N,180,L,N,421_4N180LN,HLN,0,124,124,268,,,1.357,918.1738617999945,918.4946959000081,918.4946959000081,918.7780726000201,918.7951672000054,None,up,2.2343552999955136,918.7951672000054,None,918.7951672000054,920.1440030999947,0.09908809998887591,None,,,,,,,,,6,001,2019_Dec_23_1051,untitled,3.1.0,60.34802707359426,
034,R,N,45,L,N,034RN045LN,HLN,0,125,125,201,,,1.299,921.1426513000042,921.4416684000171,921.4596879000019,921.74280550002,921.7588377000066,None,up,2.3668569999863394,921.7588377000066,None,921.7588377000066,923.040848500008,0.1026146000076551,None,,,,,,,,,6,001,2019_Dec_23_1051,untitled,3.1.0,60.34802707359426,
302,_2,M,225,L,N,302_2M225LN,HLN,0,126,126,157,,,1.064,924.2333984000143,924.5391352000006,924.5561508999963,924.8397218000027,924.8597527999955,None,down,1.8654447000008076,924.8597527999955,None,924.8597527999955,925.9048732999945,0.09721719997469336,None,,,,,,,,,6,001,2019_Dec_23_1051,untitled,3.1.0,60.34802707359426,
387,_4,N,90,R,N,387_4N090RN,HRN,0,127,127,258,,,1.362,926.8491219000134,927.1386311000097,927.1386311000097,927.4367195999948,927.4538582999958,None,up,2.233046800014563,927.4538582999958,None,927.4538582999958,928.8032764999953,0.11184639998828061,None,,,,,,,,,6,001,2019_Dec_23_1051,untitled,3.1.0,60.34802707359426,
133,F,N,180,R,N,133FN180RN,HRN,0,128,128,212,,,1.109,929.8097857999965,930.1014899000002,930.1014899000002,930.401534500008,930.418271100003,None,down,2.8319694999954663,930.418271100003,None,930.418271100003,931.5171601000184,0.11243179999291897,None,,,,,,,,,6,001,2019_Dec_23_1051,untitled,3.1.0,60.34802707359426,
040,R,N,315,L,N,040RN315LN,HLN,0,129,129,207,,,0.92,933.3764572000073,933.6798375000071,933.6798375000071,933.9666835000098,933.9819977000006,None,up,1.8661565999791492,933.9819977000006,None,933.9819977000006,934.8807724000071,0.11589549999916926,None,,,,,,,,,6,001,2019_Dec_23_1051,untitled,3.1.0,60.34802707359426,
130,F,N,45,R,N,130FN045RN,HRN,0,130,130,209,,,0.861,935.9383802000084,936.2636247000191,936.2793951000203,936.5625413999951,936.5793522000022,None,down,1.9320483000192326,936.5793522000022,None,936.5793522000022,937.4287791000097,0.08207650002441369,None,,,,,,,,,6,001,2019_Dec_23_1051,untitled,3.1.0,60.34802707359426,
135,F,N,270,R,N,135FN270RN,HRN,0,131,131,214,,,1.365,938.599643900001,938.9266715999984,938.9440155000193,939.2272021000099,939.2466926000197,None,up,2.264469999994617,939.2466926000197,None,939.2466926000197,940.5926901000203,0.07934490000479855,None,,,,,,,,,6,001,2019_Dec_23_1051,untitled,3.1.0,60.34802707359426,
_,R,N,270,_,_,_RN270__,N,0,132,132,70,,,0.885,941.630257700017,941.9240717000212,941.9413182999997,942.2251209999959,942.241291000013,None,up,2.94762580000679,942.241291000013,None,942.241291000013,943.1070487000106,0.10837030000402592,None,,,,,,,,,6,001,2019_Dec_23_1051,untitled,3.1.0,60.34802707359426,
208,G,M,315,R,N,208GM315RN,HRN,0,133,133,135,,,0.75,945.2832262000011,945.6041550000082,945.6209382000088,945.9054873000132,945.9211252999958,None,down,3.3348310999863315,945.9211252999958,None,945.9211252999958,946.6540311000135,0.0854387000144925,None,,,,,,,,,6,001,2019_Dec_23_1051,untitled,3.1.0,60.34802707359426,
234,G,M,45,L,N,234GM045LN,HLN,0,134,134,137,,,1.053,949.3711857000017,949.6675684000074,949.6840474000201,949.9669875999971,949.9836818000185,None,up,2.383973599993624,949.9836818000185,None,949.9836818000185,951.033644900017,0.10408040002221242,None,,,,,,,,,6,001,2019_Dec_23_1051,untitled,3.1.0,60.34802707359426,
271,_2,M,270,R,N,271_2M270RN,HRN,0,135,135,150,,,1.228,952.4716193000204,952.7815471000213,952.7981033000106,953.0812193000165,953.0979560000123,None,down,2.4661498999921605,953.0979560000123,None,953.0979560000123,954.3142275999999,0.09532409999519587,None,,,,,,,,,6,001,2019_Dec_23_1051,untitled,3.1.0,60.34802707359426,
_,F,N,0,_,_,_FN000__,N,0,136,136,48,,,1.361,955.6773894999933,955.9784910000162,955.9958885000087,956.2793419999944,956.2956045000174,None,up,2.65153149998514,956.2956045000174,None,956.2956045000174,957.6671987000154,0.10141979999025352,None,,,,,,,,,6,001,2019_Dec_23_1051,untitled,3.1.0,60.34802707359426,
259,_2,N,90,R,N,259_2N090RN,HRN,0,137,137,242,,,0.741,959.0629414000141,959.3590660000045,959.3756118000019,959.6595098999969,959.6760699000151,None,down,1.9865308000007644,959.6760699000151,None,959.6760699000151,960.4088407999952,0.10472619999200106,None,,,,,,,,,6,001,2019_Dec_23_1051,untitled,3.1.0,60.34802707359426,
_,G,N,225,_,_,_GN225__,N,0,138,138,61,,,1.113,961.787410799996,962.0911821000045,962.0911821000045,962.3738414999971,962.3906916000124,None,up,2.3180615000019316,962.3906916000124,None,962.3906916000124,963.4894230000209,0.11310410001897253,None,,,,,,,,,6,001,2019_Dec_23_1051,untitled,3.1.0,60.34802707359426,
460,_5,M,135,R,N,460_5M135RN,HRN,0,139,139,179,,,1.033,964.8247811000037,965.1209579000133,965.1373193000036,965.4209461999999,965.437579999998,None,down,1.9189505999966059,965.437579999998,None,965.437579999998,966.4534774000058,0.10454319999553263,None,,,,,,,,,6,001,2019_Dec_23_1051,untitled,3.1.0,60.34802707359426,
394,_4,M,45,R,N,394_4M045RN,HRN,0,140,140,161,,,1.349,967.4501768000191,967.7683518000122,967.7854613999953,968.0679000999953,968.0853526999999,None,down,2.3490252000046894,968.0853526999999,None,968.0853526999999,969.4174270000076,0.08496360000572167,None,,,,,,,,,6,001,2019_Dec_23_1051,untitled,3.1.0,60.34802707359426,
300,_2,M,135,L,N,300_2M135LN,HLN,0,141,141,155,,,0.795,970.5509422000032,970.8501662000199,970.8654860999959,971.1491464000137,971.1659437000053,None,down,2.0837277000246104,971.1659437000053,None,971.1659437000053,971.9486736000108,0.1054504000057932,None,,,,,,,,,6,001,2019_Dec_23_1051,untitled,3.1.0,60.34802707359426,
045,R,M,180,L,N,045RM180LN,HLN,0,142,142,108,,,1.325,973.3761627000058,973.6654611999984,973.6654611999984,973.9629990000103,973.9796728999936,None,down,2.251958500011824,973.9796728999936,None,973.9796728999936,975.2957212000038,0.11552949997712858,None,,,,,,,,,6,001,2019_Dec_23_1051,untitled,3.1.0,60.34802707359426,
292,_2,N,135,L,N,292_2N135LN,HLN,0,143,143,251,,,0.921,976.3470051000186,976.6439059000113,976.6607055000204,976.9441022000101,976.9610761000076,None,down,1.9152022000052966,976.9610761000076,None,976.9610761000076,977.8772059000039,0.10378700000001118,None,,,,,,,,,6,001,2019_Dec_23_1051,untitled,3.1.0,60.34802707359426,
267,_2,M,90,R,N,267_2M090RN,HRN,0,144,144,146,,,1.226,978.9684225000092,979.2916464000009,979.3086801000172,979.591768400016,979.6091060000181,None,down,2.619335499999579,979.6091060000181,None,979.6091060000181,980.8261509000149,0.08308050001505762,None,,,,,,,,,6,001,2019_Dec_23_1051,untitled,3.1.0,60.34802707359426,
454,_5,N,225,R,N,454_5N225RN,HRN,0,145,145,277,,,0.937,982.3506234000088,982.6399039000098,982.6399039000098,982.9385736999975,982.9557417000178,None,up,2.2492138000088744,982.9557417000178,None,982.9557417000178,983.8877829000121,0.11158820000127889,None,,,,,,,,,6,001,2019_Dec_23_1051,untitled,3.1.0,60.34802707359426,
_,R,M,135,_,_,_RM135__,N,0,146,146,19,,,1.22,985.3177522000042,985.6194057000102,985.6364388999937,985.9197400000121,985.93587690001,None,up,2.3153317000251263,985.93587690001,None,985.93587690001,987.151949799998,0.10106439999071881,None,,,,,,,,,6,001,2019_Dec_23_1051,untitled,3.1.0,60.34802707359426,
266,_2,M,45,R,N,266_2M045RN,HRN,0,147,147,145,,,1.374,988.3236779000144,988.6669243999931,988.6830793000117,988.9684833000065,988.984174000012,None,None,,988.984174000012,None,988.984174000012,990.3328321000154,0.06586810000590049,None,,,,,,,,,6,001,2019_Dec_23_1051,untitled,3.1.0,60.34802707359426,
_,F,N,225,_,_,_FN225__,N,0,148,148,53,,,0.967,992.5813402000058,992.8803993000183,992.8803993000183,993.1633222000091,993.1820317000092,992.5813402000058,down,2.5974716000200715,993.1820317000092,None,993.1820317000092,994.1294432000141,0.12386360001983121,None,,,,,,,,,6,001,2019_Dec_23_1051,untitled,3.1.0,60.34802707359426,
139,F,M,90,R,N,139FM090RN,HRN,0,149,149,114,,,1.189,995.9036358000012,996.1933325999998,996.1933325999998,996.4936742999998,996.5105426000082,None,down,2.1819319000060204,996.5105426000082,None,996.5105426000082,997.6932602000015,0.11284859999432229,None,,,,,,,,,6,001,2019_Dec_23_1051,untitled,3.1.0,60.34802707359426,
168,F,N,315,L,N,168FN315LN,HLN,0,150,150,223,,,1.187,998.7848849000002,999.1076306000177,999.1247413000092,999.4081317000091,999.4250999999931,None,down,1.9353817999945022,999.4250999999931,None,999.4250999999931,1000.5907149999985,0.08380749999196269,None,,,,,,,,,6,001,2019_Dec_23_1051,untitled,3.1.0,60.34802707359426,
_,_5,N,90,_,_,__5N090__,N,0,151,151,90,,,0.896,1001.4813701999956,1001.7739600000205,1001.7739600000205,1002.0722344999958,1002.0893129000033,None,down,1.2547995000204537,1002.0893129000033,None,1002.0893129000033,1002.9708769000135,0.11049150000326335,None,,,,,,,,,6,001,2019_Dec_23_1051,untitled,3.1.0,60.34802707359426,
290,_2,N,45,L,N,290_2N045LN,HLN,0,152,152,249,,,0.921,1003.4372598000045,1003.7538809000107,1003.7706908000109,1004.0540279000124,1004.0707952000084,None,up,1.952998499997193,1004.0707952000084,None,1004.0707952000084,1004.9861421000096,0.08380409999517724,None,,,,,,,,,6,001,2019_Dec_23_1051,untitled,3.1.0,60.34802707359426,
_,_4,N,0,_,_,__4N000__,N,0,153,153,80,,,0.899,1006.1339367000037,1006.435051700013,1006.4512148000067,1006.7343618000159,1006.7510051999998,None,up,1.5857724999950733,1006.7510051999998,None,1006.7510051999998,1007.6377523000119,0.09827649997896515,None,,,,,,,,,6,001,2019_Dec_23_1051,untitled,3.1.0,60.34802707359426,
_,R,N,315,_,_,_RN315__,N,0,154,154,71,,,0.7020000000000001,1008.4470796000096,1008.7657579999941,1008.7657579999941,1009.0497164000117,1009.066528299998,None,up,1.6496942000230774,1009.066528299998,None,1009.066528299998,1009.7494104000216,0.09871669998392463,None,,,,,,,,,6,001,2019_Dec_23_1051,untitled,3.1.0,60.34802707359426,
_,G,M,180,_,_,_GM180__,N,0,155,155,12,,,1.079,1010.8365626000159,1011.1306826999935,1011.1470340999949,1011.4312420000206,1011.447686200001,None,down,1.9660088999953587,1011.447686200001,None,1011.447686200001,1012.5132516000012,0.10970369999995455,None,,,,,,,,,6,001,2019_Dec_23_1051,untitled,3.1.0,60.34802707359426,
195,G,N,90,R,N,195GN090RN,HRN,0,156,156,226,,,0.9440000000000001,1013.5204488000018,1013.8283747000096,1013.8451708000212,1014.1279412000149,1014.1445429000014,None,up,2.782881399994949,1014.1445429000014,None,1014.1445429000014,1015.0768387000135,0.09793970000464469,None,,,,,,,,,6,001,2019_Dec_23_1051,untitled,3.1.0,60.34802707359426,
397,_4,M,180,R,N,397_4M180RN,HRN,0,157,157,164,,,0.758,1016.9935831000039,1017.3419066000206,1017.3613449000113,1017.6425348000193,1017.6590024000034,None,up,2.3361552999995183,1017.6590024000034,None,1017.6590024000034,1018.4082756999996,0.05952499998966232,None,,,,,,,,,6,001,2019_Dec_23_1051,untitled,3.1.0,60.34802707359426,
_,_2,M,45,_,_,__2M045__,N,0,158,158,25,,,0.9580000000000001,1020.1110353000113,1020.406238399999,1020.4223303000035,1020.7059732000052,1020.7227986000071,None,up,2.4854628999892157,1020.7227986000071,None,1020.7227986000071,1021.6718805000128,0.10555160001968034,None,,,,,,,,,6,001,2019_Dec_23_1051,untitled,3.1.0,60.34802707359426,
163,F,N,90,L,N,163FN090LN,HLN,0,159,159,218,,,1.195,1023.3242805000045,1023.6195609999995,1023.636511699995,1023.9198873999994,1023.9367260000145,None,up,2.084570499981055,1023.9367260000145,None,1023.9367260000145,1025.1183847000066,0.10472860001027584,None,,,,,,,,,6,001,2019_Dec_23_1051,untitled,3.1.0,60.34802707359426,
232,G,N,315,L,N,232GN315LN,HLN,0,160,160,239,,,1.079,1026.140029000002,1026.4348024000064,1026.450723100017,1026.7342899000214,1026.7513524999958,None,up,1.9977353000140283,1026.7513524999958,None,1026.7513524999958,1027.8171217000054,0.10851930000353605,None,,,,,,,,,6,001,2019_Dec_23_1051,untitled,3.1.0,60.34802707359426,
171,F,M,90,L,N,171FM090LN,HLN,0,161,161,122,,,1.216,1028.8463181999978,1029.1651075000118,1029.1815204000159,1029.4651480000175,1029.4815352000005,None,down,2.051144500001101,1029.4815352000005,None,1029.4815352000005,1030.6826559000183,0.08817659999476746,None,,,,,,,,,6,001,2019_Dec_23_1051,untitled,3.1.0,60.34802707359426,
_,R,M,45,_,_,_RM045__,N,0,162,162,17,,,0.889,1031.6576723000035,1031.947661800019,1031.947661800019,1032.246080700017,1032.2651594000054,None,down,1.6315052999998443,1032.2651594000054,None,1032.2651594000054,1033.145394799998,0.11429269998916425,None,,,,,,,,,6,001,2019_Dec_23_1051,untitled,3.1.0,60.34802707359426,
_,G,N,270,_,_,_GN270__,N,0,163,163,62,,,1.2630000000000001,1033.996074499999,1034.3103082000162,1034.3271938000107,1034.6109240000078,1034.6278658999945,None,up,2.215445199981332,1034.6278658999945,None,1034.6278658999945,1035.8755756000173,0.09013739999500103,None,,,,,,,,,6,001,2019_Dec_23_1051,untitled,3.1.0,60.34802707359426,
226,G,N,45,L,N,226GN045LN,HLN,0,164,164,233,,,0.8160000000000001,1036.9694896000146,1037.2578424999956,1037.2578424999956,1037.5571086000127,1037.5737356000172,None,up,1.6201753000204917,1037.5737356000172,None,1037.5737356000172,1038.3741550999985,0.11408299999311566,None,,,,,,,,,6,001,2019_Dec_23_1051,untitled,3.1.0,60.34802707359426,
495,_5,M,270,L,N,495_5M270LN,HLN,0,165,165,190,,,0.705,1039.3120388000098,1039.6061851000122,1039.6223632000037,1039.9058810000133,1039.922792700003,None,down,2.2674712000007275,1039.922792700003,None,1039.922792700003,1040.6221786999959,0.1073237000091467,None,,,,,,,,,6,001,2019_Dec_23_1051,untitled,3.1.0,60.34802707359426,
_,F,M,135,_,_,_FM135__,N,0,166,166,3,,,1.127,1042.3081669000094,1042.6030892000126,1042.6198669000005,1042.903412500018,1042.9256909000105,None,down,1.8940739000099711,1042.9256909000105,None,1042.9256909000105,1044.0358177000016,0.10513480001827702,None,,,,,,,,,6,001,2019_Dec_23_1051,untitled,3.1.0,60.34802707359426,
303,_2,M,270,L,N,303_2M270LN,HLN,0,167,167,158,,,1.358,1044.903929299995,1045.2343255000014,1045.2510704000015,1045.5338311000087,1045.5509082000062,None,down,2.0183266999956686,1045.5509082000062,None,1045.5509082000062,1046.8999998999934,0.07566649999353103,None,,,,,,,,,6,001,2019_Dec_23_1051,untitled,3.1.0,60.34802707359426,
167,F,N,270,L,N,167FN270LN,HLN,0,168,168,222,,,0.757,1047.6834137999977,1047.98218620001,1047.9985892999975,1048.2819796999975,1048.2989142000151,None,up,1.8837119999807328,1048.2989142000151,None,1048.2989142000151,1049.0480913000065,0.10293319998891093,None,,,,,,,,,6,001,2019_Dec_23_1051,untitled,3.1.0,60.34802707359426,
491,_5,M,90,L,N,491_5M090LN,HLN,0,169,169,186,,,1.123,1050.295400300005,1050.5964990000066,1050.6127397000091,1050.8962795000116,1050.9126021999982,None,down,1.8020702000067104,1050.9126021999982,None,1050.9126021999982,1052.0282514000137,0.10154440000769682,None,,,,,,,,,6,001,2019_Dec_23_1051,untitled,3.1.0,60.34802707359426,
_,G,M,90,_,_,_GM090__,N,0,170,170,10,,,0.872,1052.8378765000089,1053.1275137000193,1053.1439772000012,1053.427874200017,1053.4471398000023,None,down,1.913309499999741,1053.4471398000023,None,1053.4471398000023,1054.3096801000065,0.11169489999883808,None,,,,,,,,,6,001,2019_Dec_23_1051,untitled,3.1.0,60.34802707359426,
015,R,M,270,R,N,015RM270RN,HRN,0,171,171,102,,,1.185,1055.4793052000168,1055.7750541999994,1055.7918525999994,1056.0750821999973,1056.0918174000108,None,down,2.066266400011955,1056.0918174000108,None,1056.0918174000108,1057.2591130000073,0.10840309999184683,None,,,,,,,,,6,001,2019_Dec_23_1051,untitled,3.1.0,60.34802707359426,
012,R,M,135,R,N,012RM135RN,HRN,0,172,172,99,,,1.2690000000000001,1058.2722435000178,1058.5725819000218,1058.5892237999942,1058.872269000014,1058.8888473999978,None,down,1.8832249999977648,1058.8888473999978,None,1058.8888473999978,1060.137750199996,0.10290019999956712,None,,,,,,,,,6,001,2019_Dec_23_1051,untitled,3.1.0,60.34802707359426,
007,R,N,270,R,N,007RN270RN,HRN,0,173,173,198,,,0.86,1060.8610303000023,1061.1870663000154,1061.2035273000074,1061.4867148000048,1061.5033515999967,None,down,1.3560911000240594,1061.5033515999967,None,1061.5033515999967,1062.3530800000008,0.08077430000412278,None,,,,,,,,,6,001,2019_Dec_23_1051,untitled,3.1.0,60.34802707359426,
_,_5,N,225,_,_,__5N225__,N,0,174,174,93,,,0.9380000000000001,1062.9778825000103,1063.2683931000065,1063.2851965000154,1063.5692598000169,1063.5855211000016,None,up,2.251790800015442,1063.5855211000016,None,1063.5855211000016,1064.5375710999942,0.10750579999876209,None,,,,,,,,,6,001,2019_Dec_23_1051,untitled,3.1.0,60.34802707359426,
268,_2,M,135,R,N,268_2M135RN,HRN,0,175,175,147,,,1.059,1065.9528246000118,1066.2495283000171,1066.2656591999985,1066.5497812000103,1066.5672124999983,None,down,2.2153601000027265,1066.5672124999983,None,1066.5672124999983,1067.615303300001,0.10419230000115931,None,,,,,,,,,6,001,2019_Dec_23_1051,untitled,3.1.0,60.34802707359426,
_,_4,M,90,_,_,__4M090__,N,0,176,176,34,,,1.326,1068.8975946000137,1069.1971661999996,1069.2131381000218,1069.4971311000118,1069.5140527000185,None,up,2.2988487999828067,1069.5140527000185,None,1069.5140527000185,1070.829154600011,0.10392190000857227,None,,,,,,,,,6,001,2019_Dec_23_1051,untitled,3.1.0,60.34802707359426,
043,R,M,90,L,N,043RM090LN,HLN,0,177,177,106,,,1.0170000000000001,1071.922885900014,1072.2272910000174,1072.2448060000024,1072.5270888000086,1072.5436484999955,None,down,2.450668700010283,1072.5436484999955,None,1072.5436484999955,1073.5428983000165,0.0987987999978941,None,,,,,,,,,6,001,2019_Dec_23_1051,untitled,3.1.0,60.34802707359426,
_,_2,M,315,_,_,__2M315__,N,0,178,178,31,,,0.987,1075.0674579000042,1075.407777000015,1075.4246169000107,1075.7077002000005,1075.7242521000153,None,down,1.8341350999835413,1075.7242521000153,None,1075.7242521000153,1076.6903953000146,0.06473640000331216,None,,,,,,,,,6,001,2019_Dec_23_1051,untitled,3.1.0,60.34802707359426,
014,R,M,225,R,N,014RM225RN,HRN,0,179,179,101,,,0.724,1077.679159899999,1077.972166099993,1077.988983599993,1078.2724114000157,1078.2893623000127,None,up,1.717673700011801,1078.2893623000127,None,1078.2893623000127,1079.0054706000083,0.10961769998539239,None,,,,,,,,,6,001,2019_Dec_23_1051,untitled,3.1.0,60.34802707359426,
225,G,N,0,L,N,225GN000LN,HLN,0,180,180,232,,,0.718,1080.074701400008,1080.420019000012,1080.4373014000012,1080.720869700017,1080.7373123000143,None,down,2.016038399975514,1080.7373123000143,None,1080.7373123000143,1081.4365497000108,0.06069819998810999,None,,,,,,,,,6,001,2019_Dec_23_1051,untitled,3.1.0,60.34802707359426,
_,_5,M,135,_,_,__5M135__,N,0,181,181,43,,,1.153,1082.8705960999941,1083.1681714000006,1083.1840121000132,1083.4678272000165,1083.4846355000045,None,down,2.281876499997452,1083.4846355000045,None,1083.4846355000045,1084.618868599995,0.1035412999917753,None,,,,,,,,,6,001,2019_Dec_23_1051,untitled,3.1.0,60.34802707359426,
_,R,M,180,_,_,_RM180__,N,0,182,182,20,,,1.189,1085.8744899000158,1086.1816963000165,1086.1988093999971,1086.4820479000045,1086.4991373000084,None,up,2.1680311000091024,1086.4991373000084,None,1086.4991373000084,1087.664503900014,0.09710519999498501,None,,,,,,,,,6,001,2019_Dec_23_1051,untitled,3.1.0,60.34802707359426,
_,_4,M,180,_,_,__4M180__,N,0,183,183,36,,,1.208,1088.77966260002,1089.0799076000112,1089.0955739000055,1089.379626000009,1089.396651100018,None,down,2.3479445000120904,1089.396651100018,None,1089.396651100018,1090.595837300003,0.1014071999816224,None,,,,,,,,,6,001,2019_Dec_23_1051,untitled,3.1.0,60.34802707359426,
166,F,N,225,L,N,166FN225LN,HLN,0,184,184,221,,,1.089,1091.8336284999968,1092.1603688000177,1092.1775192000205,1092.4604364999977,1092.4795075000147,None,up,2.0799882999854162,1092.4795075000147,None,1092.4795075000147,1093.5426648000139,0.08049860000028275,None,,,,,,,,,6,001,2019_Dec_23_1051,untitled,3.1.0,60.34802707359426,
_,R,M,315,_,_,_RM315__,N,0,185,185,23,,,1.123,1094.6500877000217,1094.974240600015,1094.9913842999958,1095.2746687000035,1095.2912598999974,None,down,2.332546599995112,1095.2912598999974,None,1095.2912598999974,1096.390385000006,0.0818231999874115,None,,,,,,,,,6,001,2019_Dec_23_1051,untitled,3.1.0,60.34802707359426,
_,G,N,0,_,_,_GN000__,N,0,186,186,56,,,0.914,1097.7481893000077,1098.0384369000094,1098.0384369000094,1098.3387142000138,1098.3550741999934,None,down,2.4824734999856446,1098.3550741999934,None,1098.3550741999934,1099.2546199000208,0.11359679998713546,None,,,,,,,,,6,001,2019_Dec_23_1051,untitled,3.1.0,60.34802707359426,
_,F,M,225,_,_,_FM225__,N,0,187,187,5,,,1.248,1100.9640300000028,1101.252335600002,1101.252335600002,1101.5522410999984,1101.5712963000115,None,down,2.2998086999868974,1101.5712963000115,None,1101.5712963000115,1102.801639900019,0.11385570000857115,None,,,,,,,,,6,001,2019_Dec_23_1051,untitled,3.1.0,60.34802707359426,
_,R,N,225,_,_,_RN225__,N,0,188,188,69,,,0.797,1103.989478500007,1104.2826983999985,1104.2994864000066,1104.5825861000048,1104.5992640000186,None,down,2.448599399998784,1104.5992640000186,None,1104.5992640000186,1105.3826385000139,0.10740510001778603,None,,,,,,,,,6,001,2019_Dec_23_1051,untitled,3.1.0,60.34802707359426,
227,G,N,90,L,N,227GN090LN,HLN,0,189,189,234,,,1.373,1107.1385480000172,1107.4629640000057,1107.4797917999967,1107.7658502999984,1107.7815057999978,None,None,,1107.7815057999978,None,1107.7815057999978,1109.1295724000083,0.0823427000141237,None,,,,,,,,,6,001,2019_Dec_23_1051,untitled,3.1.0,60.34802707359426,
239,G,M,270,L,N,239GM270LN,HLN,0,190,190,142,,,0.9520000000000001,1111.369280600018,1111.6595042000117,1111.6595042000117,1111.9594447000127,1111.9759451000136,1111.369280600018,down,1.9369129000115208,1111.9759451000136,None,1111.9759451000136,1112.909959600016,0.1142149000079371,None,,,,,,,,,6,001,2019_Dec_23_1051,untitled,3.1.0,60.34802707359426,
425,_4,M,0,L,N,425_4M000LN,HLN,0,191,191,168,,,0.9460000000000001,1114.0358294000034,1114.3253250000125,1114.3253250000125,1114.6240644000063,1114.6406489000074,None,up,2.102517999999691,1114.6406489000074,None,1114.6406489000074,1115.573022800003,0.1121794999926351,None,,,,,,,,,6,001,2019_Dec_23_1051,untitled,3.1.0,60.34802707359426,
197,G,N,180,R,N,197GN180RN,HRN,0,192,192,228,,,1.1300000000000001,1116.863378000009,1117.1548339000146,1117.1717646000034,1117.4549479999987,1117.4719234000077,None,down,2.0020688000076916,1117.4719234000077,None,1117.4719234000077,1118.5874825000064,0.10952289999113418,None,,,,,,,,,6,001,2019_Dec_23_1051,untitled,3.1.0,60.34802707359426,
006,R,N,225,R,N,006RN225RN,HRN,0,193,193,197,,,1.053,1119.5911973000038,1119.8852870000119,1119.9023654000193,1120.1851144999964,1120.2021773000015,None,up,2.5001423000067007,1120.2021773000015,None,1120.2021773000015,1121.2511909000168,0.10653210000600666,None,,,,,,,,,6,001,2019_Dec_23_1051,untitled,3.1.0,60.34802707359426,
265,_2,M,0,R,N,265_2M000RN,HRN,0,194,194,144,,,0.756,1122.8285151000018,1123.1175772999995,1123.1175772999995,1123.4160904000164,1123.4345776000118,None,up,0.4513976000016555,1123.4345776000118,None,1123.4345776000118,None,0.11572649999288842,None,,,,,,,,,6,001,2019_Dec_23_1051,untitled,3.1.0,60.34802707359426,
_,G,N,315,_,_,_GN315__,N,0,195,195,63,,,0.871,1123.9716606000147,1124.2982849999971,1124.3154849999992,1124.5991107000154,1124.6160849000153,None,down,1.6987215999979526,1124.6160849000153,None,1124.6160849000153,1125.481860800006,0.07583750001504086,None,,,,,,,,,6,001,2019_Dec_23_1051,untitled,3.1.0,60.34802707359426,
484,_5,N,135,L,N,484_5N135LN,HLN,0,196,196,283,,,0.923,1126.4162985000003,1126.7295135000022,1126.7465497000085,1127.0313315000094,1127.047206599993,None,down,2.881847499986179,1127.047206599993,None,1127.047206599993,1127.9616681000043,0.09074169999803416,None,,,,,,,,,6,001,2019_Dec_23_1051,untitled,3.1.0,60.34802707359426,
041,R,M,0,L,N,041RM000LN,HLN,0,197,197,104,,,1.316,1130.013959200005,1130.3437696000037,1130.3599055999948,1130.6440157000034,1130.6605189999973,None,down,3.000138200004585,1130.6605189999973,None,1130.6605189999973,1131.9618153000192,0.07706839998718351,None,,,,,,,,,6,001,2019_Dec_23_1051,untitled,3.1.0,60.34802707359426,
295,_2,N,270,L,N,295_2N270LN,HLN,0,198,198,254,,,0.839,1133.7789519000216,1134.0733687000175,1134.0905629000044,1134.3739623000147,1134.3904714999953,None,up,1.8987655999953859,1134.3904714999953,None,1134.3904714999953,1135.2219884000078,0.10873580002225935,None,,,,,,,,,6,001,2019_Dec_23_1051,untitled,3.1.0,60.34802707359426,
449,_5,N,0,R,N,449_5N000RN,HRN,0,199,199,272,,,1.151,1136.3757360000163,1136.7043491000077,1136.721015899995,1137.0035327000078,1137.0213706000068,None,up,2.4156575999804772,1137.0213706000068,None,1137.0213706000068,1138.1526576000033,0.07829299999866635,None,,,,,,,,,6,001,2019_Dec_23_1051,untitled,3.1.0,60.34802707359426,
_,_2,M,180,_,_,__2M180__,N,0,200,200,28,,,1.1,1139.5265110000037,1139.851520199998,1139.8684646000038,1140.151934900001,1140.1689761000162,None,down,2.0512001999886706,1140.1689761000162,None,1140.1689761000162,1141.2513594000193,0.0803926000080537,None,,,,,,,,,6,001,2019_Dec_23_1051,untitled,3.1.0,60.34802707359426,
144,F,M,315,R,N,144FM315RN,HRN,0,201,201,119,,,0.982,1142.3348240000196,1142.6327867000073,1142.6494233999983,1142.933489100018,1142.9503005000006,None,down,1.7659080000012182,1142.9503005000006,None,1142.9503005000006,1143.9164139000059,0.10395019999123178,None,,,,,,,,,6,001,2019_Dec_23_1051,untitled,3.1.0,60.34802707359426,
172,F,M,135,L,N,172FM135LN,HLN,0,202,202,123,,,1.19,1144.8291899000178,1145.1309941000072,1145.1471986999968,1145.4310610000102,1145.4477230000193,None,down,1.9998751000093762,1145.4477230000193,None,1145.4477230000193,1146.6303608000162,0.10199600001215003,None,,,,,,,,,6,001,2019_Dec_23_1051,untitled,3.1.0,60.34802707359426,
_,_5,M,180,_,_,__5M180__,N,0,203,203,44,,,0.8220000000000001,1147.5623506999982,1147.8616351000092,1147.8779517000075,1148.1612780000141,1148.1782739000046,None,down,1.5999241000099573,1148.1782739000046,None,1148.1782739000046,1148.9941403999983,0.10325140002532862,None,,,,,,,,,6,001,2019_Dec_23_1051,untitled,3.1.0,60.34802707359426,
_,_4,M,45,_,_,__4M045__,N,0,204,204,33,,,0.73,1149.8932919999934,1150.1929418000218,1150.2091793,1150.4923614000145,1150.5089829000062,None,down,2.43412079999689,1150.5089829000062,None,1150.5089829000062,1151.2250417000032,0.1043962000112515,None,,,,,,,,,6,001,2019_Dec_23_1051,untitled,3.1.0,60.34802707359426,
291,_2,N,90,L,N,291_2N090LN,HLN,0,205,205,250,,,1.356,1153.048769999994,1153.3576522000076,1153.373134399997,1153.6573211000068,1153.673692100012,None,up,2.7971892000059597,1153.673692100012,None,1153.673692100012,1155.022542599996,0.09655350001412444,None,,,,,,,,,6,001,2019_Dec_23_1051,untitled,3.1.0,60.34802707359426,
039,R,N,270,L,N,039RN270LN,HLN,0,206,206,206,,,1.229,1156.565582500014,1156.8868329999968,1156.9037127000047,1157.1873852999997,1157.2039828000125,None,up,2.617328499996802,1157.2039828000125,None,1157.2039828000125,1158.4194587999955,0.08676999999443069,None,,,,,,,,,6,001,2019_Dec_23_1051,untitled,3.1.0,60.34802707359426,
_,_2,M,0,_,_,__2M000__,N,0,207,207,24,,,0.804,1159.9442373000202,1160.2364843999967,1160.2364843999967,1160.5342752000142,1160.5510010000144,None,down,2.482608499994967,1160.5510010000144,None,1160.5510010000144,1161.3505133000144,0.1112894999969285,None,,,,,,,,,6,001,2019_Dec_23_1051,untitled,3.1.0,60.34802707359426,
432,_4,M,315,L,N,432_4M315LN,HLN,0,208,208,175,,,1.391,1163.150149699999,1163.447866500006,1163.4660619000206,1163.7479598000064,1163.7648473000154,None,down,3.1341044000000693,1163.7648473000154,None,1163.7648473000154,1165.1471139000205,0.10543840000173077,None,,,,,,,,,6,001,2019_Dec_23_1051,untitled,3.1.0,60.34802707359426,
011,R,M,90,R,N,011RM090RN,HRN,0,209,209,98,,,1.115,1167.019618499995,1167.311368900002,1167.3279308000056,1167.6108808999998,1167.627532100014,None,up,1.9834019999834709,1167.627532100014,None,1167.627532100014,1168.726950500015,0.10941989999264479,None,,,,,,,,,6,001,2019_Dec_23_1051,untitled,3.1.0,60.34802707359426,
_,F,M,180,_,_,_FM180__,N,0,210,210,4,,,1.325,1169.7235117999953,1170.0262191999936,1170.042244900018,1170.325617399998,1170.3423305000179,None,down,2.2833852999901865,1170.3423305000179,None,1170.3423305000179,1171.657888000016,0.09999819999211468,None,,,,,,,,,6,001,2019_Dec_23_1051,untitled,3.1.0,60.34802707359426,
_,G,M,45,_,_,_GM045__,N,0,211,211,9,,,1.33,1172.7478830000036,1173.0394289999967,1173.0394289999967,1173.3399515000056,1173.3564779000008,None,down,2.9970954000018537,1173.3564779000008,None,1173.3564779000008,1174.671966199996,0.11142390000168234,None,,,,,,,,,6,001,2019_Dec_23_1051,untitled,3.1.0,60.34802707359426,
430,_4,M,225,L,N,430_4M225LN,HLN,0,212,212,173,,,1.377,1176.4409409000073,1176.7699627999973,1176.786899800005,1177.0702489000105,1177.0867890999943,None,down,2.3822951999900397,1177.0867890999943,None,1177.0867890999943,1178.4523994000047,0.07946619999711402,None,,,,,,,,,6,001,2019_Dec_23_1051,untitled,3.1.0,60.34802707359426,
240,G,M,315,L,N,240GM315LN,HLN,0,213,213,143,,,1.248,1179.5914313000103,1179.8840205000015,1179.900794999994,1180.1840173999954,1180.2003803999978,None,down,2.2984698000072967,1180.2003803999978,None,1180.2003803999978,1181.431902500015,0.11145680001936853,None,,,,,,,,,6,001,2019_Dec_23_1051,untitled,3.1.0,60.34802707359426,
261,_2,N,180,R,N,261_2N180RN,HRN,0,214,214,244,,,0.704,1182.5861118000175,1182.914326099999,1182.9310616000148,1183.2147132999962,1183.2324892000179,None,up,1.764952199999243,1183.2324892000179,None,1183.2324892000179,1183.9152096000034,0.07889340000110678,None,,,,,,,,,6,001,2019_Dec_23_1051,untitled,3.1.0,60.34802707359426,
_,_4,N,45,_,_,__4N045__,N,0,215,215,81,,,1.323,1185.115745600022,1185.4122754000127,1185.4287493000156,1185.714506599994,1185.7298125000088,None,down,2.3143474999815226,1185.7298125000088,None,1185.7298125000088,1187.0434737000032,0.10608409999986179,None,,,,,,,,,6,001,2019_Dec_23_1051,untitled,3.1.0,60.34802707359426,
201,G,M,0,R,N,201GM000RN,HRN,0,216,216,128,,,0.9460000000000001,1188.171439400001,1188.4606960999954,1188.4606960999954,1188.7600921000121,1188.7766061000002,None,down,1.9501897000009194,1188.7766061000002,None,1188.7766061000002,1189.7078023000213,0.11655679999967106,None,,,,,,,,,6,001,2019_Dec_23_1051,untitled,3.1.0,60.34802707359426,
205,G,M,180,R,N,205GM180RN,HRN,0,217,217,132,,,1.225,1190.8469877000025,1191.1401514000027,1191.157047100016,1191.440156800003,1191.457085300004,None,down,2.6843638000136707,1191.457085300004,None,1191.457085300004,1192.6729588000162,0.10921959998086095,None,,,,,,,,,6,001,2019_Dec_23_1051,untitled,3.1.0,60.34802707359426,
001,R,N,0,R,N,001RN000RN,HRN,0,218,218,192,,,0.729,1194.2629987999971,1194.5542520000017,1194.5708238999941,1194.8551843000168,1194.8714723000012,None,up,1.6335738999769092,1194.8714723000012,None,1194.8714723000012,1195.5861128999968,0.1105540000135079,None,,,,,,,,,6,001,2019_Dec_23_1051,untitled,3.1.0,60.34802707359426,
488,_5,N,315,L,N,488_5N315LN,HLN,0,219,219,287,,,1.283,1196.6119335000112,1196.91997420002,1196.935523000022,1197.2187710000144,1197.2355164000182,None,up,2.5660995000216644,1197.2355164000182,None,1197.2355164000182,1198.5009800000116,0.09732079997775145,None,,,,,,,,,6,001,2019_Dec_23_1051,untitled,3.1.0,60.34802707359426,
452,_5,N,135,R,N,452_5N135RN,HRN,0,220,220,275,,,1.318,1199.8685591999965,1200.2164521999948,1200.23338770002,1200.5157292000076,1200.5326954000047,None,up,2.965753099997528,1200.5326954000047,None,1200.5326954000047,1201.8313589000027,0.0602319999889005,None,,,,,,,,,6,001,2019_Dec_23_1051,untitled,3.1.0,60.34802707359426,
_,_2,N,135,_,_,__2N135__,N,0,221,221,75,,,1.037,1203.6205291000078,1203.9132176999992,1203.9132176999992,1204.2127884000074,1204.2296578999958,None,up,1.8662819000019226,1204.2296578999958,None,1204.2296578999958,1205.246675900009,0.11135719998856075,None,,,,,,,,,6,001,2019_Dec_23_1051,untitled,3.1.0,60.34802707359426,
451,_5,N,90,R,N,451_5N090RN,HRN,0,222,222,274,,,1.228,1206.2075527000125,1206.496192199993,1206.5270948999969,1206.8108047000133,1206.8274173999962,None,up,2.3682800999959,1206.8274173999962,None,1206.8274173999962,1208.0421789000102,0.10027309998986311,None,,,,,,,,,6,001,2019_Dec_23_1051,untitled,3.1.0,60.34802707359426,
042,R,M,45,L,N,042RM045LN,HLN,0,223,223,105,,,0.706,1209.3197503999982,1209.6085255999933,1209.6085255999933,1209.9073827000102,1209.9238905000093,None,down,3.0153227999981027,1209.9238905000093,None,1209.9238905000093,1210.6239359000174,0.11211740001454018,None,,,,,,,,,6,001,2019_Dec_23_1051,untitled,3.1.0,60.34802707359426,
_,_2,N,225,_,_,__2N225__,N,0,224,224,77,,,0.735,1213.0462383000122,1213.3545876000135,1213.371432200016,1213.6539914000023,1213.6707399000006,None,up,2.084340899978997,1213.6707399000006,None,1213.6707399000006,1214.39158700002,0.09742870001355186,None,,,,,,,,,6,001,2019_Dec_23_1051,untitled,3.1.0,60.34802707359426,
196,G,N,135,R,N,196GN135RN,HRN,0,225,225,227,,,1.2710000000000001,1215.8467498999962,1216.1691503000038,1216.1857145999966,1216.4686950000178,1216.485420800018,None,down,2.5512214000045788,1216.485420800018,None,1216.485420800018,1217.7508868000004,0.08193740001297556,None,,,,,,,,,6,001,2019_Dec_23_1051,untitled,3.1.0,60.34802707359426,
298,_2,M,45,L,N,298_2M045LN,HLN,0,226,226,153,,,0.752,1219.1602044000174,1219.4504788000195,1219.4504788000195,1219.7494143999938,1219.7662384000141,None,down,2.4342558000062127,1219.7662384000141,None,1219.7662384000141,1220.4986254000105,0.11268719998770393,None,,,,,,,,,6,001,2019_Dec_23_1051,untitled,3.1.0,60.34802707359426,
198,G,N,225,R,N,198GN225RN,HRN,0,227,227,229,,,1.041,1222.318454799999,1222.6128080000053,1222.630607500003,1222.913404299994,1222.9366819999996,None,down,1.893292000022484,1222.9366819999996,None,1222.9366819999996,1223.9627653000061,0.10673030000180006,None,,,,,,,,,6,001,2019_Dec_23_1051,untitled,3.1.0,60.34802707359426,
035,R,N,90,L,N,035RN090LN,HLN,0,228,228,202,,,0.9520000000000001,1224.9505124000134,1225.2442235000199,1225.260943100002,1225.5442298999988,1225.5609263000078,None,up,2.1020235999894794,1225.5609263000078,None,1225.5609263000078,1226.49351260002,0.10857080001733266,None,,,,,,,,,6,001,2019_Dec_23_1051,untitled,3.1.0,60.34802707359426,
390,_4,N,225,R,N,390_4N225RN,HRN,0,229,229,261,,,1.137,1227.7581622000143,1228.0752649000206,1228.0921666000213,1228.3745886000106,1228.3914154999948,None,down,2.001137200015364,1228.3914154999948,None,1228.3914154999948,1229.5074676999939,0.08651359999203123,None,,,,,,,,,6,001,2019_Dec_23_1051,untitled,3.1.0,60.34802707359426,
_,_5,N,135,_,_,__5N135__,N,0,230,230,91,,,1.3980000000000001,1230.4871495999978,1230.8057876999956,1230.8227093000023,1231.106330700015,1231.1227130000188,None,up,2.352295500022592,1231.1227130000188,None,1231.1227130000188,1232.5047415000154,0.08380469999974594,None,,,,,,,,,6,001,2019_Dec_23_1051,untitled,3.1.0,60.34802707359426,
_,G,M,0,_,_,_GM000__,N,0,231,231,8,,,0.724,1233.5911622999993,1233.8868868999998,1233.903295199998,1234.1866277999943,1234.203441300022,None,down,2.048380799998995,1234.203441300022,None,1234.203441300022,1234.919503800018,0.10551279998617247,None,,,,,,,,,6,001,2019_Dec_23_1051,untitled,3.1.0,60.34802707359426,
269,_2,M,180,R,N,269_2M180RN,HRN,0,232,232,148,,,0.888,1236.7396710000176,1236.7396710000176,1236.7396710000176,1237.03497410001,1237.03497410001,None,up,1.7663311999931466,1237.03497410001,None,1237.03497410001,1237.850271400006,0.4803261999913957,None,,,,,,,,,6,001,2019_Dec_23_1051,untitled,3.1.0,60.34802707359426,
_,_2,M,225,_,_,__2M225__,N,0,233,233,29,,,1.147,1239.018560299999,1239.3151722000039,1239.3151722000039,1239.5158362000075,1239.532220699999,None,down,3.015291600022465,1239.532220699999,None,1239.532220699999,1240.6648622000066,0.20877540000947192,None,,,,,,,,,6,001,2019_Dec_23_1051,untitled,3.1.0,60.34802707359426,
175,F,M,270,L,N,175FM270LN,HLN,0,234,234,126,,,0.929,1242.760201600002,1243.0618155999982,1243.0618155999982,1243.2618479999946,1243.2783636999957,None,down,2.136410099978093,1243.2783636999957,None,1243.2783636999957,1244.1939846000168,0.20177939999848604,None,,,,,,,,,6,001,2019_Dec_23_1051,untitled,3.1.0,60.34802707359426,
230,G,N,225,L,N,230GN225LN,HLN,0,235,235,237,,,1.318,1245.5321767000132,1245.8258128000016,1245.8426344000036,1246.1263153000036,1246.1432399000041,None,up,3.19686090000323,1246.1432399000041,None,1246.1432399000041,1247.4585783999937,0.10626939998473972,None,,,,,,,,,6,001,2019_Dec_23_1051,untitled,3.1.0,60.34802707359426,
482,_5,N,45,L,N,482_5N045LN,HLN,0,236,236,281,,,0.993,1249.5503207000147,1249.8397492000076,1249.8397492000076,1250.0563190999965,1250.0752360000042,None,up,2.3992043000180274,1250.0752360000042,None,1250.0752360000042,1251.038858200016,0.20228749999660067,None,,,,,,,,,6,001,2019_Dec_23_1051,untitled,3.1.0,60.34802707359426,
427,_4,M,90,L,N,427_4M090LN,HLN,0,237,237,170,,,1.077,1252.5848758000066,1252.8864225000143,1252.902724900021,1253.1867488000134,1253.2037711000012,None,down,2.4322580999869388,1253.2037711000012,None,1253.2037711000012,1254.2693354999938,0.09877949999645352,None,,,,,,,,,6,001,2019_Dec_23_1051,untitled,3.1.0,60.34802707359426,
_,_5,M,225,_,_,__5M225__,N,0,238,238,45,,,0.887,1255.757693099993,1256.0503529999987,1256.067246999999,1256.3510047000018,1256.3677323000156,None,down,2.6479102000012062,1256.3677323000156,None,1256.3677323000156,1257.2338409000076,0.11085450000246055,None,,,,,,,,,6,001,2019_Dec_23_1051,untitled,3.1.0,60.34802707359426,
143,F,M,270,R,N,143FM270RN,HRN,0,239,239,118,,,1.35,1259.5471288000117,1259.5471288000117,1259.5471288000117,1259.8473081999982,1259.8473081999982,None,down,2.301307999994606,1259.8473081999982,None,1259.8473081999982,1261.079239100014,0.5217873999790754,None,,,,,,,,,6,001,2019_Dec_23_1051,untitled,3.1.0,60.34802707359426,
_,F,M,45,_,_,_FM045__,N,0,240,240,1,,,1.2710000000000001,1262.3595714000112,1262.6613780000189,1262.6613780000189,1262.8614729999972,1262.8788769000093,None,down,2.0840660000103526,1262.8788769000093,None,1262.8788769000093,1264.143222100014,0.1994999999878928,None,,,,,,,,,6,001,2019_Dec_23_1051,untitled,3.1.0,60.34802707359426,
481,_5,N,0,L,N,481_5N000LN,HLN,0,241,241,280,,,0.8170000000000001,1265.0900533999957,1265.3925064000068,1265.3925064000068,1265.6762082000205,1265.6929781000072,None,up,1.9145475999976043,1265.6929781000072,None,1265.6929781000072,1266.4921973000164,0.11664419999578968,None,,,,,,,,,6,001,2019_Dec_23_1051,untitled,3.1.0,60.34802707359426,
_,F,N,270,_,_,_FN270__,N,0,242,242,54,,,0.918,1267.778517300001,1268.0730752999953,1268.0730752999953,1268.3231068000023,1268.3394430000044,None,down,2.269123700010823,1268.3394430000044,None,1268.3394430000044,1269.2391466000117,0.16293650001171045,None,,,,,,,,,6,001,2019_Dec_23_1051,untitled,3.1.0,60.34802707359426,
_,_4,N,315,_,_,__4N315__,N,0,243,243,87,,,0.932,1270.726617600012,1271.0211300000083,1271.0373996999988,1271.3236481000204,1271.3382765999995,None,up,2.7483032000018284,1271.3382765999995,None,1271.3382765999995,1272.254022100009,0.1062095999950543,None,,,,,,,,,6,001,2019_Dec_23_1051,untitled,3.1.0,60.34802707359426,
_,_4,M,270,_,_,__4M270__,N,0,244,244,38,,,1.326,1274.1717535000062,1274.5010248000035,1274.5176913000178,1274.801842899993,1274.8210435000074,None,down,2.2311186000006273,1274.8210435000074,None,1274.8210435000074,1276.1336889000086,0.07690799998817965,None,,,,,,,,,6,001,2019_Dec_23_1051,untitled,3.1.0,60.34802707359426,
494,_5,M,225,L,N,494_5M225LN,HLN,0,245,245,189,,,0.964,1277.1775808999955,1277.46709250001,1277.46709250001,1277.7651801000175,1277.7817383999936,None,down,2.9503434999787714,1277.7817383999936,None,1277.7817383999936,1278.7688516000053,0.11419630001182668,None,,,,,,,,,6,001,2019_Dec_23_1051,untitled,3.1.0,60.34802707359426,
301,_2,M,180,L,N,301_2M180LN,HLN,0,246,246,156,,,0.8300000000000001,1281.2020255000098,1281.2020255000098,1281.2020255000098,1281.4970314000093,1281.4970314000093,None,down,1.9494880999845918,1281.4970314000093,None,1281.4970314000093,1282.2782731000043,0.457355299993651,None,,,,,,,,,6,001,2019_Dec_23_1051,untitled,3.1.0,60.34802707359426,
_,_5,N,270,_,_,__5N270__,N,0,247,247,94,,,0.721,1283.5717257999931,1283.8614927000017,1283.8614927000017,1284.159979499993,1284.1767923000152,None,up,1.5024188999959733,1284.1767923000152,None,1284.1767923000152,1284.8927638000168,0.11423680000007153,None,,,,,,,,,6,001,2019_Dec_23_1051,untitled,3.1.0,60.34802707359426,
270,_2,M,225,R,N,270_2M225RN,HRN,0,248,248,149,,,0.727,1285.8142892000033,1286.1073707000178,1286.1073707000178,1286.3911628000205,1286.408238700009,None,down,2.0313033999991603,1286.408238700009,None,1286.408238700009,1287.1234376000066,0.12393279999378137,None,,,,,,,,,6,001,2019_Dec_23_1051,untitled,3.1.0,60.34802707359426,
496,_5,M,315,L,N,496_5M315LN,HLN,0,249,249,191,,,0.9480000000000001,1288.5257087000064,1288.8558321000019,1288.8719293000177,1289.155143800017,1289.171915600018,None,down,1.7503895000263583,1289.171915600018,None,1289.171915600018,1290.1045439000009,0.07878640000126325,None,,,,,,,,,6,001,2019_Dec_23_1051,untitled,3.1.0,60.34802707359426,
_,_5,N,315,_,_,__5N315__,N,0,250,250,95,,,1.048,1291.0398449000204,1291.3362890999997,1291.3526533000113,1291.638323000021,1291.6536862000066,None,up,1.9657828000199515,1291.6536862000066,None,1291.6536862000066,1292.685965600016,0.10649959999136627,None,,,,,,,,,6,001,2019_Dec_23_1051,untitled,3.1.0,60.34802707359426,
203,G,M,90,R,N,203GM090RN,HRN,0,251,251,130,,,0.71,1293.7014637000102,1294.0359111000143,1294.0508769000007,1294.334623600007,1294.3514348000172,None,down,2.8818496000021696,1294.3514348000172,None,1294.3514348000172,1295.0504987000022,0.073843999998644,None,,,,,,,,,6,001,2019_Dec_23_1051,untitled,3.1.0,60.34802707359426,
048,R,M,315,L,N,048RM315LN,HLN,0,252,252,111,,,0.767,1297.3469257999968,1297.6477135000168,1297.664488200011,1297.947152000008,1297.9639416999999,None,down,1.8009091000130866,1297.9639416999999,None,1297.9639416999999,1298.7139760999999,0.10143469998729415,None,,,,,,,,,6,001,2019_Dec_23_1051,untitled,3.1.0,60.34802707359426,
_,_4,N,135,_,_,__4N135__,N,0,253,253,83,,,0.861,1299.8876504999935,1300.1796217999945,1300.1796217999945,1300.478377099993,1300.4950387999997,None,down,2.2160452000098303,1300.4950387999997,None,1300.4950387999997,1301.345205599995,0.11245580000104383,None,,,,,,,,,6,001,2019_Dec_23_1051,untitled,3.1.0,60.34802707359426,
_,G,M,135,_,_,_GM135__,N,0,254,254,11,,,1.241,1302.8111649000202,1303.1263949999993,1303.1431841000158,1303.4265790000209,1303.4433293000038,None,up,2.198652699997183,1303.4433293000038,None,1303.4433293000038,1304.6744869000104,0.09127529998659156,None,,,,,,,,,6,001,2019_Dec_23_1051,untitled,3.1.0,60.34802707359426,
207,G,M,270,R,N,207GM270RN,HRN,0,255,255,134,,,1.1,1305.7361101999995,1306.0572100999998,1306.0736055000161,1306.3563358999963,1306.3732958000037,None,up,2.600183400005335,1306.3732958000037,None,1306.3732958000037,1307.455886700016,0.08531550000770949,None,,,,,,,,,6,001,2019_Dec_23_1051,untitled,3.1.0,60.34802707359426,
_,R,N,0,_,_,_RN000__,N,0,256,256,64,,,1.3860000000000001,1309.4539864000108,1309.4539864000108,1309.4539864000108,1309.7536337000201,1309.7536337000201,None,down,2.4337770999991335,1309.7536337000201,None,1309.7536337000201,1311.0700936000212,0.4721702000242658,None,,,,,,,,,6,001,2019_Dec_23_1051,untitled,3.1.0,60.34802707359426,
047,R,M,270,L,N,047RM270LN,HLN,0,257,257,110,,,0.995,1312.3082323000126,1312.6016743000073,1312.6180972000002,1312.9018501999963,1312.917637000006,None,down,1.848725599993486,1312.917637000006,None,1312.917637000006,1313.9006087000016,0.10952060000272468,None,,,,,,,,,6,001,2019_Dec_23_1051,untitled,3.1.0,60.34802707359426,
194,G,N,45,R,N,194GN045RN,HRN,0,258,258,225,,,0.773,1314.8508220000076,1315.1827626000158,1315.198901900003,1315.4825143000053,1315.4993851000036,None,down,1.599670800002059,1315.4993851000036,None,1315.4993851000036,1316.2492533000186,0.07620270000188611,None,,,,,,,,,6,001,2019_Dec_23_1051,untitled,3.1.0,60.34802707359426,
004,R,N,135,R,N,004RN135RN,HRN,0,259,259,195,,,0.9540000000000001,1317.1758559000154,1317.5140223000199,1317.5311015000043,1317.8140118000156,1317.8316025999957,None,down,1.6984234999981709,1317.8316025999957,None,1317.8316025999957,1318.7633522000106,0.06927769997855648,None,,,,,,,,,6,001,2019_Dec_23_1051,untitled,3.1.0,60.34802707359426,
459,_5,M,90,R,N,459_5M090RN,HRN,0,260,260,178,,,1.289,1319.6465288000181,1319.9448688999983,1319.9614490999957,1320.2446293999965,1320.2613013999944,None,down,2.2029695000092033,1320.2613013999944,None,1320.2613013999944,1321.5442233000067,0.10367040001438,None,,,,,,,,,6,001,2019_Dec_23_1051,untitled,3.1.0,60.34802707359426,
299,_2,M,90,L,N,299_2M090LN,HLN,0,261,261,154,,,1.31,1322.5765116999974,1322.8759469000215,1322.891880100011,1323.1756010999961,1323.1920530000061,None,down,2.168032099987613,1323.1920530000061,None,1323.1920530000061,1324.4912187000155,0.10029490001033992,None,,,,,,,,,6,001,2019_Dec_23_1051,untitled,3.1.0,60.34802707359426,
_,_2,N,45,_,_,__2N045__,N,0,262,262,73,,,0.842,1325.4652923000103,1325.774344000005,1325.7894914000062,1326.0756432000198,1326.091136700008,None,down,3.0958412000036333,1326.091136700008,None,1326.091136700008,1326.9235765000049,0.09520330000668764,None,,,,,,,,,6,001,2019_Dec_23_1051,untitled,3.1.0,60.34802707359426,
033,R,N,0,L,N,033RN000LN,HLN,0,263,263,200,,,1.4000000000000001,1329.4081133000145,1329.7029635999934,1329.7029635999934,1329.902770500019,1329.9194356999942,None,down,2.2502154000103474,1329.9194356999942,None,1329.9194356999942,1331.3024009999936,0.2131480000098236,None,,,,,,,,,6,001,2019_Dec_23_1051,untitled,3.1.0,60.34802707359426,
_,_4,M,135,_,_,__4M135__,N,0,264,264,35,,,1.364,1332.2905217999942,1332.5839187999954,1332.6006137999939,1332.8847048000025,1332.9022863999999,None,up,2.264950899989344,1332.9022863999999,None,1332.9022863999999,1334.2492658999981,0.10972330000367947,None,,,,,,,,,6,001,2019_Dec_23_1051,untitled,3.1.0,60.34802707359426,
289,_2,N,0,L,N,289_2N000LN,HLN,0,265,265,248,,,1.316,1335.2574227000005,1335.5812869000074,1335.5978452000127,1335.8808426000178,1335.8974072000128,None,up,2.8990669999911916,1335.8974072000128,None,1335.8974072000128,1337.1967012000096,0.08136400001239963,None,,,,,,,,,6,001,2019_Dec_23_1051,untitled,3.1.0,60.34802707359426,
231,G,N,270,L,N,231GN270LN,HLN,0,266,266,238,,,0.834,1338.994573700009,1339.2948976000189,1339.2948976000189,1339.5127380000195,1339.5289129000157,None,down,1.7361275000148453,1339.5289129000157,None,1339.5289129000157,1340.3443853000063,0.18728280000505038,None,,,,,,,,,6,001,2019_Dec_23_1051,untitled,3.1.0,60.34802707359426,
423,_4,N,270,L,N,423_4N270LN,HLN,0,267,267,270,,,1.026,1341.3697115000105,1341.6757279000012,1341.6928492000152,1341.9762395000143,1341.9933672000188,None,up,2.4155185999989044,1341.9933672000188,None,1341.9933672000188,1343.0088561000011,0.09316280001075938,None,,,,,,,,,6,001,2019_Dec_23_1051,untitled,3.1.0,60.34802707359426,
134,F,N,225,R,N,134FN225RN,HRN,0,268,268,213,,,0.8150000000000001,1344.6304434000049,1344.9231608000118,1344.9231608000118,1345.1233128000167,1345.1478220999998,None,down,2.176283799984958,1345.1478220999998,None,1345.1478220999998,1345.9393166000082,0.20844330001273192,None,,,,,,,,,6,001,2019_Dec_23_1051,untitled,3.1.0,60.34802707359426,
132,F,N,135,R,N,132FN135RN,HRN,0,269,269,211,,,1.296,1347.5335575000208,1347.8225046000152,1347.8225046000152,1348.037877099996,1348.0545339999953,None,down,2.2187680000206456,1348.0545339999953,None,1348.0545339999953,1349.3361685000127,0.1979999999748543,None,,,,,,,,,6,001,2019_Dec_23_1051,untitled,3.1.0,60.34802707359426,
162,F,N,45,L,N,162FN045LN,HLN,0,270,270,217,,,0.742,1350.4520884999947,1350.7511905000138,1350.7511905000138,1350.9846408000158,1351.0011317000026,None,down,1.5535817999916617,1351.0011317000026,None,1351.0011317000026,1351.7344737999956,0.17090349999489263,None,,,,,,,,,6,001,2019_Dec_23_1051,untitled,3.1.0,60.34802707359426,
_,F,M,270,_,_,_FM270__,N,0,271,271,6,,,1.24,1352.756755200011,1353.0496301999956,1353.0496301999956,1353.2664064000128,1353.283113900019,None,down,2.1984387999982573,1353.283113900019,None,1353.283113900019,1354.515388300002,0.19040039999526925,None,,,,,,,,,6,001,2019_Dec_23_1051,untitled,3.1.0,60.34802707359426,
_,_5,N,0,_,_,__5N000__,N,0,272,272,88,,,0.8160000000000001,1355.5873867000046,1355.8967635000008,1355.9133396999969,1356.1970299000095,1356.2138533999969,None,up,1.748004299995955,1356.2138533999969,None,1356.2138533999969,1357.0133891000005,0.09616990000358783,None,,,,,,,,,6,001,2019_Dec_23_1051,untitled,3.1.0,60.34802707359426,
131,F,N,90,R,N,131FN090RN,HRN,0,273,273,210,,,1.119,1358.174837700004,1358.4639586000121,1358.4639586000121,1358.678331300005,1358.6955903000198,None,up,1.9159367000102066,1358.6955903000198,None,1358.6955903000198,1359.7944979000022,0.2048103999986779,None,,,,,,,,,6,001,2019_Dec_23_1051,untitled,3.1.0,60.34802707359426,
_,R,N,90,_,_,_RN090__,N,0,274,274,66,,,1.004,1360.729999800009,1361.0253278000164,1361.043066000013,1361.3258066000126,1361.342721699999,None,down,2.4018979000102263,1361.342721699999,None,1361.342721699999,1362.3251340000133,0.10794560000067577,None,,,,,,,,,6,001,2019_Dec_23_1051,untitled,3.1.0,60.34802707359426,
_,_4,N,180,_,_,__4N180__,N,0,275,275,84,,,0.883,1363.8769565999974,1364.172941500001,1364.172941500001,1364.4568498000153,1364.4736807000008,None,down,1.8648511999926995,1364.4736807000008,None,1364.4736807000008,1365.3387870000151,0.12119939998956397,None,,,,,,,,,6,001,2019_Dec_23_1051,untitled,3.1.0,60.34802707359426,
_,R,M,0,_,_,_RM000__,N,0,276,276,16,,,1.224,1366.43677510001,1366.754099200014,1366.7706936000031,1367.0542014999955,1367.0706912000023,None,down,2.033332499995595,1367.0706912000023,None,1367.0706912000023,1368.2864777000214,0.0883099999919068,None,,,,,,,,,6,001,2019_Dec_23_1051,untitled,3.1.0,60.34802707359426,
463,_5,M,270,R,N,463_5M270RN,HRN,0,277,277,182,,,1.363,1369.2383685999957,1369.5348146000179,1369.5348146000179,1369.818263299996,1369.8345068000199,None,down,2.3163936999917496,1369.8345068000199,None,1369.8345068000199,1371.1840208000212,0.12497540001641028,None,,,,,,,,,6,001,2019_Dec_23_1051,untitled,3.1.0,60.34802707359426,
193,G,N,0,R,N,193GN000RN,HRN,0,278,278,224,,,0.896,1372.2240273000207,1372.5652507000195,1372.5819615999935,1372.8650838000176,1372.8825225000037,None,down,1.8166439999768045,1372.8825225000037,None,1372.8825225000037,1373.7646552000078,0.06550500000594184,None,,,,,,,,,6,001,2019_Dec_23_1051,untitled,3.1.0,60.34802707359426,
_,G,N,90,_,_,_GN090__,N,0,279,279,58,,,0.99,1374.9195972000016,1375.2138581000036,1375.2138581000036,1375.414363000018,1375.4304555999988,None,down,1.9992601000121795,1375.4304555999988,None,1375.4304555999988,1376.4128543999977,0.20798269999795593,None,,,,,,,,,6,001,2019_Dec_23_1051,untitled,3.1.0,60.34802707359426,
_,G,M,270,_,_,_GM270__,N,0,280,280,14,,,1.0090000000000001,1377.642196300003,1377.9445352000184,1377.9445352000184,1378.1447964000108,1378.1650060999964,None,down,2.112542899994878,1378.1650060999964,None,1378.1650060999964,1379.160553900001,0.20277860001078807,None,,,,,,,,,6,001,2019_Dec_23_1051,untitled,3.1.0,60.34802707359426,
_,_4,M,315,_,_,__4M315__,N,0,281,281,39,,,1.171,1380.4044049000076,1380.6932834000036,1380.6932834000036,1380.9914848000044,1381.0090822000057,None,up,2.8342682000075,1381.0090822000057,None,1381.0090822000057,1382.174006300018,0.11650589999044314,None,,,,,,,,,6,001,2019_Dec_23_1051,untitled,3.1.0,60.34802707359426,
461,_5,M,180,R,N,461_5M180RN,HRN,0,282,282,180,,,1.3760000000000001,1383.9590120000066,1384.256427800021,1384.2721421000024,1384.555637100013,1384.5732890000218,None,down,2.3976006000011694,1384.5732890000218,None,1384.5732890000218,1385.9377115000098,0.10475579998455942,None,,,,,,,,,6,001,2019_Dec_23_1051,untitled,3.1.0,60.34802707359426,
_,F,M,90,_,_,_FM090__,N,0,283,283,2,,,1.095,1387.1772259999998,1387.469392900006,1387.469392900006,1387.6865173999977,1387.703086900001,None,down,2.4014848000078928,1387.703086900001,None,1387.703086900001,1388.785466100002,0.1949781000148505,None,,,,,,,,,6,001,2019_Dec_23_1051,untitled,3.1.0,60.34802707359426,
396,_4,M,135,R,N,396_4M135RN,HRN,0,284,284,163,,,0.808,1390.2211989000207,1390.5165381999977,1390.5332412999996,1390.8170608000073,1390.833760300011,None,down,2.3303488999954425,1390.833760300011,None,1390.833760300011,1391.632989500009,0.10633360000792891,None,,,,,,,,,6,001,2019_Dec_23_1051,untitled,3.1.0,60.34802707359426,
_,_2,M,270,_,_,__2M270__,N,0,285,285,30,,,1.293,1393.2759026999993,1393.5644818000146,1393.5974255000183,1393.8816194999963,1393.897995700012,None,down,1.9160307999991346,1393.897995700012,None,1393.897995700012,1395.1635352000012,0.10371450000093319,None,,,,,,,,,6,001,2019_Dec_23_1051,untitled,3.1.0,60.34802707359426,
236,G,M,135,L,N,236GM135LN,HLN,0,286,286,139,,,1.059,1395.947444999998,1396.2455885999952,1396.2455885999952,1396.527798199997,1396.544963799999,None,down,1.7325871999782976,1396.544963799999,None,1396.544963799999,1397.5939186000032,0.12102930000401102,None,,,,,,,,,6,001,2019_Dec_23_1051,untitled,3.1.0,60.34802707359426,
_,_4,M,225,_,_,__4M225__,N,0,287,287,37,,,1.298,1398.3700149999931,1398.6931965000113,1398.709568499995,1398.9931278000004,1399.010139399994,None,down,2.184808600024553,1399.010139399994,None,1399.010139399994,1400.2922864000138,0.08438980000209995,None,,,,,,,,,6,001,2019_Dec_23_1051,untitled,3.1.0,60.34802707359426,
,,,,,,,,,,,,,,,,,,,,,,,,,,,,,1401.210319500009,None,1435.8105790000118,None,1441.8054271000146,None,1449.4494896999968,None,,,,,,,
