Number,Letter,type,Orientation,human,face_type,image,picture,trials.thisRepN,trials.thisTrialN,trials.thisN,trials.thisIndex,text.started,text.stopped,stimulus_duration,CROSS.started,CROSS.stopped,BLANK.started,BLANK.stopped,TEST.started,TEST.stopped,key_JUDGE.keys,key_JUDGE.rt,key_JUDGE.started,key_JUDGE.stopped,image_2.started,image_2.stopped,ISI.started,ISI.stopped,q1.started,q1.stopped,q2.started,q2.stopped,q3.started,q3.stopped,text_2.started,text_2.stopped,participant,session,date,expName,psychopyVersion,frameRate,
208,G,M,315,R,N,208GM315RN,HRN,0,0,0,135,11.153692300023977,None,0.867,49.11016860001837,49.44504880000022,49.46226729999762,49.74447990002227,49.762129600014305,None,down,2.8334279999835417,49.762129600014305,None,49.762129600014305,50.610450800013496,0.07128299999749288,None,,,,,,,,,7,001,2019_Dec_23_1115,untitled,3.1.0,60.24208885721976,
164,F,N,135,L,N,164FN135LN,HLN,0,1,1,219,,,1.066,52.73496470000828,53.07561020000139,53.09241700000712,53.37557280002511,53.39237330001197,None,down,2.2847993999894243,53.39237330001197,None,53.39237330001197,54.44084290001774,0.06945840001571923,None,,,,,,,,,7,001,2019_Dec_23_1115,untitled,3.1.0,60.24208885721976,
398,_4,M,225,R,N,398_4M225RN,HRN,0,2,2,165,,,1.0170000000000001,55.79685710000922,56.089597800018964,56.10607360000722,56.38983860000735,56.406323700008215,None,None,,56.406323700008215,None,56.406323700008215,57.40540930000134,0.10879709999426268,None,,,,,,,,,7,001,2019_Dec_23_1115,untitled,3.1.0,60.24208885721976,
_,_5,N,315,_,_,__5N315__,N,0,3,3,95,,,0.764,59.99246100001619,60.286274300015066,60.286274300015066,60.58693040002254,60.6026533000113,59.99246100001619,up,1.516569100000197,60.6026533000113,None,60.6026533000113,61.35087100000237,0.10993800000869669,None,,,,,,,,,7,001,2019_Dec_23_1115,untitled,3.1.0,60.24208885721976,
231,G,N,270,L,N,231GN270LN,HLN,0,4,4,238,,,0.704,62.243600400019204,62.53421949999756,62.53421949999756,62.83423619999667,62.850760700006504,None,up,1.73507029999746,62.850760700006504,None,62.850760700006504,63.53355819999706,0.1134176000196021,None,,,,,,,,,7,001,2019_Dec_23_1115,untitled,3.1.0,60.24208885721976,
_,R,M,45,_,_,_RM045__,N,0,5,5,17,,,0.929,64.71993640001165,65.0147826000175,65.0147826000175,65.29796090000309,65.31512169999769,None,down,1.8663966999738477,65.31512169999769,None,65.31512169999769,66.230769900023,0.12114150001434609,None,,,,,,,,,7,001,2019_Dec_23_1115,untitled,3.1.0,60.24208885721976,
230,G,N,225,L,N,230GN225LN,HLN,0,6,6,237,,,0.713,67.29270370001905,67.5818654000177,67.61255400002119,67.89607720001368,67.91391640002257,None,up,1.6986432000121567,67.91391640002257,None,67.91391640002257,68.61255089999759,0.10081979999085888,None,,,,,,,,,7,001,2019_Dec_23_1115,untitled,3.1.0,60.24208885721976,
_,R,M,225,_,_,_RM225__,N,0,7,7,21,,,1.01,69.72011010002461,70.0273774000234,70.04399130001548,70.32742380001582,70.34429590002401,None,down,2.3658173000148963,70.34429590002401,None,70.34429590002401,71.34244670000044,0.09826229998725466,None,,,,,,,,,7,001,2019_Dec_23_1115,untitled,3.1.0,60.24208885721976,
463,_5,M,270,R,N,463_5M270RN,HRN,0,8,8,182,,,0.748,72.83420959999785,73.12475170000107,73.12475170000107,73.4245818000054,73.44145300000673,None,up,2.0200322999735363,73.44145300000673,None,73.44145300000673,74.17446790001122,0.11209080001572147,None,,,,,,,,,7,001,2019_Dec_23_1115,untitled,3.1.0,60.24208885721976,
264,_2,N,315,R,N,264_2N315RN,HRN,0,9,9,247,,,1.306,75.57193020000705,75.87261770002078,75.88877540000249,76.17241650001961,76.1890671000001,None,down,3.331905500002904,76.1890671000001,None,76.1890671000001,77.4877514000109,0.09949550000601448,None,,,,,,,,,7,001,2019_Dec_23_1115,untitled,3.1.0,60.24208885721976,
171,F,M,90,L,N,171FM090LN,HLN,0,10,10,122,,,0.9560000000000001,79.62944910000078,79.93491959999665,79.95120530002168,80.2348138000234,80.25136750002275,None,down,1.9673623999988195,80.25136750002275,None,80.25136750002275,81.20044610000332,0.09868229998392053,None,,,,,,,,,7,001,2019_Dec_23_1115,untitled,3.1.0,60.24208885721976,
_,_4,M,90,_,_,__4M090__,N,0,11,11,34,,,0.991,82.34295300001395,82.6330671000178,82.6330671000178,82.93339700001525,82.94965880000382,None,down,2.5164796999888495,82.94965880000382,None,82.94965880000382,83.9326349000039,0.11317740002414212,None,,,,,,,,,7,001,2019_Dec_23_1115,untitled,3.1.0,60.24208885721976,
450,_5,N,45,R,N,450_5N045RN,HRN,0,12,12,273,,,0.934,85.58854550000979,85.88024739999673,85.88024739999673,86.18141879999894,86.19717030000174,None,up,1.668657100002747,86.19717030000174,None,86.19717030000174,87.11302530000103,0.11218789999838918,None,,,,,,,,,7,001,2019_Dec_23_1115,untitled,3.1.0,60.24208885721976,
496,_5,M,315,L,N,496_5M315LN,HLN,0,13,13,191,,,1.345,87.991837700014,88.29443320000428,88.29443320000428,88.5782078000193,88.59491210000124,None,down,2.3181461000058334,88.59491210000124,None,88.59491210000124,89.92699860001449,0.1148844999843277,None,,,,,,,,,7,001,2019_Dec_23_1115,untitled,3.1.0,60.24208885721976,
225,G,N,0,L,N,225GN000LN,HLN,0,14,14,232,,,0.843,91.02462070001638,91.32520859999931,91.34200950001832,91.62552920001326,91.64220410000416,None,up,1.9664744999899995,91.64220410000416,None,91.64220410000416,92.47476000001188,0.10049429998616688,None,,,,,,,,,7,001,2019_Dec_23_1115,untitled,3.1.0,60.24208885721976,
163,F,N,90,L,N,163FN090LN,HLN,0,15,15,218,,,0.717,93.72165839999798,94.02298570002313,94.03959200001555,94.32326130001456,94.33991599999717,None,up,1.6826605999958701,94.33991599999717,None,94.33991599999717,95.03900660001091,0.10149659999297,None,,,,,,,,,7,001,2019_Dec_23_1115,untitled,3.1.0,60.24208885721976,
421,_4,N,180,L,N,421_4N180LN,HLN,0,16,16,268,,,1.231,96.1262493999966,96.43750490000821,96.45438160002232,96.73822680002195,96.75430240001879,None,None,,96.75430240001879,None,96.75430240001879,97.97000900001149,0.09399850000045262,None,,,,,,,,,7,001,2019_Dec_23_1115,untitled,3.1.0,60.24208885721976,
_,G,N,315,_,_,_GN315__,N,0,17,17,63,,,1.046,100.30463560001226,100.6339698000229,100.65041950001614,100.93418820001534,100.95095359999686,100.30463560001226,up,1.7849738000077195,100.95095359999686,None,100.95095359999686,101.98362350001116,0.07687720001558773,None,,,,,,,,,7,001,2019_Dec_23_1115,untitled,3.1.0,60.24208885721976,
143,F,M,270,R,N,143FM270RN,HRN,0,18,18,118,,,1.092,102.86339780001435,103.16527320002206,103.16527320002206,103.45031450001989,103.4657555000158,None,down,1.88153610000154,103.4657555000158,None,103.4657555000158,104.54811480001081,0.11426679999567568,None,,,,,,,,,7,001,2019_Dec_23_1115,untitled,3.1.0,60.24208885721976,
004,R,N,135,R,N,004RN135RN,HRN,0,19,19,195,,,1.343,105.47200999999768,105.76291980000678,105.76291980000678,106.0624255000148,106.07911469999817,None,up,2.7326984999817796,106.07911469999817,None,106.07911469999817,107.41070680000121,0.1144536999927368,None,,,,,,,,,7,001,2019_Dec_23_1115,untitled,3.1.0,60.24208885721976,
488,_5,N,315,L,N,488_5N315LN,HLN,0,20,20,287,,,0.988,108.92681000000448,109.22713420001674,109.2427355000109,109.5264068999968,109.54354790001526,None,up,2.182657500001369,109.54354790001526,None,109.54354790001526,110.5255544000247,0.10353609998128377,None,,,,,,,,,7,001,2019_Dec_23_1115,untitled,3.1.0,60.24208885721976,
296,_2,N,315,L,N,296_2N315LN,HLN,0,21,21,255,,,1.3940000000000001,111.80605189999915,112.1401717000117,112.15739080001367,112.44063800000004,112.45737650000956,None,up,2.9153642999881413,112.45737650000956,None,112.45737650000956,113.83983740000986,0.06993779999902472,None,,,,,,,,,7,001,2019_Dec_23_1115,untitled,3.1.0,60.24208885721976,
269,_2,M,180,R,N,269_2M180RN,HRN,0,22,22,148,,,1.158,115.48180280000088,115.78731700000935,115.8038878000225,116.08756040001754,116.1044147000066,None,down,2.700879399984842,116.1044147000066,None,116.1044147000066,117.23637100000633,0.09758159998455085,None,,,,,,,,,7,001,2019_Dec_23_1115,untitled,3.1.0,60.24208885721976,
_,_5,M,45,_,_,__5M045__,N,0,23,23,41,,,1.3,118.93821839999873,119.23422770001343,119.23422770001343,119.517789000005,119.53468520002207,None,up,2.348968000005698,119.53468520002207,None,119.53468520002207,120.81718589999946,0.12153809997835197,None,,,,,,,,,7,001,2019_Dec_23_1115,untitled,3.1.0,60.24208885721976,
131,F,N,90,R,N,131FN090RN,HRN,0,24,24,210,,,1.082,121.98398479999742,122.29814670002088,122.31490640001721,122.60030220000772,122.61784670001362,None,up,2.0648071999894455,122.61784670001362,None,122.61784670001362,123.68112330001895,0.09144040002138354,None,,,,,,,,,7,001,2019_Dec_23_1115,untitled,3.1.0,60.24208885721976,
_,_5,M,270,_,_,__5M270__,N,0,25,25,46,,,0.746,124.79700970000704,125.09581070000422,125.1120259000163,125.39548470001318,125.41226430001552,None,down,2.416314699978102,125.41226430001552,None,125.41226430001552,126.14483980002115,0.10267659998498857,None,,,,,,,,,7,001,2019_Dec_23_1115,untitled,3.1.0,60.24208885721976,
_,F,N,225,_,_,_FN225__,N,0,26,26,53,,,1.166,127.946537300013,128.24287720001303,128.25996930000838,128.5432611000142,128.56010460000834,None,up,2.2485127999971155,128.56010460000834,None,128.56010460000834,129.70993540002382,0.10565099999075755,None,,,,,,,,,7,001,2019_Dec_23_1115,untitled,3.1.0,60.24208885721976,
_,_5,M,90,_,_,__5M090__,N,0,27,27,42,,,1.063,130.8826040000131,131.22408790001646,131.24073930000304,131.52431760000763,131.54328860001988,None,up,2.3783297000045422,131.54328860001988,None,131.54328860001988,132.58982190000825,0.06670619998476468,None,,,,,,,,,7,001,2019_Dec_23_1115,untitled,3.1.0,60.24208885721976,
_,G,N,45,_,_,_GN045__,N,0,28,28,57,,,0.846,134.00087869999697,134.33835289999843,134.35441349999746,134.6380608000036,134.65479920001235,None,up,2.0871346999774687,134.65479920001235,None,134.65479920001235,135.48896320001222,0.07005119998939335,None,,,,,,,,,7,001,2019_Dec_23_1115,untitled,3.1.0,60.24208885721976,
_,_4,M,45,_,_,__4M045__,N,0,29,29,33,,,1.276,136.85721370001556,137.1517559000058,137.16937430002145,137.45229260000633,137.46895790001145,None,down,3.0513709999795537,137.46895790001145,None,137.46895790001145,138.73390910000307,0.10462060000281781,None,,,,,,,,,7,001,2019_Dec_23_1115,untitled,3.1.0,60.24208885721976,
430,_4,M,225,L,N,430_4M225LN,HLN,0,30,30,173,,,1.196,140.63014730002033,140.93264199999976,140.94848820002517,141.2318703000201,141.2487540000002,None,down,2.7836895000073127,141.2487540000002,None,141.2487540000002,142.43129930002033,0.10015390001353808,None,,,,,,,,,7,001,2019_Dec_23_1115,untitled,3.1.0,60.24208885721976,
297,_2,M,0,L,N,297_2M000LN,HLN,0,31,31,152,,,0.998,144.14941589999944,144.44545200001448,144.46244350000052,144.74674349999987,144.76396040001418,None,up,2.079993599996669,144.76396040001418,None,144.76396040001418,145.74541709999903,0.1028846999979578,None,,,,,,,,,7,001,2019_Dec_23_1115,untitled,3.1.0,60.24208885721976,
294,_2,N,225,L,N,294_2N225LN,HLN,0,32,32,253,,,0.919,146.95258979999926,147.24328860000242,147.27766760002123,147.5605471000017,147.5769496000139,None,up,2.7495224000012968,147.5769496000139,None,147.5769496000139,148.47599370000535,0.10132549999980256,None,,,,,,,,,7,001,2019_Dec_23_1115,untitled,3.1.0,60.24208885721976,
_,G,M,90,_,_,_GM090__,N,0,33,33,10,,,0.746,150.44940240000142,150.7403600999969,150.7403600999969,151.04207580001093,151.05719230000977,None,down,1.8479258999868762,151.05719230000977,None,151.05719230000977,151.78980359999696,0.11036689998582006,None,,,,,,,,,7,001,2019_Dec_23_1115,untitled,3.1.0,60.24208885721976,
486,_5,N,225,L,N,486_5N225LN,HLN,0,34,34,285,,,1.058,152.98681030000444,153.32212740002433,153.3376720000233,153.62148760000127,153.63813870001468,None,up,2.28116320000845,153.63813870001468,None,153.63813870001468,154.67096320001292,0.0737105000007432,None,,,,,,,,,7,001,2019_Dec_23_1115,untitled,3.1.0,60.24208885721976,
200,G,N,315,R,N,200GN315RN,HRN,0,35,35,231,,,1.243,155.99954690001323,156.33569530001841,156.35216910002055,156.63534500001697,156.65177550000953,None,up,2.0339128999912646,156.65177550000953,None,156.65177550000953,157.88445900002262,0.07231630000751466,None,,,,,,,,,7,001,2019_Dec_23_1115,untitled,3.1.0,60.24208885721976,
484,_5,N,135,L,N,484_5N135LN,HLN,0,36,36,283,,,0.895,158.8141848000232,159.11594050002168,159.11594050002168,159.3996538000065,159.41654580002069,None,down,2.4496808999974746,159.41654580002069,None,159.41654580002069,160.2990151999984,0.11727210000390187,None,,,,,,,,,7,001,2019_Dec_23_1115,untitled,3.1.0,60.24208885721976,
137,F,M,0,R,N,137FM000RN,HRN,0,37,37,112,,,0.768,161.99256440001773,162.28225760001806,162.28225760001806,162.57966320001287,162.59706960001495,None,down,1.5998150999948848,162.59706960001495,None,162.59706960001495,163.3463871999993,0.1150787000078708,None,,,,,,,,,7,001,2019_Dec_23_1115,untitled,3.1.0,60.24208885721976,
293,_2,N,180,L,N,293_2N180LN,HLN,0,38,38,252,,,0.983,164.30997810000554,164.6122073000006,164.62788990000263,164.9112376999983,164.9279788999993,None,down,3.333866000000853,164.9279788999993,None,164.9279788999993,165.89418490001117,0.10100080000120215,None,,,,,,,,,7,001,2019_Dec_23_1115,untitled,3.1.0,60.24208885721976,
390,_4,N,225,R,N,390_4N225RN,HRN,0,39,39,261,,,0.755,168.3837874000019,168.67490610000095,168.67490610000095,168.97590030002175,168.99157980000018,None,up,2.1161904000036884,168.99157980000018,None,168.99157980000018,169.73987430002308,0.11162710000644438,None,,,,,,,,,7,001,2019_Dec_23_1115,untitled,3.1.0,60.24208885721976,
173,F,M,180,L,N,173FM180LN,HLN,0,40,40,124,,,1.239,171.23495100002037,171.5386390000058,171.5386390000058,171.82172370000626,171.8392733000219,None,down,2.8165245999989565,171.8392733000219,None,171.8392733000219,173.07134059999953,0.1168312999943737,None,,,,,,,,,7,001,2019_Dec_23_1115,untitled,3.1.0,60.24208885721976,
272,_2,M,315,R,N,272_2M315RN,HRN,0,41,41,151,,,0.865,174.7946453000186,175.08556610002415,175.08556610002415,175.3710870000068,175.3861219000246,None,down,1.8154674999823328,175.3861219000246,None,175.3861219000246,176.23661620001076,0.1260103000095114,None,,,,,,,,,7,001,2019_Dec_23_1115,untitled,3.1.0,60.24208885721976,
161,F,N,0,L,N,161FN000LN,HLN,0,42,42,216,,,0.768,177.30561130002025,177.61769929999718,177.63313690002542,177.9172803000256,177.93369340000208,None,up,1.6358146999846213,177.93369340000208,None,177.93369340000208,178.68341540000984,0.09452360001159832,None,,,,,,,,,7,001,2019_Dec_23_1115,untitled,3.1.0,60.24208885721976,
_,F,N,0,_,_,_FN000__,N,0,43,43,48,,,0.9500000000000001,179.70075099999667,179.99819350001053,179.99819350001053,180.28164760000072,180.29889659999753,None,up,2.5988556999946013,180.29889659999753,None,180.29889659999753,181.23065199999837,0.12015819997759536,None,,,,,,,,,7,001,2019_Dec_23_1115,untitled,3.1.0,60.24208885721976,
289,_2,N,0,L,N,289_2N000LN,HLN,0,44,44,248,,,1.187,182.97246060002362,183.31138060000376,183.3281998000166,183.61190030002035,183.62827330001164,None,up,2.1348113999993075,183.62827330001164,None,183.62827330001164,184.79428760000155,0.0669212999928277,None,,,,,,,,,7,001,2019_Dec_23_1115,untitled,3.1.0,60.24208885721976,
_,R,N,0,_,_,_RN000__,N,0,45,45,64,,,0.849,185.87684920002357,186.17577680002432,186.19253990001744,186.4760337000189,186.49249110001256,None,up,1.5671192999870982,186.49249110001256,None,186.49249110001256,187.32546930000535,0.10258740000426769,None,,,,,,,,,7,001,2019_Dec_23_1115,untitled,3.1.0,60.24208885721976,
_,F,N,135,_,_,_FN135__,N,0,46,46,51,,,0.727,188.18344000002253,188.4741100000101,188.4741100000101,188.77425730001414,188.7910014000081,None,up,1.8336588999954984,188.7910014000081,None,188.7910014000081,189.5066366000101,0.11196569999447092,None,,,,,,,,,7,001,2019_Dec_23_1115,untitled,3.1.0,60.24208885721976,
_,G,M,0,_,_,_GM000__,N,0,47,47,8,,,0.778,190.73749590001535,191.03843810001854,191.0548549000232,191.33777230000123,191.3543830999988,None,down,1.5004933000018355,191.3543830999988,None,191.3543830999988,192.12011650000932,0.10180989999207668,None,,,,,,,,,7,001,2019_Dec_23_1115,untitled,3.1.0,60.24208885721976,
039,R,N,270,L,N,039RN270LN,HLN,0,48,48,206,,,1.301,192.9840702000074,193.27158160001272,193.27158160001272,193.569957300002,193.58868300000904,None,up,2.062378600006923,193.58868300000904,None,193.58868300000904,194.86805570000433,0.11817770000197925,None,,,,,,,,,7,001,2019_Dec_23_1115,untitled,3.1.0,60.24208885721976,
165,F,N,180,L,N,165FN180LN,HLN,0,49,49,220,,,1.389,195.73251310002524,196.06718650000403,196.08410870001535,196.36767740000505,196.3842091000115,None,None,,196.3842091000115,None,196.3842091000115,197.74991610000143,0.07395900000119582,None,,,,,,,,,7,001,2019_Dec_23_1115,untitled,3.1.0,60.24208885721976,
397,_4,M,180,R,N,397_4M180RN,HRN,0,50,50,164,,,0.98,199.9741733999981,200.2635526000231,200.2635526000231,200.56401480000932,200.58066740000504,199.9741733999981,up,2.648274000006495,200.58066740000504,None,200.58066740000504,201.5462097999989,0.11621900001773611,None,,,,,,,,,7,001,2019_Dec_23_1115,untitled,3.1.0,60.24208885721976,
_,_2,N,225,_,_,__2N225__,N,0,51,51,77,,,1.07,203.3174401000142,203.64423780000652,203.6606191000028,203.94412330002524,203.961065600015,None,up,2.3506939000217244,203.961065600015,None,203.961065600015,205.00924650000525,0.07994279998820275,None,,,,,,,,,7,001,2019_Dec_23_1115,untitled,3.1.0,60.24208885721976,
_,_2,M,315,_,_,__2M315__,N,0,52,52,31,,,0.773,206.4258467000036,206.7250122000114,206.74191229999997,207.0250530000194,207.0415512000036,None,down,1.4369120999763254,207.0415512000036,None,207.0415512000036,207.80699500002083,0.10248060000594705,None,,,,,,,,,7,001,2019_Dec_23_1115,untitled,3.1.0,60.24208885721976,
451,_5,N,90,R,N,451_5N090RN,HRN,0,53,53,274,,,1.221,208.59648040001048,208.88946210002177,208.90601140001672,209.18976330000442,209.20651450002333,None,down,2.46591199998511,209.20651450002333,None,209.20651450002333,210.42201800001203,0.10705489999963902,None,,,,,,,,,7,001,2019_Dec_23_1115,untitled,3.1.0,60.24208885721976,
292,_2,N,135,L,N,292_2N135LN,HLN,0,54,54,251,,,1.1500000000000001,211.7972486000217,212.08705349999946,212.1036124000093,212.38685130001977,212.4036122999969,None,down,3.1505963999952655,212.4036122999969,None,212.4036122999969,213.53638320000027,0.11026450002100319,None,,,,,,,,,7,001,2019_Dec_23_1115,untitled,3.1.0,60.24208885721976,
454,_5,N,225,R,N,454_5N225RN,HRN,0,55,55,277,,,0.7030000000000001,215.6686800000025,215.96681330000865,215.9838920000184,216.26672710001003,216.28348169999663,None,up,1.9154655000020284,216.28348169999663,None,216.28348169999663,216.98195350001333,0.10152239998569712,None,,,,,,,,,7,001,2019_Dec_23_1115,untitled,3.1.0,60.24208885721976,
_,R,N,180,_,_,_RN180__,N,0,56,56,68,,,0.799,218.28536800001166,218.61460300002364,218.63158480002312,218.91428379999707,218.93337830001838,None,up,2.3148946999863256,218.93337830001838,None,218.93337830001838,219.7138518000138,0.07842600002186373,None,,,,,,,,,7,001,2019_Dec_23_1115,untitled,3.1.0,60.24208885721976,
239,G,M,270,L,N,239GM270LN,HLN,0,57,57,142,,,1.198,221.38981220001006,221.66196290001972,221.67813390001538,221.9622089000186,221.9789156000188,None,down,2.8497735999990255,221.9789156000188,None,221.9789156000188,223.16286040001432,0.10658630001125857,None,,,,,,,,,7,001,2019_Dec_23_1115,untitled,3.1.0,60.24208885721976,
392,_4,N,315,R,N,392_4N315RN,HRN,0,58,58,263,,,1.069,224.94242220002343,225.24188460002188,225.25871789999655,225.5419646000082,225.55883240001276,None,up,2.26581900002202,225.55883240001276,None,225.55883240001276,226.62478280000505,0.10114139999495819,None,,,,,,,,,7,001,2019_Dec_23_1115,untitled,3.1.0,60.24208885721976,
207,G,M,270,R,N,207GM270RN,HRN,0,59,59,134,,,1.276,227.93834600000991,228.2394396000018,228.25652570000966,228.53962690001936,228.5561576000182,None,down,2.4178504000010435,228.5561576000182,None,228.5561576000182,229.8209435000026,0.10286569999880157,None,,,,,,,,,7,001,2019_Dec_23_1115,untitled,3.1.0,60.24208885721976,
304,_2,M,315,L,N,304_2M315LN,HLN,0,60,60,159,,,1.141,231.08725020001293,231.386021000013,231.40264120002394,231.68696710001677,231.7038727000181,None,down,2.681933600018965,231.7038727000181,None,231.7038727000181,232.83501890001935,0.10273899999447167,None,,,,,,,,,7,001,2019_Dec_23_1115,untitled,3.1.0,60.24208885721976,
_,_5,M,180,_,_,__5M180__,N,0,61,61,44,,,1.167,234.50806910000392,234.8002366000146,234.81731939999736,235.10046610000427,235.11738680000417,None,up,2.6489578000037,235.11738680000417,None,235.11738680000417,236.26661650001188,0.1087950999790337,None,,,,,,,,,7,001,2019_Dec_23_1115,untitled,3.1.0,60.24208885721976,
_,_5,N,45,_,_,__5N045__,N,0,62,62,89,,,0.775,237.89222490001703,238.1824903000088,238.1824903000088,238.48068550002063,238.49704670000938,None,up,1.5508418999961577,238.49704670000938,None,238.49704670000938,239.26355250002234,0.11400349999894388,None,,,,,,,,,7,001,2019_Dec_23_1115,untitled,3.1.0,60.24208885721976,
228,G,N,135,L,N,228GN135LN,HLN,0,63,63,235,,,1.157,240.17478950001532,240.46371690000524,240.46371690000524,240.76224330000696,240.77900590002537,None,up,3.1510203999932855,240.77900590002537,None,240.77900590002537,241.9283773000061,0.11189919998287223,None,,,,,,,,,7,001,2019_Dec_23_1115,untitled,3.1.0,60.24208885721976,
_,R,M,0,_,_,_RM000__,N,0,64,64,16,,,1.336,244.0464753000124,244.341928800015,244.3587851000193,244.6422392000095,244.65875790000428,None,down,2.1324321000138298,244.65875790000428,None,244.65875790000428,245.99119020000217,0.10531949999858625,None,,,,,,,,,7,001,2019_Dec_23_1115,untitled,3.1.0,60.24208885721976,
464,_5,M,315,R,N,464_5M315RN,HRN,0,65,65,183,,,1.343,246.86495050002122,247.2060041000077,247.22231400001328,247.50594920001458,247.5232590000087,None,down,2.5848102000018116,247.5232590000087,None,247.5232590000087,248.85520240000915,0.06459239998366684,None,,,,,,,,,7,001,2019_Dec_23_1115,untitled,3.1.0,60.24208885721976,
003,R,N,90,R,N,003RN090RN,HRN,0,66,66,194,,,0.992,250.22902660002,250.52008790001855,250.536656900018,250.82044800001313,250.83729670001776,None,up,2.2013983000069857,250.83729670001776,None,250.83729670001776,251.81864070001757,0.10688310000114143,None,,,,,,,,,7,001,2019_Dec_23_1115,untitled,3.1.0,60.24208885721976,
458,_5,M,45,R,N,458_5M045RN,HRN,0,67,67,177,,,0.921,253.16412910001236,253.45256520001567,253.45256520001567,253.75108840002213,253.76793460000772,None,down,2.0540008999814745,253.76793460000772,None,253.76793460000772,254.68345050001517,0.11324639999656938,None,,,,,,,,,7,001,2019_Dec_23_1115,untitled,3.1.0,60.24208885721976,
449,_5,N,0,R,N,449_5N000RN,HRN,0,68,68,272,,,1.283,255.93612840000424,256.23191570001654,256.24798179999925,256.53207680000924,256.5487586000236,None,up,1.9827564999868628,256.5487586000236,None,256.5487586000236,257.8307452000154,0.10321460000704974,None,,,,,,,,,7,001,2019_Dec_23_1115,untitled,3.1.0,60.24208885721976,
_,_4,N,180,_,_,__4N180__,N,0,69,69,84,,,1.354,258.652908100019,258.9454763000249,258.9631309999968,259.24543650000123,259.2626763000153,None,up,2.6357585999940056,259.2626763000153,None,259.2626763000153,260.61168060000637,0.10919360001571476,None,,,,,,,,,7,001,2019_Dec_23_1115,untitled,3.1.0,60.24208885721976,
204,G,M,135,R,N,204GM135RN,HRN,0,70,70,131,,,1.029,262.0190799999982,262.3098339000135,262.3261646000028,262.6094974000007,262.6266978000058,None,down,2.3159060000034515,262.6266978000058,None,262.6266978000058,263.6417813000153,0.10997290001250803,None,,,,,,,,,7,001,2019_Dec_23_1115,untitled,3.1.0,60.24208885721976,
_,F,M,225,_,_,_FM225__,N,0,71,71,5,,,0.864,265.0082977999991,265.35711360001005,265.37371270000585,265.6574966000044,265.674111100001,None,down,1.9006578999978956,265.674111100001,None,265.674111100001,266.52348470001016,0.05807050000294112,None,,,,,,,,,7,001,2019_Dec_23_1115,untitled,3.1.0,60.24208885721976,
_,_4,M,225,_,_,__4M225__,N,0,72,72,37,,,1.22,267.65963950002333,267.98835560001316,268.00440990002244,268.2882736000174,268.3049589000002,None,down,2.2682357000012416,268.3049589000002,None,268.3049589000002,269.50415730001987,0.07553080000798218,None,,,,,,,,,7,001,2019_Dec_23_1115,untitled,3.1.0,60.24208885721976,
130,F,N,45,R,N,130FN045RN,HRN,0,73,73,209,,,0.711,270.70787350001046,271.0019839000015,271.0019839000015,271.3348798000079,271.3348798000079,None,up,1.4839340999897104,271.3348798000079,None,271.3348798000079,272.0015932000242,0.1234833000053186,None,,,,,,,,,7,001,2019_Dec_23_1115,untitled,3.1.0,60.24208885721976,
047,R,M,270,L,N,047RM270LN,HLN,0,74,74,110,,,0.907,272.93517110001994,273.23352000000887,273.249805200001,273.533903500007,273.5524762000132,None,down,1.864541500021005,273.5524762000132,None,273.5524762000132,274.44954250002047,0.10581460001412779,None,,,,,,,,,7,001,2019_Dec_23_1115,untitled,3.1.0,60.24208885721976,
491,_5,M,90,L,N,491_5M090LN,HLN,0,75,75,186,,,0.927,275.54262449999806,275.8325275000243,275.8325275000243,276.1311619000044,276.1475311999966,None,down,2.217482999985805,276.1475311999966,None,276.1475311999966,277.0640234000166,0.11514290000195615,None,,,,,,,,,7,001,2019_Dec_23_1115,untitled,3.1.0,60.24208885721976,
_,G,M,180,_,_,_GM180__,N,0,76,76,12,,,1.0030000000000001,278.46755580001627,278.77885800000513,278.7951182000106,279.0784807000018,279.09508800000185,None,up,2.5522973999904934,279.09508800000185,None,279.09508800000185,280.07828270000755,0.09346999999252148,None,,,,,,,,,7,001,2019_Dec_23_1115,untitled,3.1.0,60.24208885721976,
419,_4,N,90,L,N,419_4N090LN,HLN,0,77,77,266,,,0.989,281.7598419999995,282.05909680001787,282.0756185000064,282.3593505000172,282.37627950002206,None,up,2.914804700005334,282.37627950002206,None,282.37627950002206,283.3572874000238,0.10185279999859631,None,,,,,,,,,7,001,2019_Dec_23_1115,untitled,3.1.0,60.24208885721976,
303,_2,M,270,L,N,303_2M270LN,HLN,0,78,78,158,,,0.803,285.4153692999971,285.7057615000231,285.7057615000231,286.00587090000045,286.02256310000666,None,down,2.019167299993569,286.02256310000666,None,286.02256310000666,286.80503100002534,0.11164720001397654,None,,,,,,,,,7,001,2019_Dec_23_1115,untitled,3.1.0,60.24208885721976,
_,_4,N,135,_,_,__4N135__,N,0,79,79,83,,,0.9570000000000001,288.15083830000367,288.47004710001056,288.47004710001056,288.7537715000217,288.7706055000017,None,up,2.3156974999874365,288.7706055000017,None,288.7706055000017,289.7201560000249,0.09827539999969304,None,,,,,,,,,7,001,2019_Dec_23_1115,untitled,3.1.0,60.24208885721976,
393,_4,M,0,R,N,393_4M000RN,HRN,0,80,80,160,,,1.218,291.2052569000225,291.5007881000056,291.51775320002344,291.80079280000064,291.81742289999966,None,down,2.06770700000925,291.81742289999966,None,291.81742289999966,293.01648380002007,0.10726049999357201,None,,,,,,,,,7,001,2019_Dec_23_1115,untitled,3.1.0,60.24208885721976,
_,R,N,90,_,_,_RN090__,N,0,81,81,66,,,1.262,293.9772748000105,294.29863500001375,294.31533219999983,294.5978692000208,294.6150369000097,None,up,2.03444980000495,294.6150369000097,None,294.6150369000097,295.86429789999966,0.08230889998958446,None,,,,,,,,,7,001,2019_Dec_23_1115,untitled,3.1.0,60.24208885721976,
162,F,N,45,L,N,162FN045LN,HLN,0,82,82,217,,,1.335,296.7440296999994,297.0628814000229,297.079186100018,297.36311040000874,297.38108459999785,None,up,1.9481557999970391,297.38108459999785,None,297.38108459999785,298.69389200001024,0.08592079998925328,None,,,,,,,,,7,001,2019_Dec_23_1115,untitled,3.1.0,60.24208885721976,
388,_4,N,135,R,N,388_4N135RN,HRN,0,83,83,259,,,1.178,299.45560710001155,299.7447902999993,299.7447902999993,300.0438226000115,300.06070460000774,None,up,2.235063200001605,300.06070460000774,None,300.06070460000774,301.22622060001595,0.11295169999357313,None,,,,,,,,,7,001,2019_Dec_23_1115,untitled,3.1.0,60.24208885721976,
_,_2,N,135,_,_,__2N135__,N,0,84,84,75,,,0.895,302.4220356000005,302.72559320001164,302.72559320001164,303.00828770000953,303.02457320000394,None,down,1.8667544999916572,303.02457320000394,None,303.02457320000394,303.9074344999972,0.11498919999576174,None,,,,,,,,,7,001,2019_Dec_23_1115,untitled,3.1.0,60.24208885721976,
042,R,M,45,L,N,042RM045LN,HLN,0,85,85,105,,,0.883,305.00672679999843,305.305625900015,305.32197960000485,305.6080490000022,305.6232313000073,None,down,1.9343281000037678,305.6232313000073,None,305.6232313000073,306.48773059999803,0.10332749999361113,None,,,,,,,,,7,001,2019_Dec_23_1115,untitled,3.1.0,60.24208885721976,
237,G,M,180,L,N,237GM180LN,HLN,0,86,86,140,,,0.896,307.70201600002474,308.0031146000256,308.0031146000256,308.2697502000083,308.2885513000074,None,down,2.7825620000076015,308.2885513000074,None,308.2885513000074,309.16876860000775,0.13209200001438148,None,,,,,,,,,7,001,2019_Dec_23_1115,untitled,3.1.0,60.24208885721976,
_,F,M,45,_,_,_FM045__,N,0,87,87,1,,,1.4000000000000001,311.1859745999973,311.48311820000526,311.50034810000216,311.78372380000656,311.80064739999943,None,down,2.282437399990158,311.80064739999943,None,311.80064739999943,313.18235980000463,0.10321299999486655,None,,,,,,,,,7,001,2019_Dec_23_1115,untitled,3.1.0,60.24208885721976,
136,F,N,315,R,N,136FN315RN,HRN,0,88,88,215,,,0.8,314.2062517000013,314.4978681000066,314.4978681000066,314.7980225000065,314.8141988000134,None,up,1.8505179999920074,314.8141988000134,None,314.8141988000134,315.5967779000057,0.11443879999569617,None,,,,,,,,,7,001,2019_Dec_23_1115,untitled,3.1.0,60.24208885721976,
432,_4,M,315,L,N,432_4M315LN,HLN,0,89,89,175,,,1.026,316.79300560001866,317.0954418000183,317.0954418000183,317.37834570000996,317.3949360999977,None,down,2.0676707999955397,317.3949360999977,None,317.3949360999977,318.41250740000396,0.11661259998800233,None,,,,,,,,,7,001,2019_Dec_23_1115,untitled,3.1.0,60.24208885721976,
135,F,N,270,R,N,135FN270RN,HRN,0,90,90,214,,,0.929,319.5861310000182,319.87655950000044,319.87655950000044,320.1766151000047,320.1930792000203,None,up,1.916293999995105,320.1930792000203,None,320.1930792000203,321.10798030000296,0.11240900002303533,None,,,,,,,,,7,001,2019_Dec_23_1115,untitled,3.1.0,60.24208885721976,
_,R,M,270,_,_,_RM270__,N,0,91,91,22,,,0.752,322.2276259000064,322.52368060001754,322.54037770000286,322.82428560001426,322.8408569000021,None,down,1.5167026999988593,322.8408569000021,None,322.8408569000021,323.59001130002434,0.10343149999971502,None,,,,,,,,,7,001,2019_Dec_23_1115,untitled,3.1.0,60.24208885721976,
267,_2,M,90,R,N,267_2M090RN,HRN,0,92,92,146,,,1.183,324.48128470001393,324.77190570000676,324.77190570000676,325.0715802000195,325.08823980001034,None,down,2.9671371000004,325.08823980001034,None,325.08823980001034,326.25681500000064,0.11235919999307953,None,,,,,,,,,7,001,2019_Dec_23_1115,untitled,3.1.0,60.24208885721976,
_,R,N,225,_,_,_RN225__,N,0,93,93,69,,,0.881,328.1698088000121,328.469562400016,328.48678750000545,328.76811800000723,328.7848740000045,None,up,1.9701381000049878,328.7848740000045,None,328.7848740000045,329.6515944999992,0.1023138000164181,None,,,,,,,,,7,001,2019_Dec_23_1115,untitled,3.1.0,60.24208885721976,
_,_4,N,315,_,_,__4N315__,N,0,94,94,87,,,1.281,330.86575710002217,331.16643490002025,331.18281900000875,331.46647000001394,331.48299660001067,None,up,2.151854199997615,331.48299660001067,None,331.48299660001067,332.7488124000083,0.10040970001136884,None,,,,,,,,,7,001,2019_Dec_23_1115,untitled,3.1.0,60.24208885721976,
495,_5,M,270,L,N,495_5M270LN,HLN,0,95,95,190,,,0.742,333.7473044000217,334.0474546000187,334.0637229999993,334.3472247000027,334.36414109999896,None,down,2.015032399998745,334.36414109999896,None,334.36414109999896,335.09589680001955,0.10126070000114851,None,,,,,,,,,7,001,2019_Dec_23_1115,untitled,3.1.0,60.24208885721976,
385,_4,N,0,R,N,385_4N000RN,HRN,0,96,96,256,,,0.769,336.4530047000153,336.794535300025,336.8112292000151,337.0947270000179,337.1116710000206,None,up,1.5353172000031918,337.1116710000206,None,337.1116710000206,337.8613604000129,0.06656700000166893,None,,,,,,,,,7,001,2019_Dec_23_1115,untitled,3.1.0,60.24208885721976,
_,_2,N,0,_,_,__2N000__,N,0,97,97,72,,,1.123,338.74955639999826,339.05954680001014,339.076338200015,339.3593515000248,339.3760429000249,None,down,1.76886100001866,339.3760429000249,None,339.3760429000249,340.49242490000324,0.09325549998902716,None,,,,,,,,,7,001,2019_Dec_23_1115,untitled,3.1.0,60.24208885721976,
166,F,N,225,L,N,166FN225LN,HLN,0,98,98,221,,,1.245,341.29934360002517,341.5741430000053,341.5741430000053,341.8576182000106,341.87428400001954,None,up,2.1643745999899693,341.87428400001954,None,341.87428400001954,343.1064400000032,0.11943960000644438,None,,,,,,,,,7,001,2019_Dec_23_1115,untitled,3.1.0,60.24208885721976,
196,G,N,135,R,N,196GN135RN,HRN,0,99,99,227,,,1.256,344.1161945000058,344.4548667000199,344.471853199997,344.7549349000037,344.7720952000236,None,up,2.566986599995289,344.7720952000236,None,344.7720952000236,346.00401270002476,0.06865949998609722,None,,,,,,,,,7,001,2019_Dec_23_1115,untitled,3.1.0,60.24208885721976,
045,R,M,180,L,N,045RM180LN,HLN,0,100,100,108,,,0.781,347.46012960001826,347.7524770000018,347.7687193000165,348.05507830000715,348.07018380000954,None,down,2.766552099987166,348.07018380000954,None,348.07018380000954,348.83475760000874,0.1094364000018686,None,,,,,,,,,7,001,2019_Dec_23_1115,untitled,3.1.0,60.24208885721976,
006,R,N,225,R,N,006RN225RN,HRN,0,101,101,197,,,1.282,350.96481210002094,351.26560210000025,351.26560210000025,351.5490750000172,351.5657227000047,None,up,2.0166382000024896,351.5657227000047,None,351.5657227000047,352.83148490000167,0.11768080000183545,None,,,,,,,,,7,001,2019_Dec_23_1115,untitled,3.1.0,60.24208885721976,
_,F,M,135,_,_,_FM135__,N,0,102,102,3,,,1.194,353.6773426000145,353.9974474000046,354.01358710002387,354.29598670001724,354.31273640002473,None,None,,354.31273640002473,None,354.31273640002473,355.4957034000254,0.08572640002239496,None,,,,,,,,,7,001,2019_Dec_23_1115,untitled,3.1.0,60.24208885721976,
257,_2,N,0,R,N,257_2N000RN,HRN,0,103,103,240,,,0.805,357.8958645000239,358.1933749000018,358.2094436000043,358.49373020001804,358.5100184000039,357.8958645000239,down,1.7490119000140112,358.5100184000039,None,358.5100184000039,359.2914254000061,0.10838970000622794,None,,,,,,,,,7,001,2019_Dec_23_1115,untitled,3.1.0,60.24208885721976,
268,_2,M,135,R,N,268_2M135RN,HRN,0,104,104,147,,,0.717,360.3828164000006,360.6735521000228,360.6735521000228,360.97397370002,360.9906250000058,None,down,1.9829238000093028,360.9906250000058,None,360.9906250000058,361.68971100001363,0.11297580000245944,None,,,,,,,,,7,001,2019_Dec_23_1115,untitled,3.1.0,60.24208885721976,
046,R,M,225,L,N,046RM225LN,HLN,0,105,105,109,,,0.732,363.08666329999687,363.3892558000225,363.4049823000096,363.6885800000164,363.70562030002475,None,down,1.9324161999975331,363.70562030002475,None,363.70562030002475,364.42113150001387,0.1017911999952048,None,,,,,,,,,7,001,2019_Dec_23_1115,untitled,3.1.0,60.24208885721976,
_,R,N,270,_,_,_RN270__,N,0,106,106,70,,,0.965,365.7578989000176,366.0530547000235,366.0690991000156,366.352679100004,366.3705688000191,None,up,1.7992377000045963,366.3705688000191,None,366.3705688000191,367.31868600001326,0.10744160000467673,None,,,,,,,,,7,001,2019_Dec_23_1115,untitled,3.1.0,60.24208885721976,
199,G,N,270,R,N,199GN270RN,HRN,0,107,107,230,,,0.784,368.2819845000049,368.58374339999864,368.6002359999984,368.88361600000644,368.9007334000198,None,up,1.7817126000009011,368.9007334000198,None,368.9007334000198,369.666557700024,0.1009292000089772,None,,,,,,,,,7,001,2019_Dec_23_1115,untitled,3.1.0,60.24208885721976,
453,_5,N,180,R,N,453_5N180RN,HRN,0,108,108,276,,,0.989,370.75086759999976,371.0981499000045,371.11572920001345,371.3978025999968,371.414557000011,None,down,2.448928400001023,371.414557000011,None,371.414557000011,372.3810139000125,0.060485900001367554,None,,,,,,,,,7,001,2019_Dec_23_1115,untitled,3.1.0,60.24208885721976,
_,R,M,90,_,_,_RM090__,N,0,109,109,18,,,1.122,373.9550999000203,374.27828870000667,374.2958440000075,374.5790038999985,374.59566570000607,None,down,2.317356400017161,374.59566570000607,None,374.59566570000607,375.6946026000078,0.08280499998363666,None,,,,,,,,,7,001,2019_Dec_23_1115,untitled,3.1.0,60.24208885721976,
_,_4,M,180,_,_,__4M180__,N,0,110,110,36,,,1.048,377.022274500021,377.3261263000022,377.3426238000102,377.6262388000032,377.64304340002127,None,down,3.0178166999830864,377.64304340002127,None,377.64304340002127,378.6746506000054,0.09923550000530668,None,,,,,,,,,7,001,2019_Dec_23_1115,untitled,3.1.0,60.24208885721976,
266,_2,M,45,R,N,266_2M045RN,HRN,0,111,111,145,,,1.094,380.783923400013,381.0728131000069,381.0728131000069,381.37241229999927,381.3890509000048,None,down,2.149104400014039,381.3890509000048,None,381.3890509000048,382.47252130002016,0.1127781999821309,None,,,,,,,,,7,001,2019_Dec_23_1115,untitled,3.1.0,60.24208885721976,
299,_2,M,90,L,N,299_2M090LN,HLN,0,112,112,154,,,0.865,383.6376461000182,383.9535182999971,383.97050399999716,384.253909400024,384.2699894999969,None,down,2.2537602999946102,384.2699894999969,None,384.2699894999969,385.1191461000126,0.08973810001043603,None,,,,,,,,,7,001,2019_Dec_23_1115,untitled,3.1.0,60.24208885721976,
_,R,N,315,_,_,_RN315__,N,0,113,113,71,,,0.802,386.6571333000029,386.9509339000215,386.9509339000215,387.23420700000133,387.25083580001956,None,up,2.231577800004743,387.25083580001956,None,387.25083580001956,388.0535284000216,0.12223690000246279,None,,,,,,,,,7,001,2019_Dec_23_1115,untitled,3.1.0,60.24208885721976,
259,_2,N,90,R,N,259_2N090RN,HRN,0,114,114,242,,,0.741,389.5609769000148,389.8983584000089,389.91624940000474,390.1992045000079,390.21557690002373,None,down,1.9178638000157662,390.21557690002373,None,390.21557690002373,390.9317783000006,0.07069079999928363,None,,,,,,,,,7,001,2019_Dec_23_1115,untitled,3.1.0,60.24208885721976,
172,F,M,135,L,N,172FM135LN,HLN,0,115,115,123,,,0.856,392.2474839000206,392.5462380000099,392.56278210002347,392.8464188000071,392.86632060000557,None,down,2.4449014000128955,392.86632060000557,None,392.86632060000557,393.7120739000093,0.10264420000021346,None,,,,,,,,,7,001,2019_Dec_23_1115,untitled,3.1.0,60.24208885721976,
015,R,M,270,R,N,015RM270RN,HRN,0,116,116,102,,,0.8130000000000001,395.4079291000089,395.72633679999853,395.74368690000847,396.0262615000247,396.0427137000079,None,down,1.8839957999880426,396.0427137000079,None,396.0427137000079,396.8418937000097,0.08751270000357181,None,,,,,,,,,7,001,2019_Dec_23_1115,untitled,3.1.0,60.24208885721976,
_,_5,N,270,_,_,__5N270__,N,0,117,117,94,,,1.367,398.0264514000155,398.3407608999987,398.3580837000045,398.6409668000124,398.6572700999968,None,up,2.8982407999865245,398.6572700999968,None,398.6572700999968,400.00784470001236,0.08911250001983717,None,,,,,,,,,7,001,2019_Dec_23_1115,untitled,3.1.0,60.24208885721976,
_,_2,N,315,_,_,__2N315__,N,0,118,118,79,,,0.8130000000000001,401.6272988000128,401.97133380000014,401.9881058000028,402.27240529999835,402.2881141999969,None,up,1.935778700019,402.2881141999969,None,402.2881141999969,403.08747830000357,0.06447470001876354,None,,,,,,,,,7,001,2019_Dec_23_1115,untitled,3.1.0,60.24208885721976,
202,G,M,45,R,N,202GM045RN,HRN,0,119,119,129,,,0.896,404.3473060000106,404.63578199999756,404.63578199999756,404.93589760002214,404.9524433000188,None,down,2.116112299991073,404.9524433000188,None,404.9524433000188,405.8351274000015,0.11177479999605566,None,,,,,,,,,7,001,2019_Dec_23_1115,untitled,3.1.0,60.24208885721976,
_,F,M,0,_,_,_FM000__,N,0,120,120,0,,,1.24,407.18522949999897,407.48296449999907,407.49975050002104,407.78261780002504,407.7990744000126,None,up,2.101718999998411,407.7990744000126,None,407.7990744000126,409.0314955000067,0.10777460000826977,None,,,,,,,,,7,001,2019_Dec_23_1115,untitled,3.1.0,60.24208885721976,
138,F,M,45,R,N,138FM045RN,HRN,0,121,121,113,,,1.325,410.01388620000216,410.3141445000074,410.3308303000231,410.6143842000165,410.6309742000012,None,down,2.8321977999876253,410.6309742000012,None,410.6309742000012,411.948941700015,0.10154080000938848,None,,,,,,,,,7,001,2019_Dec_23_1115,untitled,3.1.0,60.24208885721976,
048,R,M,315,L,N,048RM315LN,HLN,0,122,122,111,,,0.9470000000000001,413.5787820999976,413.87737680002465,413.89430470002117,414.1776953000226,414.19558720002533,None,down,1.6677398000028916,414.19558720002533,None,414.19558720002533,415.12643420000677,0.10465559997828677,None,,,,,,,,,7,001,2019_Dec_23_1115,untitled,3.1.0,60.24208885721976,
175,F,M,270,L,N,175FM270LN,HLN,0,123,123,126,,,0.706,415.9628394000174,416.27525470001274,416.2920407000056,416.5755638999981,416.59259360001306,None,down,1.64957510001841,416.59259360001306,None,416.59259360001306,417.29163960000733,0.08915919999708422,None,,,,,,,,,7,001,2019_Dec_23_1115,untitled,3.1.0,60.24208885721976,
_,_2,M,0,_,_,__2M000__,N,0,124,124,24,,,0.8280000000000001,418.3358237000066,418.65651690002414,418.6737647000118,418.9569642000133,418.97385870001744,None,down,1.8330397000245284,418.97385870001744,None,418.97385870001744,419.7925170000235,0.08413329999893904,None,,,,,,,,,7,001,2019_Dec_23_1115,untitled,3.1.0,60.24208885721976,
461,_5,M,180,R,N,461_5M180RN,HRN,0,125,125,180,,,0.809,420.92572860000655,421.22131280001486,421.23766250000335,421.5214125000057,421.5381505000114,None,down,2.6867087999999058,421.5381505000114,None,421.5381505000114,422.339267000003,0.10807829999248497,None,,,,,,,,,7,001,2019_Dec_23_1115,untitled,3.1.0,60.24208885721976,
258,_2,N,45,R,N,258_2N045RN,HRN,0,126,126,241,,,0.9580000000000001,424.34818110000924,424.63755690000835,424.63755690000835,424.93650460001663,424.95200590000604,None,up,1.7001948000106495,424.95200590000604,None,424.95200590000604,425.90187590001733,0.1128737999824807,None,,,,,,,,,7,001,2019_Dec_23_1115,untitled,3.1.0,60.24208885721976,
429,_4,M,180,L,N,429_4M180LN,HLN,0,127,127,172,,,1.313,426.78248250001343,427.0830582000199,427.0830582000199,427.3661774000211,427.3832947000046,None,down,2.7811255999840796,427.3832947000046,None,427.3832947000046,428.6830923000234,0.11815160000696778,None,,,,,,,,,7,001,2019_Dec_23_1115,untitled,3.1.0,60.24208885721976,
386,_4,N,45,R,N,386_4N045RN,HRN,0,128,128,257,,,1.143,430.270087300014,430.5795302000188,430.59645230000024,430.8794574000058,430.89660530001856,None,up,2.049881099985214,430.89660530001856,None,430.89660530001856,432.0289494000026,0.09620540001196787,None,,,,,,,,,7,001,2019_Dec_23_1115,untitled,3.1.0,60.24208885721976,
_,G,N,135,_,_,_GN135__,N,0,129,129,59,,,1.209,433.07115760000306,433.36058990002493,433.36058990002493,433.6598791000142,433.6764757000201,None,up,2.3339338999940082,433.6764757000201,None,433.6764757000201,434.87703110001166,0.11328750001848675,None,,,,,,,,,7,001,2019_Dec_23_1115,untitled,3.1.0,60.24208885721976,
197,G,N,180,R,N,197GN180RN,HRN,0,130,130,228,,,1.085,436.1346808000235,436.4249399000255,436.4249399000255,436.72732560001896,436.7433533000003,None,up,2.966239700006554,436.7433533000003,None,436.7433533000003,437.80753620000905,0.112470599997323,None,,,,,,,,,7,001,2019_Dec_23_1115,untitled,3.1.0,60.24208885721976,
265,_2,M,0,R,N,265_2M000RN,HRN,0,131,131,144,,,1.182,439.8296836000227,440.12167420002515,440.1391004000034,440.422032500006,440.43848920002347,None,down,2.568396599992411,440.43848920002347,None,440.43848920002347,441.6041518000129,0.10922690000734292,None,,,,,,,,,7,001,2019_Dec_23_1115,untitled,3.1.0,60.24208885721976,
169,F,M,0,L,N,169FM000LN,HLN,0,132,132,120,,,1.225,443.12526220001746,443.41859010001644,443.43473930002074,443.71904460000223,443.7354120000091,None,down,1.954623099998571,443.7354120000091,None,443.7354120000091,444.95095990001573,0.10812859999714419,None,,,,,,,,,7,001,2019_Dec_23_1115,untitled,3.1.0,60.24208885721976,
482,_5,N,45,L,N,482_5N045LN,HLN,0,133,133,281,,,0.8310000000000001,445.808711700025,446.09956100001,446.1167414000083,446.41624859999865,446.41624859999865,None,down,1.7983629000082146,446.41624859999865,None,446.41624859999865,447.2323052000138,0.10663130000466481,None,,,,,,,,,7,001,2019_Dec_23_1115,untitled,3.1.0,60.24208885721976,
_,F,M,180,_,_,_FM180__,N,0,134,134,4,,,1.218,448.2978820000135,448.6305781000119,448.6484942000243,448.93103740000515,448.94759049999993,None,down,2.653293000010308,448.94759049999993,None,448.94759049999993,450.1466378000041,0.07535609998740256,None,,,,,,,,,7,001,2019_Dec_23_1115,untitled,3.1.0,60.24208885721976,
_,_5,N,90,_,_,__5N090__,N,0,135,135,90,,,0.9,451.71409049999784,452.01100710002356,452.02789389999816,452.3115624000202,452.3279799000011,None,down,1.8499472000112291,452.3279799000011,None,452.3279799000011,453.2275046000141,0.10194870000123046,None,,,,,,,,,7,001,2019_Dec_23_1115,untitled,3.1.0,60.24208885721976,
_,R,N,135,_,_,_RN135__,N,0,136,136,67,,,0.767,454.26949620002415,454.5922247999988,454.60940899999696,454.8924723000091,454.9092163000023,None,up,1.8497282000025734,454.9092163000023,None,454.9092163000023,455.6582790000248,0.08199969999259338,None,,,,,,,,,7,001,2019_Dec_23_1115,untitled,3.1.0,60.24208885721976,
395,_4,M,90,R,N,395_4M090RN,HRN,0,137,137,162,,,0.75,456.8512808000087,457.17335710002226,457.1898156000243,457.47351720000734,457.4903415000008,None,down,2.1500256000144873,457.4903415000008,None,457.4903415000008,458.2231297000253,0.08337540001957677,None,,,,,,,,,7,001,2019_Dec_23_1115,untitled,3.1.0,60.24208885721976,
_,_2,M,45,_,_,__2M045__,N,0,138,138,25,,,0.802,459.76591440002085,460.0561014999985,460.0561014999985,460.35411240000394,460.37129310000455,None,down,1.8159717999806162,460.37129310000455,None,460.37129310000455,461.15310640001553,0.11394059998565353,None,,,,,,,,,7,001,2019_Dec_23_1115,untitled,3.1.0,60.24208885721976,
132,F,N,135,R,N,132FN135RN,HRN,0,139,139,211,,,0.72,462.3032495000225,462.60152769999695,462.6189626000123,462.9020602000237,462.91871820000233,None,up,2.1171300999994855,462.91871820000233,None,462.91871820000233,463.63460220000707,0.10327039999538101,None,,,,,,,,,7,001,2019_Dec_23_1115,untitled,3.1.0,60.24208885721976,
_,G,N,180,_,_,_GN180__,N,0,140,140,60,,,1.295,465.14156869999715,465.449429100001,465.4657118000032,465.7497094999999,465.7664335000154,None,up,2.7314153000188526,465.7664335000154,None,465.7664335000154,467.0484740000102,0.09596499998588115,None,,,,,,,,,7,001,2019_Dec_23_1115,untitled,3.1.0,60.24208885721976,
036,R,N,135,L,N,036RN135LN,HLN,0,141,141,203,,,0.933,468.6048248000152,468.9126707999967,468.9292436000251,469.21404469999834,469.23165230001905,None,up,2.4475805000110995,469.23165230001905,None,469.23165230001905,470.1477808000054,0.0976026999996975,None,,,,,,,,,7,001,2019_Dec_23_1115,untitled,3.1.0,60.24208885721976,
417,_4,N,0,L,N,417_4N000LN,HLN,0,142,142,264,,,1.317,471.80490060002194,472.0935298000113,472.0935298000113,472.39422790001845,472.4118996000034,None,up,2.28299100001459,472.4118996000034,None,472.4118996000034,473.7090540000063,0.11229280001134612,None,,,,,,,,,7,001,2019_Dec_23_1115,untitled,3.1.0,60.24208885721976,
_,G,N,90,_,_,_GN090__,N,0,143,143,58,,,1.334,474.8081743000075,475.108241000009,475.1236009999993,475.40733290000935,475.42404949999764,None,up,2.7144622999767307,475.42404949999764,None,475.42404949999764,476.73942389999866,0.10228680001455359,None,,,,,,,,,7,001,2019_Dec_23_1115,untitled,3.1.0,60.24208885721976,
009,R,M,0,R,N,009RM000RN,HRN,0,144,144,96,,,1.01,478.21908310000435,478.5547232000099,478.57193190002,478.85732209999696,478.8723217000079,None,down,1.7156191999965813,478.8723217000079,None,478.8723217000079,479.87127110001165,0.07275900000240654,None,,,,,,,,,7,001,2019_Dec_23_1115,untitled,3.1.0,60.24208885721976,
_,R,N,45,_,_,_RN045__,N,0,145,145,65,,,0.9380000000000001,480.67830680002226,481.00213999999687,481.0188412000134,481.3353455000033,481.3353455000033,None,up,1.6330249999882653,481.3353455000033,None,481.3353455000033,482.23518340001465,0.08126609999453649,None,,,,,,,,,7,001,2019_Dec_23_1115,untitled,3.1.0,60.24208885721976,
002,R,N,45,R,N,002RN045RN,HRN,0,146,146,193,,,1.065,483.0675288000202,483.3837269000069,483.40077960002236,483.68406040000264,483.70046390002244,None,up,1.8500020000210498,483.70046390002244,None,483.70046390002244,484.74984150001546,0.08852029999252409,None,,,,,,,,,7,001,2019_Dec_23_1115,untitled,3.1.0,60.24208885721976,
235,G,M,90,L,N,235GM090LN,HLN,0,147,147,138,,,1.298,485.63140520002344,485.96464050002396,485.98127380001824,486.26516280000214,486.2819556000177,None,down,2.850858599995263,486.2819556000177,None,486.2819556000177,487.56428690001485,0.07313499998417683,None,,,,,,,,,7,001,2019_Dec_23_1115,untitled,3.1.0,60.24208885721976,
_,_4,N,0,_,_,__4N000__,N,0,148,148,80,,,1.207,489.2609865000122,489.5615665000223,489.5615665000223,489.8456213000172,489.86206720001064,None,down,1.9150433999893721,489.86206720001064,None,489.86206720001064,491.06053980000434,0.11575379999703728,None,,,,,,,,,7,001,2019_Dec_23_1115,untitled,3.1.0,60.24208885721976,
490,_5,M,45,L,N,490_5M045LN,HLN,0,149,149,185,,,0.883,491.86917960000574,492.1927112000121,492.20938660000684,492.49296490001143,492.5096798000159,None,down,2.151729500008514,492.5096798000159,None,492.5096798000159,493.37556600000244,0.08215050000580959,None,,,,,,,,,7,001,2019_Dec_23_1115,untitled,3.1.0,60.24208885721976,
134,F,N,225,R,N,134FN225RN,HRN,0,150,150,213,,,0.861,494.8006879000168,495.0901392000087,495.0901392000087,495.3740295000025,495.3897803,None,up,2.3383353000099305,495.3897803,None,495.3897803,496.2386892000213,0.1283034999796655,None,,,,,,,,,7,001,2019_Dec_23_1115,untitled,3.1.0,60.24208885721976,
431,_4,M,270,L,N,431_4M270LN,HLN,0,151,151,174,,,1.381,497.8474888000055,498.1376439000014,498.1541950000101,498.4542658000137,498.4542658000137,None,down,2.1854051999980584,498.4542658000137,None,498.4542658000137,499.8198421999987,0.10755029998836108,None,,,,,,,,,7,001,2019_Dec_23_1115,untitled,3.1.0,60.24208885721976,
_,_4,N,45,_,_,__4N045__,N,0,152,152,81,,,1.1320000000000001,500.7773551999999,501.06844380000257,501.06844380000257,501.3513985000027,501.3679502000159,None,up,1.95343879997381,501.3679502000159,None,501.3679502000159,502.484526300017,0.12477929997839965,None,,,,,,,,,7,001,2019_Dec_23_1115,untitled,3.1.0,60.24208885721976,
_,G,M,225,_,_,_GM225__,N,0,153,153,13,,,1.0170000000000001,503.43147619999945,503.74906170001486,503.74906170001486,504.03283720000763,504.04968130000634,None,down,1.9160364999843296,504.04968130000634,None,504.04968130000634,505.04859000002034,0.09938640001928434,None,,,,,,,,,7,001,2019_Dec_23_1115,untitled,3.1.0,60.24208885721976,
389,_4,N,180,R,N,389_4N180RN,HRN,0,154,154,260,,,1.1340000000000001,506.04136560001643,506.38039070001105,506.3970546000055,506.6800712000113,506.69700630000443,None,down,2.451768800005084,506.69700630000443,None,506.69700630000443,507.81345220000367,0.0687350999796763,None,,,,,,,,,7,001,2019_Dec_23_1115,untitled,3.1.0,60.24208885721976,
_,_5,M,135,_,_,__5M135__,N,0,155,155,43,,,0.879,509.271896500024,509.5607497000019,509.5607497000019,509.8615825000161,509.8780082000012,None,down,2.0844495999917854,509.8780082000012,None,509.8780082000012,510.7439121000061,0.11177519999910146,None,,,,,,,,,7,001,2019_Dec_23_1115,untitled,3.1.0,60.24208885721976,
233,G,M,0,L,N,233GM000LN,HLN,0,156,156,136,,,0.85,512.0706409999984,512.3751124000119,512.3917947000009,512.6757012000016,512.6922183000133,None,down,2.5512917999876663,512.6922183000133,None,512.6922183000133,513.5246309000067,0.09686160000273958,None,,,,,,,,,7,001,2019_Dec_23_1115,untitled,3.1.0,60.24208885721976,
_,_5,M,0,_,_,__5M000__,N,0,157,157,40,,,1.219,515.3632409000129,515.6554902000062,515.672104199999,515.9562228000141,515.9726886000135,None,up,2.5348429000005126,515.9726886000135,None,515.9726886000135,517.188106400019,0.1084876999957487,None,,,,,,,,,7,001,2019_Dec_23_1115,untitled,3.1.0,60.24208885721976,
043,R,M,90,L,N,043RM090LN,HLN,0,158,158,106,,,0.718,518.6536303000175,518.9525902000023,518.9525902000023,519.2197300000116,519.2365222000226,None,down,1.850274399999762,519.2365222000226,None,519.2365222000226,519.9361229000206,0.13497069998993538,None,,,,,,,,,7,001,2019_Dec_23_1115,untitled,3.1.0,60.24208885721976,
236,G,M,135,L,N,236GM135LN,HLN,0,159,159,139,,,0.8180000000000001,521.1892185000179,521.5006290000165,521.5178297000239,521.8002336000209,521.8173184000188,None,down,1.8999643000133801,521.8173184000188,None,521.8173184000188,522.616474200011,0.09354410000378266,None,,,,,,,,,7,001,2019_Dec_23_1115,untitled,3.1.0,60.24208885721976,
193,G,N,0,R,N,193GN000RN,HRN,0,160,160,224,,,0.806,523.8355318000249,524.1314596000011,524.1485914000077,524.4317101000051,524.4492128000129,None,down,2.097376500023529,524.4492128000129,None,524.4492128000129,525.2477978000243,0.10722740000346676,None,,,,,,,,,7,001,2019_Dec_23_1115,untitled,3.1.0,60.24208885721976,
035,R,N,90,L,N,035RN090LN,HLN,0,161,161,202,,,0.8150000000000001,526.6258702000196,526.9625874000194,526.9788204000215,527.2645149000164,527.2795301000006,None,down,1.6995101000065915,527.2795301000006,None,527.2795301000006,528.0786723000056,0.07174939999822527,None,,,,,,,,,7,001,2019_Dec_23_1115,untitled,3.1.0,60.24208885721976,
493,_5,M,180,L,N,493_5M180LN,HLN,0,162,162,188,,,1.0150000000000001,529.1028823000088,529.3936820000235,529.3936820000235,529.6937123000098,529.7108054000128,None,up,2.3988548000052106,529.7108054000128,None,529.7108054000128,530.7091673999967,0.11312039999756962,None,,,,,,,,,7,001,2019_Dec_23_1115,untitled,3.1.0,60.24208885721976,
194,G,N,45,R,N,194GN045RN,HRN,0,163,163,225,,,1.3920000000000001,532.2259036000178,532.5240691000072,532.5409511000034,532.8242742000148,532.8411289000069,None,up,2.5008586999902036,532.8411289000069,None,532.8411289000069,534.2236845000007,0.104556300007971,None,,,,,,,,,7,001,2019_Dec_23_1115,untitled,3.1.0,60.24208885721976,
201,G,M,0,R,N,201GM000RN,HRN,0,164,164,128,,,1.226,535.464083800005,535.7561547000078,535.7715121000074,536.0544244000048,536.0711322000134,None,down,2.217203400010476,536.0711322000134,None,536.0711322000134,537.2864150000096,0.1110869999974966,None,,,,,,,,,7,001,2019_Dec_23_1115,untitled,3.1.0,60.24208885721976,
_,_4,M,0,_,_,__4M000__,N,0,165,165,32,,,0.766,538.3590992000245,538.7023947999987,538.7193291000149,539.0027038000117,539.019202800002,None,down,1.6352763999893796,539.019202800002,None,539.019202800002,539.768335300003,0.0640883999876678,None,,,,,,,,,7,001,2019_Dec_23_1115,untitled,3.1.0,60.24208885721976,
_,_2,M,180,_,_,__2M180__,N,0,166,166,28,,,1.2770000000000001,540.7750031000178,541.0674600000202,541.0836816000228,541.3672391000146,541.3842427000054,None,down,2.8011870000045747,541.3842427000054,None,541.3842427000054,542.6494211000099,0.10946130001684651,None,,,,,,,,,7,001,2019_Dec_23_1115,untitled,3.1.0,60.24208885721976,
141,F,M,180,R,N,141FM180RN,HRN,0,167,167,116,,,0.788,544.3146244000236,544.613934300025,544.613934300025,544.8986527000088,544.9141099000117,None,down,2.583093599998392,544.9141099000117,None,544.9141099000117,545.6966008000018,0.11760709999362007,None,,,,,,,,,7,001,2019_Dec_23_1115,untitled,3.1.0,60.24208885721976,
_,_4,N,90,_,_,__4N090__,N,0,168,168,82,,,0.924,547.5965272000176,547.9106268000032,547.9272317000141,548.2113733000006,548.227759100002,None,up,1.7196808000153396,548.227759100002,None,548.227759100002,549.1434176000184,0.0887479999801144,None,,,,,,,,,7,001,2019_Dec_23_1115,untitled,3.1.0,60.24208885721976,
140,F,M,135,R,N,140FM135RN,HRN,0,169,169,115,,,1.313,550.0739701999992,550.3752032000048,550.3752032000048,550.6613264000043,550.6764320000075,None,down,2.597142899991013,550.6764320000075,None,550.6764320000075,551.9738151000056,0.11381640000035986,None,,,,,,,,,7,001,2019_Dec_23_1115,untitled,3.1.0,60.24208885721976,
460,_5,M,135,R,N,460_5M135RN,HRN,0,170,170,179,,,0.877,553.3601890999998,553.6887073999969,553.7055016000231,553.9894894000026,554.0060863000108,None,up,1.8994202000030782,554.0060863000108,None,554.0060863000108,554.8717742000008,0.0788790000078734,None,,,,,,,,,7,001,2019_Dec_23_1115,untitled,3.1.0,60.24208885721976,
300,_2,M,135,L,N,300_2M135LN,HLN,0,171,171,155,,,1.317,556.0207232000248,556.3200106000004,556.3369894000061,556.6213616000023,556.638033700001,None,None,,556.638033700001,None,556.638033700001,557.9362319000065,0.10433750000083819,None,,,,,,,,,7,001,2019_Dec_23_1115,untitled,3.1.0,60.24208885721976,
_,G,N,225,_,_,_GN225__,N,0,172,172,61,,,0.989,560.2166664000251,560.516797600023,560.5331317000091,560.8167664000066,560.8337393999973,560.2166664000251,up,2.0356962000078056,560.8337393999973,None,560.8337393999973,561.8162366000179,0.1031420000072103,None,,,,,,,,,7,001,2019_Dec_23_1115,untitled,3.1.0,60.24208885721976,
302,_2,M,225,L,N,302_2M225LN,HLN,0,173,173,157,,,1.087,562.9786709000182,563.2974429000169,563.2974429000169,563.5814369000145,563.5977915000112,None,down,2.8655761999834795,563.5977915000112,None,563.5977915000112,564.6800157999969,0.09834679999039508,None,,,,,,,,,7,001,2019_Dec_23_1115,untitled,3.1.0,60.24208885721976,
270,_2,M,225,R,N,270_2M225RN,HRN,0,174,174,149,,,0.8260000000000001,566.5795763000206,566.8775189000007,566.894137299998,567.1781284000026,567.1943856000144,None,down,2.9356662000063807,567.1943856000144,None,567.1943856000144,568.0101366000017,0.10528649998013861,None,,,,,,,,,7,001,2019_Dec_23_1115,untitled,3.1.0,60.24208885721976,
139,F,M,90,R,N,139FM090RN,HRN,0,175,175,114,,,1.299,570.2462589000061,570.5416955000255,570.5576727000007,570.8413494999986,570.8582061000052,None,down,2.150623800000176,570.8582061000052,None,570.8582061000052,572.1395751000091,0.1048914999992121,None,,,,,,,,,7,001,2019_Dec_23_1115,untitled,3.1.0,60.24208885721976,
_,_5,N,135,_,_,__5N135__,N,0,176,176,91,,,1.348,573.1209971000208,573.4219250000024,573.4387361000117,573.7217864000122,573.7384644999984,None,up,2.5194450999842957,573.7384644999984,None,573.7384644999984,575.070417400013,0.10158900002716109,None,,,,,,,,,7,001,2019_Dec_23_1115,untitled,3.1.0,60.24208885721976,
_,_5,N,180,_,_,__5N180__,N,0,177,177,92,,,1.0010000000000001,576.3836400000146,576.6853993000113,576.6853993000113,576.969158300024,576.9861868000007,None,up,2.333472799975425,576.9861868000007,None,576.9861868000007,577.9686976000085,0.11469759998726659,None,,,,,,,,,7,001,2019_Dec_23_1115,untitled,3.1.0,60.24208885721976,
_,F,N,315,_,_,_FN315__,N,0,178,178,55,,,0.86,579.4417318000051,579.7340030000196,579.7340030000196,580.0333470000187,580.0516035000037,None,up,1.7128921000112314,580.0516035000037,None,580.0516035000037,580.8995051000093,0.1110511000151746,None,,,,,,,,,7,001,2019_Dec_23_1115,untitled,3.1.0,60.24208885721976,
261,_2,N,180,R,N,261_2N180RN,HRN,0,179,179,244,,,1.186,581.8479770999984,582.181054900022,582.1974198000098,582.4809566000185,582.4976164000109,None,up,2.281254200002877,582.4976164000109,None,582.4976164000109,583.6635401000094,0.0751655999920331,None,,,,,,,,,7,001,2019_Dec_23_1115,untitled,3.1.0,60.24208885721976,
_,G,M,135,_,_,_GM135__,N,0,180,180,11,,,1.24,584.8601007000252,585.1947486000136,585.2133272000065,585.4951140000194,585.5119729000144,None,down,2.617949600011343,585.5119729000144,None,585.5119729000144,586.7339892000018,0.07323900001938455,None,,,,,,,,,7,001,2019_Dec_23_1115,untitled,3.1.0,60.24208885721976,
_,_2,N,45,_,_,__2N045__,N,0,181,181,73,,,1.202,588.2414505000052,588.5419715000025,588.5584963000147,588.8424608000205,588.8591925000073,None,up,2.5147527999943122,588.8591925000073,None,588.8591925000073,590.0412872000015,0.10033590000239201,None,,,,,,,,,7,001,2019_Dec_23_1115,untitled,3.1.0,60.24208885721976,
174,F,M,225,L,N,174FM225LN,HLN,0,182,182,125,,,0.978,591.4996807000134,591.7892606000241,591.7892606000241,592.0895020000171,592.1061801000033,None,up,1.885346800001571,592.1061801000033,None,592.1061801000033,593.0720904000045,0.115781699976651,None,,,,,,,,,7,001,2019_Dec_23_1115,untitled,3.1.0,60.24208885721976,
456,_5,N,315,R,N,456_5N315RN,HRN,0,183,183,279,,,0.833,594.1140999000054,594.4036027000111,594.4036027000111,594.7037805000145,594.7206291000184,None,up,1.8672096999944188,594.7206291000184,None,594.7206291000184,595.5371499000175,0.1116870999976527,None,,,,,,,,,7,001,2019_Dec_23_1115,untitled,3.1.0,60.24208885721976,
492,_5,M,135,L,N,492_5M135LN,HLN,0,184,184,187,,,0.772,596.7014270000218,597.0016570000153,597.0182415000163,597.3013317000004,597.3178746000049,None,down,1.8166497999918647,597.3178746000049,None,597.3178746000049,598.083610200003,0.1024879000033252,None,,,,,,,,,7,001,2019_Dec_23_1115,untitled,3.1.0,60.24208885721976,
396,_4,M,135,R,N,396_4M135RN,HRN,0,185,185,163,,,1.162,599.2486382000207,599.5496589000104,599.5656645999989,599.8495097999985,599.8661357000237,None,down,2.4500414000067394,599.8661357000237,None,599.8661357000237,601.0152039000241,0.10129379999125376,None,,,,,,,,,7,001,2019_Dec_23_1115,untitled,3.1.0,60.24208885721976,
176,F,M,315,L,N,176FM315LN,HLN,0,186,186,127,,,1.016,602.4180055000179,602.7308417000168,602.7460707999999,603.0298026000091,603.0468463000143,None,down,2.4176792000071146,603.0468463000143,None,603.0468463000143,604.0457720000122,0.09215109999058768,None,,,,,,,,,7,001,2019_Dec_23_1115,untitled,3.1.0,60.24208885721976,
_,G,N,0,_,_,_GN000__,N,0,187,187,56,,,1.317,605.5761254000245,605.8781417999999,605.8936770000146,606.1773211999971,606.1935676000139,None,up,2.0190185999963433,606.1935676000139,None,606.1935676000139,607.4917472000234,0.10077669998281635,None,,,,,,,,,7,001,2019_Dec_23_1115,untitled,3.1.0,60.24208885721976,
462,_5,M,225,R,N,462_5M225RN,HRN,0,188,188,181,,,0.841,608.3344435000035,608.6241569000122,608.641400499997,608.9240773000056,608.9406751000206,None,down,2.1166413000028115,608.9406751000206,None,608.9406751000206,609.7741276000161,0.11001569998916239,None,,,,,,,,,7,001,2019_Dec_23_1115,untitled,3.1.0,60.24208885721976,
400,_4,M,315,R,N,400_4M315RN,HRN,0,189,189,167,,,1.241,611.1611309,611.4722832000116,611.4891636000248,611.7723063000012,611.7893660000118,None,down,1.9818542000139132,611.7893660000118,None,611.7893660000118,613.0209321000148,0.0938869999954477,None,,,,,,,,,7,001,2019_Dec_23_1115,untitled,3.1.0,60.24208885721976,
040,R,N,315,L,N,040RN315LN,HLN,0,190,190,207,,,0.9480000000000001,613.8634483000205,614.1864246000187,614.2030896000215,614.4856495000131,614.503242900013,None,down,1.650120500009507,614.503242900013,None,614.503242900013,615.4359824999992,0.08382880000863224,None,,,,,,,,,7,001,2019_Dec_23_1115,untitled,3.1.0,60.24208885721976,
263,_2,N,270,R,N,263_2N270RN,HRN,0,191,191,246,,,1.201,616.2815237000177,616.5703788000101,616.5703788000101,616.8682234000007,616.8843359000166,None,up,2.7169050999800675,616.8843359000166,None,616.8843359000166,618.0669371999975,0.11739299999317154,None,,,,,,,,,7,001,2019_Dec_23_1115,untitled,3.1.0,60.24208885721976,
_,F,N,180,_,_,_FN180__,N,0,192,192,52,,,1.327,619.7143256000127,620.0143615000125,620.0312427000026,620.3148050000018,620.3315328000172,None,up,2.8482504000130575,620.3315328000172,None,620.3315328000172,621.6470145000203,0.10190650000004098,None,,,,,,,,,7,001,2019_Dec_23_1115,untitled,3.1.0,60.24208885721976,
_,_4,M,135,_,_,__4M135__,N,0,193,193,35,,,1.268,623.260471000016,623.5946779000224,623.6112805000157,623.8952322000114,623.9119869999995,None,down,2.2680713000008836,623.9119869999995,None,623.9119869999995,625.1608972000249,0.07251759999780916,None,,,,,,,,,7,001,2019_Dec_23_1115,untitled,3.1.0,60.24208885721976,
_,_5,N,225,_,_,__5N225__,N,0,194,194,93,,,0.809,626.302703399997,626.59243780002,626.59243780002,626.8926328000089,626.909192000021,None,down,1.766261199984001,626.909192000021,None,626.909192000021,627.707573599997,0.11199239999405108,None,,,,,,,,,7,001,2019_Dec_23_1115,untitled,3.1.0,60.24208885721976,
034,R,N,45,L,N,034RN045LN,HLN,0,195,195,201,,,0.8310000000000001,628.7683268999972,629.0898897000006,629.1066571999982,629.3897433000093,629.4068686000246,None,up,1.5193005000182893,629.4068686000246,None,629.4068686000246,630.2230456000252,0.08460050000576302,None,,,,,,,,,7,001,2019_Dec_23_1115,untitled,3.1.0,60.24208885721976,
012,R,M,135,R,N,012RM135RN,HRN,0,196,196,99,,,1.002,631.0447577000014,631.3382543000043,631.3549280000152,631.6378517000121,631.6546772000147,None,down,2.2332949000119697,631.6546772000147,None,631.6546772000147,632.6541604000085,0.10758300000452437,None,,,,,,,,,7,001,2019_Dec_23_1115,untitled,3.1.0,60.24208885721976,
170,F,M,45,L,N,170FM045LN,HLN,0,197,197,121,,,1.314,634.0168985000055,634.319296200003,634.319296200003,634.6027680000116,634.6192205999978,None,down,1.9987665000080597,634.6192205999978,None,634.6192205999978,635.9185852000082,0.11783170001581311,None,,,,,,,,,7,001,2019_Dec_23_1115,untitled,3.1.0,60.24208885721976,
_,G,M,270,_,_,_GM270__,N,0,198,198,14,,,1.373,636.7431808000256,637.033307900012,637.033307900012,637.3336692000157,637.3501119000139,None,down,2.2678398999851197,637.3501119000139,None,637.3501119000139,638.715698200016,0.11499579998780973,None,,,,,,,,,7,001,2019_Dec_23_1115,untitled,3.1.0,60.24208885721976,
033,R,N,0,L,N,033RN000LN,HLN,0,199,199,200,,,0.979,639.74365270001,640.0326567000011,640.0326567000011,640.3309300000255,640.3475249000185,None,up,1.8167144999897573,640.3475249000185,None,640.3475249000185,641.3626385000243,0.11450309999054298,None,,,,,,,,,7,001,2019_Dec_23_1115,untitled,3.1.0,60.24208885721976,
_,_2,M,135,_,_,__2M135__,N,0,200,200,27,,,0.989,642.2921766000218,642.5950819000136,642.5950819000136,642.8786109000212,642.8960106000013,None,down,2.500038800004404,642.8960106000013,None,642.8960106000013,643.8771316000202,0.11690120000275783,None,,,,,,,,,7,001,2019_Dec_23_1115,untitled,3.1.0,60.24208885721976,
129,F,N,0,R,N,129FN000RN,HRN,0,201,201,208,,,0.969,645.4990989000071,645.8087663000042,645.8256137999997,646.108772800013,646.125431100023,None,up,1.6057359999977052,646.125431100023,None,646.125431100023,647.0915574000101,0.09225310001056641,None,,,,,,,,,7,001,2019_Dec_23_1115,untitled,3.1.0,60.24208885721976,
485,_5,N,180,L,N,485_5N180LN,HLN,0,202,202,284,,,1.183,647.8468584000075,648.1407516000036,648.1577631000255,648.4567739000195,648.4567739000195,None,up,2.484882499993546,648.4567739000195,None,648.4567739000195,649.6398101000232,0.10529760000645183,None,,,,,,,,,7,001,2019_Dec_23_1115,untitled,3.1.0,60.24208885721976,
_,R,M,315,_,_,_RM315__,N,0,203,203,23,,,1.214,651.0572435000213,651.3548069000244,651.3704397000256,651.654091000004,651.6711238000134,None,down,1.899423700000625,651.6711238000134,None,651.6711238000134,652.8727031000017,0.10501010000007227,None,,,,,,,,,7,001,2019_Dec_23_1115,untitled,3.1.0,60.24208885721976,
_,_2,N,270,_,_,__2N270__,N,0,204,204,78,,,1.299,653.6928581000248,653.9849550000217,654.0017323000066,654.2855571000255,654.3020764000248,None,down,2.2191775999963284,654.3020764000248,None,654.3020764000248,655.5851711000141,0.11012480000499636,None,,,,,,,,,7,001,2019_Dec_23_1115,untitled,3.1.0,60.24208885721976,
418,_4,N,45,L,N,418_4N045LN,HLN,0,205,205,265,,,0.731,656.6550490000227,656.9491161000042,656.9491161000042,657.2326667000016,657.2494317000092,None,up,1.6655003000050783,657.2494317000092,None,657.2494317000092,657.9656868000166,0.12274510000133887,None,,,,,,,,,7,001,2019_Dec_23_1115,untitled,3.1.0,60.24208885721976,
_,F,M,315,_,_,_FM315__,N,0,206,206,7,,,0.9510000000000001,659.0155174000247,659.3302220000187,659.3472079000203,659.6302398999978,659.6471382000018,None,down,1.6018452999996953,659.6471382000018,None,659.6471382000018,660.5793371000036,0.091809799982002,None,,,,,,,,,7,001,2019_Dec_23_1115,untitled,3.1.0,60.24208885721976,
420,_4,N,135,L,N,420_4N135LN,HLN,0,207,207,267,,,1.324,661.3945639000158,661.6633047000214,661.6633047000214,661.9619888000016,661.9787313000124,None,up,2.467684199975338,661.9787313000124,None,661.9787313000124,663.2940185000189,0.11457450001034886,None,,,,,,,,,7,001,2019_Dec_23_1115,untitled,3.1.0,60.24208885721976,
_,R,M,180,_,_,_RM180__,N,0,208,208,20,,,0.885,664.5660008999985,664.8588557000039,664.8753125000221,665.1591165999998,665.175913700019,None,down,1.8995802999997977,665.175913700019,None,665.175913700019,666.0419337000058,0.10791259998222813,None,,,,,,,,,7,001,2019_Dec_23_1115,untitled,3.1.0,60.24208885721976,
167,F,N,270,L,N,167FN270LN,HLN,0,209,209,222,,,1.147,667.1961773000075,667.4898778000206,667.5071232000191,667.7899189000018,667.8061798000126,None,up,1.8687097000074573,667.8061798000126,None,667.8061798000126,668.9395247000211,0.10915999999269843,None,,,,,,,,,7,001,2019_Dec_23_1115,untitled,3.1.0,60.24208885721976,
133,F,N,180,R,N,133FN180RN,HRN,0,210,210,212,,,0.9570000000000001,669.8016751999967,670.1045167999982,670.1045167999982,670.3882267000154,670.4048486000102,None,up,2.151727100019343,670.4048486000102,None,670.4048486000102,671.3395292000205,0.11535600002389401,None,,,,,,,,,7,001,2019_Dec_23_1115,untitled,3.1.0,60.24208885721976,
295,_2,N,270,L,N,295_2N270LN,HLN,0,211,211,254,,,1.139,672.6815458000056,672.9700351000065,672.9700351000065,673.2678797999979,673.2846157000167,None,up,1.9493609999772161,673.2846157000167,None,673.2846157000167,674.4179223000247,0.11502970001311041,None,,,,,,,,,7,001,2019_Dec_23_1115,untitled,3.1.0,60.24208885721976,
037,R,N,180,L,N,037RN180LN,HLN,0,212,212,204,,,1.2530000000000001,675.3234270000248,675.6493206000014,675.6672197000007,675.9531962000183,675.9679328000057,None,up,2.1011788999894634,675.9679328000057,None,675.9679328000057,677.2010429000075,0.08107109999400564,None,,,,,,,,,7,001,2019_Dec_23_1115,untitled,3.1.0,60.24208885721976,
387,_4,N,90,R,N,387_4N090RN,HRN,0,213,213,258,,,1.181,678.1835958000156,678.4810241000087,678.497901900002,678.7804539000208,678.7971346999984,None,up,1.999803199985763,678.7971346999984,None,678.7971346999984,679.9631903000118,0.1038241000205744,None,,,,,,,,,7,001,2019_Dec_23_1115,untitled,3.1.0,60.24208885721976,
_,G,M,45,_,_,_GM045__,N,0,214,214,9,,,1.188,680.9101943999995,681.2115926000115,681.2279739000078,681.5114578000212,681.5285297000082,None,down,2.0664650999824516,681.5285297000082,None,681.5285297000082,682.7109472000157,0.10277709999354556,None,,,,,,,,,7,001,2019_Dec_23_1115,untitled,3.1.0,60.24208885721976,
423,_4,N,270,L,N,423_4N270LN,HLN,0,215,215,270,,,1.2610000000000001,683.7250044000102,684.0255499000195,684.0255499000195,684.3091715000046,684.3258785000071,None,up,1.9329303999838885,684.3258785000071,None,684.3258785000071,685.576275200001,0.1159120999800507,None,,,,,,,,,7,001,2019_Dec_23_1115,untitled,3.1.0,60.24208885721976,
240,G,M,315,L,N,240GM315LN,HLN,0,216,216,143,,,0.935,686.3742211000063,686.6734737000079,686.6901359000185,686.9730712000164,686.9897242000152,None,down,1.6660700000065845,686.9897242000152,None,686.9897242000152,687.9062999000016,0.1037149999756366,None,,,,,,,,,7,001,2019_Dec_23_1115,untitled,3.1.0,60.24208885721976,
038,R,N,225,L,N,038RN225LN,HLN,0,217,217,205,,,1.296,688.738197300001,689.0709414000157,689.0879737000214,689.371295000019,689.3875157000148,None,up,2.283255900023505,689.3875157000148,None,689.3875157000148,690.6704981000221,0.07474250000086613,None,,,,,,,,,7,001,2019_Dec_23_1115,untitled,3.1.0,60.24208885721976,
_,_4,M,270,_,_,__4M270__,N,0,218,218,38,,,1.373,691.7952871000161,692.085029800015,692.085029800015,692.385493800015,692.4021515000204,None,down,2.0650626000133343,692.4021515000204,None,692.4021515000204,693.7674615000142,0.11173859998234548,None,,,,,,,,,7,001,2019_Dec_23_1115,untitled,3.1.0,60.24208885721976,
234,G,M,45,L,N,234GM045LN,HLN,0,219,219,137,,,0.962,694.5874345000193,694.882817900012,694.9000567000185,695.183099100017,695.2009748000128,None,down,1.8824289000185672,695.2009748000128,None,695.2009748000128,696.148835,0.1106603000080213,None,,,,,,,,,7,001,2019_Dec_23_1115,untitled,3.1.0,60.24208885721976,
044,R,M,135,L,N,044RM135LN,HLN,0,220,220,107,,,1.381,697.1751254000119,697.4972970000235,697.5141278000083,697.7976826000086,697.8143452000222,None,down,2.5174769000150263,697.8143452000222,None,697.8143452000222,699.1797891000169,0.0826422999962233,None,,,,,,,,,7,001,2019_Dec_23_1115,untitled,3.1.0,60.24208885721976,
425,_4,M,0,L,N,425_4M000LN,HLN,0,221,221,168,,,0.9490000000000001,700.4603690000076,700.7604705000122,700.7604705000122,701.044400600018,701.0613531999988,None,up,1.585290699993493,701.0613531999988,None,701.0613531999988,701.9960334000061,0.11678070001653396,None,,,,,,,,,7,001,2019_Dec_23_1115,untitled,3.1.0,60.24208885721976,
238,G,M,225,L,N,238GM225LN,HLN,0,222,222,141,,,1.375,702.7720310000004,703.0757259000093,703.0757259000093,703.3591855000122,703.3759175000014,None,down,2.514509500004351,703.3759175000014,None,703.3759175000014,704.7405634000024,0.11459660000400618,None,,,,,,,,,7,001,2019_Dec_23_1115,untitled,3.1.0,60.24208885721976,
427,_4,M,90,L,N,427_4M090LN,HLN,0,223,223,170,,,0.8140000000000001,705.999163600005,706.2896277000254,706.3232649000129,706.6063253000029,706.6231829000171,None,down,1.533271499996772,706.6231829000171,None,706.6231829000171,707.4222440000158,0.10169770001084544,None,,,,,,,,,7,001,2019_Dec_23_1115,untitled,3.1.0,60.24208885721976,
291,_2,N,90,L,N,291_2N090LN,HLN,0,224,224,250,,,1.306,708.2687508000236,708.5706187000033,708.5872584000172,708.8717754000099,708.888549299998,None,down,2.0487109999812674,708.888549299998,None,708.888549299998,710.1864289000223,0.10117959999479353,None,,,,,,,,,7,001,2019_Dec_23_1115,untitled,3.1.0,60.24208885721976,
206,G,M,225,R,N,206GM225RN,HRN,0,225,225,133,,,1.098,711.0554042000149,711.3512818000163,711.3684643000015,711.6523264000134,711.6687319000193,None,down,2.233126400009496,711.6687319000193,None,711.6687319000193,712.751451100019,0.10767369999666698,None,,,,,,,,,7,001,2019_Dec_23_1115,untitled,3.1.0,60.24208885721976,
_,_2,M,270,_,_,__2M270__,N,0,226,226,30,,,0.9450000000000001,714.0232835000206,714.3157538000087,714.3322684000013,714.6165043000074,714.6344140000001,None,down,1.6665791000123136,714.6344140000001,None,714.6344140000001,715.5655242000066,0.11026080002193339,None,,,,,,,,,7,001,2019_Dec_23_1115,untitled,3.1.0,60.24208885721976,
041,R,M,0,L,N,041RM000LN,HLN,0,227,227,104,,,1.353,716.4235276000109,716.7140437000198,716.7140437000198,717.013755699998,717.0306004000013,None,down,2.464753899985226,717.0306004000013,None,717.0306004000013,718.3631005000207,0.11243279997142963,None,,,,,,,,,7,001,2019_Dec_23_1115,untitled,3.1.0,60.24208885721976,
455,_5,N,270,R,N,455_5N270RN,HRN,0,228,228,278,,,1.08,719.604538500018,719.8953786000202,719.9280087000225,720.2104549000214,720.2274451999983,None,up,2.4029796000104398,720.2274451999983,None,720.2274451999983,721.3599101,0.1000075000047218,None,,,,,,,,,7,001,2019_Dec_23_1115,untitled,3.1.0,60.24208885721976,
487,_5,N,270,L,N,487_5N270LN,HLN,0,229,229,286,,,0.9500000000000001,722.7532009000133,723.0428034000215,723.0428034000215,723.3417095000041,723.3584641000198,None,up,1.60061309998855,723.3584641000198,None,723.3584641000198,724.2900898000225,0.11264979999396019,None,,,,,,,,,7,001,2019_Dec_23_1115,untitled,3.1.0,60.24208885721976,
298,_2,M,45,L,N,298_2M045LN,HLN,0,230,230,153,,,0.8310000000000001,725.0331041000027,725.3726395000122,725.3893910000043,725.6731865000038,725.6899217000173,None,down,3.215469100017799,725.6899217000173,None,725.6899217000173,726.5060793000157,0.06727800000226125,None,,,,,,,,,7,001,2019_Dec_23_1115,untitled,3.1.0,60.24208885721976,
_,R,M,135,_,_,_RM135__,N,0,231,231,19,,,1.159,729.0252067000256,729.3193116000039,729.3357210000104,729.619806200004,729.6364380000159,None,None,,729.6364380000159,None,729.6364380000159,730.7880949000246,0.10877150000305846,None,,,,,,,,,7,001,2019_Dec_23_1115,untitled,3.1.0,60.24208885721976,
_,F,N,270,_,_,_FN270__,N,0,232,232,54,,,1.084,733.2223322000063,733.5156985000067,733.5327653000131,733.8160502000246,733.8343196000205,733.2223322000063,up,1.9141483000130393,733.8343196000205,None,733.8343196000205,734.8976176000142,0.11144800001056865,None,,,,,,,,,7,001,2019_Dec_23_1115,untitled,3.1.0,60.24208885721976,
301,_2,M,180,L,N,301_2M180LN,HLN,0,233,233,156,,,0.98,735.8334082000074,736.1634931000008,736.1801011000061,736.4634086000151,736.4799772000115,None,down,3.0647870999819133,736.4799772000115,None,736.4799772000115,737.4464061000035,0.07709750000503846,None,,,,,,,,,7,001,2019_Dec_23_1115,untitled,3.1.0,60.24208885721976,
422,_4,N,225,L,N,422_4N225LN,HLN,0,234,234,269,,,1.335,739.6530818000028,739.9437191000034,739.9777849000238,740.2604691000015,740.276777799998,None,up,2.3681991000194103,740.276777799998,None,740.276777799998,741.592879600008,0.09917130001122132,None,,,,,,,,,7,001,2019_Dec_23_1115,untitled,3.1.0,60.24208885721976,
483,_5,N,90,L,N,483_5N090LN,HLN,0,235,235,282,,,1.141,742.7680050000199,743.0575765000249,743.0575765000249,743.3570574000187,743.3737881999987,None,up,2.449002399982419,743.3737881999987,None,743.3737881999987,744.5088343000098,0.11266189999878407,None,,,,,,,,,7,001,2019_Dec_23_1115,untitled,3.1.0,60.24208885721976,
010,R,M,45,R,N,010RM045RN,HRN,0,236,236,97,,,1.328,745.9280227000127,746.2379908000003,746.2553840000182,746.5385496000235,746.5551475000102,None,down,2.2514839000068605,746.5551475000102,None,746.5551475000102,747.8705823000055,0.09598369998275302,None,,,,,,,,,7,001,2019_Dec_23_1115,untitled,3.1.0,60.24208885721976,
_,F,N,45,_,_,_FN045__,N,0,237,237,49,,,1.2570000000000001,748.919613200007,749.2186010000005,749.2352366000123,749.5193779999972,749.5355555000133,None,up,1.8821000000170898,749.5355555000133,None,749.5355555000133,750.78395740001,0.10241369999130256,None,,,,,,,,,7,001,2019_Dec_23_1115,untitled,3.1.0,60.24208885721976,
203,G,M,90,R,N,203GM090RN,HRN,0,238,238,130,,,1.054,751.5075063999975,751.83353850001,751.8498954000243,752.1336907000223,752.1502831000253,None,down,1.770377400011057,752.1502831000253,None,752.1502831000253,753.1815257999988,0.08181689999764785,None,,,,,,,,,7,001,2019_Dec_23_1115,untitled,3.1.0,60.24208885721976,
_,_2,N,90,_,_,__2N090__,N,0,239,239,74,,,1.215,754.0423138000187,754.332077900006,754.332077900006,754.6313293999992,754.6479181000032,None,down,3.3345399999816436,754.6479181000032,None,754.6479181000032,755.8466691000212,0.1107239999982994,None,,,,,,,,,7,001,2019_Dec_23_1115,untitled,3.1.0,60.24208885721976,
001,R,N,0,R,N,001RN000RN,HRN,0,240,240,192,,,1.1520000000000001,758.0976589000202,758.3941360000172,758.4102798000094,758.694493500021,758.7112933000026,None,up,2.0181619000213686,758.7112933000026,None,758.7112933000026,759.8603979000181,0.10451100001228042,None,,,,,,,,,7,001,2019_Dec_23_1115,untitled,3.1.0,60.24208885721976,
013,R,M,180,R,N,013RM180RN,HRN,0,241,241,100,,,0.794,760.8532885000168,761.1422635000199,761.1422635000199,761.4416372000123,761.4584474000148,None,down,2.198599199997261,761.4584474000148,None,761.4584474000148,762.2414337000228,0.11379679999663495,None,,,,,,,,,7,001,2019_Dec_23_1115,untitled,3.1.0,60.24208885721976,
_,_2,M,90,_,_,__2M090__,N,0,242,242,26,,,1.196,763.753452600009,764.0722803000244,764.0894874000223,764.3719654000015,764.3891618000052,None,down,2.2651787000067998,764.3891618000052,None,764.3891618000052,765.5731592000229,0.08631710000918247,None,,,,,,,,,7,001,2019_Dec_23_1115,untitled,3.1.0,60.24208885721976,
_,_2,N,180,_,_,__2N180__,N,0,243,243,76,,,0.865,766.7447670999973,767.0696561000077,767.0869105000165,767.3703317000181,767.3871093000052,None,down,2.54895690002013,767.3871093000052,None,767.3871093000052,768.2360813000123,0.08212250002543442,None,,,,,,,,,7,001,2019_Dec_23_1115,untitled,3.1.0,60.24208885721976,
232,G,N,315,L,N,232GN315LN,HLN,0,244,244,239,,,1.156,770.069430500007,770.3674749000056,770.3674749000056,770.6522077000118,770.6676480000024,None,up,1.9679924999945797,770.6676480000024,None,770.6676480000024,771.8163583000132,0.12077580002369359,None,,,,,,,,,7,001,2019_Dec_23_1115,untitled,3.1.0,60.24208885721976,
016,R,M,315,R,N,016RM315RN,HRN,0,245,245,103,,,1.1400000000000001,772.7628293000162,773.0648529000173,773.0648529000173,773.3481710000196,773.3650220000127,None,down,2.218355300021358,773.3650220000127,None,773.3650220000127,774.4973756000109,0.11635690002003685,None,,,,,,,,,7,001,2019_Dec_23_1115,untitled,3.1.0,60.24208885721976,
262,_2,N,225,R,N,262_2N225RN,HRN,0,246,246,245,,,0.97,775.7155385000224,776.0121241000015,776.0121241000015,776.2957318999979,776.3125014000107,None,up,2.0337793999933638,776.3125014000107,None,776.3125014000107,777.2783941000234,0.12096619998919778,None,,,,,,,,,7,001,2019_Dec_23_1115,untitled,3.1.0,60.24208885721976,
205,G,M,180,R,N,205GM180RN,HRN,0,247,247,132,,,0.8260000000000001,778.4665488000028,778.7600841000094,778.7765957000083,779.0598023000057,779.0766033999971,None,down,1.5152131000068039,779.0766033999971,None,779.0766033999971,779.8929228000052,0.11021839999011718,None,,,,,,,,,7,001,2019_Dec_23_1115,untitled,3.1.0,60.24208885721976,
428,_4,M,135,L,N,428_4M135LN,HLN,0,248,248,171,,,1.313,780.6872705999995,781.0074724000006,781.0242652000161,781.3072705000232,781.324250900012,None,down,2.4830476000206545,781.324250900012,None,781.324250900012,782.623790600017,0.0869243000051938,None,,,,,,,,,7,001,2019_Dec_23_1115,untitled,3.1.0,60.24208885721976,
_,_2,M,225,_,_,__2M225__,N,0,249,249,29,,,1.285,783.9414221000043,784.237864900002,784.237864900002,784.5236471000244,784.5395576000155,None,down,2.6150542000250425,784.5395576000155,None,784.5395576000155,785.824545600015,0.12290499999653548,None,,,,,,,,,7,001,2019_Dec_23_1115,untitled,3.1.0,60.24208885721976,
290,_2,N,45,L,N,290_2N045LN,HLN,0,250,250,249,,,1.2710000000000001,787.2854269000236,787.5855256000068,787.5855256000068,787.869122300006,787.885662900022,None,up,2.035455400007777,787.885662900022,None,787.885662900022,789.1502330000221,0.11968300002627075,None,,,,,,,,,7,001,2019_Dec_23_1115,untitled,3.1.0,60.24208885721976,
457,_5,M,0,R,N,457_5M000RN,HRN,0,251,251,176,,,1.2790000000000001,790.0456074000103,790.3350970000029,790.3350970000029,790.6330584000098,790.649845100008,None,down,2.4348845000204165,790.649845100008,None,790.649845100008,791.9183902000077,0.11340930001460947,None,,,,,,,,,7,001,2019_Dec_23_1115,untitled,3.1.0,60.24208885721976,
_,_4,N,270,_,_,__4N270__,N,0,252,252,86,,,0.874,793.1983559000073,793.4965790999995,793.5133612000209,793.797128700011,793.8137931000092,None,up,1.682252900005551,793.8137931000092,None,793.8137931000092,794.6796290000202,0.1020284999976866,None,,,,,,,,,7,001,2019_Dec_23_1115,untitled,3.1.0,60.24208885721976,
391,_4,N,270,R,N,391_4N270RN,HRN,0,253,253,262,,,0.788,795.6072376000229,795.8968033000128,795.9279485000006,796.2113726000243,796.2286361000151,None,up,1.7509963999909814,796.2286361000151,None,796.2286361000151,796.9937105000135,0.10246480000205338,None,,,,,,,,,7,001,2019_Dec_23_1115,untitled,3.1.0,60.24208885721976,
394,_4,M,45,R,N,394_4M045RN,HRN,0,254,254,161,,,1.0,798.0949330000149,798.3930728000123,798.4090504000196,798.6936149000248,798.7097862000228,None,down,1.9317440000013448,798.7097862000228,None,798.7097862000228,799.6934009999968,0.10463659997913055,None,,,,,,,,,7,001,2019_Dec_23_1115,untitled,3.1.0,60.24208885721976,
489,_5,M,0,L,N,489_5M000LN,HLN,0,255,255,184,,,1.04,800.7352064000152,801.0573675000051,801.074980800011,801.3564266000176,801.373221900023,None,down,2.299745800002711,801.373221900023,None,801.373221900023,802.3896733000001,0.08461869999882765,None,,,,,,,,,7,001,2019_Dec_23_1115,untitled,3.1.0,60.24208885721976,
226,G,N,45,L,N,226GN045LN,HLN,0,256,256,233,,,1.165,803.7670876000193,804.0877245000156,804.1045128999976,804.3883759000164,804.4048284000019,None,up,2.0690008999954443,804.4048284000019,None,804.4048284000019,805.5535735000158,0.08280840000952594,None,,,,,,,,,7,001,2019_Dec_23_1115,untitled,3.1.0,60.24208885721976,
005,R,N,180,R,N,005RN180RN,HRN,0,257,257,196,,,1.2610000000000001,806.6018787000212,806.9015872000018,806.9015872000018,807.1852493000042,807.2027303000214,None,down,2.1990526000154205,807.2027303000214,None,807.2027303000214,808.4512775000185,0.11598689999664202,None,,,,,,,,,7,001,2019_Dec_23_1115,untitled,3.1.0,60.24208885721976,
_,F,N,90,_,_,_FN090__,N,0,258,258,50,,,0.988,809.5164945000142,809.8157037000055,809.832350200013,810.1161276000203,810.1336491999973,None,up,1.7983751999854576,810.1336491999973,None,810.1336491999973,811.114608200005,0.10472159998607822,None,,,,,,,,,7,001,2019_Dec_23_1115,untitled,3.1.0,60.24208885721976,
229,G,N,180,L,N,229GN180LN,HLN,0,259,259,236,,,0.8220000000000001,812.0445093000017,812.3472176000068,812.3635710000235,812.6469841000217,812.6634970000014,None,down,1.6699506999866571,812.6634970000014,None,812.6634970000014,813.4635204000224,0.10059740001452155,None,,,,,,,,,7,001,2019_Dec_23_1115,untitled,3.1.0,60.24208885721976,
011,R,M,90,R,N,011RM090RN,HRN,0,260,260,98,,,1.223,814.4639849000087,814.7617260999978,814.7617260999978,815.045122600015,815.062352900015,None,down,2.0005323000077624,815.062352900015,None,815.062352900015,816.2773427000211,0.12021589998039417,None,,,,,,,,,7,001,2019_Dec_23_1115,untitled,3.1.0,60.24208885721976,
168,F,N,315,L,N,168FN315LN,HLN,0,261,261,223,,,1.0090000000000001,817.1913051000156,817.4924303000153,817.4924303000153,817.776357499999,817.7938071000099,None,up,1.732075200008694,817.7938071000099,None,817.7938071000099,818.7919529000064,0.11643180000828579,None,,,,,,,,,7,001,2019_Dec_23_1115,untitled,3.1.0,60.24208885721976,
_,G,M,315,_,_,_GM315__,N,0,262,262,15,,,1.288,819.6499005000223,819.9406063000206,819.9406063000206,820.2407703000063,820.2573631000123,None,down,1.9357818999851588,820.2573631000123,None,820.2573631000123,821.5252312000084,0.11399039998650551,None,,,,,,,,,7,001,2019_Dec_23_1115,untitled,3.1.0,60.24208885721976,
_,_5,M,225,_,_,__5M225__,N,0,263,263,45,,,0.984,822.3202362000011,822.6213395000086,822.6213395000086,822.9049956000235,822.9217827000248,None,down,2.432642100000521,822.9217827000248,None,822.9217827000248,823.8876027000078,0.11666280002100393,None,,,,,,,,,7,001,2019_Dec_23_1115,untitled,3.1.0,60.24208885721976,
_,_5,M,315,_,_,__5M315__,N,0,264,264,47,,,0.844,825.4741346000228,825.7686834000051,825.7858309000148,826.0687116000045,826.0851430000039,None,up,1.599452399997972,826.0851430000039,None,826.0851430000039,826.9171556000074,0.10863050000625663,None,,,,,,,,,7,001,2019_Dec_23_1115,untitled,3.1.0,60.24208885721976,
260,_2,N,135,R,N,260_2N135RN,HRN,0,265,265,243,,,0.855,827.7732055000088,828.1000889000134,828.1166583000158,828.4002165000129,828.417010300007,None,down,2.032515400002012,828.417010300007,None,828.417010300007,829.2492397000024,0.07996250002179295,None,,,,,,,,,7,001,2019_Dec_23_1115,untitled,3.1.0,60.24208885721976,
_,_4,N,225,_,_,__4N225__,N,0,266,266,85,,,1.284,830.571800500009,830.8645472000062,830.8807042000117,831.1642629000125,831.1807052000077,None,up,2.4675812000059523,831.1807052000077,None,831.1807052000077,832.4491666000104,0.11030969998682849,None,,,,,,,,,7,001,2019_Dec_23_1115,untitled,3.1.0,60.24208885721976,
_,F,M,90,_,_,_FM090__,N,0,267,267,2,,,0.936,833.7445316000085,834.0617385000223,834.0779939000204,834.3620447000139,834.3791724000184,None,down,1.5679293000139296,834.3791724000184,None,834.3791724000184,835.294292000006,0.08673989999806508,None,,,,,,,,,7,001,2019_Dec_23_1115,untitled,3.1.0,60.24208885721976,
008,R,N,315,R,N,008RN315RN,HRN,0,268,268,199,,,1.371,836.0675930000143,836.3597666000132,836.3762434000091,836.6599634000158,836.6765725000005,None,up,2.149662100011483,836.6765725000005,None,836.6765725000005,838.0418883000093,0.10959429998183623,None,,,,,,,,,7,001,2019_Dec_23_1115,untitled,3.1.0,60.24208885721976,
481,_5,N,0,L,N,481_5N000LN,HLN,0,269,269,280,,,1.1380000000000001,838.9482577000163,839.240340600023,839.2567138000159,839.5426923000196,839.5578346000111,None,down,1.8839327000023331,839.5578346000111,None,839.5578346000111,840.6894705000159,0.1090422999986913,None,,,,,,,,,7,001,2019_Dec_23_1115,untitled,3.1.0,60.24208885721976,
144,F,M,315,R,N,144FM315RN,HRN,0,270,270,119,,,0.759,841.5446297000162,841.8547146000201,841.8712847999996,842.1548891999992,842.1723299000005,None,down,1.3829397999797948,842.1723299000005,None,842.1723299000005,842.9204841000028,0.09389910000027157,None,,,,,,,,,7,001,2019_Dec_23_1115,untitled,3.1.0,60.24208885721976,
494,_5,M,225,L,N,494_5M225LN,HLN,0,271,271,189,,,0.811,843.6692809000087,843.9693130000087,843.9862180000055,844.2701996000251,844.286658099998,None,down,2.0020100999972783,844.286658099998,None,844.286658099998,845.0857743000088,0.10317760001635179,None,,,,,,,,,7,001,2019_Dec_23_1115,untitled,3.1.0,60.24208885721976,
452,_5,N,135,R,N,452_5N135RN,HRN,0,272,272,275,,,1.361,846.3974973000004,846.736517900019,846.736517900019,847.0001333000255,847.0171216000163,None,down,2.6331102999974973,847.0171216000163,None,847.0171216000163,848.3668684000149,0.09789299999829382,None,,,,,,,,,7,001,2019_Dec_23_1115,untitled,3.1.0,60.24208885721976,
195,G,N,90,R,N,195GN090RN,HRN,0,273,273,226,,,0.8210000000000001,849.7730342000141,850.0643992999976,850.0643992999976,850.3645433000056,850.3826456000097,None,down,1.9996411000029184,850.3826456000097,None,850.3826456000097,851.1974163000123,0.1113463000219781,None,,,,,,,,,7,001,2019_Dec_23_1115,untitled,3.1.0,60.24208885721976,
142,F,M,225,R,N,142FM225RN,HRN,0,274,274,117,,,1.327,852.5034694000205,852.7956849000184,852.7956849000184,853.0953674000048,853.1123159000126,None,down,2.668579499993939,853.1123159000126,None,853.1123159000126,854.4291345000092,0.11075639998307452,None,,,,,,,,,7,001,2019_Dec_23_1115,untitled,3.1.0,60.24208885721976,
_,_5,N,0,_,_,__5N000__,N,0,275,275,88,,,0.804,855.8985248000245,856.1926168000209,856.2087728000188,856.4919829000137,856.5089637000056,None,down,1.549055400013458,856.5089637000056,None,856.5089637000056,857.3081174000108,0.10691550001502037,None,,,,,,,,,7,001,2019_Dec_23_1115,untitled,3.1.0,60.24208885721976,
271,_2,M,270,R,N,271_2M270RN,HRN,0,276,276,150,,,0.878,858.1488291000132,858.4736755000195,858.4900301000162,858.7739778000105,858.7905488999968,None,up,1.9993530999927316,858.7905488999968,None,858.7905488999968,859.656802500016,0.08239369999500923,None,,,,,,,,,7,001,2019_Dec_23_1115,untitled,3.1.0,60.24208885721976,
198,G,N,225,R,N,198GN225RN,HRN,0,277,277,229,,,1.091,860.9066243999987,861.2045374000154,861.221088100021,861.504820400005,861.5217298000061,None,up,2.2824334999895655,861.5217298000061,None,861.5217298000061,862.60292450001,0.10540090000722557,None,,,,,,,,,7,001,2019_Dec_23_1115,untitled,3.1.0,60.24208885721976,
_,_4,M,315,_,_,__4M315__,N,0,278,278,39,,,1.231,863.9326021000161,864.2349434000207,864.2349434000207,864.5189618000004,864.5355800999969,None,down,1.986350700026378,864.5355800999969,None,864.5355800999969,865.7513398000156,0.11657389998435974,None,,,,,,,,,7,001,2019_Dec_23_1115,untitled,3.1.0,60.24208885721976,
227,G,N,90,L,N,227GN090LN,HLN,0,279,279,234,,,1.155,866.6514021000185,866.9493053000188,866.9493053000188,867.2329750000208,867.2497319000249,None,up,2.3507282999926247,867.2497319000249,None,867.2497319000249,868.3990517000202,0.11814840001170523,None,,,,,,,,,7,001,2019_Dec_23_1115,untitled,3.1.0,60.24208885721976,
_,F,M,270,_,_,_FM270__,N,0,280,280,6,,,1.337,869.722497300012,870.0134037000244,870.0298685000162,870.3140528000076,870.3304682000016,None,down,2.248479600006249,870.3304682000016,None,870.3304682000016,871.6621089000255,0.11077990001649596,None,,,,,,,,,7,001,2019_Dec_23_1115,untitled,3.1.0,60.24208885721976,
007,R,N,270,R,N,007RN270RN,HRN,0,281,281,198,,,1.2690000000000001,872.6738783000037,872.9943476000044,873.0112398000201,873.2938473999966,873.3111868000124,None,up,2.131576799991308,873.3111868000124,None,873.3111868000124,874.5603092000238,0.0856058000063058,None,,,,,,,,,7,001,2019_Dec_23_1115,untitled,3.1.0,60.24208885721976,
_,G,N,270,_,_,_GN270__,N,0,282,282,62,,,0.754,875.5268111000187,875.8582564000099,875.8756311000034,876.1587188999983,876.1754460000084,None,up,1.9870312999992166,876.1754460000084,None,876.1754460000084,876.9073411000136,0.07566979998955503,None,,,,,,,,,7,001,2019_Dec_23_1115,untitled,3.1.0,60.24208885721976,
424,_4,N,315,L,N,424_4N315LN,HLN,0,283,283,271,,,1.114,878.2783045000106,878.5734188000206,878.5891559000011,878.8730251000088,878.8898569000012,None,up,1.9844920999894384,878.8898569000012,None,878.8898569000012,879.988992300001,0.10551029999624006,None,,,,,,,,,7,001,2019_Dec_23_1115,untitled,3.1.0,60.24208885721976,
459,_5,M,90,R,N,459_5M090RN,HRN,0,284,284,178,,,1.272,880.9877602000197,881.2879816000059,881.2879816000059,881.5873762000119,881.6039786000038,None,down,2.367223900015233,881.6039786000038,None,881.6039786000038,882.8697304000088,0.10222699999576434,None,,,,,,,,,7,001,2019_Dec_23_1115,untitled,3.1.0,60.24208885721976,
426,_4,M,45,L,N,426_4M045LN,HLN,0,285,285,169,,,1.051,884.0794822000025,884.3844577000127,884.4008675000223,884.6848477000021,884.701177400013,None,down,1.8513153000094462,884.701177400013,None,884.701177400013,885.7337288999988,0.09779500000877306,None,,,,,,,,,7,001,2019_Dec_23_1115,untitled,3.1.0,60.24208885721976,
399,_4,M,270,R,N,399_4M270RN,HRN,0,286,286,166,,,0.921,886.6527099000232,886.9653099999996,886.9819048000209,887.2651066000108,887.2817104000133,None,down,2.0156204999948386,887.2817104000133,None,887.2817104000133,888.1983443000063,0.08956619998207316,None,,,,,,,,,7,001,2019_Dec_23_1115,untitled,3.1.0,60.24208885721976,
014,R,M,225,R,N,014RM225RN,HRN,0,287,287,101,,,1.093,889.3866540000017,889.7132480000146,889.7294625000213,890.0134879999969,890.0300970000098,None,down,2.349672400014242,890.0300970000098,None,890.0300970000098,891.1124102000031,0.08065580000402406,None,,,,,,,,,7,001,2019_Dec_23_1115,untitled,3.1.0,60.24208885721976,
,,,,,,,,,,,,,,,,,,,,,,,,,,,,,892.3949132999987,None,897.2571620000235,None,899.5056758999999,None,901.7699314000201,None,,,,,,,
