Number,Letter,type,Orientation,human,face_type,image,picture,trials.thisRepN,trials.thisTrialN,trials.thisN,trials.thisIndex,text.started,text.stopped,stimulus_duration,CROSS.started,CROSS.stopped,BLANK.started,BLANK.stopped,TEST.started,TEST.stopped,key_JUDGE.keys,key_JUDGE.started,key_JUDGE.stopped,image_2.started,image_2.stopped,ISI.started,ISI.stopped,key_JUDGE.rt,q1.started,q1.stopped,q2.started,q2.stopped,q3.started,q3.stopped,text_2.started,text_2.stopped,participant,session,date,expName,psychopyVersion,frameRate,
231,G,N,270,L,N,231GN270LN,HLN,0,0,0,238,1133.3501658999594,None,1.221,1171.5990157999913,1171.8402967999573,1171.8402967999573,1171.9897897999617,1172.008032999991,None,None,1172.008032999991,None,1172.008032999991,1173.2053446999635,0.25750950002111495,None,,,,,,,,,,8,001,2019_Dec_25_0820,untitled,3.1.0,59.99660419428335,
_,_4,M,180,_,_,__4M180__,N,0,1,1,36,,,0.741,1175.7560940000112,1176.0532850999734,1176.0532850999734,1176.2205221999902,1176.2375760999857,1175.7560940000112,up,1176.2375760999857,None,1176.2375760999857,1176.9686911999597,0.2385774000431411,None,1.7161678000120446,,,,,,,,,8,001,2019_Dec_25_0820,untitled,3.1.0,59.99660419428335,
_,R,M,315,_,_,_RM315__,N,0,2,2,23,,,0.74,1178.144362299994,1178.434540999995,1178.434540999995,1178.6673862999887,1178.6846951000043,None,up,1178.6846951000043,None,1178.6846951000043,1179.4002274000086,0.18269429996144027,None,2.066549799987115,,,,,,,,,8,001,2019_Dec_25_0820,untitled,3.1.0,59.99660419428335,
489,_5,M,0,L,N,489_5M000LN,HLN,0,3,3,184,,,0.753,1180.9298839999828,1181.2324329999974,1181.2324329999974,1181.4658441999927,1181.485195599962,None,None,1181.485195599962,None,1181.485195599962,1182.2147073000087,0.1715041000279598,None,,,,,,,,,,8,001,2019_Dec_25_0820,untitled,3.1.0,59.99660419428335,
141,F,M,180,R,N,141FM180RN,HRN,0,4,4,116,,,1.316,1185.0610787000041,1185.3617502999841,1185.3781457999721,1185.6619754999992,1185.6786235999898,1185.0610787000041,up,1185.6786235999898,None,1185.6786235999898,1186.977073499991,0.10263959999429062,None,2.882173200021498,,,,,,,,,8,001,2019_Dec_25_0820,untitled,3.1.0,59.99660419428335,
_,G,N,90,_,_,_GN090__,N,0,5,5,58,,,0.749,1188.6638997999835,1188.9753483000095,1188.9922133999644,1189.2753161999863,1189.2939464999945,None,up,1189.2939464999945,None,1189.2939464999945,1190.0248771999613,0.09592559997690842,None,2.812873099988792,,,,,,,,,8,001,2019_Dec_25_0820,untitled,3.1.0,59.99660419428335,
_,_2,N,315,_,_,__2N315__,N,0,6,6,79,,,0.838,1192.2484365999699,1192.5387624999858,1192.5387624999858,1192.8223262999672,1192.8390525999712,None,up,1192.8390525999712,None,1192.8390525999712,1193.6542809999664,0.13280180003494024,None,2.399028600018937,,,,,,,,,8,001,2019_Dec_25_0820,untitled,3.1.0,59.99660419428335,
_,_2,M,135,_,_,__2M135__,N,0,7,7,27,,,1.09,1195.319099699962,1195.653043999977,1195.6690586999757,1195.9527403999818,1195.9695141999982,None,None,1195.9695141999982,None,1195.9695141999982,1197.0359730999917,0.07394550001481548,None,,,,,,,,,,8,001,2019_Dec_25_0820,untitled,3.1.0,59.99660419428335,
_,_5,N,135,_,_,__5N135__,N,0,8,8,91,,,1.103,1199.5931726999697,1199.882848499983,1199.882848499983,1200.1491920999833,1200.1655191999744,1199.5931726999697,up,1200.1655191999744,None,1200.1655191999744,1201.2475899999845,0.1522772999596782,None,2.0999149999697693,,,,,,,,,8,001,2019_Dec_25_0820,untitled,3.1.0,59.99660419428335,
047,R,M,270,L,N,047RM270LN,HLN,0,9,9,110,,,1.0230000000000001,1202.4895544999745,1202.7802308999817,1202.7802308999817,1202.9802348999656,1202.9966483999742,None,up,1202.9966483999742,None,1202.9966483999742,1203.9956045,0.2171739999903366,None,2.1655482000205666,,,,,,,,,8,001,2019_Dec_25_0820,untitled,3.1.0,59.99660419428335,
_,_4,N,180,_,_,__4N180__,N,0,10,10,84,,,1.24,1205.2527544999612,1205.5781343999552,1205.594577199954,1205.8773975999793,1205.8936383999535,None,up,1205.8936383999535,None,1205.8936383999535,1207.1091886999784,0.08309159998316318,None,2.082183199992869,,,,,,,,,8,001,2019_Dec_25_0820,untitled,3.1.0,59.99660419428335,
_,F,M,270,_,_,_FM270__,N,0,11,11,6,,,1.039,1208.1711649000063,1208.4593908999814,1208.4593908999814,1208.6919150999747,1208.7090402999893,None,up,1208.7090402999893,None,1208.7090402999893,1209.7238575000083,0.18720100005157292,None,2.133386800007429,,,,,,,,,8,001,2019_Dec_25_0820,untitled,3.1.0,59.99660419428335,
_,R,N,180,_,_,_RN180__,N,0,12,12,68,,,1.087,1210.9698363000061,1211.2578091999749,1211.2578091999749,1211.5556773999706,1211.5723637999617,None,up,1211.5723637999617,None,1211.5723637999617,1212.638898300007,0.11794199998257682,None,3.4478463000268675,,,,,,,,,8,001,2019_Dec_25_0820,untitled,3.1.0,59.99660419428335,
172,F,M,135,L,N,172FM135LN,HLN,0,13,13,123,,,0.743,1215.2259230999625,1215.5195561999572,1215.5195561999572,1215.7352769999998,1215.7522864000057,None,up,1215.7522864000057,None,1215.7522864000057,1216.4844452000107,0.1982904999749735,None,1.9997214999748394,,,,,,,,,8,001,2019_Dec_25_0820,untitled,3.1.0,59.99660419428335,
199,G,N,270,R,N,199GN270RN,HRN,0,14,14,230,,,0.896,1217.935685399978,1218.2331706999685,1218.2331706999685,1218.4661665000021,1218.4827050999738,None,up,1218.4827050999738,None,1218.4827050999738,1219.3655790999765,0.17362519999733195,None,2.5647744000307284,,,,,,,,,8,001,2019_Dec_25_0820,untitled,3.1.0,59.99660419428335,
_,_4,N,225,_,_,__4N225__,N,0,15,15,85,,,0.872,1221.1168987999554,1221.463716999977,1221.4805321999593,1221.7634155999986,1221.7799723999924,None,up,1221.7799723999924,None,1221.7799723999924,1222.6290974000003,0.06169729999965057,None,3.0651781000196934,,,,,,,,,8,001,2019_Dec_25_0820,untitled,3.1.0,59.99660419428335,
134,F,N,225,R,N,134FN225RN,HRN,0,16,16,213,,,1.175,1225.0108255000087,1225.3098469999968,1225.3098469999968,1225.5595932999859,1225.576879100001,None,up,1225.576879100001,None,1225.576879100001,1226.7423082999885,0.1577660000184551,None,1.9823685000301339,,,,,,,,,8,001,2019_Dec_25_0820,untitled,3.1.0,59.99660419428335,
291,_2,N,90,L,N,291_2N090LN,HLN,0,17,17,250,,,0.802,1227.747859199997,1228.0410599999595,1228.0410599999595,1228.275346099981,1228.293591899972,None,up,1228.293591899972,None,1228.293591899972,1229.0735719999648,0.18024779995903373,None,1.729499200009741,,,,,,,,,8,001,2019_Dec_25_0820,untitled,3.1.0,59.99660419428335,
459,_5,M,90,R,N,459_5M090RN,HRN,0,18,18,178,,,1.266,1230.2226423000102,1230.5226384999696,1230.5226384999696,1230.7390252999612,1230.7553957999917,None,down,1230.7553957999917,None,1230.7553957999917,1232.0050332999672,0.1895926000433974,None,3.38262869999744,,,,,,,,,8,001,2019_Dec_25_0820,untitled,3.1.0,59.99660419428335,
304,_2,M,315,L,N,304_2M315LN,HLN,0,19,19,159,,,0.991,1234.3265541999717,1234.6189068999956,1234.6189068999956,1234.851632899954,1234.8680672000046,None,up,1234.8680672000046,None,1234.8680672000046,1235.8507743999944,0.1803455000044778,None,3.250444700010121,,,,,,,,,8,001,2019_Dec_25_0820,untitled,3.1.0,59.99660419428335,
_,_5,M,315,_,_,__5M315__,N,0,20,20,47,,,0.899,1238.3036722000106,1238.5986541999737,1238.5986541999737,1238.8317634999985,1238.8485522999545,None,None,1238.8485522999545,None,1238.8485522999545,1239.7307758000097,0.1763813000288792,None,,,,,,,,,,8,001,2019_Dec_25_0820,untitled,3.1.0,59.99660419428335,
463,_5,M,270,R,N,463_5M270RN,HRN,0,21,21,182,,,1.366,1242.5024650999694,1242.795903899998,1242.795903899998,1243.0282218999928,1243.0448457999737,1242.5024650999694,up,1243.0448457999737,None,1243.0448457999737,1244.3964700999786,0.18322229996556416,None,2.2160595000023022,,,,,,,,,8,001,2019_Dec_25_0820,untitled,3.1.0,59.99660419428335,
_,_4,N,0,_,_,__4N000__,N,0,22,22,80,,,0.993,1245.4546526999911,1245.742617199954,1245.742617199954,1245.9756640999694,1245.9926990999957,None,up,1245.9926990999957,None,1245.9926990999957,1246.9745508999913,0.1843356000026688,None,1.7002725999918766,,,,,,,,,8,001,2019_Dec_25_0820,untitled,3.1.0,59.99660419428335,
386,_4,N,45,R,N,386_4N045RN,HRN,0,23,23,257,,,0.704,1247.8973727999837,1248.1904573999927,1248.1904573999927,1248.4070006999536,1248.423556499998,None,up,1248.423556499998,None,1248.423556499998,1249.106716899958,0.19715249998262152,None,1.3327883000019938,,,,,,,,,8,001,2019_Dec_25_0820,untitled,3.1.0,59.99660419428335,
431,_4,M,270,L,N,431_4M270LN,HLN,0,24,24,174,,,1.34,1249.9852862000116,1250.272156299965,1250.272156299965,1250.4731314000092,1250.4883235999732,None,down,1250.4883235999732,None,1250.4883235999732,1251.8036289999727,0.22040109999943525,None,2.333014399977401,,,,,,,,,8,001,2019_Dec_25_0820,untitled,3.1.0,59.99660419428335,
137,F,M,0,R,N,137FM000RN,HRN,0,25,25,112,,,0.7020000000000001,1253.003056299989,1253.3026114999666,1253.3026114999666,1253.5356360999867,1253.5525460999925,None,up,1253.5525460999925,None,1253.5525460999925,1254.2353678999934,0.17407639999873936,None,1.6165007000090554,,,,,,,,,8,001,2019_Dec_25_0820,untitled,3.1.0,59.99660419428335,
038,R,N,225,L,N,038RN225LN,HLN,0,26,26,205,,,0.8310000000000001,1255.3829105999903,1255.6836915999884,1255.6836915999884,1255.8837340999744,1255.9010033999803,None,None,1255.9010033999803,None,1255.9010033999803,1256.7169293999905,0.2049253000295721,None,,,,,,,,,,8,001,2019_Dec_25_0820,untitled,3.1.0,59.99660419428335,
_,F,N,45,_,_,_FN045__,N,0,27,27,49,,,0.834,1259.5215682999697,1259.8140021999716,1259.8140021999716,1260.0812683999538,1260.100473599974,1259.5215682999697,up,1260.100473599974,None,1260.100473599974,1260.9119559999672,0.14979850000236183,None,2.911292400036473,,,,,,,,,8,001,2019_Dec_25_0820,untitled,3.1.0,59.99660419428335,
_,_4,M,45,_,_,__4M045__,N,0,28,28,33,,,1.038,1263.092500699975,1263.4271357000107,1263.4436548000085,1263.7264661999652,1263.7433796999976,None,down,1263.7433796999976,None,1263.7433796999976,1264.7588852999615,0.07296140003018081,None,1.9997838999843225,,,,,,,,,8,001,2019_Dec_25_0820,untitled,3.1.0,59.99660419428335,
236,G,M,135,L,N,236GM135LN,HLN,0,29,29,139,,,0.9420000000000001,1265.9335749999736,1266.2244146000012,1266.2244146000012,1266.4576435000054,1266.474250899977,None,None,1266.474250899977,None,1266.474250899977,1267.3904314999818,0.1829713000333868,None,,,,,,,,,,8,001,2019_Dec_25_0820,untitled,3.1.0,59.99660419428335,
490,_5,M,45,L,N,490_5M045LN,HLN,0,30,30,185,,,0.806,1270.1072671999573,1270.4044514999841,1270.4044514999841,1270.6538910999661,1270.670698300004,1270.1072671999573,down,1270.670698300004,None,1270.670698300004,1271.4531956999563,0.16252949996851385,None,3.0327018999960274,,,,,,,,,8,001,2019_Dec_25_0820,untitled,3.1.0,59.99660419428335,
392,_4,N,315,R,N,392_4N315RN,HRN,0,31,31,263,,,0.89,1273.7812038999982,1274.118399799976,1274.1347546000034,1274.4176638000063,1274.4344501000014,None,up,1274.4344501000014,None,1274.4344501000014,1275.2997116000042,0.07050879998132586,None,1.5177337999921292,,,,,,,,,8,001,2019_Dec_25_0820,untitled,3.1.0,59.99660419428335,
458,_5,M,45,R,N,458_5M045RN,HRN,0,32,32,177,,,1.28,1276.0636671999819,1276.3515330000082,1276.382355699956,1276.6678129999782,1276.6845513999579,None,down,1276.6845513999579,None,1276.6845513999579,1277.947911700001,0.10186360002262518,None,2.6462624999694526,,,,,,,,,8,001,2019_Dec_25_0820,untitled,3.1.0,59.99660419428335,
298,_2,M,45,L,N,298_2M045LN,HLN,0,33,33,153,,,1.072,1279.5212454999564,1279.8127886999864,1279.8127886999864,1280.0467924000113,1280.0626136999927,None,down,1280.0626136999927,None,1280.0626136999927,1281.1116261999705,0.18285919999470934,None,2.6151573000242934,,,,,,,,,8,001,2019_Dec_25_0820,untitled,3.1.0,59.99660419428335,
_,F,N,0,_,_,_FN000__,N,0,34,34,48,,,0.712,1282.765484499978,1283.093956800003,1283.111272799957,1283.3934616000042,1283.409306799993,None,up,1283.409306799993,None,1283.409306799993,1284.1096426000004,0.08015689998865128,None,1.5168853999930434,,,,,,,,,8,001,2019_Dec_25_0820,untitled,3.1.0,59.99660419428335,
464,_5,M,315,R,N,464_5M315RN,HRN,0,35,35,183,,,1.317,1285.1112268999568,1285.408035499975,1285.408035499975,1285.6415738000069,1285.65766289999,None,None,1285.65766289999,None,1285.65766289999,1286.9567039000103,0.17732850002357736,None,,,,,,,,,,8,001,2019_Dec_25_0820,untitled,3.1.0,59.99660419428335,
142,F,M,225,R,N,142FM225RN,HRN,0,36,36,117,,,1.222,1289.1958812999655,1289.5380447999923,1289.554652199964,1289.8375794999884,1289.8540901999804,1289.1958812999655,up,1289.8540901999804,None,1289.8540901999804,1291.053375999967,0.06692849996034056,None,2.281633200007491,,,,,,,,,8,001,2019_Dec_25_0820,untitled,3.1.0,59.99660419428335,
289,_2,N,0,L,N,289_2N000LN,HLN,0,37,37,248,,,1.1420000000000001,1292.3270391999977,1292.62041209999,1292.62041209999,1292.8511721999967,1292.8678354999865,None,up,1292.8678354999865,None,1292.8678354999865,1294.0005545999738,0.1810148000367917,None,2.567211900022812,,,,,,,,,8,001,2019_Dec_25_0820,untitled,3.1.0,59.99660419428335,
237,G,M,180,L,N,237GM180LN,HLN,0,38,38,140,,,0.889,1295.52363229997,1295.8485717999865,1295.8654692999553,1296.1491182000027,1296.1658516000025,None,down,1296.1658516000025,None,1296.1658516000025,1297.0310145999538,0.08072329999413341,None,1.9479713999899104,,,,,,,,,8,001,2019_Dec_25_0820,untitled,3.1.0,59.99660419428335,
454,_5,N,225,R,N,454_5N225RN,HRN,0,39,39,277,,,1.0170000000000001,1298.2982802999904,1298.597255999979,1298.597255999979,1298.8297014999553,1298.8460533999605,None,up,1298.8460533999605,None,1298.8460533999605,1299.8452718000044,0.17705440003192052,None,2.217056799971033,,,,,,,,,8,001,2019_Dec_25_0820,untitled,3.1.0,59.99660419428335,
195,G,N,90,R,N,195GN090RN,HRN,0,40,40,226,,,0.777,1301.240629799955,1301.529035399959,1301.529035399959,1301.7767219999805,1301.7935475999839,None,up,1301.7935475999839,None,1301.7935475999839,1302.5595172999892,0.1682446000049822,None,1.9331914999638684,,,,,,,,,8,001,2019_Dec_25_0820,untitled,3.1.0,59.99660419428335,
423,_4,N,270,L,N,423_4N270LN,HLN,0,41,41,270,,,1.1,1303.8984825999942,1304.1919280999573,1304.1919280999573,1304.4418837999692,1304.458397599985,None,up,1304.458397599985,None,1304.458397599985,1305.540766799997,0.16221109998878092,None,2.1332365999696776,,,,,,,,,8,001,2019_Dec_25_0820,untitled,3.1.0,59.99660419428335,
_,_2,N,180,_,_,__2N180__,N,0,42,42,76,,,0.887,1306.797741599963,1307.0898266999866,1307.0898266999866,1307.3062815999729,1307.3224564999691,None,up,1307.3224564999691,None,1307.3224564999691,1308.1909948000102,0.1976456000120379,None,3.3476021999958903,,,,,,,,,8,001,2019_Dec_25_0820,untitled,3.1.0,59.99660419428335,
_,R,N,270,_,_,_RN270__,N,0,43,43,70,,,0.991,1310.8844252999988,1311.1862483999575,1311.1862483999575,1311.385934299964,1311.4019010000047,None,up,1311.4019010000047,None,1311.4019010000047,1312.3844459999818,0.20517729996936396,None,2.7159444999997504,,,,,,,,,8,001,2019_Dec_25_0820,untitled,3.1.0,59.99660419428335,
271,_2,M,270,R,N,271_2M270RN,HRN,0,44,44,150,,,0.8210000000000001,1314.3360702999635,1314.6323005000013,1314.6323005000013,1314.8322733999812,1314.8487635999918,None,None,1314.8487635999918,None,1314.8487635999918,1315.648212399974,0.21046649996424094,None,,,,,,,,,,8,001,2019_Dec_25_0820,untitled,3.1.0,59.99660419428335,
_,G,M,90,_,_,_GM090__,N,0,45,45,10,,,0.862,1318.5071574999602,1318.7955145000014,1318.7955145000014,1319.028474199993,1319.0453245000099,1318.5071574999602,up,1319.0453245000099,None,1319.0453245000099,1319.8947296999977,0.18554989999393,None,2.398564599978272,,,,,,,,,8,001,2019_Dec_25_0820,untitled,3.1.0,59.99660419428335,
427,_4,M,90,L,N,427_4M090LN,HLN,0,46,46,170,,,1.35,1321.6524750000099,1321.942764699983,1321.942764699983,1322.1595331999706,1322.1776049999753,None,down,1322.1776049999753,None,1322.1776049999753,1323.5085154999979,0.19899439997971058,None,2.42991050001001,,,,,,,,,8,001,2019_Dec_25_0820,untitled,3.1.0,59.99660419428335,
262,_2,N,225,R,N,262_2N225RN,HRN,0,47,47,245,,,0.759,1324.6936622000067,1325.0237463999656,1325.0402908999822,1325.3232291999739,1325.3399737,None,up,1325.3399737,None,1325.3399737,1326.0727290000068,0.07900369999697432,None,1.931982700014487,,,,,,,,,8,001,2019_Dec_25_0820,untitled,3.1.0,59.99660419428335,
_,_4,M,270,_,_,__4M270__,N,0,48,48,38,,,1.024,1327.359231899958,1327.6883791,1327.704859199992,1327.9883477999829,1328.0048261999618,None,down,1328.0048261999618,None,1328.0048261999618,1329.0200441000052,0.07877069996902719,None,2.2647044000332244,,,,,,,,,8,001,2019_Dec_25_0820,untitled,3.1.0,59.99660419428335,
484,_5,N,135,L,N,484_5N135LN,HLN,0,49,49,283,,,0.751,1330.3733217999688,1330.6857295999653,1330.7025976000004,1330.9849395999918,1331.0015743999975,None,up,1331.0015743999975,None,1331.0015743999975,1331.7345566999866,0.0969080000068061,None,2.9312719999579713,,,,,,,,,8,001,2019_Dec_25_0820,untitled,3.1.0,59.99660419428335,
033,R,N,0,L,N,033RN000LN,HLN,0,50,50,200,,,1.2730000000000001,1334.1385418999707,1334.4324060999788,1334.4324060999788,1334.648402599967,1334.6647878999938,None,up,1334.6647878999938,None,1334.6647878999938,1335.913838699984,0.197535399987828,None,1.9376809999812394,,,,,,,,,8,001,2019_Dec_25_0820,untitled,3.1.0,59.99660419428335,
_,R,N,225,_,_,_RN225__,N,0,51,51,69,,,1.2590000000000001,1336.7866906999843,1337.0795439999783,1337.0795439999783,1337.3290639999905,1337.3290639999905,None,up,1337.3290639999905,None,1337.3290639999905,1338.578979199985,0.17222459998447448,None,2.2485460999887437,,,,,,,,,8,001,2019_Dec_25_0820,untitled,3.1.0,59.99660419428335,
302,_2,M,225,L,N,302_2M225LN,HLN,0,52,52,157,,,1.042,1339.6635648999945,1339.9942224000115,1340.0103302999632,1340.2935749999597,1340.310574300005,None,down,1340.310574300005,None,1340.310574300005,1341.3257975999732,0.07799679995514452,None,3.397663499985356,,,,,,,,,8,001,2019_Dec_25_0820,untitled,3.1.0,59.99660419428335,
039,R,N,270,L,N,039RN270LN,HLN,0,53,53,206,,,0.805,1343.80753250001,1344.123664499959,1344.1408836999908,1344.4231483999756,1344.4397261999547,None,up,1344.4397261999547,None,1344.4397261999547,1345.2228949999553,0.08988389995647594,None,2.082809699990321,,,,,,,,,8,001,2019_Dec_25_0820,untitled,3.1.0,59.99660419428335,
225,G,N,0,L,N,225GN000LN,HLN,0,54,54,232,,,1.096,1346.602512399957,1346.9377261999762,1346.954514299985,1347.2374336000066,1347.2540286000003,None,up,1347.2540286000003,None,1347.2540286000003,1348.3383033999708,0.07298729999456555,None,2.264996899990365,,,,,,,,,8,001,2019_Dec_25_0820,untitled,3.1.0,59.99660419428335,
268,_2,M,135,R,N,268_2M135RN,HRN,0,55,55,147,,,1.145,1349.603630299971,1349.9347434999654,1349.9516171999858,1350.2344916999573,1350.2514894999913,None,up,1350.2514894999913,None,1350.2514894999913,1351.3846822999767,0.07652800000505522,None,3.1650297000305727,,,,,,,,,8,001,2019_Dec_25_0820,untitled,3.1.0,59.99660419428335,
_,F,M,225,_,_,_FM225__,N,0,56,56,5,,,1.124,1353.6004606999923,1353.8982350999722,1353.8982350999722,1354.1310694999993,1354.1479899999686,None,up,1354.1479899999686,None,1354.1479899999686,1355.2486763999914,0.17573850002372637,None,2.697910899994895,,,,,,,,,8,001,2019_Dec_25_0820,untitled,3.1.0,59.99660419428335,
290,_2,N,45,L,N,290_2N045LN,HLN,0,57,57,249,,,0.9400000000000001,1357.0198793999734,1357.3118656000006,1357.3118656000006,1357.5632904999657,1357.5788455999573,None,up,1357.5788455999573,None,1357.5788455999573,1358.4941399999661,0.16517699998803437,None,1.9824238999863155,,,,,,,,,8,001,2019_Dec_25_0820,untitled,3.1.0,59.99660419428335,
385,_4,N,0,R,N,385_4N000RN,HRN,0,58,58,256,,,1.122,1359.6372818999807,1359.976288100006,1359.993431699986,1360.2766271999571,1360.2932107999804,None,up,1360.2932107999804,None,1360.2932107999804,1361.3917587999604,0.06833679997362196,None,2.0487766999867745,,,,,,,,,8,001,2019_Dec_25_0820,untitled,3.1.0,59.99660419428335,
041,R,M,0,L,N,041RM000LN,HLN,0,59,59,104,,,1.214,1362.4432434999617,1362.7573115999694,1362.7737480999785,1363.056897500006,1363.0738582999911,None,up,1363.0738582999911,None,1363.0738582999911,1364.2728104999987,0.0939107000012882,None,1.7981984000070952,,,,,,,,,8,001,2019_Dec_25_0820,untitled,3.1.0,59.99660419428335,
_,_2,M,0,_,_,__2M000__,N,0,60,60,24,,,0.913,1364.9528454999672,1365.2882075000089,1365.304631899984,1365.5881081999978,1365.6054123999784,None,down,1365.6054123999784,None,1365.6054123999784,1366.5038791999687,0.07217470003524795,None,2.1648352000047453,,,,,,,,,8,001,2019_Dec_25_0820,untitled,3.1.0,59.99660419428335,
425,_4,M,0,L,N,425_4M000LN,HLN,0,61,61,168,,,1.364,1367.848188599979,1368.1861176000093,1368.2029191000038,1368.4855233999551,1368.502657999983,None,down,1368.502657999983,None,1368.502657999983,1369.8511781999841,0.07112009997945279,None,2.5389018999994732,,,,,,,,,8,001,2019_Dec_25_0820,untitled,3.1.0,59.99660419428335,
455,_5,N,270,R,N,455_5N270RN,HRN,0,62,62,278,,,1.297,1371.1332541999873,1371.4502146999585,1371.4682087999536,1371.7661188999773,1371.7661188999773,None,up,1371.7661188999773,None,1371.7661188999773,1373.0484643999953,0.0816196000087075,None,3.0670783999958076,,,,,,,,,8,001,2019_Dec_25_0820,untitled,3.1.0,59.99660419428335,
_,R,M,45,_,_,_RM045__,N,0,63,63,17,,,0.791,1375.0191880000057,1375.3132871999987,1375.3132871999987,1375.5636379999924,1375.5636379999924,None,down,1375.5636379999924,None,1375.5636379999924,1376.3452875000075,0.17025309999007732,None,2.0829189000069164,,,,,,,,,8,001,2019_Dec_25_0820,untitled,3.1.0,59.99660419428335,
272,_2,M,315,R,N,272_2M315RN,HRN,0,64,64,151,,,0.777,1377.7560034999624,1378.0466612000018,1378.0772873999667,1378.3612232999876,1378.3768535999698,None,down,1378.3768535999698,None,1378.3768535999698,1379.1433156999992,0.0987528000259772,None,2.0503102999646217,,,,,,,,,8,001,2019_Dec_25_0820,untitled,3.1.0,59.99660419428335,
267,_2,M,90,R,N,267_2M090RN,HRN,0,65,65,146,,,1.129,1380.6313126999885,1380.924260300002,1380.924260300002,1381.141014599998,1381.1574546999764,None,None,1381.1574546999764,None,1381.1574546999764,1382.2731766999932,0.19633389997761697,None,,,,,,,,,,8,001,2019_Dec_25_0820,untitled,3.1.0,59.99660419428335,
001,R,N,0,R,N,001RN000RN,HRN,0,66,66,192,,,1.012,1384.8090000000084,1385.1045503999921,1385.1045503999921,1385.3375711999834,1385.3546845999663,1384.8090000000084,up,1385.3546845999663,None,1385.3546845999663,1386.3376357000088,0.17964710004162043,None,1.8175611000042409,,,,,,,,,8,001,2019_Dec_25_0820,untitled,3.1.0,59.99660419428335,
391,_4,N,270,R,N,391_4N270RN,HRN,0,67,67,262,,,0.88,1387.2802670999663,1387.5697775000008,1387.6023891000077,1387.8859733999707,1387.902649399999,None,up,1387.902649399999,None,1387.902649399999,1388.7677054000087,0.0994834000011906,None,2.482977600011509,,,,,,,,,8,001,2019_Dec_25_0820,untitled,3.1.0,59.99660419428335,
393,_4,M,0,R,N,393_4M000RN,HRN,0,68,68,160,,,0.795,1390.46181790001,1390.8000146999839,1390.8159492999548,1391.0991325000068,1391.1158564999932,None,down,1391.1158564999932,None,1391.1158564999932,1391.898444999999,0.06945490004727617,None,1.915974900010042,,,,,,,,,8,001,2019_Dec_25_0820,untitled,3.1.0,59.99660419428335,
_,_5,M,180,_,_,__5M180__,N,0,69,69,44,,,1.168,1393.2263902999694,1393.5307793999673,1393.5307793999673,1393.7467361000017,1393.7634442999843,None,up,1393.7634442999843,None,1393.7634442999843,1394.9133269999875,0.18722949997754768,None,2.882247700006701,,,,,,,,,8,001,2019_Dec_25_0820,untitled,3.1.0,59.99660419428335,
482,_5,N,45,L,N,482_5N045LN,HLN,0,70,70,281,,,1.093,1396.7383918999694,1397.0603867999744,1397.0771194999688,1397.3603363999864,1397.3770608999766,None,up,1397.3770608999766,None,1397.3770608999766,1398.4593098000041,0.08435929997358471,None,2.248504600021988,,,,,,,,,8,001,2019_Dec_25_0820,untitled,3.1.0,59.99660419428335,
007,R,N,270,R,N,007RN270RN,HRN,0,71,71,198,,,0.9540000000000001,1399.8156775999814,1400.1083013999742,1400.1083013999742,1400.3414113000035,1400.357679400011,None,up,1400.357679400011,None,1400.357679400011,1401.290295499959,0.18017249996773899,None,1.8341081999824382,,,,,,,,,8,001,2019_Dec_25_0820,untitled,3.1.0,59.99660419428335,
294,_2,N,225,L,N,294_2N225LN,HLN,0,72,72,253,,,1.231,1402.306965900003,1402.6245026999968,1402.6404565999983,1402.9052540999837,1402.922344099963,None,up,1402.922344099963,None,1402.922344099963,1404.137616699969,0.10615799995139241,None,2.7498898999765515,,,,,,,,,8,001,2019_Dec_25_0820,untitled,3.1.0,59.99660419428335,
_,_4,N,270,_,_,__4N270__,N,0,73,73,86,,,0.706,1405.767082699982,1406.086253699963,1406.1031404999667,1406.386573900003,1406.4028592999675,None,up,1406.4028592999675,None,1406.4028592999675,1407.0850980000105,0.0863472999772057,None,1.9663417999981903,,,,,,,,,8,001,2019_Dec_25_0820,untitled,3.1.0,59.99660419428335,
456,_5,N,315,R,N,456_5N315RN,HRN,0,74,74,279,,,1.178,1408.4570303999935,1408.7837166999816,1408.8003596999915,1409.0838908999576,1409.1003863000078,None,up,1409.1003863000078,None,1409.1003863000078,1410.266481700004,0.07971230003749952,None,2.050650199991651,,,,,,,,,8,001,2019_Dec_25_0820,untitled,3.1.0,59.99660419428335,
003,R,N,90,R,N,003RN090RN,HRN,0,75,75,194,,,0.978,1411.2219566999702,1411.5646609999822,1411.5825640999828,1411.864585399977,1411.880866099964,None,up,1411.880866099964,None,1411.880866099964,1412.8469141999958,0.06273250002413988,None,3.016718500002753,,,,,,,,,8,001,2019_Dec_25_0820,untitled,3.1.0,59.99660419428335,
010,R,M,45,R,N,010RM045RN,HRN,0,76,76,97,,,1.041,1415.1024161999812,1415.3948336999747,1415.3948336999747,1415.6114121999708,1415.6286681999918,None,down,1415.6286681999918,None,1415.6286681999918,1416.66018050001,0.1937193000339903,None,2.0004890999989584,,,,,,,,,8,001,2019_Dec_25_0820,untitled,3.1.0,59.99660419428335,
266,_2,M,45,R,N,266_2M045RN,HRN,0,77,77,145,,,0.992,1417.762206399988,1418.0482643999858,1418.0482643999858,1418.3440709999995,1418.3595505999983,None,None,1418.3595505999983,None,1418.3595505999983,1419.3416448999778,0.12209029996301979,None,,,,,,,,,,8,001,2019_Dec_25_0820,untitled,3.1.0,59.99660419428335,
_,R,M,225,_,_,_RM225__,N,0,78,78,21,,,0.721,1421.9996728000115,1422.289171399956,1422.289171399956,1422.5386043000035,1422.555081199971,1421.9996728000115,up,1422.555081199971,None,1422.555081199971,1423.2544810000109,0.16682109999237582,None,1.9667967000277713,,,,,,,,,8,001,2019_Dec_25_0820,untitled,3.1.0,59.99660419428335,
495,_5,M,270,L,N,495_5M270LN,HLN,0,79,79,190,,,1.278,1424.691620700003,1424.986956799985,1424.986956799985,1425.2360019999905,1425.2538322999608,None,None,1425.2538322999608,None,1425.2538322999608,1426.5191270000068,0.16172989999176934,None,,,,,,,,,,8,001,2019_Dec_25_0820,untitled,3.1.0,59.99660419428335,
036,R,N,135,L,N,036RN135LN,HLN,0,80,80,203,,,0.852,1428.9110927999718,1429.1993857999914,1429.1993857999914,1429.4323470999952,1429.4489795999834,1428.9110927999718,up,1429.4489795999834,None,1429.4489795999834,1430.282068200002,0.18613309995271266,None,2.217356299981475,,,,,,,,,8,001,2019_Dec_25_0820,untitled,3.1.0,59.99660419428335,
_,_4,M,0,_,_,__4M000__,N,0,81,81,32,,,0.9540000000000001,1431.7432756999624,1432.0799501999863,1432.096908699954,1432.380533299991,1432.3972083999543,None,down,1432.3972083999543,None,1432.3972083999543,1433.3301544999704,0.0696602999814786,None,2.031226399994921,,,,,,,,,8,001,2019_Dec_25_0820,untitled,3.1.0,59.99660419428335,
292,_2,N,135,L,N,292_2N135LN,HLN,0,82,82,251,,,1.093,1434.5330233999994,1434.8439510999597,1434.8608039999963,1435.1441946999985,1435.1611346999998,None,up,1435.1611346999998,None,1435.1611346999998,1436.2431882999954,0.09668189997319132,None,2.2650732999900356,,,,,,,,,8,001,2019_Dec_25_0820,untitled,3.1.0,59.99660419428335,
035,R,N,90,L,N,035RN090LN,HLN,0,83,83,202,,,1.33,1437.5553093999624,1437.858396399999,1437.858396399999,1438.141343700001,1438.1580228999956,None,up,1438.1580228999956,None,1438.1580228999956,1439.474176799995,0.11944699997548014,None,2.249592099979054,,,,,,,,,8,001,2019_Dec_25_0820,untitled,3.1.0,59.99660419428335,
387,_4,N,90,R,N,387_4N090RN,HRN,0,84,84,258,,,0.8280000000000001,1440.5183851000038,1440.8059595999657,1440.8396418999764,1441.1226307000034,1441.138547999959,None,up,1441.138547999959,None,1441.138547999959,1441.9552559999865,0.09863550000591204,None,2.9983515999629162,,,,,,,,,8,001,2019_Dec_25_0820,untitled,3.1.0,59.99660419428335,
_,G,M,180,_,_,_GM180__,N,0,85,85,12,,,0.755,1444.2240375999827,1444.552423599991,1444.5690355999977,1444.852246799972,1444.8687291999813,None,up,1444.8687291999813,None,1444.8687291999813,1445.6021749000065,0.07904179999604821,None,2.449249900004361,,,,,,,,,8,001,2019_Dec_25_0820,untitled,3.1.0,59.99660419428335,
259,_2,N,90,R,N,259_2N090RN,HRN,0,86,86,242,,,0.837,1447.5246167999576,1447.8166528999573,1447.8166528999573,1448.033034699969,1448.049876999983,None,up,1448.049876999983,None,1448.049876999983,1448.8655732999905,0.19687970000086352,None,3.38582220004173,,,,,,,,,8,001,2019_Dec_25_0820,untitled,3.1.0,59.99660419428335,
232,G,N,315,L,N,232GN315LN,HLN,0,87,87,239,,,0.802,1451.6403626999818,1451.92953329999,1451.92953329999,1452.146073699987,1452.1628115999629,None,down,1452.1628115999629,None,1452.1628115999629,1452.962307699956,0.1923357000341639,None,2.998502800008282,,,,,,,,,8,001,2019_Dec_25_0820,untitled,3.1.0,59.99660419428335,
171,F,M,90,L,N,171FM090LN,HLN,0,88,88,122,,,1.127,1455.2663859999739,1455.5762513999944,1455.5927980999695,1455.876145199989,1455.8935434999876,None,down,1455.8935434999876,None,1455.8935434999876,1457.0080590999569,0.09487930004252121,None,2.7165953000076115,,,,,,,,,8,001,2019_Dec_25_0820,untitled,3.1.0,59.99660419428335,
174,F,M,225,L,N,174FM225LN,HLN,0,89,89,125,,,1.185,1458.6959592999774,1459.0230422999593,1459.0396043999936,1459.3229624999803,1459.340071099985,None,None,1459.340071099985,None,1459.340071099985,1460.5049440999865,0.07584709994262084,None,,,,,,,,,,8,001,2019_Dec_25_0820,untitled,3.1.0,59.99660419428335,
_,G,M,225,_,_,_GM225__,N,0,90,90,13,,,1.367,1462.9037161999731,1463.2199002999696,1463.2365812999778,1463.5189827999566,1463.5358047999907,1462.9037161999731,None,1463.5358047999907,None,1463.5358047999907,1464.8858120999648,0.08884179999586195,None,,,,,,,,,,8,001,2019_Dec_25_0820,untitled,3.1.0,59.99660419428335,
418,_4,N,45,L,N,418_4N045LN,HLN,0,91,91,265,,,1.166,1467.07955580001,1467.4161486999947,1467.43417209998,1467.7158503999817,1467.7324912999757,1467.07955580001,up,1467.7324912999757,None,1467.7324912999757,1468.881371299969,0.07298439997248352,None,1.7988123000250198,,,,,,,,,8,001,2019_Dec_25_0820,untitled,3.1.0,59.99660419428335,
428,_4,M,135,L,N,428_4M135LN,HLN,0,92,92,171,,,1.082,1469.6082788999774,1469.9472767999978,1469.9645107999677,1470.2470510999556,1470.2635431999806,None,up,1470.2635431999806,None,1470.2635431999806,1471.3291237999802,0.06918490002863109,None,2.3325272999936715,,,,,,,,,8,001,2019_Dec_25_0820,untitled,3.1.0,59.99660419428335,
042,R,M,45,L,N,042RM045LN,HLN,0,93,93,105,,,1.02,1472.7820058999932,1473.0773171999608,1473.0773171999608,1473.3112403999548,1473.3274797999766,None,down,1473.3274797999766,None,1473.3274797999766,1474.3264055000036,0.17720090004149824,None,2.132509700022638,,,,,,,,,8,001,2019_Dec_25_0820,untitled,3.1.0,59.99660419428335,
_,G,M,45,_,_,_GM045__,N,0,94,94,9,,,1.334,1475.5479197999812,1475.8752061999985,1475.8915953999967,1476.1748522999696,1476.1916469999705,None,None,1476.1916469999705,None,1476.1916469999705,1477.5076037999825,0.08000180003000423,None,,,,,,,,,,8,001,2019_Dec_25_0820,untitled,3.1.0,59.99660419428335,
_,_2,N,0,_,_,__2N000__,N,0,95,95,72,,,0.718,1479.7358495999943,1480.071706299961,1480.0885907000047,1480.3712928000023,1480.3879164999817,1479.7358495999943,up,1480.3879164999817,None,1480.3879164999817,1481.0883236000082,0.07296560000395402,None,1.7675911000114866,,,,,,,,,8,001,2019_Dec_25_0820,untitled,3.1.0,59.99660419428335,
301,_2,M,180,L,N,301_2M180LN,HLN,0,96,96,156,,,1.276,1482.2301630000002,1482.569496000011,1482.5861946999794,1482.869147099962,1482.8856894999626,None,down,1482.8856894999626,None,1482.8856894999626,1484.1515413000016,0.06798819999676198,None,3.314614300034009,,,,,,,,,8,001,2019_Dec_25_0820,untitled,3.1.0,59.99660419428335,
_,F,M,135,_,_,_FM135__,N,0,97,97,3,,,1.082,1486.2716822999646,1486.6162399000023,1486.633344199974,1486.9164300999837,1486.9327730999794,None,up,1486.9327730999794,None,1486.9327730999794,1487.9990571999806,0.06475869996938854,None,2.6973679999937303,,,,,,,,,8,001,2019_Dec_25_0820,untitled,3.1.0,59.99660419428335,
229,G,N,180,L,N,229GN180LN,HLN,0,98,98,236,,,0.98,1489.815242199984,1490.1128364999895,1490.1128364999895,1490.345845200005,1490.3626802999643,None,None,1490.3626802999643,None,1490.3626802999643,1491.3297830999945,0.17620249994797632,None,,,,,,,,,,8,001,2019_Dec_25_0820,untitled,3.1.0,59.99660419428335,
037,R,N,180,L,N,037RN180LN,HLN,0,99,99,204,,,1.34,1493.9018722999608,1494.2424807999632,1494.2595176000032,1494.5427602999844,1494.559491699969,1493.9018722999608,up,1494.559491699969,None,1494.559491699969,1495.8742038999917,0.06762779998825863,None,2.2893993000034243,,,,,,,,,8,001,2019_Dec_25_0820,untitled,3.1.0,59.99660419428335,
_,_2,M,45,_,_,__2M045__,N,0,100,100,25,,,0.9590000000000001,1496.9701369999675,1497.287325399986,1497.3029705999652,1497.556586599967,1497.5730365999625,None,down,1497.5730365999625,None,1497.5730365999625,1498.52221679996,0.1114780000061728,None,2.7313585999654606,,,,,,,,,8,001,2019_Dec_25_0820,untitled,3.1.0,59.99660419428335,
197,G,N,180,R,N,197GN180RN,HRN,0,101,101,228,,,0.876,1500.4038013999816,1500.7206043999759,1500.7374745999696,1501.020497999969,1501.037389300007,None,up,1501.037389300007,None,1501.037389300007,1501.88610959996,0.09165509999729693,None,2.180931299983058,,,,,,,,,8,001,2019_Dec_25_0820,untitled,3.1.0,59.99660419428335,
_,_5,N,315,_,_,__5N315__,N,0,102,102,95,,,0.833,1503.4363295999938,1503.734422300011,1503.734422300011,1503.9341951999813,1503.9509587999783,None,up,1503.9509587999783,None,1503.9509587999783,1504.7667696999852,0.2101482999860309,None,2.548780200013425,,,,,,,,,8,001,2019_Dec_25_0820,untitled,3.1.0,59.99660419428335,
013,R,M,180,R,N,013RM180RN,HRN,0,103,103,100,,,1.283,1506.6612247999874,1506.9488846999593,1506.9488846999593,1507.21452400001,1507.2312695999863,None,None,1507.2312695999863,None,1507.2312695999863,1508.4965457000071,0.15366499999072403,None,,,,,,,,,,8,001,2019_Dec_25_0820,untitled,3.1.0,59.99660419428335,
_,_2,M,180,_,_,__2M180__,N,0,104,104,28,,,1.053,1510.7704578999546,1511.1111079999828,1511.1279032999882,1511.4112304999726,1511.4276776000042,1510.7704578999546,None,1511.4276776000042,None,1511.4276776000042,1512.461010399973,0.06739669997477904,None,,,,,,,,,,8,001,2019_Dec_25_0820,untitled,3.1.0,59.99660419428335,
_,G,M,0,_,_,_GM000__,N,0,105,105,8,,,1.305,1514.9666652999585,1515.30808659998,1515.3253681999631,1515.6075592999696,1515.624343100004,1514.9666652999585,down,1515.624343100004,None,1515.624343100004,1516.9063861999894,0.06839099997887388,None,3.131091399991419,,,,,,,,,8,001,2019_Dec_25_0820,untitled,3.1.0,59.99660419428335,
494,_5,M,225,L,N,494_5M225LN,HLN,0,106,106,189,,,1.153,1518.8430765999947,1519.1708828999544,1519.187624299957,1519.470644099987,1519.4875667999731,None,None,1519.4875667999731,None,1519.4875667999731,1520.6198132999707,0.07638470001984388,None,,,,,,,,,,8,001,2019_Dec_25_0820,untitled,3.1.0,59.99660419428335,
045,R,M,180,L,N,045RM180LN,HLN,0,107,107,108,,,1.1,1523.1221477999934,1523.4170084999641,1523.4170084999641,1523.6670096999733,1523.6836455999874,1523.1221477999934,down,1523.6836455999874,None,1523.6836455999874,1524.7662154999562,0.1640888000256382,None,3.0809314000071026,,,,,,,,,8,001,2019_Dec_25_0820,untitled,3.1.0,59.99660419428335,
_,G,M,135,_,_,_GM135__,N,0,108,108,11,,,1.32,1526.8326383999665,1527.1807819000096,1527.1973040999728,1527.4804171999567,1527.498395100003,None,down,1527.498395100003,None,1527.498395100003,1528.7964177000104,0.06126390001736581,None,3.230839300027583,,,,,,,,,8,001,2019_Dec_25_0820,untitled,3.1.0,59.99660419428335,
235,G,M,90,L,N,235GM090LN,HLN,0,109,109,138,,,1.183,1530.9220164999715,1531.2116692999844,1531.2116692999844,1531.4435420999653,1531.4602619999787,None,down,1531.4602619999787,None,1531.4602619999787,1532.6266241999692,0.1836757999844849,None,3.382822200015653,,,,,,,,,8,001,2019_Dec_25_0820,untitled,3.1.0,59.99660419428335,
_,G,N,315,_,_,_GN315__,N,0,110,110,63,,,1.201,1534.9139492000104,1535.256943299959,1535.2734005000093,1535.5569766999688,1535.573699200002,None,up,1535.573699200002,None,1535.573699200002,1536.7555071999668,0.06346760003361851,None,3.182902699976694,,,,,,,,,8,001,2019_Dec_25_0820,untitled,3.1.0,59.99660419428335,
_,_5,M,0,_,_,__5M000__,N,0,111,111,40,,,1.044,1538.8364324999857,1539.1700123999617,1539.1868227999657,1539.4699495999957,1539.4862573999562,None,down,1539.4862573999562,None,1539.4862573999562,1540.5188374999561,0.0714909000089392,None,2.98279579996597,,,,,,,,,8,001,2019_Dec_25_0820,untitled,3.1.0,59.99660419428335,
_,R,M,90,_,_,_RM090__,N,0,112,112,18,,,0.8310000000000001,1542.5372845999664,1542.8833979999763,1542.9007873999653,1543.1838843000005,1543.200816800003,None,down,1543.200816800003,None,1543.200816800003,1544.0162228999543,0.06158170005073771,None,2.5828242000425234,,,,,,,,,8,001,2019_Dec_25_0820,untitled,3.1.0,59.99660419428335,
460,_5,M,135,R,N,460_5M135RN,HRN,0,113,113,179,,,1.248,1545.957416899968,1546.2485031000106,1546.2485031000106,1546.4969961000024,1546.5141915999702,None,None,1546.5141915999702,None,1546.5141915999702,1547.7462823999813,0.1656215999973938,None,,,,,,,,,,8,001,2019_Dec_25_0820,untitled,3.1.0,59.99660419428335,
_,_4,M,135,_,_,__4M135__,N,0,114,114,35,,,1.115,1550.0515715999645,1550.3937883999897,1550.4103390999953,1550.6932849999866,1550.7098450000049,1550.0515715999645,down,1550.7098450000049,None,1550.7098450000049,1551.8089698999538,0.06543720001354814,None,2.101198700023815,,,,,,,,,8,001,2019_Dec_25_0820,untitled,3.1.0,59.99660419428335,
_,_2,N,45,_,_,__2N045__,N,0,115,115,73,,,1.237,1552.9219784999732,1553.2097239999566,1553.2413719999604,1553.5244453999912,1553.5413890999625,None,down,1553.5413890999625,None,1553.5413890999625,1554.7564204999944,0.09965460002422333,None,2.2315597999840975,,,,,,,,,8,001,2019_Dec_25_0820,untitled,3.1.0,59.99660419428335,
_,_5,M,135,_,_,__5M135__,N,0,116,116,43,,,0.792,1555.9511317999568,1556.2392912000068,1556.2392912000068,1556.4880424999865,1556.5047384999925,None,down,1556.5047384999925,None,1556.5047384999925,1557.2876927999896,0.17004100000485778,None,2.821237199997995,,,,,,,,,8,001,2019_Dec_25_0820,untitled,3.1.0,59.99660419428335,
194,G,N,45,R,N,194GN045RN,HRN,0,117,117,225,,,1.359,1559.433527199959,1559.7521517999703,1559.7521517999703,1560.0369165999582,1560.0551838999963,None,up,1560.0551838999963,None,1560.0551838999963,1561.4010927999625,0.09649850003188476,None,2.897604500001762,,,,,,,,,8,001,2019_Dec_25_0820,untitled,3.1.0,59.99660419428335,
009,R,M,0,R,N,009RM000RN,HRN,0,118,118,96,,,1.287,1563.0468516999972,1563.3657853999757,1563.382528999995,1563.6658996999613,1563.682453299989,None,down,1563.682453299989,None,1563.682453299989,1564.9476870999788,0.08331439999165013,None,2.5208258000202477,,,,,,,,,8,001,2019_Dec_25_0820,untitled,3.1.0,59.99660419428335,
452,_5,N,135,R,N,452_5N135RN,HRN,0,119,119,275,,,1.234,1566.3085122999619,1566.613365199999,1566.6296108000097,1566.9130401999573,1566.9298762999824,None,up,1566.9298762999824,None,1566.9298762999824,1568.1618700000108,0.09415110002737492,None,2.4315437000477687,,,,,,,,,8,001,2019_Dec_25_0820,untitled,3.1.0,59.99660419428335,
_,_5,M,45,_,_,__5M045__,N,0,120,120,41,,,0.843,1569.4413996000076,1569.7766604999779,1569.7942070999998,1570.0765173999825,1570.0935986999539,None,down,1570.0935986999539,None,1570.0935986999539,1570.9255267999833,0.07201689999783412,None,2.5145077999914065,,,,,,,,,8,001,2019_Dec_25_0820,untitled,3.1.0,59.99660419428335,
417,_4,N,0,L,N,417_4N000LN,HLN,0,121,121,264,,,0.969,1572.7509891999653,1573.0407930999645,1573.0407930999645,1573.3261487999698,1573.3411637999816,None,up,1573.3411637999816,None,1573.3411637999816,1574.2894736999879,0.1338046999881044,None,1.8151164000155404,,,,,,,,,8,001,2019_Dec_25_0820,untitled,3.1.0,59.99660419428335,
011,R,M,90,R,N,011RM090RN,HRN,0,122,122,98,,,1.23,1575.2275594999664,1575.5719304999802,1575.5882954999688,1575.8792113999953,1575.896955300006,None,down,1575.896955300006,None,1575.896955300006,1577.1055482999654,0.06474149995483458,None,2.175258500035852,,,,,,,,,8,001,2019_Dec_25_0820,untitled,3.1.0,59.99660419428335,
_,G,M,315,_,_,_GM315__,N,0,123,123,15,,,1.326,1578.1680237999535,1578.4859952999977,1578.5028396999696,1578.7860688999644,1578.8025947999558,None,None,1578.8025947999558,None,1578.8025947999558,1580.1174564000103,0.08708670001942664,None,,,,,,,,,,8,001,2019_Dec_25_0820,untitled,3.1.0,59.99660419428335,
204,G,M,135,R,N,204GM135RN,HRN,0,124,124,131,,,0.966,1582.3402316999855,1582.6826287999866,1582.699443599966,1582.9826818999718,1582.9992290000082,1582.3402316999855,up,1582.9992290000082,None,1582.9992290000082,1583.9477520000073,0.06776619999436662,None,3.3138612999464385,,,,,,,,,8,001,2019_Dec_25_0820,untitled,3.1.0,59.99660419428335,
_,_5,N,90,_,_,__5N090__,N,0,125,125,90,,,1.1,1586.3983162000077,1586.7286812000093,1586.7453354999889,1587.0284811999882,1587.044781100005,None,None,1587.044781100005,None,1587.044781100005,1588.1271436999668,0.07749160000821576,None,,,,,,,,,,8,001,2019_Dec_25_0820,untitled,3.1.0,59.99660419428335,
_,_4,N,90,_,_,__4N090__,N,0,126,126,82,,,0.92,1590.5788762999582,1590.925369900011,1590.9418226999696,1591.2252925999928,1591.2413868999574,1590.5788762999582,up,1591.2413868999574,None,1591.2413868999574,1592.1425164999673,0.062281300022732466,None,1.6993131000199355,,,,,,,,,8,001,2019_Dec_25_0820,untitled,3.1.0,59.99660419428335,
167,F,N,270,L,N,167FN270LN,HLN,0,127,127,222,,,1.206,1593.059133199975,1593.3564012999996,1593.3729576999904,1593.6560177999781,1593.6725177000044,None,None,1593.6725177000044,None,1593.6725177000044,1594.8548570999992,0.11029779998352751,None,,,,,,,,,,8,001,2019_Dec_25_0820,untitled,3.1.0,59.99660419428335,
_,F,N,315,_,_,_FN315__,N,0,128,128,55,,,0.971,1597.22321560001,1597.553716399998,1597.569420899963,1597.8524849999812,1597.8688557999558,1597.22321560001,up,1597.8688557999558,None,1597.8688557999558,1598.8182402999955,0.07977840001694858,None,2.9481650999514386,,,,,,,,,8,001,2019_Dec_25_0820,untitled,3.1.0,59.99660419428335,
462,_5,M,225,R,N,462_5M225RN,HRN,0,129,129,181,,,1.348,1600.8992111000116,1601.2325351999607,1601.2490830000024,1601.5324287999538,1601.5490327999578,None,up,1601.5490327999578,None,1601.5490327999578,1602.8810629000072,0.0728248999803327,None,3.1990672999527305,,,,,,,,,8,001,2019_Dec_25_0820,untitled,3.1.0,59.99660419428335,
144,F,M,315,R,N,144FM315RN,HRN,0,130,130,119,,,1.3940000000000001,1604.8233794999542,1605.162723699992,1605.179677899985,1605.4628387999837,1605.4792133999872,None,None,1605.4792133999872,None,1605.4792133999872,1606.8611112000071,0.06862709997221828,None,,,,,,,,,,8,001,2019_Dec_25_0820,untitled,3.1.0,59.99660419428335,
398,_4,M,225,R,N,398_4M225RN,HRN,0,131,131,165,,,0.9380000000000001,1609.106356400007,1609.3945651999675,1609.3945651999675,1609.6598013999755,1609.6760454999749,1609.106356400007,down,1609.6760454999749,None,1609.6760454999749,1610.5911008999683,0.1552061999682337,None,2.416856099967845,,,,,,,,,8,001,2019_Dec_25_0820,untitled,3.1.0,59.99660419428335,
240,G,M,315,L,N,240GM315LN,HLN,0,132,132,143,,,0.792,1612.299927599961,1612.5898183999816,1612.5898183999816,1612.8063257999602,1612.8233039999614,None,down,1612.8233039999614,None,1612.8233039999614,1613.6051366999745,0.19824009999865666,None,2.6641357999760658,,,,,,,,,8,001,2019_Dec_25_0820,untitled,3.1.0,59.99660419428335,
_,G,N,135,_,_,_GN135__,N,0,133,133,59,,,1.0190000000000001,1615.6530774999992,1615.9529145999695,1615.9529145999695,1616.2033931000042,1616.2194426999777,None,down,1616.2194426999777,None,1616.2194426999777,1617.2188107999973,0.15693160000955686,None,2.532939400000032,,,,,,,,,8,001,2019_Dec_25_0820,untitled,3.1.0,59.99660419428335,
422,_4,N,225,L,N,422_4N225LN,HLN,0,134,134,269,,,1.075,1618.8422232999583,1619.1669560999726,1619.1836099000066,1619.466533400002,1619.4832855999703,None,up,1619.4832855999703,None,1619.4832855999703,1620.549138100003,0.0818106000078842,None,2.684786500001792,,,,,,,,,8,001,2019_Dec_25_0820,untitled,3.1.0,59.99660419428335,
_,R,N,45,_,_,_RN045__,N,0,135,135,65,,,0.982,1622.3659280999564,1622.6640784000047,1622.6640784000047,1622.880965099961,1622.8974181999802,None,up,1622.8974181999802,None,1622.8974181999802,1623.863917999959,0.18732229998568073,None,3.0471628000377677,,,,,,,,,8,001,2019_Dec_25_0820,untitled,3.1.0,59.99660419428335,
202,G,M,45,R,N,202GM045RN,HRN,0,136,136,129,,,1.231,1626.146669699985,1626.4442483999883,1626.4442483999883,1626.6609224999556,1626.6774856999982,None,None,1626.6774856999982,None,1626.6774856999982,1627.8931025000056,0.19491839996771887,None,,,,,,,,,,8,001,2019_Dec_25_0820,untitled,3.1.0,59.99660419428335,
207,G,M,270,R,N,207GM270RN,HRN,0,137,137,134,,,1.234,1630.2227794000064,1630.5571180999978,1630.5742261999985,1630.8581597000011,1630.8737865999574,1630.2227794000064,down,1630.8737865999574,None,1630.8737865999574,1632.0894474000088,0.07420039997668937,None,3.348283800005447,,,,,,,,,8,001,2019_Dec_25_0820,untitled,3.1.0,59.99660419428335,
_,R,N,315,_,_,_RN315__,N,0,138,138,71,,,0.964,1634.3148400000064,1634.6367326999898,1634.6534977999981,1634.9366631999728,1634.9532950999564,None,up,1634.9532950999564,None,1634.9532950999564,1635.90237169998,0.08436499995877966,None,2.4179726999718696,,,,,,,,,8,001,2019_Dec_25_0820,untitled,3.1.0,59.99660419428335,
491,_5,M,90,L,N,491_5M090LN,HLN,0,139,139,186,,,0.979,1637.4426640999736,1637.7845239999588,1637.8013703000033,1638.0842427999596,1638.101105699956,None,down,1638.101105699956,None,1638.101105699956,1639.0665193999885,0.06457009998848662,None,2.818205499963369,,,,,,,,,8,001,2019_Dec_25_0820,untitled,3.1.0,59.99660419428335,
_,_2,N,90,_,_,__2N090__,N,0,140,140,74,,,1.346,1640.9969248999842,1641.331388199993,1641.348388399987,1641.6316292999545,1641.648219399969,None,up,1641.648219399969,None,1641.648219399969,None,0.07075790001545101,None,0.1841306999558583,,,,,,,,,8,001,2019_Dec_25_0820,untitled,3.1.0,59.99660419428335,
_,F,N,135,_,_,_FN135__,N,0,141,141,51,,,0.803,1642.0219417999615,1642.3139226000058,1642.3139226000058,1642.5467991000041,1642.5639235999552,None,up,1642.5639235999552,None,1642.5639235999552,1643.3628417999716,0.17630220000864938,None,1.9184069000184536,,,,,,,,,8,001,2019_Dec_25_0820,untitled,3.1.0,59.99660419428335,
_,F,M,45,_,_,_FM045__,N,0,142,142,1,,,0.927,1644.5800176999765,1644.8946311000036,1644.9118873999687,1645.19505390001,1645.211501199985,None,up,1645.211501199985,None,1645.211501199985,1646.126833199989,0.08763710001949221,None,2.098898200027179,,,,,,,,,8,001,2019_Dec_25_0820,untitled,3.1.0,59.99660419428335,
483,_5,N,90,L,N,483_5N090LN,HLN,0,143,143,282,,,0.929,1647.4070300000021,1647.7257215999998,1647.7424672999769,1648.0254665999673,1648.042175999959,None,up,1648.042175999959,None,1648.042175999959,1648.9582308999961,0.0867877000127919,None,2.3816793999867514,,,,,,,,,8,001,2019_Dec_25_0820,untitled,3.1.0,59.99660419428335,
492,_5,M,135,L,N,492_5M135LN,HLN,0,144,144,187,,,1.145,1650.5131279999623,1650.8397855999647,1650.8561432999559,1651.1389888999984,1651.1556309000007,None,down,1651.1556309000007,None,1651.1556309000007,1652.2879875999643,0.08138400001917034,None,2.2157235000049695,,,,,,,,,8,001,2019_Dec_25_0820,untitled,3.1.0,59.99660419428335,
193,G,N,0,R,N,193GN000RN,HRN,0,145,145,224,,,0.739,1653.465153499972,1653.787436399958,1653.8038276999723,1654.0865593999624,1654.1036043000058,None,up,1654.1036043000058,None,1654.1036043000058,1654.8194573000073,0.08638019999489188,None,2.414971099991817,,,,,,,,,8,001,2019_Dec_25_0820,untitled,3.1.0,59.99660419428335,
_,_2,M,225,_,_,__2M225__,N,0,146,146,29,,,0.732,1656.6062405999983,1656.934928099974,1656.951001599955,1657.2353212999878,1657.2512036999688,None,up,1657.2512036999688,None,1657.2512036999688,1657.9665145999752,0.07907310000155121,None,2.5647218999802135,,,,,,,,,8,001,2019_Dec_25_0820,untitled,3.1.0,59.99660419428335,
201,G,M,0,R,N,201GM000RN,HRN,0,147,147,128,,,1.0110000000000001,1659.8893306999817,1660.2314386999933,1660.2478600000031,1660.5315970999654,1660.5482745000045,None,down,1660.5482745000045,None,1660.5482745000045,1661.5471988999634,0.06639839999843389,None,2.4983699999866076,,,,,,,,,8,001,2019_Dec_25_0820,untitled,3.1.0,59.99660419428335,
457,_5,M,0,R,N,457_5M000RN,HRN,0,148,148,176,,,1.2650000000000001,1663.142088899971,1663.4619813999743,1663.478585099976,1663.7618292999687,1663.7788022999885,None,down,1663.7788022999885,None,1663.7788022999885,1665.0271327999653,0.08719960000598803,None,2.4979124999954365,,,,,,,,,8,001,2019_Dec_25_0820,untitled,3.1.0,59.99660419428335,
400,_4,M,315,R,N,400_4M315RN,HRN,0,149,149,167,,,1.105,1666.453158099961,1666.7423863000004,1666.7423863000004,1666.991972399992,1667.0087318999576,None,down,1667.0087318999576,None,1667.0087318999576,1668.0908558999654,0.1680882999789901,None,2.8173211999819614,,,,,,,,,8,001,2019_Dec_25_0820,untitled,3.1.0,59.99660419428335,
_,G,N,0,_,_,_GN000__,N,0,150,150,56,,,0.8300000000000001,1669.894498699985,1670.2392252999707,1670.2559786000056,1670.5399049999542,1670.5563817999791,None,up,1670.5563817999791,None,1670.5563817999791,1671.37360240001,0.060789600014686584,None,2.464616200013552,,,,,,,,,8,001,2019_Dec_25_0820,untitled,3.1.0,59.99660419428335,
270,_2,M,225,R,N,270_2M225RN,HRN,0,151,151,149,,,0.991,1673.1049284999608,1673.4364314999548,1673.454784200003,1673.7361124999588,1673.7530390999746,None,up,1673.7530390999746,None,1673.7530390999746,1674.720104100008,0.07595150003908202,None,2.3146812999621034,,,,,,,,,8,001,2019_Dec_25_0820,untitled,3.1.0,59.99660419428335,
_,F,N,225,_,_,_FN225__,N,0,152,152,53,,,1.071,1676.25391889998,1676.5505018999684,1676.5505018999684,1676.7836246999796,1676.8026031999616,None,None,1676.8026031999616,None,1676.8026031999616,1677.848924799997,0.17832059995271266,None,,,,,,,,,,8,001,2019_Dec_25_0820,untitled,3.1.0,59.99660419428335,
133,F,N,180,R,N,133FN180RN,HRN,0,153,153,212,,,0.9520000000000001,1680.3323270999826,1680.6806756999576,1680.6971341999597,1680.97996289999,1680.996811399993,1680.3323270999826,up,1680.996811399993,None,1680.996811399993,1681.928830799996,0.06202419998589903,None,1.7493681999621913,,,,,,,,,8,001,2019_Dec_25_0820,untitled,3.1.0,59.99660419428335,
389,_4,N,180,R,N,389_4N180RN,HRN,0,154,154,260,,,0.81,1682.8309489999665,1683.1612702999846,1683.1777647999697,1683.4609828999965,1683.4777393999975,None,up,1683.4777393999975,None,1683.4777393999975,1684.276706899982,0.07641780003905296,None,2.300256500020623,,,,,,,,,8,001,2019_Dec_25_0820,untitled,3.1.0,59.99660419428335,
_,G,M,270,_,_,_GM270__,N,0,155,155,14,,,0.731,1685.9182716999785,1686.2084990000003,1686.2084990000003,1686.4923837999813,1686.5082274999586,None,down,1686.5082274999586,None,1686.5082274999586,1687.225733099971,0.13297790003707632,None,2.1535425999900326,,,,,,,,,8,001,2019_Dec_25_0820,untitled,3.1.0,59.99660419428335,
_,_4,M,315,_,_,__4M315__,N,0,156,156,39,,,0.76,1688.7410328999977,1689.0733598999796,1689.0899344999925,1689.3751286999905,1689.3899526000023,None,up,1689.3899526000023,None,1689.3899526000023,1690.1395131999743,0.07208720000926405,None,1.6672184999915771,,,,,,,,,8,001,2019_Dec_25_0820,untitled,3.1.0,59.99660419428335,
486,_5,N,225,L,N,486_5N225LN,HLN,0,157,157,285,,,0.8260000000000001,1691.1294026999967,1691.4707355999853,1691.4872608999722,1691.773735900002,1691.7910355000058,None,up,1691.7910355000058,None,1691.7910355000058,1692.6042936999584,0.06500609999056906,None,2.446741799998563,,,,,,,,,8,001,2019_Dec_25_0820,untitled,3.1.0,59.99660419428335,
_,F,N,270,_,_,_FN270__,N,0,158,158,54,,,0.763,1694.4366320999688,1694.7357262999867,1694.7357262999867,1694.9524233999546,1694.9677201999584,None,up,1694.9677201999584,None,1694.9677201999584,1695.7178136999719,0.18559960002312437,None,1.4346210999647155,,,,,,,,,8,001,2019_Dec_25_0820,untitled,3.1.0,59.99660419428335,
227,G,N,90,L,N,227GN090LN,HLN,0,159,159,234,,,0.934,1696.5599038999644,1696.8493916000007,1696.8493916000007,1697.1154461000115,1697.1323932000087,None,up,1697.1323932000087,None,1697.1323932000087,1698.048183899955,0.14979549997951835,None,2.4318228000192903,,,,,,,,,8,001,2019_Dec_25_0820,untitled,3.1.0,59.99660419428335,
419,_4,N,90,L,N,419_4N090LN,HLN,0,160,160,266,,,1.312,1699.6457404000103,1699.9817387000076,1699.9974696999998,1700.279645600007,1700.2969154999591,None,up,1700.2969154999591,None,1700.2969154999591,1701.595470100001,0.07392779999645427,None,2.332889300014358,,,,,,,,,8,001,2019_Dec_25_0820,untitled,3.1.0,59.99660419428335,
226,G,N,45,L,N,226GN045LN,HLN,0,161,161,233,,,1.2790000000000001,1702.8132094999892,1703.111284899991,1703.111284899991,1703.344142899965,1703.381312099984,None,up,1703.381312099984,None,1703.381312099984,1704.6279076999635,0.17225139995571226,None,2.3441852999967523,,,,,,,,,8,001,2019_Dec_25_0820,untitled,3.1.0,59.99660419428335,
162,F,N,45,L,N,162FN045LN,HLN,0,162,162,217,,,1.092,1705.813295,1706.141380199988,1706.1584902000031,1706.4411167000071,1706.4578154999763,None,up,1706.4578154999763,None,1706.4578154999763,1707.5397725999937,0.07825650001177564,None,2.315153100003954,,,,,,,,,8,001,2019_Dec_25_0820,untitled,3.1.0,59.99660419428335,
_,F,M,90,_,_,_FM090__,N,0,163,163,2,,,1.215,1709.0272731999867,1709.3224617000087,1709.3224617000087,1709.4883382999687,1709.5050067999982,None,down,1709.5050067999982,None,1709.5050067999982,1710.70598899998,0.24700400000438094,None,2.2648404000210576,,,,,,,,,8,001,2019_Dec_25_0820,untitled,3.1.0,59.99660419428335,
006,R,N,225,R,N,006RN225RN,HRN,0,164,164,197,,,1.375,1711.8409808999859,1712.1862045999733,1712.2028258999926,1712.4859968000092,1712.5032481999951,None,down,1712.5032481999951,None,1712.5032481999951,1713.8512386999791,0.06354549998650327,None,2.514184200030286,,,,,,,,,8,001,2019_Dec_25_0820,untitled,3.1.0,59.99660419428335,
264,_2,N,315,R,N,264_2N315RN,HRN,0,165,165,247,,,0.8140000000000001,1715.10134319996,1715.4332273000036,1715.4497980999877,1715.7330090999603,1715.7496897999663,None,up,1715.7496897999663,None,1715.7496897999663,1716.5489909999887,0.07588409999152645,None,2.1004077000543475,,,,,,,,,8,001,2019_Dec_25_0820,untitled,3.1.0,59.99660419428335,
048,R,M,315,L,N,048RM315LN,HLN,0,166,166,111,,,1.276,1718.0451418999583,1718.3325688999612,1718.3325688999612,1718.5650316000101,1718.583691000007,None,None,1718.583691000007,None,1718.583691000007,1719.8456027999637,0.18402909999713302,None,,,,,,,,,,8,001,2019_Dec_25_0820,untitled,3.1.0,59.99660419428335,
170,F,M,45,L,N,170FM045LN,HLN,0,167,167,121,,,0.866,1722.1272892999696,1722.4605587999686,1722.4768395999563,1722.7606049999595,1722.7764077999745,1722.1272892999696,up,1722.7764077999745,None,1722.7764077999745,1723.62679509999,0.07584020000649616,None,2.020833999966271,,,,,,,,,8,001,2019_Dec_25_0820,untitled,3.1.0,59.99660419428335,
143,F,M,270,R,N,143FM270RN,HRN,0,168,168,118,,,1.0030000000000001,1724.8976096999831,1725.2080822999706,1725.2245981000015,1725.5078490999877,1725.52459549997,None,down,1725.52459549997,None,1725.52459549997,1726.5239819999551,0.08980930002871901,None,2.481958099990152,,,,,,,,,8,001,2019_Dec_25_0820,untitled,3.1.0,59.99660419428335,
_,_2,N,270,_,_,__2N270__,N,0,169,169,78,,,0.937,1728.1674169999897,1728.4569130999735,1728.4569130999735,1728.7215840999852,1728.7380122999894,None,up,1728.7380122999894,None,1728.7380122999894,1729.654139499995,0.1538754000212066,None,2.8507350999861956,,,,,,,,,8,001,2019_Dec_25_0820,untitled,3.1.0,59.99660419428335,
_,F,M,0,_,_,_FM000__,N,0,170,170,0,,,1.087,1731.6745270999963,1732.0020224999753,1732.0198151000077,1732.3020473999786,1732.3184054999729,None,down,1732.3184054999729,None,1732.3184054999729,1733.3841672999552,0.07892110000830144,None,2.582363700028509,,,,,,,,,8,001,2019_Dec_25_0820,untitled,3.1.0,59.99660419428335,
487,_5,N,270,L,N,487_5N270LN,HLN,0,171,171,286,,,0.8230000000000001,1735.0014730999828,1735.315546799975,1735.3356266999617,1735.6157858999795,1735.6324429999804,None,up,1735.6324429999804,None,1735.6324429999804,1736.4318660999998,0.09329900000011548,None,2.1004057999816723,,,,,,,,,8,001,2019_Dec_25_0820,untitled,3.1.0,59.99660419428335,
046,R,M,225,L,N,046RM225LN,HLN,0,172,172,109,,,0.898,1737.804820499965,1738.1467317999923,1738.1632821999956,1738.4468838999746,1738.463443799992,None,down,1738.463443799992,None,1738.463443799992,1739.3458453000057,0.06504339998355135,None,2.865453800011892,,,,,,,,,8,001,2019_Dec_25_0820,untitled,3.1.0,59.99660419428335,
002,R,N,45,R,N,002RN045RN,HRN,0,173,173,193,,,1.094,1741.4103033999563,1741.7435828999733,1741.7614650999894,1742.0443118999829,1742.0602784999646,None,up,1742.0602784999646,None,1742.0602784999646,1743.142677499971,0.07250020001083612,None,2.414578799973242,,,,,,,,,8,001,2019_Dec_25_0820,untitled,3.1.0,59.99660419428335,
394,_4,M,45,R,N,394_4M045RN,HRN,0,174,174,161,,,0.917,1744.5529932999634,1744.8914653999964,1744.9079135999782,1745.1907341000042,1745.207144199987,None,down,1745.207144199987,None,1745.207144199987,1746.106196000008,0.07036519999383017,None,1.9656599999871105,,,,,,,,,8,001,2019_Dec_25_0820,untitled,3.1.0,59.99660419428335,
238,G,M,225,L,N,238GM225LN,HLN,0,175,175,141,,,1.293,1747.3275014999672,1747.6220084999804,1747.6220084999804,1747.890670599998,1747.9062368999585,None,None,1747.9062368999585,None,1747.9062368999585,1749.1870875000022,0.14615749998483807,None,,,,,,,,,,8,001,2019_Dec_25_0820,untitled,3.1.0,59.99660419428335,
299,_2,M,90,L,N,299_2M090LN,HLN,0,176,176,154,,,1.3800000000000001,1751.469675500004,1751.7848578999983,1751.8018515000003,1752.0852289999602,1752.1019945999724,1751.469675500004,down,1752.1019945999724,None,1752.1019945999724,1753.4667609999888,0.09161040000617504,None,2.8505033999681473,,,,,,,,,8,001,2019_Dec_25_0820,untitled,3.1.0,59.99660419428335,
481,_5,N,0,L,N,481_5N000LN,HLN,0,177,177,280,,,1.333,1755.0509416999994,1755.3650601999834,1755.382369800005,1755.664829199959,1755.6818658999982,None,up,1755.6818658999982,None,1755.6818658999982,1756.9970283999573,0.08851480000885203,None,2.249684799986426,,,,,,,,,8,001,2019_Dec_25_0820,untitled,3.1.0,59.99660419428335,
015,R,M,270,R,N,015RM270RN,HRN,0,178,178,102,,,0.983,1758.1116198999807,1758.412629599974,1758.412629599974,1758.645955999964,1758.6621464999625,None,down,1758.6621464999625,None,1758.6621464999625,1759.628028899955,0.1725597000331618,None,2.265173699997831,,,,,,,,,8,001,2019_Dec_25_0820,untitled,3.1.0,59.99660419428335,
166,F,N,225,L,N,166FN225LN,HLN,0,179,179,221,,,1.247,1761.0132281999686,1761.3430103999563,1761.3596757999621,1761.6431228999863,1761.659799099958,None,up,1761.659799099958,None,1761.659799099958,1762.891961699992,0.07844640000257641,None,2.548167900007684,,,,,,,,,8,001,2019_Dec_25_0820,untitled,3.1.0,59.99660419428335,
_,_4,M,90,_,_,__4M090__,N,0,180,180,34,,,1.192,1764.2899266000022,1764.6253798999824,1764.640996799979,1764.9234616999747,1764.9402538999566,None,down,1764.9402538999566,None,1764.9402538999566,1766.1068983000005,0.07439869997324422,None,2.3482050000457093,,,,,,,,,8,001,2019_Dec_25_0820,untitled,3.1.0,59.99660419428335,
493,_5,M,180,L,N,493_5M180LN,HLN,0,181,181,188,,,1.17,1767.3768500000006,1767.7050553999725,1767.7207997000078,1768.004798399983,1768.0207238000003,None,up,1768.0207238000003,None,1768.0207238000003,1769.1698680999689,0.08035299996845424,None,2.7978635000181384,,,,,,,,,8,001,2019_Dec_25_0820,untitled,3.1.0,59.99660419428335,
258,_2,N,45,R,N,258_2N045RN,HRN,0,182,182,241,,,0.97,1770.89702569996,1771.2344087999663,1771.2517666000058,1771.534452699998,1771.5513087,None,up,1771.5513087,None,1771.5513087,1772.5009729999583,0.07194989995332435,None,3.0318006000015885,,,,,,,,,8,001,2019_Dec_25_0820,untitled,3.1.0,59.99660419428335,
263,_2,N,270,R,N,263_2N270RN,HRN,0,183,183,246,,,0.926,1774.6860639000079,1774.9982189000002,1775.014643499977,1775.2987447999767,1775.3152253999724,None,up,1775.3152253999724,None,1775.3152253999724,1776.2302304999903,0.09118799999123439,None,1.9644848000025377,,,,,,,,,8,001,2019_Dec_25_0820,untitled,3.1.0,59.99660419428335,
043,R,M,90,L,N,043RM090LN,HLN,0,184,184,106,,,1.256,1777.3592502999818,1777.6955987999681,1777.7122248999658,1777.9953670999967,1778.0117443999625,None,down,1778.0117443999625,None,1778.0117443999625,1779.2443702999735,0.07190470001660287,None,2.4335964000201784,,,,,,,,,8,001,2019_Dec_25_0820,untitled,3.1.0,59.99660419428335,
_,R,N,90,_,_,_RN090__,N,0,185,185,66,,,0.986,1780.6501373999636,1780.9430878999992,1780.9430878999992,1781.1596412999788,1781.1760290999664,None,up,1781.1760290999664,None,1781.1760290999664,1782.1436752000009,0.19289710000157356,None,2.0650563999661244,,,,,,,,,8,001,2019_Dec_25_0820,untitled,3.1.0,59.99660419428335,
303,_2,M,270,L,N,303_2M270LN,HLN,0,186,186,158,,,0.982,1783.323968099954,1783.6574160999735,1783.6735321999877,1783.957498200005,1783.974737499957,None,down,1783.974737499957,None,1783.974737499957,1784.939094499976,0.07570990000385791,None,2.6188631000113674,,,,,,,,,8,001,2019_Dec_25_0820,untitled,3.1.0,59.99660419428335,
_,_2,M,315,_,_,__2M315__,N,0,187,187,31,,,1.366,1786.7151966000092,1787.0044821999618,1787.0208093999536,1787.3044506000006,1787.3210437999805,None,down,1787.3210437999805,None,1787.3210437999805,1788.6695247999742,0.11061859998153523,None,3.099933699995745,,,,,,,,,8,001,2019_Dec_25_0820,untitled,3.1.0,59.99660419428335,
_,_2,M,90,_,_,__2M090__,N,0,188,188,26,,,1.264,1790.6155102999764,1790.9175455999793,1790.9175455999793,1791.1345235999906,1791.1514857999864,None,up,1791.1514857999864,None,1791.1514857999864,1792.3994074999937,0.18510729999979958,None,2.3974505999940448,,,,,,,,,8,001,2019_Dec_25_0820,untitled,3.1.0,59.99660419428335,
129,F,N,0,R,N,129FN000RN,HRN,0,189,189,208,,,1.281,1793.6389689999633,1793.964649099973,1793.981346399989,1794.264880999981,1794.2811199999996,None,up,1794.2811199999996,None,1794.2811199999996,1795.5472660000087,0.08182660001330078,None,2.0657692999811843,,,,,,,,,8,001,2019_Dec_25_0820,untitled,3.1.0,59.99660419428335,
_,F,M,180,_,_,_FM180__,N,0,190,190,4,,,1.091,1796.5374785999884,1796.8293107000063,1796.8293107000063,1797.062329599983,1797.07896720001,None,up,1797.07896720001,None,1797.07896720001,1798.1456768999924,0.18353249999927357,None,2.417103699990548,,,,,,,,,8,001,2019_Dec_25_0820,untitled,3.1.0,59.99660419428335,
_,_5,N,270,_,_,__5N270__,N,0,191,191,94,,,1.338,1799.5724168999586,1799.9111533999676,1799.9263742999756,1800.2098359999945,1800.2261921999743,None,None,1800.2261921999743,None,1800.2261921999743,1801.541844499996,0.06965220003621653,None,,,,,,,,,,8,001,2019_Dec_25_0820,untitled,3.1.0,59.99660419428335,
164,F,N,135,L,N,164FN135LN,HLN,0,192,192,219,,,1.116,1803.762796199997,1804.107595999958,1804.1230591000058,1804.4065110000083,1804.4223541999818,1803.762796199997,up,1804.4223541999818,None,1804.4223541999818,1805.5213856999762,0.06534010003088042,None,2.4997153999865986,,,,,,,,,8,001,2019_Dec_25_0820,untitled,3.1.0,59.99660419428335,
424,_4,N,315,L,N,424_4N315LN,HLN,0,193,193,271,,,1.029,1807.0602221000008,1807.3534703999758,1807.3534703999758,1807.636403899989,1807.6530964999693,None,up,1807.6530964999693,None,1807.6530964999693,1808.6685754999635,0.12973310000961646,None,2.165094700001646,,,,,,,,,8,001,2019_Dec_25_0820,untitled,3.1.0,59.99660419428335,
396,_4,M,135,R,N,396_4M135RN,HRN,0,194,194,163,,,0.9410000000000001,1809.905498499982,1810.2336959000095,1810.250574500009,1810.5337083999766,1810.550170500006,None,up,1810.550170500006,None,1810.550170500006,1811.4664994999766,0.0791804000036791,None,2.516262400022242,,,,,,,,,8,001,2019_Dec_25_0820,untitled,3.1.0,59.99660419428335,
004,R,N,135,R,N,004RN135RN,HRN,0,195,195,195,,,1.04,1813.1992876000004,1813.4973485000082,1813.4973485000082,1813.7821590999956,1813.8001483999542,None,up,1813.8001483999542,None,1813.8001483999542,1814.8300774999661,0.12344799999846146,None,2.0295610000030138,,,,,,,,,8,001,2019_Dec_25_0820,untitled,3.1.0,59.99660419428335,
388,_4,N,135,R,N,388_4N135RN,HRN,0,196,196,259,,,0.986,1815.9116344999638,1816.247507699998,1816.262266899983,1816.5458747000084,1816.561496099981,None,up,1816.561496099981,None,1816.561496099981,1817.527781999961,0.07405789999756962,None,2.2176251000491902,,,,,,,,,8,001,2019_Dec_25_0820,untitled,3.1.0,59.99660419428335,
261,_2,N,180,R,N,261_2N180RN,HRN,0,197,197,244,,,1.087,1818.8571866999846,1819.193398399977,1819.209822600009,1819.4931768999668,1819.5098833999946,None,up,1819.5098833999946,None,1819.5098833999946,1820.5748913999996,0.07018159999279305,None,2.9316556000267155,,,,,,,,,8,001,2019_Dec_25_0820,untitled,3.1.0,59.99660419428335,
198,G,N,225,R,N,198GN225RN,HRN,0,198,198,229,,,1.155,1822.5264690999757,1822.8568300000043,1822.8733703999897,1823.15614929999,1823.17310179997,None,up,1823.17310179997,None,1823.17310179997,1824.304954399995,0.0759900999837555,None,2.614653199969325,,,,,,,,,8,001,2019_Dec_25_0820,untitled,3.1.0,59.99660419428335,
139,F,M,90,R,N,139FM090RN,HRN,0,199,199,114,,,0.8210000000000001,1825.9728148999857,1826.2699915999547,1826.2699915999547,1826.5031838999712,1826.5197765000048,None,down,1826.5197765000048,None,1826.5197765000048,1827.3191280000028,0.17667939997045323,None,2.931951600010507,,,,,,,,,8,001,2019_Dec_25_0820,untitled,3.1.0,59.99660419428335,
399,_4,M,270,R,N,399_4M270RN,HRN,0,200,200,166,,,1.084,1829.540162899997,1829.8677923000068,1829.884629499982,1830.166778099956,1830.1828620999586,None,down,1830.1828620999586,None,1830.1828620999586,1831.2499362999806,0.08029390004230663,None,2.551452700048685,,,,,,,,,8,001,2019_Dec_25_0820,untitled,3.1.0,59.99660419428335,
_,G,N,225,_,_,_GN225__,N,0,201,201,61,,,1.307,1832.835124299978,1833.1472713999683,1833.163805499964,1833.4478419999941,1833.4637021999806,None,up,1833.4637021999806,None,1833.4637021999806,1834.7625658999896,0.09219260001555085,None,3.249215700023342,,,,,,,,,8,001,2019_Dec_25_0820,untitled,3.1.0,59.99660419428335,
_,_4,N,45,_,_,__4N045__,N,0,202,202,81,,,0.775,1836.7862358999555,1837.1278408999788,1837.1441988999723,1837.427181899955,1837.4435801999643,None,up,1837.4435801999643,None,1837.4435801999643,1838.2099002999603,0.06632169999647886,None,2.084411799965892,,,,,,,,,8,001,2019_Dec_25_0820,untitled,3.1.0,59.99660419428335,
175,F,M,270,L,N,175FM270LN,HLN,0,203,203,126,,,1.022,1839.6129926999565,1839.9412245999556,1839.958290199982,1840.2414037999697,1840.2585197999724,None,down,1840.2585197999724,None,1840.2585197999724,1841.257003799954,0.07830220001051202,None,2.2816376999835484,,,,,,,,,8,001,2019_Dec_25_0820,untitled,3.1.0,59.99660419428335,
451,_5,N,90,R,N,451_5N090RN,HRN,0,204,204,274,,,1.204,1842.6254225999583,1842.9553888000082,1842.9729787000106,1843.2573750999873,1843.2726984999608,None,up,1843.2726984999608,None,1843.2726984999608,1844.4542056999635,0.07740710000507534,None,3.163835100014694,,,,,,,,,8,001,2019_Dec_25_0820,untitled,3.1.0,59.99660419428335,
432,_4,M,315,L,N,432_4M315LN,HLN,0,205,205,175,,,1.122,1846.619409499981,1846.9188621999929,1846.9188621999929,1847.152499299962,1847.1692406999646,None,up,1847.1692406999646,None,1847.1692406999646,1848.2679126999574,0.1740093000116758,None,2.813962900021579,,,,,,,,,8,001,2019_Dec_25_0820,untitled,3.1.0,59.99660419428335,
_,_2,N,135,_,_,__2N135__,N,0,206,206,75,,,1.2510000000000001,1850.0560935999965,1850.3990492000012,1850.4162026999984,1850.699534299958,1850.7152250999934,None,up,1850.7152250999934,None,1850.7152250999934,1851.947638499958,0.06570380000630394,None,2.53463060001377,,,,,,,,,8,001,2019_Dec_25_0820,untitled,3.1.0,59.99660419428335,
_,_4,N,135,_,_,__4N135__,N,0,207,207,83,,,1.117,1853.3224531000014,1853.663028399984,1853.6797701999894,1853.9634309000103,1853.9818346999818,None,up,1853.9818346999818,None,1853.9818346999818,1855.0784247999545,0.06484360003378242,None,2.4958821999607608,,,,,,,,,8,001,2019_Dec_25_0820,untitled,3.1.0,59.99660419428335,
132,F,N,135,R,N,132FN135RN,HRN,0,208,208,211,,,1.2530000000000001,1856.5585780999972,1856.893324100005,1856.9099601999624,1857.1928389999666,1857.2096710999613,None,up,1857.2096710999613,None,1857.2096710999613,1858.4416226999601,0.07279820000985637,None,2.349870300036855,,,,,,,,,8,001,2019_Dec_25_0820,untitled,3.1.0,59.99660419428335,
_,R,M,135,_,_,_RM135__,N,0,209,209,19,,,0.9550000000000001,1859.628529299982,1859.9742675999878,1859.9905541999615,1860.274237799982,1860.290750699991,None,down,1860.290750699991,None,1860.290750699991,1861.2250505999546,0.06223199999658391,None,1.9985930999973789,,,,,,,,,8,001,2019_Dec_25_0820,untitled,3.1.0,59.99660419428335,
196,G,N,135,R,N,196GN135RN,HRN,0,210,210,227,,,1.283,1862.3783108000061,1862.7054655000102,1862.7214453999768,1863.0053437000024,1863.0214340999955,None,up,1863.0214340999955,None,1863.0214340999955,1864.2867716999608,0.08064240001840517,None,2.447710799984634,,,,,,,,,8,001,2019_Dec_25_0820,untitled,3.1.0,59.99660419428335,
295,_2,N,270,L,N,295_2N270LN,HLN,0,211,211,254,,,0.842,1865.6696796999895,1865.9692826999817,1865.9692826999817,1866.1856091999798,1866.2021839999943,None,up,1866.2021839999943,None,1866.2021839999943,1867.0183304999955,0.19209319999208674,None,2.2520091999904253,,,,,,,,,8,001,2019_Dec_25_0820,untitled,3.1.0,59.99660419428335,
_,R,M,180,_,_,_RM180__,N,0,212,212,20,,,0.917,1868.555964500003,1868.8658823999576,1868.882943100005,1869.1659175999812,1869.1827620000113,None,down,1869.1827620000113,None,1869.1827620000113,1870.0815744999563,0.09065069997450337,None,3.0149963999865577,,,,,,,,,8,001,2019_Dec_25_0820,untitled,3.1.0,59.99660419428335,
257,_2,N,0,R,N,257_2N000RN,HRN,0,213,213,240,,,0.801,1872.2788392999792,1872.612652699987,1872.6295248999959,1872.9124797999975,1872.929243599996,None,up,1872.929243599996,None,1872.929243599996,1873.7117010999937,0.07328209996921942,None,1.8325741000007838,,,,,,,,,8,001,2019_Dec_25_0820,untitled,3.1.0,59.99660419428335,
_,_5,M,225,_,_,__5M225__,N,0,214,214,45,,,0.713,1874.846644699981,1875.177380100009,1875.1945301999804,1875.4770422999864,1875.4940309000085,None,None,1875.4940309000085,None,1875.4940309000085,1876.1937302000006,0.07704870001180097,None,,,,,,,,,,8,001,2019_Dec_25_0820,untitled,3.1.0,59.99660419428335,
300,_2,M,135,L,N,300_2M135LN,HLN,0,215,215,155,,,1.375,1879.0344651999767,1879.3736119999667,1879.3903825999587,1879.6734378999681,1879.6899272999726,1879.0344651999767,up,1879.6899272999726,None,1879.6899272999726,1881.038930699986,0.06710740004200488,None,2.865558699995745,,,,,,,,,8,001,2019_Dec_25_0820,untitled,3.1.0,59.99660419428335,
_,G,N,180,_,_,_GN180__,N,0,216,216,60,,,1.077,1882.6434084000066,1882.9707557999645,1882.9876253999537,1883.2709097999614,1883.2879719999619,None,up,1883.2879719999619,None,1883.2879719999619,1884.35251539998,0.08026110002538189,None,2.882564800034743,,,,,,,,,8,001,2019_Dec_25_0820,untitled,3.1.0,59.99660419428335,
200,G,N,315,R,N,200GN315RN,HRN,0,217,217,231,,,0.748,1886.2693994999863,1886.5840470999829,1886.6010446999571,1886.8835484999581,1886.9004494999535,None,up,1886.9004494999535,None,1886.9004494999535,1887.6331116000074,0.08891369996126741,None,2.181888200051617,,,,,,,,,8,001,2019_Dec_25_0820,untitled,3.1.0,59.99660419428335,
234,G,M,45,L,N,234GM045LN,HLN,0,218,218,137,,,1.175,1889.26281559997,1889.5650570999715,1889.5650570999715,1889.7979762000032,1889.814246099966,None,down,1889.814246099966,None,1889.814246099966,1890.9635981000029,0.1721426000003703,None,2.983820499968715,,,,,,,,,8,001,2019_Dec_25_0820,untitled,3.1.0,59.99660419428335,
161,F,N,0,L,N,161FN000LN,HLN,0,219,219,216,,,1.326,1892.920385800011,1893.2167636000086,1893.2167636000086,1893.5121974999784,1893.548624099989,None,up,1893.548624099989,None,1893.548624099989,1894.8435396999703,0.1128935000160709,None,2.479931299982127,,,,,,,,,8,001,2019_Dec_25_0820,untitled,3.1.0,59.99660419428335,
228,G,N,135,L,N,228GN135LN,HLN,0,220,220,235,,,1.308,1896.1030620000092,1896.4425933999592,1896.4591274999548,1896.7425607999903,1896.7590853999718,None,up,1896.7590853999718,None,1896.7590853999718,1898.0578435999923,0.06704509997507557,None,2.6326725999824703,,,,,,,,,8,001,2019_Dec_25_0820,untitled,3.1.0,59.99660419428335,
293,_2,N,180,L,N,293_2N180LN,HLN,0,221,221,252,,,0.859,1899.465711799974,1899.8060702999937,1899.8226382999565,1900.105897100002,1900.122783400002,None,up,1900.122783400002,None,1900.122783400002,1900.9720362999942,0.06675539998104796,None,2.4495421000174247,,,,,,,,,8,001,2019_Dec_25_0820,untitled,3.1.0,59.99660419428335,
014,R,M,225,R,N,014RM225RN,HRN,0,222,222,101,,,1.087,1902.668532199983,1902.9862339000101,1903.003315399983,1903.2866800999618,1903.3036592999706,None,down,1903.3036592999706,None,1903.3036592999706,1904.368413099961,0.0870166000095196,None,2.7968800999806263,,,,,,,,,8,001,2019_Dec_25_0820,untitled,3.1.0,59.99660419428335,
239,G,M,270,L,N,239GM270LN,HLN,0,223,223,142,,,1.379,1906.1728879999719,1906.5168540999875,1906.5336593000102,1906.817000399984,1906.8336990000098,None,None,1906.8336990000098,None,1906.8336990000098,1908.1988560999744,0.06522109999787062,None,,,,,,,,,,8,001,2019_Dec_25_0820,untitled,3.1.0,59.99660419428335,
296,_2,N,315,L,N,296_2N315LN,HLN,0,224,224,255,,,0.784,1910.3715426999843,1910.7130932,1910.7292427999782,1911.0131282999646,1911.0295357999858,1910.3715426999843,None,1911.0295357999858,None,1911.0295357999858,1911.796045199968,0.06703149998793378,None,,,,,,,,,,8,001,2019_Dec_25_0820,untitled,3.1.0,59.99660419428335,
269,_2,M,180,R,N,269_2M180RN,HRN,0,225,225,148,,,0.766,1914.5709277999704,1914.9098209000076,1914.926511299971,1915.2096296999953,1915.2261563999928,1914.5709277999704,None,1915.2261563999928,None,1915.2261563999928,1915.974827900005,0.06830230000196025,None,,,,,,,,,,8,001,2019_Dec_25_0820,untitled,3.1.0,59.99660419428335,
390,_4,N,225,R,N,390_4N225RN,HRN,0,226,226,261,,,0.996,1918.7665890000062,1919.1056979999994,1919.1223603999824,1919.4055426999694,1919.422216499981,1918.7665890000062,up,1919.422216499981,None,1919.422216499981,1920.4045783999609,0.07050489995162934,None,2.1153314000112005,,,,,,,,,8,001,2019_Dec_25_0820,untitled,3.1.0,59.99660419428335,
131,F,N,90,R,N,131FN090RN,HRN,0,227,227,210,,,1.002,1921.62121079996,1921.9535070999991,1921.9705792999594,1922.252931999974,1922.2697122999816,None,up,1922.2697122999816,None,1922.2697122999816,1923.2522313999943,0.07576289999997243,None,3.4473452000529505,,,,,,,,,8,001,2019_Dec_25_0820,untitled,3.1.0,59.99660419428335,
_,_5,N,225,_,_,__5N225__,N,0,228,228,93,,,0.787,1925.8165477999719,1926.132791699958,1926.149407799996,1926.4331634999835,1926.4500160999596,None,up,1926.4500160999596,None,1926.4500160999596,1927.2160921999603,0.09078789997147396,None,2.897822900034953,,,,,,,,,8,001,2019_Dec_25_0820,untitled,3.1.0,59.99660419428335,
420,_4,N,135,L,N,420_4N135LN,HLN,0,229,229,267,,,0.9510000000000001,1929.4444219999714,1929.7633389999974,1929.7805859000073,1930.06288459996,1930.0794445999782,None,up,1930.0794445999782,None,1930.0794445999782,1931.0125236999593,0.08819550002226606,None,2.3492119000293314,,,,,,,,,8,001,2019_Dec_25_0820,untitled,3.1.0,59.99660419428335,
130,F,N,45,R,N,130FN045RN,HRN,0,230,230,209,,,1.2790000000000001,1932.528989799961,1932.844068299979,1932.8605596999987,1933.143423100002,1933.1604373999871,None,up,1933.1604373999871,None,1933.1604373999871,1934.425356999971,0.09073840000201017,None,2.048951600037981,,,,,,,,,8,001,2019_Dec_25_0820,untitled,3.1.0,59.99660419428335,
_,_4,N,315,_,_,__4N315__,N,0,231,231,87,,,1.397,1935.2926910999813,1935.624471099989,1935.6411885999842,1935.9244421999902,1935.9410543999984,None,up,1935.9410543999984,None,1935.9410543999984,1937.3232632,0.07504500000504777,None,2.0318504000315443,,,,,,,,,8,001,2019_Dec_25_0820,untitled,3.1.0,59.99660419428335,
397,_4,M,180,R,N,397_4M180RN,HRN,0,232,232,164,,,1.3820000000000001,1938.0434141999576,1938.3892536999774,1938.4067127999733,1938.6894565999974,1938.7057475000038,None,up,1938.7057475000038,None,1938.7057475000038,1940.0707598999725,0.06319169997004792,None,2.3492465000017546,,,,,,,,,8,001,2019_Dec_25_0820,untitled,3.1.0,59.99660419428335,
_,_5,M,90,_,_,__5M090__,N,0,233,233,42,,,1.2630000000000001,1941.157449099992,1941.4705181999598,1941.4897850999841,1941.769555100007,1941.7863072999753,None,down,1941.7863072999753,None,1941.7863072999753,1943.0347015999723,0.09319119999418035,None,2.9974070000462234,,,,,,,,,8,001,2019_Dec_25_0820,untitled,3.1.0,59.99660419428335,
297,_2,M,0,L,N,297_2M000LN,HLN,0,234,234,152,,,1.158,1944.864573400002,1945.2002772999695,1945.2165049999603,1945.4993615999701,1945.5158319000038,None,up,1945.5158319000038,None,1945.5158319000038,1946.648022999987,0.07370150001952425,None,2.418520700011868,,,,,,,,,8,001,2019_Dec_25_0820,untitled,3.1.0,59.99660419428335,
260,_2,N,135,R,N,260_2N135RN,HRN,0,235,235,243,,,0.7020000000000001,1948.111285299994,1948.4131467000116,1948.4131467000116,1948.6467777999933,1948.6642094999552,None,up,1948.6642094999552,None,1948.6642094999552,1949.3460737999994,0.16953519999515265,None,2.697675100003835,,,,,,,,,8,001,2019_Dec_25_0820,untitled,3.1.0,59.99660419428335,
044,R,M,135,L,N,044RM135LN,HLN,0,236,236,107,,,1.335,1951.445232899976,1951.7772045999882,1951.7939866000088,1952.0770489999559,1952.0937032999936,None,down,1952.0937032999936,None,1952.0937032999936,1953.4089358999627,0.0755314999842085,None,2.431561600009445,,,,,,,,,8,001,2019_Dec_25_0820,untitled,3.1.0,59.99660419428335,
034,R,N,45,L,N,034RN045LN,HLN,0,237,237,201,,,0.8260000000000001,1955.2958099999814,1955.2958099999814,1955.2958099999814,1955.2958099999814,1955.2958099999814,None,down,1955.2958099999814,None,1955.2958099999814,None,0.7545102000003681,None,0.281382399960421,,,,,,,,,8,001,2019_Dec_25_0820,untitled,3.1.0,59.99660419428335,
_,_2,M,270,_,_,__2M270__,N,0,238,238,30,,,0.863,1955.6525426000007,1955.9923904999741,1956.008284599986,1956.2904387000017,1956.3076834999956,None,down,1956.3076834999956,None,1956.3076834999956,1957.1568819999811,0.06773419998353347,None,2.381304199981969,,,,,,,,,8,001,2019_Dec_25_0820,untitled,3.1.0,59.99660419428335,
_,F,N,90,_,_,_FN090__,N,0,239,239,50,,,0.9460000000000001,1958.7932624999667,1959.1043436999898,1959.1208115000045,1959.4039338000002,1959.4210217999644,None,up,1959.4210217999644,None,1959.4210217999644,1960.3533797999844,0.09586729999864474,None,2.415381199971307,,,,,,,,,8,001,2019_Dec_25_0820,untitled,3.1.0,59.99660419428335,
426,_4,M,45,L,N,426_4M045LN,HLN,0,240,240,169,,,0.899,1961.9104052999755,1962.2515574999852,1962.2680741999648,1962.5517492999788,1962.5683940000017,None,down,1962.5683940000017,None,1962.5683940000017,1963.4504191000015,0.06669049995252863,None,2.2145548000116833,,,,,,,,,8,001,2019_Dec_25_0820,untitled,3.1.0,59.99660419428335,
169,F,M,0,L,N,169FM000LN,HLN,0,241,241,120,,,1.391,1964.9743488999666,1965.2658945999574,1965.2658945999574,1965.4990379000083,1965.5155145999743,None,down,1965.5155145999743,None,1965.5155145999743,1966.88062859996,0.1842371000093408,None,2.9813183000078425,,,,,,,,,8,001,2019_Dec_25_0820,untitled,3.1.0,59.99660419428335,
_,G,N,270,_,_,_GN270__,N,0,242,242,62,,,1.281,1968.575545199972,1968.9121664999984,1968.9288243000046,1969.2120036999695,1969.2283635999775,None,up,1969.2283635999775,None,1969.2283635999775,1970.4947000999819,0.07101000001421198,None,3.2346024999860674,,,,,,,,,8,001,2019_Dec_25_0820,untitled,3.1.0,59.99660419428335,
449,_5,N,0,R,N,449_5N000RN,HRN,0,243,243,272,,,0.877,1972.5611659999704,1972.875320399995,1972.8937010999653,1973.1759472999838,1973.1928374999552,None,up,1973.1928374999552,None,1973.1928374999552,1974.0574675999815,0.08978899999056011,None,1.717029600054957,,,,,,,,,8,001,2019_Dec_25_0820,untitled,3.1.0,59.99660419428335,
_,_5,N,45,_,_,__5N045__,N,0,244,244,89,,,1.169,1975.1104725999758,1975.4068412999623,1975.4068412999623,1975.6235042999615,1975.640115999966,None,up,1975.640115999966,None,1975.640115999966,1976.789146199997,0.18834120000246912,None,2.21717819996411,,,,,,,,,8,001,2019_Dec_25_0820,untitled,3.1.0,59.99660419428335,
_,G,N,45,_,_,_GN045__,N,0,245,245,57,,,0.707,1977.9322808999568,1978.2711698999628,1978.2875129999593,1978.5708268999588,1978.5875294999569,None,up,1978.5875294999569,None,1978.5875294999569,1979.2861829999601,0.0676812999881804,None,1.865218700026162,,,,,,,,,8,001,2019_Dec_25_0820,untitled,3.1.0,59.99660419428335,
165,F,N,180,L,N,165FN180LN,HLN,0,246,246,220,,,1.059,1980.6306979999645,1980.9208358000033,1980.9208358000033,1981.1689921999932,1981.1865633999696,None,None,1981.1865633999696,None,1981.1865633999696,1982.217411199992,0.17101529997307807,None,,,,,,,,,,8,001,2019_Dec_25_0820,untitled,3.1.0,59.99660419428335,
208,G,M,315,R,N,208GM315RN,HRN,0,247,247,135,,,1.156,1984.8234146999894,1985.114936799975,1985.114936799975,1985.3648787999991,1985.381732799986,1984.8234146999894,down,1985.381732799986,None,1985.381732799986,1986.5137923999573,0.1662415000027977,None,2.216263600043021,,,,,,,,,8,001,2019_Dec_25_0820,untitled,3.1.0,59.99660419428335,
_,_5,M,270,_,_,__5M270__,N,0,248,248,46,,,1.213,1987.7987820999697,1988.0963717999985,1988.0963717999985,1988.331167700002,1988.3563031000085,None,None,1988.3563031000085,None,1988.3563031000085,1989.5278928999905,0.19050979998428375,None,,,,,,,,,,8,001,2019_Dec_25_0820,untitled,3.1.0,59.99660419428335,
265,_2,M,0,R,N,265_2M000RN,HRN,0,249,249,144,,,1.033,1991.8926917999634,1992.208741999988,1992.2256477999617,1992.509072899993,1992.5251029999927,1991.8926917999634,down,1992.5251029999927,None,1992.5251029999927,1993.5412706999923,0.08898549998411909,None,2.1498445000033826,,,,,,,,,8,001,2019_Dec_25_0820,untitled,3.1.0,59.99660419428335,
_,_4,M,225,_,_,__4M225__,N,0,250,250,37,,,0.98,1994.7705888999626,1995.0898452999536,1995.106476999994,1995.3906151999836,1995.406828999985,None,None,1995.406828999985,None,1995.406828999985,1996.3717509999988,0.08432130003347993,None,,,,,,,,,,8,001,2019_Dec_25_0820,untitled,3.1.0,59.99660419428335,
421,_4,N,180,L,N,421_4N180LN,HLN,0,251,251,268,,,1.113,1998.952060599986,1999.2857982999994,1999.3024685999844,1999.585587599955,1999.6023042000015,1998.952060599986,up,1999.6023042000015,None,1999.6023042000015,2000.7017551999888,0.0745879000169225,None,2.566345300001558,,,,,,,,,8,001,2019_Dec_25_0820,untitled,3.1.0,59.99660419428335,
461,_5,M,180,R,N,461_5M180RN,HRN,0,252,252,180,,,0.716,2002.2384662000113,2002.5834091999568,2002.6000929999864,2002.8827008999651,2002.8996283999877,None,up,2002.8996283999877,None,2002.8996283999877,2003.6004017000087,0.06316489999881014,None,2.7149606000166386,,,,,,,,,8,001,2019_Dec_25_0820,untitled,3.1.0,59.99660419428335,
_,F,N,180,_,_,_FN180__,N,0,253,253,52,,,0.918,2005.7814100999967,2006.0801901000086,2006.0801901000086,2006.329403199954,2006.346590399975,None,None,2006.346590399975,None,2006.346590399975,2007.2455478999764,0.15950589999556541,None,,,,,,,,,,8,001,2019_Dec_25_0820,untitled,3.1.0,59.99660419428335,
135,F,N,270,R,N,135FN270RN,HRN,0,254,254,214,,,0.733,2009.9031580999726,2010.226392499986,2010.242868900008,2010.5262614999665,2010.542855699954,2009.9031580999726,up,2010.542855699954,None,2010.542855699954,2011.2598800999695,0.08382739999797195,None,2.515772900020238,,,,,,,,,8,001,2019_Dec_25_0820,untitled,3.1.0,59.99660419428335,
205,G,M,180,R,N,205GM180RN,HRN,0,255,255,132,,,0.9410000000000001,2013.1340145999566,2013.4734698999673,2013.4902209999855,2013.7735195999849,2013.7900967999594,None,up,2013.7900967999594,None,2013.7900967999594,2014.7056198999635,0.06833059998461977,None,3.198754300014116,,,,,,,,,8,001,2019_Dec_25_0820,untitled,3.1.0,59.99660419428335,
496,_5,M,315,L,N,496_5M315LN,HLN,0,256,256,191,,,0.757,2017.093730499968,2017.4034305000096,2017.4203804999706,2017.7034815999796,2017.7201670999639,None,None,2017.7201670999639,None,2017.7201670999639,2018.470159999968,0.0925715999910608,None,,,,,,,,,,8,001,2019_Dec_25_0820,untitled,3.1.0,59.99660419428335,
203,G,M,90,R,N,203GM090RN,HRN,0,257,257,130,,,0.935,2021.262211299967,2021.599927000003,2021.616573599982,2021.8996660999837,2021.916747100011,2021.262211299967,up,2021.916747100011,None,2021.916747100011,2022.8321092000115,0.07041530002607033,None,2.5507851999718696,,,,,,,,,8,001,2019_Dec_25_0820,untitled,3.1.0,59.99660419428335,
005,R,N,180,R,N,005RN180RN,HRN,0,258,258,196,,,1.228,2024.5464671999798,2024.880324799975,2024.8969710000092,2025.1801304999972,2025.1968861999922,None,up,2025.1968861999922,None,2025.1968861999922,2026.4125281999586,0.06991660001222044,None,2.6659744000062346,,,,,,,,,8,001,2019_Dec_25_0820,untitled,3.1.0,59.99660419428335,
168,F,N,315,L,N,168FN315LN,HLN,0,259,259,223,,,0.937,2027.9729844999965,2028.2774207000039,2028.294513700006,2028.5773592999903,2028.5938160999794,None,up,2028.5938160999794,None,2028.5938160999794,2029.5097837999929,0.09910729998955503,None,1.7493720999918878,,,,,,,,,8,001,2019_Dec_25_0820,untitled,3.1.0,59.99660419428335,
136,F,N,315,R,N,136FN315RN,HRN,0,260,260,215,,,1.293,2030.4312505999696,2030.7584907999844,2030.7749869999825,2031.05831459997,2031.0747066999902,None,up,2031.0747066999902,None,2031.0747066999902,2032.3568212999962,0.08008819998940453,None,1.952568699955009,,,,,,,,,8,001,2019_Dec_25_0820,untitled,3.1.0,59.99660419428335,
_,F,M,315,_,_,_FM315__,N,0,261,261,7,,,1.351,2033.2234308999614,2033.5226716999896,2033.5226716999896,2033.739545099961,2033.75621219998,None,down,2033.75621219998,None,2033.75621219998,2035.0889436999569,0.1857423999463208,None,2.3484532999573275,,,,,,,,,8,001,2019_Dec_25_0820,untitled,3.1.0,59.99660419428335,
429,_4,M,180,L,N,429_4M180LN,HLN,0,262,262,172,,,1.167,2036.2329587999848,2036.5226867999882,2036.5226867999882,2036.8203035999904,2036.8366320999921,None,None,2036.8366320999921,None,2036.8366320999921,2037.9851108999574,0.11985800002003089,None,,,,,,,,,,8,001,2019_Dec_25_0820,untitled,3.1.0,59.99660419428335,
040,R,N,315,L,N,040RN315LN,HLN,0,263,263,207,,,0.865,2040.5012352999765,2040.7996834999649,2040.7996834999649,2041.0175068000099,2041.0332989000017,2040.5012352999765,None,2041.0332989000017,None,2041.0332989000017,2041.8816885999986,0.19273540005087852,None,,,,,,,,,,8,001,2019_Dec_25_0820,untitled,3.1.0,59.99660419428335,
_,R,N,135,_,_,_RN135__,N,0,264,264,67,,,1.032,2044.5971785999718,2044.9127951999544,2044.929465299996,2045.2133897999884,2045.23008389998,2044.5971785999718,up,2045.23008389998,None,2045.23008389998,2046.2447378999786,0.08868230000371113,None,2.6306026000529528,,,,,,,,,8,001,2019_Dec_25_0820,untitled,3.1.0,59.99660419428335,
_,R,M,0,_,_,_RM000__,N,0,265,265,16,,,1.339,2047.9427349999896,2048.2765491000027,2048.2934999999707,2048.576409799978,2048.5930194999673,None,down,2048.5930194999673,None,2048.5930194999673,2049.908367900003,0.07430209999438375,None,2.334000000031665,,,,,,,,,8,001,2019_Dec_25_0820,untitled,3.1.0,59.99660419428335,
016,R,M,315,R,N,016RM315RN,HRN,0,266,266,103,,,0.883,2051.0630725999945,2051.357453499979,2051.357453499979,2051.639877999958,2051.675820900011,None,down,2051.675820900011,None,2051.675820900011,2052.522898699972,0.12481529999058694,None,2.0795843999949284,,,,,,,,,8,001,2019_Dec_25_0820,untitled,3.1.0,59.99660419428335,
_,_5,N,180,_,_,__5N180__,N,0,267,267,92,,,1.295,2053.8294005999924,2054.171711599978,2054.1886597999837,2054.4718989999965,2054.489432099974,None,None,2054.489432099974,None,2054.489432099974,2055.769983200007,0.06600350001826882,None,,,,,,,,,,8,001,2019_Dec_25_0820,untitled,3.1.0,59.99660419428335,
233,G,M,0,L,N,233GM000LN,HLN,0,268,268,136,,,1.351,2058.149499299994,2058.451426899992,2058.451426899992,2058.668170699966,2058.6840571999783,2058.149499299994,down,2058.6840571999783,None,2058.6840571999783,2060.017097599979,0.18778569996356964,None,2.9319980000145733,,,,,,,,,8,001,2019_Dec_25_0820,untitled,3.1.0,59.99660419428335,
_,_2,N,225,_,_,__2N225__,N,0,269,269,77,,,0.8130000000000001,2061.7028096999857,2062.032033299969,2062.0478566999664,2062.3309243000112,2062.3473150999635,None,up,2062.3473150999635,None,2062.3473150999635,2063.147245900007,0.07832550001330674,None,2.4835818000137806,,,,,,,,,8,001,2019_Dec_25_0820,untitled,3.1.0,59.99660419428335,
012,R,M,135,R,N,012RM135RN,HRN,0,270,270,99,,,1.066,2064.9050286999554,2065.244734000007,2065.262066999974,2065.545583900006,2065.5620674999664,None,down,2065.5620674999664,None,2065.5620674999664,2066.6115665999823,0.06732650002231821,None,2.415090499969665,,,,,,,,,8,001,2019_Dec_25_0820,untitled,3.1.0,59.99660419428335,
138,F,M,45,R,N,138FM045RN,HRN,0,271,271,113,,,0.9580000000000001,2068.0570187999983,2068.392181399977,2068.408957300009,2068.6918632999877,2068.708979399991,None,down,2068.708979399991,None,2068.708979399991,2069.641041599971,0.07236480002757162,None,2.1170933000394143,,,,,,,,,8,001,2019_Dec_25_0820,untitled,3.1.0,59.99660419428335,
176,F,M,315,L,N,176FM315LN,HLN,0,272,272,127,,,0.754,2070.9213590999716,2071.2398839999805,2071.256475000002,2071.5397979999543,2071.556735799997,None,down,2071.556735799997,None,2071.556735799997,2072.2889975999715,0.08586689998628572,None,1.7319938000291586,,,,,,,,,8,001,2019_Dec_25_0820,untitled,3.1.0,59.99660419428335,
_,R,N,0,_,_,_RN000__,N,0,273,273,64,,,0.977,2073.483041199972,2073.7712917999597,2073.7712917999597,2074.0044264000026,2074.0208959999727,None,up,2074.0208959999727,None,2074.0208959999727,2074.9864467000007,0.18461639998713508,None,1.8181051000137813,,,,,,,,,8,001,2019_Dec_25_0820,untitled,3.1.0,59.99660419428335,
163,F,N,90,L,N,163FN090LN,HLN,0,274,274,218,,,1.204,2076.011166499986,2076.302948399971,2076.302948399971,2076.5527209999855,2076.568992699962,None,up,2076.568992699962,None,2076.568992699962,2077.767349599977,0.16175650001969188,None,2.098457900050562,,,,,,,,,8,001,2019_Dec_25_0820,untitled,3.1.0,59.99660419428335,
488,_5,N,315,L,N,488_5N315LN,HLN,0,275,275,287,,,1.319,2078.7499188999645,2079.0827959000017,2079.099649599986,2079.382724199968,2079.399433799961,None,up,2079.399433799961,None,2079.399433799961,2080.6984627000056,0.07499509997433051,None,2.763969899970107,,,,,,,,,8,001,2019_Dec_25_0820,untitled,3.1.0,59.99660419428335,
450,_5,N,45,R,N,450_5N045RN,HRN,0,276,276,273,,,0.782,2082.237117599987,2082.5809332999634,2082.5809332999634,2082.880680900009,2082.899526199966,None,up,2082.899526199966,None,2082.899526199966,2083.663438999967,0.06661330000497401,None,1.5969727000338025,,,,,,,,,8,001,2019_Dec_25_0820,untitled,3.1.0,59.99660419428335,
_,_5,N,0,_,_,__5N000__,N,0,277,277,88,,,1.032,2084.5698832999915,2084.9114114000113,2084.927964399976,2085.211031099956,2085.2290142999846,None,up,2085.2290142999846,None,2085.2290142999846,2086.2437850999995,0.06553790002362803,None,1.5332581999828108,,,,,,,,,8,001,2019_Dec_25_0820,untitled,3.1.0,59.99660419428335,
173,F,M,180,L,N,173FM180LN,HLN,0,278,278,124,,,0.797,2086.839339099999,2087.176057600009,2087.192738099955,2087.4757850999595,2087.492365599959,None,down,2087.492365599959,None,2087.492365599959,2088.2748448000057,0.0689905000035651,None,2.465645400050562,,,,,,,,,8,001,2019_Dec_25_0820,untitled,3.1.0,59.99660419428335,
453,_5,N,180,R,N,453_5N180RN,HRN,0,279,279,276,,,0.77,2090.0304377999855,2090.373187099991,2090.3901054000016,2090.673043399991,2090.6903839999577,None,up,2090.6903839999577,None,2090.6903839999577,2091.438764099963,0.06551879999460652,None,3.0475549999973737,,,,,,,,,8,001,2019_Dec_25_0820,untitled,3.1.0,59.99660419428335,
485,_5,N,180,L,N,485_5N180LN,HLN,0,280,280,284,,,1.141,2093.8330930999946,2094.1532112999703,2094.169598699955,2094.4529258999974,2094.4695617000107,None,up,2094.4695617000107,None,2094.4695617000107,2095.5856644999585,0.08698429999640211,None,2.2822061000042595,,,,,,,,,8,001,2019_Dec_25_0820,untitled,3.1.0,59.99660419428335,
395,_4,M,90,R,N,395_4M090RN,HRN,0,281,281,162,,,0.9550000000000001,2096.841966499982,2097.167511000007,2097.1842805999913,2097.4676149999723,2097.484048399958,None,up,2097.484048399958,None,2097.484048399958,2098.4172134999535,0.08021749998442829,None,3.1142457999521866,,,,,,,,,8,001,2019_Dec_25_0820,untitled,3.1.0,59.99660419428335,
008,R,N,315,R,N,008RN315RN,HRN,0,282,282,199,,,0.853,2100.766436899954,2101.0643052000087,2101.0643052000087,2101.3144764999743,2101.330743699975,None,up,2101.330743699975,None,2101.330743699975,2102.163494699984,0.15837969997664914,None,1.7174451000173576,,,,,,,,,8,001,2019_Dec_25_0820,untitled,3.1.0,59.99660419428335,
140,F,M,135,R,N,140FM135RN,HRN,0,283,283,115,,,1.065,2103.1443402000004,2103.4616038000095,2103.4783603000105,2103.7621815999737,2103.778590700007,None,down,2103.778590700007,None,2103.778590700007,2104.827580399986,0.08483090001391247,None,3.0167452999739908,,,,,,,,,8,001,2019_Dec_25_0820,untitled,3.1.0,59.99660419428335,
430,_4,M,225,L,N,430_4M225LN,HLN,0,284,284,173,,,1.2670000000000001,2106.8703845999553,2107.2091077999794,2107.225319799967,2107.5090992999612,2107.5274929999723,None,down,2107.5274929999723,None,2107.5274929999723,2108.7737638999824,0.06811059999745339,None,3.428405600017868,,,,,,,,,8,001,2019_Dec_25_0820,untitled,3.1.0,59.99660419428335,
_,R,M,270,_,_,_RM270__,N,0,285,285,22,,,0.709,2111.037548499997,2111.371203799965,2111.387758800003,2111.671512699977,2111.688431799994,None,down,2111.688431799994,None,2111.688431799994,2112.3873747999896,0.07401490001939237,None,2.1149456999846734,,,,,,,,,8,001,2019_Dec_25_0820,untitled,3.1.0,59.99660419428335,
230,G,N,225,L,N,230GN225LN,HLN,0,286,286,237,,,0.8250000000000001,2113.8862507999875,2114.2200632999884,2114.236792499956,2114.5194695999962,2114.5194695999962,None,up,2114.5194695999962,None,2114.5194695999962,2115.3350818000035,0.07517129997722805,None,2.514576700050384,,,,,,,,,8,001,2019_Dec_25_0820,untitled,3.1.0,59.99660419428335,
206,G,M,225,R,N,206GM225RN,HRN,0,287,287,133,,,0.9440000000000001,2117.1091584999813,2117.45003539999,2117.4669252999593,2117.7496444999706,2117.766944599978,None,up,2117.766944599978,None,2117.766944599978,2118.703837100009,0.06792509998194873,None,2.3984966999851167,,,,,,,,,8,001,2019_Dec_25_0820,untitled,3.1.0,59.99660419428335,
,,,,,,,,,,,,,,,,,,,,,,,,,,,,,2120.180860899971,None,2140.7463792999624,None,2143.2787890000036,None,2146.840849499975,None,,,,,,,
