Number,Letter,type,Orientation,human,face_type,image,picture,trials.thisRepN,trials.thisTrialN,trials.thisN,trials.thisIndex,text.started,text.stopped,stimulus_duration,CROSS.started,CROSS.stopped,BLANK.started,BLANK.stopped,TEST.started,TEST.stopped,key_JUDGE.keys,key_JUDGE.rt,key_JUDGE.started,key_JUDGE.stopped,image_2.started,image_2.stopped,ISI.started,ISI.stopped,q1.started,q1.stopped,q2.started,q2.stopped,q3.started,q3.stopped,text_2.started,text_2.stopped,participant,session,date,expName,psychopyVersion,frameRate,
258,_2,N,45,R,N,258_2N045RN,HRN,0,0,0,241,201.7047084000078,None,1.012,236.66715549997753,236.95478540001204,236.95478540001204,237.21962659998098,237.23631449998356,None,up,2.88294689997565,237.23631449998356,None,237.23631449998356,238.23557319998508,0.14968829997815192,None,,,,,,,,,9,001,2019_Dec_25_0842,untitled,3.1.0,59.69835614956724,
_,_4,M,0,_,_,__4M000__,N,0,1,1,32,,,0.9460000000000001,240.68165240000235,240.96840620000148,240.96840620000148,241.21583629999077,241.2326092000003,None,up,3.433244100015145,241.2326092000003,None,241.2326092000003,242.1678469000035,0.1709798999945633,None,,,,,,,,,9,001,2019_Dec_25_0842,untitled,3.1.0,59.69835614956724,
428,_4,M,135,L,N,428_4M135LN,HLN,0,2,2,171,,,0.9380000000000001,244.88497199997073,245.17982600000687,245.17982600000687,245.37942359998124,245.39609070000006,None,None,,245.39609070000006,None,245.39609070000006,246.3286691000103,0.20754099998157471,None,,,,,,,,,9,001,2019_Dec_25_0842,untitled,3.1.0,59.69835614956724,
234,G,M,45,L,N,234GM045LN,HLN,0,3,3,137,,,0.86,249.07527159998426,249.3755763999652,249.3755763999652,249.57561519998126,249.593531099963,249.07527159998426,None,,249.593531099963,None,249.593531099963,250.4246008999762,0.2075495000462979,None,,,,,,,,,9,001,2019_Dec_25_0842,untitled,3.1.0,59.69835614956724,
_,F,M,0,_,_,_FM000__,N,0,4,4,0,,,0.738,253.2655669999658,253.5562864000094,253.5562864000094,253.7723427999881,253.78830279997783,253.2655669999658,down,2.1816476000240073,253.78830279997783,None,253.78830279997783,254.5045462999842,0.20335500000510365,None,,,,,,,,,9,001,2019_Dec_25_0842,untitled,3.1.0,59.69835614956724,
461,_5,M,180,R,N,461_5M180RN,HRN,0,5,5,180,,,1.335,256.1775813999702,256.46945410000626,256.46945410000626,256.6858244999894,256.70240660000127,None,None,,256.70240660000127,None,256.70240660000127,258.0183185999631,0.2003121999441646,None,,,,,,,,,9,001,2019_Dec_25_0842,untitled,3.1.0,59.69835614956724,
_,_5,M,90,_,_,__5M090__,N,0,6,6,42,,,0.796,260.3656990000163,260.665451399982,260.665451399982,260.8836314000073,260.89906450000126,260.3656990000163,up,1.8320414000190794,260.89906450000126,None,260.89906450000126,261.68204230000265,0.19246170000405982,None,,,,,,,,,9,001,2019_Dec_25_0842,untitled,3.1.0,59.69835614956724,
016,R,M,315,R,N,016RM315RN,HRN,0,7,7,103,,,1.214,262.9279112999793,263.2157070999965,263.2157070999965,263.4475250999676,263.4639637999935,None,up,2.8472840000176802,263.4639637999935,None,263.4639637999935,264.6617266999674,0.18897120002657175,None,,,,,,,,,9,001,2019_Dec_25_0842,untitled,3.1.0,59.69835614956724,
268,_2,M,135,R,N,268_2M135RN,HRN,0,8,8,147,,,1.274,266.49339249997865,266.79351609997684,266.79351609997684,267.0269721999648,267.04317089996766,None,down,3.2811171000357717,267.04317089996766,None,267.04317089996766,268.29290649999166,0.17464350000955164,None,,,,,,,,,9,001,2019_Dec_25_0842,untitled,3.1.0,59.69835614956724,
197,G,N,180,R,N,197GN180RN,HRN,0,9,9,228,,,0.781,270.5061056999839,270.80648369999835,270.80648369999835,271.0400712999981,271.0568400999764,None,up,2.814926099963486,271.0568400999764,None,271.0568400999764,271.8223021000158,0.1743496999843046,None,,,,,,,,,9,001,2019_Dec_25_0842,untitled,3.1.0,59.69835614956724,
_,G,M,90,_,_,_GM090__,N,0,10,10,10,,,1.166,274.06057600001805,274.3534307999653,274.3534307999653,274.58683589997236,274.6039573000162,None,down,2.780807100003585,274.6039573000162,None,274.6039573000162,275.75252999999793,0.18143609998514876,None,,,,,,,,,9,001,2019_Dec_25_0842,untitled,3.1.0,59.69835614956724,
_,F,N,180,_,_,_FN180__,N,0,11,11,52,,,0.745,277.57200559997,277.86745570000494,277.86745570000494,278.1003735999693,278.1170345999999,None,up,2.8486465999740176,278.1170345999999,None,278.1170345999999,278.8504812999745,0.17948440002510324,None,,,,,,,,,9,001,2019_Dec_25_0842,untitled,3.1.0,59.69835614956724,
163,F,N,90,L,N,163FN090LN,HLN,0,12,12,218,,,1.21,281.20359779999126,281.49764049996156,281.49764049996156,281.68051139998715,281.69848620000994,None,up,2.431213099975139,281.69848620000994,None,281.69848620000994,282.8965909999679,0.22910880000563338,None,,,,,,,,,9,001,2019_Dec_25_0842,untitled,3.1.0,59.69835614956724,
204,G,M,135,R,N,204GM135RN,HRN,0,13,13,131,,,1.3940000000000001,284.3325992000173,284.6281318999827,284.6281318999827,284.84451359999366,284.8609169999836,None,down,2.915190000028815,284.8609169999836,None,284.8609169999836,286.2436696999939,0.19546919997083023,None,,,,,,,,,9,001,2019_Dec_25_0842,untitled,3.1.0,59.69835614956724,
043,R,M,90,L,N,043RM090LN,HLN,0,14,14,106,,,1.381,287.9945786999888,288.29190790001303,288.29190790001303,288.4916780999629,288.50837019999744,None,down,2.8477320999954827,288.50837019999744,None,288.50837019999744,289.8732808000059,0.21086180000565946,None,,,,,,,,,9,001,2019_Dec_25_0842,untitled,3.1.0,59.69835614956724,
386,_4,N,45,R,N,386_4N045RN,HRN,0,15,15,257,,,1.117,291.5491649999749,291.8389756999677,291.8389756999677,292.0721388999955,292.088393300015,None,up,2.399701600021217,292.088393300015,None,292.088393300015,293.1873304999899,0.18628939997870475,None,,,,,,,,,9,001,2019_Dec_25_0842,untitled,3.1.0,59.69835614956724,
400,_4,M,315,R,N,400_4M315RN,HRN,0,16,16,167,,,0.923,294.6753914000001,294.96937629999593,294.96937629999593,295.2022365999874,295.21860779996496,None,down,2.1347695000004023,295.21860779996496,None,295.21860779996496,296.1183149999706,0.17955860000802204,None,,,,,,,,,9,001,2019_Dec_25_0842,untitled,3.1.0,59.69835614956724,
_,F,N,225,_,_,_FN225__,N,0,17,17,53,,,1.025,297.5244173000101,297.8172969999723,297.8172969999723,298.06807340000523,298.08329009998124,None,up,3.0666576000512578,298.08329009998124,None,298.08329009998124,299.0989061999717,0.1639143999782391,None,,,,,,,,,9,001,2019_Dec_25_0842,untitled,3.1.0,59.69835614956724,
231,G,N,270,L,N,231GN270LN,HLN,0,18,18,238,,,1.357,301.34056879999116,301.6301023999695,301.6301023999695,301.8634873999981,301.88156939996406,None,up,3.446522600017488,301.88156939996406,None,301.88156939996406,303.2283944999799,0.17946900002425537,None,,,,,,,,,9,001,2019_Dec_25_0842,untitled,3.1.0,59.69835614956724,
487,_5,N,270,L,N,487_5N270LN,HLN,0,19,19,286,,,1.322,305.54252229997655,305.84269059996586,305.84269059996586,306.0434085999732,306.05950099998154,None,up,2.5650867999647744,306.05950099998154,None,306.05950099998154,307.35840339999413,0.20752689999062568,None,,,,,,,,,9,001,2019_Dec_25_0842,untitled,3.1.0,59.69835614956724,
457,_5,M,0,R,N,457_5M000RN,HRN,0,20,20,176,,,0.92,308.84496359998593,309.1401489999844,309.1401489999844,309.3399455000181,309.3562751999707,None,down,3.348027100029867,309.3562751999707,None,309.3562751999707,310.25588620000053,0.21009670000057667,None,,,,,,,,,9,001,2019_Dec_25_0842,untitled,3.1.0,59.69835614956724,
042,R,M,45,L,N,042RM045LN,HLN,0,21,21,105,,,0.732,312.8716972999973,313.17019109998364,313.17019109998364,313.4198957000044,313.43626960000256,None,down,2.015276999969501,313.43626960000256,None,313.43626960000256,314.1524847999681,0.16002569999545813,None,,,,,,,,,9,001,2019_Dec_25_0842,untitled,3.1.0,59.69835614956724,
296,_2,N,315,L,N,296_2N315LN,HLN,0,22,22,255,,,1.163,315.652394499979,315.95065579999937,315.95065579999937,316.1676222999813,316.1841946999775,None,None,,316.1841946999775,None,316.1841946999775,317.3329650000087,0.19247849995736033,None,,,,,,,,,9,001,2019_Dec_25_0842,untitled,3.1.0,59.69835614956724,
_,_5,M,270,_,_,__5M270__,N,0,23,23,46,,,0.8,319.83455029997276,320.1314234000165,320.1314234000165,320.36390309996204,320.38033119996544,319.83455029997276,up,2.1986062999931164,320.38033119996544,None,320.38033119996544,321.16327530000126,0.17904969997471198,None,,,,,,,,,9,001,2019_Dec_25_0842,untitled,3.1.0,59.69835614956724,
492,_5,M,135,L,N,492_5M135LN,HLN,0,24,24,187,,,0.75,322.76631019997876,323.06136739999056,323.06136739999056,323.2944956999854,323.3112855000072,None,up,2.2150060000130907,323.3112855000072,None,323.3112855000072,324.0436902999645,0.1802027999656275,None,,,,,,,,,9,001,2019_Dec_25_0842,untitled,3.1.0,59.69835614956724,
431,_4,M,270,L,N,431_4M270LN,HLN,0,25,25,174,,,0.7030000000000001,325.64683069998864,325.94257889996516,325.94257889996516,326.2420547999791,326.25857969996287,None,down,1.6346238999976777,326.25857969996287,None,326.25857969996287,326.94212229998084,0.11328829999547452,None,,,,,,,,,9,001,2019_Dec_25_0842,untitled,3.1.0,59.69835614956724,
420,_4,N,135,L,N,420_4N135LN,HLN,0,26,26,267,,,1.133,328.07035950000864,328.35867859999416,328.35867859999416,328.60668799997075,328.6235826999764,None,up,2.50013180001406,328.6235826999764,None,328.6235826999764,329.73866169998655,0.16804399999091402,None,,,,,,,,,9,001,2019_Dec_25_0842,untitled,3.1.0,59.69835614956724,
167,F,N,270,L,N,167FN270LN,HLN,0,27,27,222,,,1.068,331.3079906000057,331.60396149998996,331.60396149998996,331.8380795000121,331.8534818000044,None,up,2.700862199999392,331.8534818000044,None,331.8534818000044,332.9029562000069,0.17664340004557744,None,,,,,,,,,9,001,2019_Dec_25_0842,untitled,3.1.0,59.69835614956724,
_,_4,N,0,_,_,__4N000__,N,0,28,28,80,,,0.716,334.7267705000122,335.01723930001026,335.01723930001026,335.26736950001214,335.2841220999835,None,up,2.1986956000328064,335.2841220999835,None,335.2841220999835,335.98340540000936,0.16458199999760836,None,,,,,,,,,9,001,2019_Dec_25_0842,untitled,3.1.0,59.69835614956724,
417,_4,N,0,L,N,417_4N000LN,HLN,0,29,29,264,,,0.9530000000000001,337.6740197999752,337.96508679998806,337.96508679998806,338.19808830000693,338.21475360001205,None,up,1.8655562999774702,338.21475360001205,None,338.21475360001205,339.1481560000102,0.18394109996734187,None,,,,,,,,,9,001,2019_Dec_25_0842,untitled,3.1.0,59.69835614956724,
_,_5,N,270,_,_,__5N270__,N,0,30,30,94,,,1.233,340.271846299991,340.56297719996655,340.56297719996655,340.7961015999899,340.8125744999852,None,up,2.2160607000114396,340.8125744999852,None,340.8125744999852,342.02902899996843,0.1826399999554269,None,,,,,,,,,9,001,2019_Dec_25_0842,untitled,3.1.0,59.69835614956724,
481,_5,N,0,L,N,481_5N000LN,HLN,0,31,31,280,,,1.23,343.1371277999715,343.4278646999737,343.4612143000122,343.74345929996343,343.75986869999906,None,up,2.0319168000132777,343.75986869999906,None,343.75986869999906,344.97563230001833,0.09955340001033619,None,,,,,,,,,9,001,2019_Dec_25_0842,untitled,3.1.0,59.69835614956724,
_,_5,M,45,_,_,__5M045__,N,0,32,32,41,,,1.06,345.86200480000116,346.20804659998976,346.22478049999336,346.50781470001675,346.5241932999925,None,down,2.0652149000088684,346.5241932999925,None,346.5241932999925,347.5569872999913,0.0630770000279881,None,,,,,,,,,9,001,2019_Dec_25_0842,untitled,3.1.0,59.69835614956724,
395,_4,M,90,R,N,395_4M090RN,HRN,0,33,33,162,,,1.292,348.6692020999617,349.0059162999969,349.02201819996117,349.3055948999827,349.3223194999737,None,down,2.5475828999769874,349.3223194999737,None,349.3223194999737,350.58779139997205,0.07271699997363612,None,,,,,,,,,9,001,2019_Dec_25_0842,untitled,3.1.0,59.69835614956724,
398,_4,M,225,R,N,398_4M225RN,HRN,0,34,34,165,,,0.9590000000000001,352.0539798999671,352.35243249998894,352.35243249998894,352.58553039998515,352.6019235000131,None,up,2.26646279997658,352.6019235000131,None,352.6019235000131,353.53502680000383,0.17647730000317097,None,,,,,,,,,9,001,2019_Dec_25_0842,untitled,3.1.0,59.69835614956724,
_,F,M,225,_,_,_FM225__,N,0,35,35,5,,,0.999,355.0740404999815,355.36693919997197,355.36693919997197,355.5828040000051,355.59989199996926,None,up,2.5826808000565507,355.59989199996926,None,355.59989199996926,356.5822695000097,0.19846280000638217,None,,,,,,,,,9,001,2019_Dec_25_0842,untitled,3.1.0,59.69835614956724,
045,R,M,180,L,N,045RM180LN,HLN,0,36,36,108,,,1.169,358.25204539997503,358.59747239999706,358.61371710000094,358.89712179999333,358.9140212999773,None,down,2.5986015000380576,358.9140212999773,None,358.9140212999773,360.0625504999771,0.06278660002863035,None,,,,,,,,,9,001,2019_Dec_25_0842,untitled,3.1.0,59.69835614956724,
195,G,N,90,R,N,195GN090RN,HRN,0,37,37,226,,,0.97,361.5921445999993,361.9280926999636,361.9449924000073,362.22727570001734,362.2437995999935,None,up,2.2651456000166945,362.2437995999935,None,362.2437995999935,363.19259940000484,0.07251159998122603,None,,,,,,,,,9,001,2019_Dec_25_0842,untitled,3.1.0,59.69835614956724,
419,_4,N,90,L,N,419_4N090LN,HLN,0,38,38,266,,,0.852,364.5803085999796,364.9251540999976,364.942827699997,365.2263986999751,365.2412473000004,None,up,1.6659389999695122,365.2412473000004,None,365.2412473000004,366.07340749999275,0.06480120000196621,None,,,,,,,,,9,001,2019_Dec_25_0842,untitled,3.1.0,59.69835614956724,
232,G,N,315,L,N,232GN315LN,HLN,0,39,39,239,,,1.4000000000000001,366.9799096999923,367.32294179999735,367.33953519997885,367.6230741000036,367.638856799982,None,up,2.5153989999671467,367.638856799982,None,367.638856799982,369.02139289997285,0.06549060001270846,None,,,,,,,,,9,001,2019_Dec_25_0842,untitled,3.1.0,59.69835614956724,
135,F,N,270,R,N,135FN270RN,HRN,0,40,40,214,,,1.17,370.33163839997724,370.62014929996803,370.62014929996803,370.86975030001486,370.8863497999846,None,up,2.048293800035026,370.8863497999846,None,370.8863497999846,372.03554399998393,0.16933619999326766,None,,,,,,,,,9,001,2019_Dec_25_0842,untitled,3.1.0,59.69835614956724,
_,R,M,90,_,_,_RM090__,N,0,41,41,18,,,1.377,373.13858580001397,373.43414079997456,373.43414079997456,373.65048000001116,373.66765789996134,None,down,3.3806628999882378,373.66765789996134,None,373.66765789996134,375.0323667000048,0.19717459997627884,None,,,,,,,,,9,001,2019_Dec_25_0842,untitled,3.1.0,59.69835614956724,
263,_2,N,270,R,N,263_2N270RN,HRN,0,42,42,246,,,1.2750000000000001,377.24389029998565,377.5317931000027,377.5317931000027,377.76392689999193,377.78032849996816,None,up,2.83335430000443,377.78032849996816,None,377.78032849996816,379.02960329997586,0.18781229999149218,None,,,,,,,,,9,001,2019_Dec_25_0842,untitled,3.1.0,59.69835614956724,
230,G,N,225,L,N,230GN225LN,HLN,0,43,43,237,,,0.873,380.8024124999647,381.09404900000663,381.09404900000663,381.3275875999825,381.34408439998515,None,up,1.7324921999825165,381.34408439998515,None,381.34408439998515,382.19306640001014,0.18182669999077916,None,,,,,,,,,9,001,2019_Dec_25_0842,untitled,3.1.0,59.69835614956724,
203,G,M,90,R,N,203GM090RN,HRN,0,44,44,130,,,1.149,383.2453460000106,383.5420844000182,383.5420844000182,383.7920171999722,383.8091199999908,None,down,2.6493601000402123,383.8091199999908,None,383.8091199999908,384.94134949997533,0.15937280002981424,None,,,,,,,,,9,001,2019_Dec_25_0842,untitled,3.1.0,59.69835614956724,
201,G,M,0,R,N,201GM000RN,HRN,0,45,45,128,,,0.85,386.52793119999114,386.8731458999682,386.8894982999773,387.17337619996397,387.18951070000185,None,down,2.0665746000013314,387.18951070000185,None,387.18951070000185,388.0216134999646,0.06257219996768981,None,,,,,,,,,9,001,2019_Dec_25_0842,untitled,3.1.0,59.69835614956724,
429,_4,M,180,L,N,429_4M180LN,HLN,0,46,46,172,,,1.354,389.3289045999991,389.67020379996393,389.68683179997606,389.97021810000297,389.98715689999517,None,down,2.7475706999539398,389.98715689999517,None,389.98715689999517,391.3193795999978,0.06603940000059083,None,,,,,,,,,9,001,2019_Dec_25_0842,untitled,3.1.0,59.69835614956724,
_,_5,N,135,_,_,__5N135__,N,0,47,47,91,,,1.319,392.90672640001867,393.20030399999814,393.20030399999814,393.44999349996215,393.4665137999691,None,up,3.233776500041131,393.4665137999691,None,393.4665137999691,394.76525769999716,0.1633358999970369,None,,,,,,,,,9,001,2019_Dec_25_0842,untitled,3.1.0,59.69835614956724,
392,_4,N,315,R,N,392_4N315RN,HRN,0,48,48,263,,,1.3940000000000001,396.7711549999658,397.1139125999762,397.13037410000106,397.4128090000013,397.4298049999634,None,up,2.2017732999520376,397.4298049999634,None,397.4298049999634,398.81195339997066,0.06407010002294555,None,,,,,,,,,9,001,2019_Dec_25_0842,untitled,3.1.0,59.69835614956724,
464,_5,M,315,R,N,464_5M315RN,HRN,0,49,49,183,,,1.1320000000000001,399.82513549999567,400.1278958999901,400.1278958999901,400.34421169996494,400.36087289999705,None,down,2.2478841000120156,400.36087289999705,None,400.36087289999705,401.4769728999818,0.1844971999526024,None,,,,,,,,,9,001,2019_Dec_25_0842,untitled,3.1.0,59.69835614956724,
_,R,M,315,_,_,_RM315__,N,0,50,50,23,,,1.151,402.80016479996266,403.0918348999694,403.0918348999694,403.3252641999861,403.34189430001425,None,down,3.132307799998671,403.34189430001425,None,403.34189430001425,404.47393500001635,0.18465179996564984,None,,,,,,,,,9,001,2019_Dec_25_0842,untitled,3.1.0,59.69835614956724,
_,_5,N,225,_,_,__5N225__,N,0,51,51,93,,,0.987,406.54425669997,406.8885833999957,406.90488849999383,407.18840879999334,407.2046469000052,None,up,2.681433899968397,407.2046469000052,None,407.2046469000052,408.1703142999904,0.06343249999918044,None,,,,,,,,,9,001,2019_Dec_25_0842,untitled,3.1.0,59.69835614956724,
_,_5,N,180,_,_,__5N180__,N,0,52,52,92,,,1.395,409.95916640001815,410.30218830000376,410.3186628000112,410.6019091999624,410.6196500000078,None,up,3.1134585000108927,410.6196500000078,None,410.6196500000078,412.00059519999195,0.0666583999991417,None,,,,,,,,,9,001,2019_Dec_25_0842,untitled,3.1.0,59.69835614956724,
_,R,N,180,_,_,_RN180__,N,0,53,53,68,,,0.987,413.91635620000307,414.21506899996893,414.21506899996893,414.4483800000162,414.4652205000166,None,up,3.132493900018744,414.4652205000166,None,414.4652205000166,415.431426599971,0.17602249997435138,None,,,,,,,,,9,001,2019_Dec_25_0842,untitled,3.1.0,59.69835614956724,
136,F,N,315,R,N,136FN315RN,HRN,0,54,54,215,,,0.869,417.7649080000119,418.0619042000035,418.0619042000035,418.3117403999786,418.3282278999686,None,None,,418.3282278999686,None,418.3282278999686,419.1776528999908,0.16044110001530498,None,,,,,,,,,9,001,2019_Dec_25_0842,untitled,3.1.0,59.69835614956724,
035,R,N,90,L,N,035RN090LN,HLN,0,55,55,202,,,0.899,422.0040355999954,422.2936305999756,422.2936305999756,422.50821259996155,422.52484169998206,422.0040355999954,up,2.1153899999917485,422.52484169998206,None,422.52484169998206,423.40749169996707,0.2049319000216201,None,,,,,,,,,9,001,2019_Dec_25_0842,untitled,3.1.0,59.69835614956724,
_,_4,M,270,_,_,__4M270__,N,0,56,56,38,,,1.346,424.81839209998725,425.10733739996795,425.10733739996795,425.3571245999774,425.37272129999474,None,down,2.7170930999564007,425.37272129999474,None,425.37272129999474,426.7041533999727,0.17090219998499379,None,,,,,,,,,9,001,2019_Dec_25_0842,untitled,3.1.0,59.69835614956724,
_,_2,N,315,_,_,__2N315__,N,0,57,57,79,,,0.921,428.2747548999614,428.5701248999685,428.5701248999685,428.8030805999879,428.8197647999623,None,up,2.1315550999715924,428.8197647999623,None,428.8197647999623,429.7184122999897,0.17633960000239313,None,,,,,,,,,9,001,2019_Dec_25_0842,untitled,3.1.0,59.69835614956724,
_,G,N,315,_,_,_GN315__,N,0,58,58,63,,,0.7000000000000001,431.13675850001164,431.4331016999786,431.4331016999786,431.6678744999808,431.68357320001815,None,up,2.1152273999759927,431.68357320001815,None,431.68357320001815,432.3662015000009,0.1769013000302948,None,,,,,,,,,9,001,2019_Dec_25_0842,untitled,3.1.0,59.69835614956724,
038,R,N,225,L,N,038RN225LN,HLN,0,59,59,205,,,1.2670000000000001,434.02070130000357,434.31436189997476,434.31436189997476,434.5146561000147,434.5314158999827,None,up,3.263794799975585,434.5314158999827,None,434.5314158999827,435.77985350001836,0.21292410005116835,None,,,,,,,,,9,001,2019_Dec_25_0842,untitled,3.1.0,59.69835614956724,
422,_4,N,225,L,N,422_4N225LN,HLN,0,60,60,269,,,1.0110000000000001,437.9852727999678,438.27803489996586,438.27803489996586,438.5105490999995,438.52738549996866,None,None,,438.52738549996866,None,438.52738549996866,439.5272922000149,0.18307550001190975,None,,,,,,,,,9,001,2019_Dec_25_0842,untitled,3.1.0,59.69835614956724,
_,_2,M,45,_,_,__2M045__,N,0,61,61,25,,,0.886,442.0643127000076,442.40724520001095,442.424355199968,442.70768230000976,442.7243585999822,442.0643127000076,down,2.815477699972689,442.7243585999822,None,442.7243585999822,443.5895371999941,0.06582210003398359,None,,,,,,,,,9,001,2019_Dec_25_0842,untitled,3.1.0,59.69835614956724,
_,_4,N,90,_,_,__4N090__,N,0,62,62,82,,,0.838,445.6088557000039,445.9543715000036,445.97122169996146,446.25461870001163,446.271125499974,None,up,2.0667325000395067,446.271125499974,None,446.271125499974,447.08752279996406,0.06239739997545257,None,,,,,,,,,9,001,2019_Dec_25_0842,untitled,3.1.0,59.69835614956724,
137,F,M,0,R,N,137FM000RN,HRN,0,63,63,112,,,0.8320000000000001,448.4087684999686,448.75204739999026,448.76867449999554,449.05177129997173,449.0681353000109,None,down,1.8818457999732345,449.0681353000109,None,449.0681353000109,449.88477820000844,0.06434540002373978,None,,,,,,,,,9,001,2019_Dec_25_0842,untitled,3.1.0,59.69835614956724,
034,R,N,45,L,N,034RN045LN,HLN,0,64,64,201,,,0.9390000000000001,451.15341219998663,451.44989990000613,451.44989990000613,451.66635949997,451.6833580000093,None,up,2.114362300024368,451.6833580000093,None,451.6833580000093,452.5985350999981,0.19458120001945645,None,,,,,,,,,9,001,2019_Dec_25_0842,untitled,3.1.0,59.69835614956724,
139,F,M,90,R,N,139FM090RN,HRN,0,65,65,114,,,1.216,453.87055340001825,454.2143186000176,454.2306162000168,454.5136021999642,454.5303974999697,None,down,2.7005988000310026,454.5303974999697,None,454.5303974999697,455.7295145000098,0.06582950003212318,None,,,,,,,,,9,001,2019_Dec_25_0842,untitled,3.1.0,59.69835614956724,
_,_5,N,315,_,_,__5N315__,N,0,66,66,95,,,1.3760000000000001,457.30791580001824,457.6451492999913,457.6607619000133,457.9445678999764,457.9605607999838,None,up,3.2341881999745965,457.9605607999838,None,457.9605607999838,459.326335699996,0.06989680003607646,None,,,,,,,,,9,001,2019_Dec_25_0842,untitled,3.1.0,59.69835614956724,
_,_2,M,90,_,_,__2M090__,N,0,67,67,26,,,0.727,461.26695239997935,461.60789519996615,461.62392019998515,461.9070214999956,461.9233017999795,None,None,,461.9233017999795,None,461.9233017999795,462.63989399996353,0.0654711999814026,None,,,,,,,,,9,001,2019_Dec_25_0842,untitled,3.1.0,59.69835614956724,
_,_2,M,0,_,_,__2M000__,N,0,68,68,24,,,0.8310000000000001,465.46222039998975,465.804035499983,465.82073069998296,466.1038218999747,466.12010890000965,465.46222039998975,down,2.5819325000047684,466.12010890000965,None,466.12010890000965,466.93598740000743,0.06764289998682216,None,,,,,,,,,9,001,2019_Dec_25_0842,untitled,3.1.0,59.69835614956724,
_,_4,N,45,_,_,__4N045__,N,0,69,69,81,,,0.751,468.7738545999746,469.1175482000108,469.1342644999968,469.41726379998727,469.4339289999916,None,up,1.650177200033795,469.4339289999916,None,469.4339289999916,470.16705950000323,0.0652989000082016,None,,,,,,,,,9,001,2019_Dec_25_0842,untitled,3.1.0,59.69835614956724,
303,_2,M,270,L,N,303_2M270LN,HLN,0,70,70,158,,,0.838,471.15663430001587,471.4987510999781,471.5153074999689,471.79904610000085,471.8152021999704,None,down,2.333995799999684,471.8152021999704,None,471.8152021999704,472.631918900006,0.06556210003327578,None,,,,,,,,,9,001,2019_Dec_25_0842,untitled,3.1.0,59.69835614956724,
496,_5,M,315,L,N,496_5M315LN,HLN,0,71,71,191,,,1.01,474.32755129999714,474.613592699985,474.613592699985,474.8624864000012,474.8791457999614,None,down,2.648573300044518,474.8791457999614,None,474.8791457999614,475.87812969996594,0.1692697000107728,None,,,,,,,,,9,001,2019_Dec_25_0842,untitled,3.1.0,59.69835614956724,
140,F,M,135,R,N,140FM135RN,HRN,0,72,72,115,,,1.3880000000000001,477.6885409000097,477.97798249998596,477.97798249998596,478.2427471000119,478.26073310000356,None,up,3.0795764999929816,478.26073310000356,None,478.26073310000356,479.6247416000115,0.1541039000148885,None,,,,,,,,,9,001,2019_Dec_25_0842,untitled,3.1.0,59.69835614956724,
454,_5,N,225,R,N,454_5N225RN,HRN,0,73,73,277,,,1.379,481.52156680001644,481.82298940001056,481.82298940001056,482.0564110999694,482.0726855999674,None,up,2.332294300023932,482.0726855999674,None,482.0726855999674,483.43941190000623,0.1734759000246413,None,,,,,,,,,9,001,2019_Dec_25_0842,untitled,3.1.0,59.69835614956724,
039,R,N,270,L,N,039RN270LN,HLN,0,74,74,206,,,0.718,484.49451559997397,484.8205253999913,484.837684899976,485.1200638000155,485.1558684000047,None,up,1.6486445000045933,485.1558684000047,None,485.1558684000047,485.8361739999964,0.08098339999560267,None,,,,,,,,,9,001,2019_Dec_25_0842,untitled,3.1.0,59.69835614956724,
_,_5,M,0,_,_,__5M000__,N,0,75,75,40,,,0.85,486.87495379999746,487.21854179998627,487.2351968999719,487.51840539998375,487.5351035000058,None,up,2.5986848999746144,487.5351035000058,None,487.5351035000058,488.36744739999995,0.06378239998593926,None,,,,,,,,,9,001,2019_Dec_25_0842,untitled,3.1.0,59.69835614956724,
175,F,M,270,L,N,175FM270LN,HLN,0,76,76,126,,,0.801,490.3121622999897,490.60140789998695,490.60140789998695,490.84904549998464,490.8658740000101,None,down,1.9146481999778189,490.8658740000101,None,490.8658740000101,491.64823089999845,0.16974839998874813,None,,,,,,,,,9,001,2019_Dec_25_0842,untitled,3.1.0,59.69835614956724,
271,_2,M,270,R,N,271_2M270RN,HRN,0,77,77,150,,,0.787,492.8528942000121,493.1972483000136,493.21351219998905,493.4971857999917,493.4971857999917,None,down,1.9163245999952778,493.4971857999917,None,493.4971857999917,494.279125400004,0.06557999999495223,None,,,,,,,,,9,001,2019_Dec_25_0842,untitled,3.1.0,59.69835614956724,
430,_4,M,225,L,N,430_4M225LN,HLN,0,78,78,173,,,0.922,495.4848241999862,495.8273998000077,495.8445397000178,496.12734989996534,496.1443164999946,None,None,,496.1443164999946,None,496.1443164999946,497.04336060001515,0.06457709998358041,None,,,,,,,,,9,001,2019_Dec_25_0842,untitled,3.1.0,59.69835614956724,
290,_2,N,45,L,N,290_2N045LN,HLN,0,79,79,249,,,1.0050000000000001,499.828416400007,500.1235791000072,500.1235791000072,500.32358159997966,500.34009429998696,499.828416400007,up,1.9334990000352263,500.34009429998696,None,500.34009429998696,501.3227547999704,0.2140759999747388,None,,,,,,,,,9,001,2019_Dec_25_0842,untitled,3.1.0,59.69835614956724,
_,_5,M,180,_,_,__5M180__,N,0,80,80,44,,,0.971,502.4403638999793,502.7382848999696,502.7382848999696,502.9880594999995,503.0048408000148,None,down,1.8817875999957323,503.0048408000148,None,503.0048408000148,503.95377809996717,0.15968089998932555,None,,,,,,,,,9,001,2019_Dec_25_0842,untitled,3.1.0,59.69835614956724,
264,_2,N,315,R,N,264_2N315RN,HRN,0,81,81,247,,,1.025,505.0850984000135,505.38616489997366,505.38616489997366,505.60238870000467,505.6189646999701,None,up,1.9679012999986298,505.6189646999701,None,505.6189646999701,506.61835629999405,0.19060730002820492,None,,,,,,,,,9,001,2019_Dec_25_0842,untitled,3.1.0,59.69835614956724,
_,G,N,135,_,_,_GN135__,N,0,82,82,59,,,1.35,507.79218569997465,508.08405900001526,508.08405900001526,508.29999229998793,508.3165334999794,None,up,2.784477400011383,508.3165334999794,None,508.3165334999794,509.64870899997186,0.19758129998808727,None,,,,,,,,,9,001,2019_Dec_25_0842,untitled,3.1.0,59.69835614956724,
_,_5,N,0,_,_,__5N000__,N,0,83,83,88,,,1.313,511.2848418999929,511.5802667000098,511.5802667000098,511.814043499995,511.83034499996575,None,up,2.181978100037668,511.83034499996575,None,511.83034499996575,513.1290441000019,0.17410569998901337,None,,,,,,,,,9,001,2019_Dec_25_0842,untitled,3.1.0,59.69835614956724,
009,R,M,0,R,N,009RM000RN,HRN,0,84,84,96,,,1.097,514.131525099976,514.4281932999729,514.4281932999729,514.7289270999609,514.7451148999971,None,down,1.9647482000291348,514.7451148999971,None,514.7451148999971,515.8269024000037,0.11136829998577014,None,,,,,,,,,9,001,2019_Dec_25_0842,untitled,3.1.0,59.69835614956724,
_,_5,M,225,_,_,__5M225__,N,0,85,85,45,,,1.0130000000000001,516.9047770000179,517.1935475000064,517.1935475000064,517.42541169998,517.442069599987,None,down,3.3325754000106826,517.442069599987,None,517.442069599987,518.4411398000084,0.18592489999718964,None,,,,,,,,,9,001,2019_Dec_25_0842,untitled,3.1.0,59.69835614956724,
_,R,N,0,_,_,_RN000__,N,0,86,86,64,,,0.8,520.964842699992,521.2555465999758,521.2555465999758,521.4895867999876,521.5051113999798,None,up,1.8156215000199154,521.5051113999798,None,521.5051113999798,522.2898111999966,0.18347250000806525,None,,,,,,,,,9,001,2019_Dec_25_0842,untitled,3.1.0,59.69835614956724,
001,R,N,0,R,N,001RN000RN,HRN,0,87,87,192,,,1.242,523.4965163000161,523.7870077000116,523.7870077000116,524.03821899998,524.053296500002,None,up,1.8482078000088222,524.053296500002,None,524.053296500002,525.2690645999974,0.1683515000040643,None,,,,,,,,,9,001,2019_Dec_25_0842,untitled,3.1.0,59.69835614956724,
207,G,M,270,R,N,207GM270RN,HRN,0,88,88,134,,,1.083,525.9754924000008,526.317575299996,526.3355090999976,526.6180633999757,526.6345461999881,None,down,2.4821051999460906,526.6345461999881,None,526.6345461999881,527.6994923999882,0.06730330002028495,None,,,,,,,,,9,001,2019_Dec_25_0842,untitled,3.1.0,59.69835614956724,
_,_2,N,270,_,_,__2N270__,N,0,89,89,78,,,1.33,529.2960576000041,529.5994166000164,529.5994166000164,529.8315227999701,529.8480191999697,None,up,2.504954500007443,529.8480191999697,None,529.8480191999697,531.1637361000176,0.17194049997488037,None,,,,,,,,,9,001,2019_Dec_25_0842,untitled,3.1.0,59.69835614956724,
169,F,M,0,L,N,169FM000LN,HLN,0,90,90,120,,,0.79,532.4564144000178,532.7789557999931,532.7789557999931,533.0616704999702,533.0782645000145,None,None,,533.0782645000145,None,533.0782645000145,533.8610570000019,0.09116819995688275,None,,,,,,,,,9,001,2019_Dec_25_0842,untitled,3.1.0,59.69835614956724,
200,G,N,315,R,N,200GN315RN,HRN,0,91,91,231,,,1.358,536.6312355999835,536.9763716000016,536.9920003999723,537.2754657000187,537.2935439000139,536.6312355999835,up,2.0304090999998152,537.2935439000139,None,537.2935439000139,538.6237169000087,0.065819300012663,None,,,,,,,,,9,001,2019_Dec_25_0842,untitled,3.1.0,59.69835614956724,
266,_2,M,45,R,N,266_2M045RN,HRN,0,92,92,145,,,0.885,539.3957069999888,539.7394817000022,539.7572930000024,540.0398910999647,540.0560248999973,None,down,2.4339572000317276,540.0560248999973,None,540.0560248999973,540.9215510999784,0.06514400005107746,None,,,,,,,,,9,001,2019_Dec_25_0842,untitled,3.1.0,59.69835614956724,
_,G,N,270,_,_,_GN270__,N,0,93,93,62,,,0.969,542.6593563999631,542.9531387999887,542.9531387999887,543.2028158999747,543.2193399000098,None,up,1.9294023999827914,543.2193399000098,None,543.2193399000098,544.1687682999764,0.1623062000144273,None,,,,,,,,,9,001,2019_Dec_25_0842,untitled,3.1.0,59.69835614956724,
393,_4,M,0,R,N,393_4M000RN,HRN,0,94,94,160,,,1.045,545.2189127000165,545.5677385000163,545.5677385000163,545.8672042000107,545.8672042000107,None,down,2.983282200002577,545.8672042000107,None,545.8672042000107,546.9000809999998,0.06335350003791973,None,,,,,,,,,9,001,2019_Dec_25_0842,untitled,3.1.0,59.69835614956724,
048,R,M,315,L,N,048RM315LN,HLN,0,95,95,111,,,0.806,549.0435237999773,549.3338016999769,549.3338016999769,549.5643780999817,549.5813621999696,None,down,2.164604199992027,549.5813621999696,None,549.5813621999696,550.364061100001,0.18539729999611154,None,,,,,,,,,9,001,2019_Dec_25_0842,untitled,3.1.0,59.69835614956724,
399,_4,M,270,R,N,399_4M270RN,HRN,0,96,96,166,,,0.88,551.8158668999677,552.1617946000188,552.178108299966,552.4617163999937,552.4794480999699,None,up,2.1998046999797225,552.4794480999699,None,552.4794480999699,553.3440012999927,0.06317820004187524,None,,,,,,,,,9,001,2019_Dec_25_0842,untitled,3.1.0,59.69835614956724,
144,F,M,315,R,N,144FM315RN,HRN,0,97,97,119,,,0.965,554.8707110999967,555.1592610999942,555.1592610999942,555.3928037000005,555.4089820999652,None,down,2.61494409997249,555.4089820999652,None,555.4089820999652,556.3580513999914,0.18505889998050407,None,,,,,,,,,9,001,2019_Dec_25_0842,untitled,3.1.0,59.69835614956724,
_,F,M,270,_,_,_FM270__,N,0,98,98,6,,,0.965,558.1870629999903,558.4758328999742,558.4758328999742,558.7392407999723,558.756295899977,None,down,1.932223400042858,558.756295899977,None,558.756295899977,559.7050790999783,0.1560516999452375,None,,,,,,,,,9,001,2019_Dec_25_0842,untitled,3.1.0,59.69835614956724,
_,G,M,225,_,_,_GM225__,N,0,99,99,13,,,1.272,560.8877184999874,561.1870365999639,561.1870365999639,561.4046145000029,561.420684200013,None,None,,561.420684200013,None,561.420684200013,562.6691449999926,0.19205289997626096,None,,,,,,,,,9,001,2019_Dec_25_0842,untitled,3.1.0,59.69835614956724,
385,_4,N,0,R,N,385_4N000RN,HRN,0,100,100,256,,,1.213,564.9568682999816,565.3006961999927,565.3172613999923,565.6008505999926,565.6169905000133,564.9568682999816,up,2.098764199996367,565.6169905000133,None,565.6169905000133,566.8158314999891,0.06582740001613274,None,,,,,,,,,9,001,2019_Dec_25_0842,untitled,3.1.0,59.69835614956724,
_,_2,M,225,_,_,__2M225__,N,0,101,101,29,,,0.981,567.8888430999941,568.1811256000074,568.1811256000074,568.4318832000135,568.4480220999685,None,down,1.983595099998638,568.4480220999685,None,568.4480220999685,569.4128616999951,0.16236620000563562,None,,,,,,,,,9,001,2019_Dec_25_0842,untitled,3.1.0,59.69835614956724,
_,R,M,45,_,_,_RM045__,N,0,102,102,17,,,1.321,570.504580000008,570.8460576999933,570.8623956000083,571.1454310999834,571.1629014000064,None,down,2.54860139999073,571.1629014000064,None,571.1629014000064,572.4605957000167,0.06625039997743443,None,,,,,,,,,9,001,2019_Dec_25_0842,untitled,3.1.0,59.69835614956724,
132,F,N,135,R,N,132FN135RN,HRN,0,103,103,211,,,0.866,573.8784932999988,574.1757789999829,574.1757789999829,574.425755299977,574.4422147999867,None,up,2.198732699966058,574.4422147999867,None,574.4422147999867,575.2911060999613,0.16047800000524148,None,,,,,,,,,9,001,2019_Dec_25_0842,untitled,3.1.0,59.69835614956724,
458,_5,M,45,R,N,458_5M045RN,HRN,0,104,104,177,,,0.85,576.712091399997,577.0565310000093,577.0732737999642,577.3564153999905,577.372996399994,None,up,1.9339270999771543,577.372996399994,None,577.372996399994,578.2054387999815,0.06427169998642057,None,,,,,,,,,9,001,2019_Dec_25_0842,untitled,3.1.0,59.69835614956724,
_,R,M,0,_,_,_RM000__,N,0,105,105,16,,,1.18,579.389664999966,579.7212493999978,579.7380067000049,580.0205355999642,580.0383020999725,None,down,1.9825594000285491,580.0383020999725,None,580.0383020999725,581.2033406000119,0.07437919999938458,None,,,,,,,,,9,001,2019_Dec_25_0842,untitled,3.1.0,59.69835614956724,
205,G,M,180,R,N,205GM180RN,HRN,0,106,106,132,,,0.856,582.0915930999909,582.4352792999707,582.451977299992,582.735143799975,582.7520712999976,None,down,2.316112600034103,582.7520712999976,None,582.7520712999976,583.5844773999997,0.06347799999639392,None,,,,,,,,,9,001,2019_Dec_25_0842,untitled,3.1.0,59.69835614956724,
432,_4,M,315,L,N,432_4M315LN,HLN,0,107,107,175,,,1.17,585.2564689000137,585.5327533999807,585.5327533999807,585.7824816000066,585.7992749999976,None,up,2.3175529000000097,585.7992749999976,None,585.7992749999976,586.9482790000038,0.15993879997404292,None,,,,,,,,,9,001,2019_Dec_25_0842,untitled,3.1.0,59.69835614956724,
260,_2,N,135,R,N,260_2N135RN,HRN,0,108,108,243,,,1.07,588.192648199969,588.5302246999927,588.5468070000061,588.8302610999672,588.8472189999884,None,up,2.4140782000031322,588.8472189999884,None,588.8472189999884,589.896031900018,0.0690481000347063,None,,,,,,,,,9,001,2019_Dec_25_0842,untitled,3.1.0,59.69835614956724,
426,_4,M,45,L,N,426_4M045LN,HLN,0,109,109,169,,,1.157,591.3330520999734,591.6772485999973,591.6943898000172,591.9779699000064,591.9937615999952,None,down,2.2489047999843024,591.9937615999952,None,591.9937615999952,593.1261578999693,0.0643980999593623,None,,,,,,,,,9,001,2019_Dec_25_0842,untitled,3.1.0,59.69835614956724,
297,_2,M,0,L,N,297_2M000LN,HLN,0,110,110,152,,,0.8280000000000001,594.3117334999843,594.6588428000105,594.6753759999992,594.9577055000118,594.9744479999645,None,down,2.4150218999711797,594.9744479999645,None,594.9744479999645,595.7914218999795,0.062311200017575175,None,,,,,,,,,9,001,2019_Dec_25_0842,untitled,3.1.0,59.69835614956724,
012,R,M,135,R,N,012RM135RN,HRN,0,111,111,99,,,1.177,597.5863059000112,597.8889139000094,597.8889139000094,598.104984399979,598.1213826999883,None,None,,598.1213826999883,None,598.1213826999883,599.2876277000178,0.18843660003039986,None,,,,,,,,,9,001,2019_Dec_25_0842,untitled,3.1.0,59.69835614956724,
_,F,M,90,_,_,_FM090__,N,0,112,112,2,,,0.708,601.7766737999627,602.0685133999796,602.0685133999796,602.3015806999756,602.318352399976,601.7766737999627,down,2.397934600012377,602.318352399976,None,602.318352399976,603.0011799999629,0.18034900003112853,None,,,,,,,,,9,001,2019_Dec_25_0842,untitled,3.1.0,59.69835614956724,
261,_2,N,180,R,N,261_2N180RN,HRN,0,113,113,244,,,0.79,604.7918632999645,605.1713919999893,605.1824321000022,605.4328433999908,605.4494119000155,None,down,2.6975883000413887,605.4494119000155,None,605.4494119000155,606.2147362999967,0.06893579999450594,None,,,,,,,,,9,001,2019_Dec_25_0842,untitled,3.1.0,59.69835614956724,
134,F,N,225,R,N,134FN225RN,HRN,0,114,114,213,,,1.115,608.2240420000162,608.5627431999892,608.5792776999879,608.8624809000175,608.878938800015,None,up,2.4482530999812298,608.878938800015,None,608.878938800015,609.9778019000078,0.07017229998018593,None,,,,,,,,,9,001,2019_Dec_25_0842,untitled,3.1.0,59.69835614956724,
_,_4,N,225,_,_,__4N225__,N,0,115,115,85,,,1.365,611.5250417999923,611.8261607000022,611.8261607000022,612.0435432000086,612.059565500007,None,up,2.7002402000362054,612.059565500007,None,612.059565500007,613.4082998000085,0.18887579999864101,None,,,,,,,,,9,001,2019_Dec_25_0842,untitled,3.1.0,59.69835614956724,
011,R,M,90,R,N,011RM090RN,HRN,0,116,116,98,,,0.716,614.9328145000036,615.224593699968,615.224593699968,615.4733487999765,615.4898776999908,None,up,2.448090699966997,615.4898776999908,None,615.4898776999908,616.189518500003,0.16384220001054928,None,,,,,,,,,9,001,2019_Dec_25_0842,untitled,3.1.0,59.69835614956724,
129,F,N,0,R,N,129FN000RN,HRN,0,117,117,208,,,0.922,618.0161824999959,618.3550969999633,618.3705188999884,618.6540133999661,618.6709683999652,None,up,1.8670493999961764,618.6709683999652,None,618.6709683999652,619.5698722999659,0.06975000002421439,None,,,,,,,,,9,001,2019_Dec_25_0842,untitled,3.1.0,59.69835614956724,
010,R,M,45,R,N,010RM045RN,HRN,0,118,118,97,,,0.786,620.703341400018,621.0018507000059,621.0018507000059,621.2515140000032,621.2686108999769,None,down,1.8990488999988884,621.2686108999769,None,621.2686108999769,622.0348311999696,0.1567955000209622,None,,,,,,,,,9,001,2019_Dec_25_0842,untitled,3.1.0,59.69835614956724,
_,R,M,270,_,_,_RM270__,N,0,119,119,22,,,1.067,623.3376303999685,623.6337596999947,623.6337596999947,623.8825654999819,623.9000995999668,None,down,2.4512663999921642,623.9000995999668,None,623.9000995999668,624.9494763999828,0.1622374000144191,None,,,,,,,,,9,001,2019_Dec_25_0842,untitled,3.1.0,59.69835614956724,
387,_4,N,90,R,N,387_4N090RN,HRN,0,120,120,258,,,1.354,626.4223327999935,626.7634994999971,626.7803152999841,627.0633032000042,627.0799110999797,None,up,2.2487478999537416,627.0799110999797,None,627.0799110999797,628.4119106999715,0.06406120001338422,None,,,,,,,,,9,001,2019_Dec_25_0842,untitled,3.1.0,59.69835614956724,
_,_4,N,270,_,_,__4N270__,N,0,121,121,86,,,1.349,629.4062826000154,629.7442123999936,629.7612566999742,630.0440703000058,630.0614006000105,None,down,3.098430800018832,630.0614006000105,None,630.0614006000105,631.3929554999922,0.0705232999753207,None,,,,,,,,,9,001,2019_Dec_25_0842,untitled,3.1.0,59.69835614956724,
202,G,M,45,R,N,202GM045RN,HRN,0,122,122,129,,,1.049,633.2308478999767,633.5743702999898,633.5911194999935,633.8743713999866,633.8908337000175,None,down,3.1981826999690384,633.8908337000175,None,633.8908337000175,634.9230283999932,0.06429469998693094,None,,,,,,,,,9,001,2019_Dec_25_0842,untitled,3.1.0,59.69835614956724,
_,_4,M,135,_,_,__4M135__,N,0,123,123,35,,,0.896,637.160456899961,637.5045221999753,637.5208302999963,637.8040175999631,637.8206971000182,None,up,2.7664566000457853,637.8206971000182,None,637.8206971000182,638.7027637999854,0.06227150000631809,None,,,,,,,,,9,001,2019_Dec_25_0842,untitled,3.1.0,59.69835614956724,
_,_4,M,315,_,_,__4M315__,N,0,124,124,39,,,0.727,640.6723156999797,641.0016251999768,641.0177234999719,641.3011703999946,641.3176930999616,None,down,1.8832986999768764,641.3176930999616,None,641.3176930999616,642.0336376999621,0.07705409999471158,None,,,,,,,,,9,001,2019_Dec_25_0842,untitled,3.1.0,59.69835614956724,
130,F,N,45,R,N,130FN045RN,HRN,0,125,125,209,,,1.079,643.2715533999726,643.6158783999854,643.6325457000057,643.9158717999817,643.9321251999936,None,up,2.200646399985999,643.9321251999936,None,643.9321251999936,644.9980135000078,0.06398450001142919,None,,,,,,,,,9,001,2019_Dec_25_0842,untitled,3.1.0,59.69835614956724,
044,R,M,135,L,N,044RM135LN,HLN,0,126,126,107,,,0.962,646.2038659999962,646.5466014000122,646.5627803999814,646.8459801999852,646.862936599995,None,down,2.4310791000025347,646.862936599995,None,646.862936599995,647.8116742999991,0.06443470000522211,None,,,,,,,,,9,001,2019_Dec_25_0842,untitled,3.1.0,59.69835614956724,
300,_2,M,135,L,N,300_2M135LN,HLN,0,127,127,155,,,1.1440000000000001,649.4615565999993,649.7602461999631,649.7602461999631,650.0096364999772,650.0267654999625,None,down,2.4980286000063643,650.0267654999625,None,650.0267654999625,651.1593537000008,0.15972900000633672,None,,,,,,,,,9,001,2019_Dec_25_0842,untitled,3.1.0,59.69835614956724,
289,_2,N,0,L,N,289_2N000LN,HLN,0,128,128,248,,,1.008,652.7155245000031,653.0074960999773,653.0074960999773,653.2406353999977,653.2571084999945,None,up,1.9316134999971837,653.2571084999945,None,653.2571084999945,654.2391423999798,0.1833236999809742,None,,,,,,,,,9,001,2019_Dec_25_0842,untitled,3.1.0,59.69835614956724,
488,_5,N,315,L,N,488_5N315LN,HLN,0,129,129,287,,,0.933,655.2592888000072,655.6053812999744,655.6216978000011,655.905250300013,655.9217404999654,None,up,2.8312150999554433,655.9217404999654,None,655.9217404999654,656.8374285000027,0.06404899997869506,None,,,,,,,,,9,001,2019_Dec_25_0842,untitled,3.1.0,59.69835614956724,
486,_5,N,225,L,N,486_5N225LN,HLN,0,130,130,285,,,0.911,658.8253954999964,659.168929699983,659.1852601999999,659.468649699993,659.4849197000149,None,up,2.0482847000239417,659.4849197000149,None,659.4849197000149,660.3844002999831,0.0651619000127539,None,,,,,,,,,9,001,2019_Dec_25_0842,untitled,3.1.0,59.69835614956724,
_,F,N,315,_,_,_FN315__,N,0,131,131,55,,,0.9430000000000001,661.6921896999702,661.9829554000171,661.9829554000171,662.248752799991,662.2660074000014,None,up,2.7646656000288203,662.2660074000014,None,662.2660074000014,663.1814853000105,0.1518641000147909,None,,,,,,,,,9,001,2019_Dec_25_0842,untitled,3.1.0,59.69835614956724,
133,F,N,180,R,N,133FN180RN,HRN,0,132,132,212,,,1.196,665.1040252000093,665.4469423000119,665.4642679999815,665.7458773999824,665.763242499961,None,up,2.9340914999484085,665.763242499961,None,665.763242499961,666.9454773999751,0.06479029997717589,None,,,,,,,,,9,001,2019_Dec_25_0842,untitled,3.1.0,59.69835614956724,
453,_5,N,180,R,N,453_5N180RN,HRN,0,133,133,276,,,0.986,668.7685545000131,669.110062599997,669.1267061000108,669.4094809999806,669.426844200003,None,None,,669.426844200003,None,669.426844200003,670.3924924000166,0.06446989998221397,None,,,,,,,,,9,001,2019_Dec_25_0842,untitled,3.1.0,59.69835614956724,
_,R,M,225,_,_,_RM225__,N,0,134,134,21,,,1.377,672.9615140999667,673.3065538000083,673.3234833999886,673.6064318999997,673.6227918000077,672.9615140999667,down,2.515358400007244,673.6227918000077,None,673.6227918000077,674.98808619997,0.06414590001804754,None,,,,,,,,,9,001,2019_Dec_25_0842,untitled,3.1.0,59.69835614956724,
164,F,N,135,L,N,164FN135LN,HLN,0,135,135,219,,,0.8190000000000001,676.2107229999965,676.5536329000024,676.5701964999898,676.8532997000148,676.8697195000132,None,up,2.048762499995064,676.8697195000132,None,676.8697195000132,677.669081399974,0.06546789995627478,None,,,,,,,,,9,001,2019_Dec_25_0842,untitled,3.1.0,59.69835614956724,
208,G,M,315,R,N,208GM315RN,HRN,0,136,136,135,,,1.066,679.0107652000152,679.3378589999629,679.3508520000032,679.6346049999702,679.6514640999958,None,down,2.6480276999645866,679.6514640999958,None,679.6514640999958,680.6997255000169,0.08364110003458336,None,,,,,,,,,9,001,2019_Dec_25_0842,untitled,3.1.0,59.69835614956724,
301,_2,M,180,L,N,301_2M180LN,HLN,0,137,137,156,,,0.972,682.3723209999735,682.71513029997,682.7315471000038,683.0149499999825,683.0313422000036,None,None,,683.0313422000036,None,683.0313422000036,683.9801109000109,0.0644179999944754,None,,,,,,,,,9,001,2019_Dec_25_0842,untitled,3.1.0,59.69835614956724,
237,G,M,180,L,N,237GM180LN,HLN,0,138,138,140,,,0.922,686.6683565999847,686.9604658000171,686.9604658000171,687.2108274999773,687.2283644999843,686.6683565999847,down,1.9661748000071384,687.2283644999843,None,687.2283644999843,688.126589099993,0.16449460003059357,None,,,,,,,,,9,001,2019_Dec_25_0842,untitled,3.1.0,59.69835614956724,
229,G,N,180,L,N,229GN180LN,HLN,0,139,139,236,,,1.28,689.3738801999716,689.6758346999995,689.6758346999995,689.909213899984,689.9256541999639,None,down,1.9822387999738567,689.9256541999639,None,689.9256541999639,691.190671599994,0.17182649997994304,None,,,,,,,,,9,001,2019_Dec_25_0842,untitled,3.1.0,59.69835614956724,
_,_5,N,45,_,_,__5N045__,N,0,140,140,89,,,0.89,691.9809721999918,692.3234063999844,692.3399473999743,692.6226854000124,692.6393406999996,None,up,1.8510758000193164,692.6393406999996,None,692.6393406999996,693.5052555999719,0.06488660001195967,None,,,,,,,,,9,001,2019_Dec_25_0842,untitled,3.1.0,59.69835614956724,
198,G,N,225,R,N,198GN225RN,HRN,0,141,141,229,,,1.2590000000000001,694.5626927000121,694.9041234999895,694.920939899981,695.203770299966,695.2202448999742,None,up,2.2818557000136934,695.2202448999742,None,695.2202448999742,696.469455799961,0.06540200003655627,None,,,,,,,,,9,001,2019_Dec_25_0842,untitled,3.1.0,59.69835614956724,
172,F,M,135,L,N,172FM135LN,HLN,0,142,142,123,,,1.292,697.6988593999995,698.0018226999673,698.0018226999673,698.2180671999813,698.2345635999809,None,up,2.2485419000149705,698.2345635999809,None,698.2345635999809,699.5005049000029,0.18945679999887943,None,,,,,,,,,9,001,2019_Dec_25_0842,untitled,3.1.0,59.69835614956724,
002,R,N,45,R,N,002RN045RN,HRN,0,143,143,193,,,0.704,700.6852310000104,700.9819067000062,700.9819067000062,701.1989405999775,701.2163798999973,None,up,1.7815889000194147,701.2163798999973,None,701.2163798999973,701.8983112999704,0.19277740002144128,None,,,,,,,,,9,001,2019_Dec_25_0842,untitled,3.1.0,59.69835614956724,
_,_2,M,315,_,_,__2M315__,N,0,144,144,31,,,1.338,703.068273700017,703.4149634999922,703.4301957999705,703.7131596999825,703.7301128999679,None,down,2.6310971999773756,703.7301128999679,None,703.7301128999679,705.04546449997,0.06238869996741414,None,,,,,,,,,9,001,2019_Dec_25_0842,untitled,3.1.0,59.69835614956724,
138,F,M,45,R,N,138FM045RN,HRN,0,145,145,113,,,1.184,706.4319820000092,706.7772948999773,706.7936290999642,707.0769821999711,707.0936252999818,None,down,2.08295630000066,707.0936252999818,None,707.0936252999818,708.2591371000162,0.06328249996295199,None,,,,,,,,,9,001,2019_Dec_25_0842,untitled,3.1.0,59.69835614956724,
_,_4,N,135,_,_,__4N135__,N,0,146,146,83,,,1.351,709.2497065999778,709.5922097999719,709.6084374999627,709.8914122999995,709.9082498999778,None,down,2.781911800033413,709.9082498999778,None,709.9082498999778,711.239923599991,0.06651230005081743,None,,,,,,,,,9,001,2019_Dec_25_0842,untitled,3.1.0,59.69835614956724,
_,_2,N,0,_,_,__2N000__,N,0,147,147,72,,,1.2610000000000001,712.7652495999937,713.1049157999805,713.1216117999866,713.4047820999986,713.42132329999,None,up,2.764954400015995,713.42132329999,None,713.42132329999,714.6698167999857,0.06639549997635186,None,,,,,,,,,9,001,2019_Dec_25_0842,untitled,3.1.0,59.69835614956724,
_,G,M,270,_,_,_GM270__,N,0,148,148,14,,,0.872,716.3480423999717,716.6374061999959,716.6374061999959,716.9028205999639,716.9028205999639,None,down,2.930636000004597,716.9028205999639,None,716.9028205999639,717.7680700999917,0.15474089997587726,None,,,,,,,,,9,001,2019_Dec_25_0842,untitled,3.1.0,59.69835614956724,
_,_4,M,90,_,_,__4M090__,N,0,149,149,34,,,1.03,719.9040839999798,720.249210399983,720.2651743000024,720.5484580000048,720.5651837000041,None,down,2.0663783999625593,720.5651837000041,None,720.5651837000041,721.5802809000015,0.06358899996848777,None,,,,,,,,,9,001,2019_Dec_25_0842,untitled,3.1.0,59.69835614956724,
_,F,M,315,_,_,_FM315__,N,0,150,150,7,,,1.3940000000000001,722.7817913999897,723.0793524999754,723.0793524999754,723.3462657000055,723.3623683999758,None,down,2.900316799990833,723.3623683999758,None,723.3623683999758,724.7463731999742,0.14305470004910603,None,,,,,,,,,9,001,2019_Dec_25_0842,untitled,3.1.0,59.69835614956724,
008,R,N,315,R,N,008RN315RN,HRN,0,151,151,199,,,1.043,726.33128079999,726.676906800014,726.6929750000127,726.9760456999647,726.9926715999609,None,up,1.917067300004419,726.9926715999609,None,726.9926715999609,728.0257170000114,0.0619175000465475,None,,,,,,,,,9,001,2019_Dec_25_0842,untitled,3.1.0,59.69835614956724,
225,G,N,0,L,N,225GN000LN,HLN,0,152,152,232,,,1.022,728.9821332999854,729.324657399964,729.3431924000033,729.6246822999674,729.641154300014,None,up,1.817011199949775,729.641154300014,None,729.641154300014,730.6397459,0.06530210003256798,None,,,,,,,,,9,001,2019_Dec_25_0842,untitled,3.1.0,59.69835614956724,
390,_4,N,225,R,N,390_4N225RN,HRN,0,153,153,261,,,1.242,731.6693528000033,731.9717708000098,731.9717708000098,732.1718656999874,732.1883851999883,None,down,2.4490526000154205,732.1883851999883,None,732.1883851999883,733.4208857999765,0.20309640001505613,None,,,,,,,,,9,001,2019_Dec_25_0842,untitled,3.1.0,59.69835614956724,
494,_5,M,225,L,N,494_5M225LN,HLN,0,154,154,189,,,1.103,734.7237905999646,735.0522852999857,735.0692519000149,735.352395199996,735.3689353999798,None,up,2.8310798999737017,735.3689353999798,None,735.3689353999798,736.4514148000162,0.07835780002642423,None,,,,,,,,,9,001,2019_Dec_25_0842,untitled,3.1.0,59.69835614956724,
226,G,N,45,L,N,226GN045LN,HLN,0,155,155,233,,,1.014,738.392545300012,738.682493100001,738.682493100001,738.9157855999656,738.932619499974,None,up,3.0475586999673396,738.932619499974,None,738.932619499974,739.9313832999906,0.1850416000233963,None,,,,,,,,,9,001,2019_Dec_25_0842,untitled,3.1.0,59.69835614956724,
141,F,M,180,R,N,141FM180RN,HRN,0,156,156,116,,,1.0050000000000001,742.0586792000104,742.3967582000187,742.4127198999631,742.6974456000025,742.7127156999777,None,down,2.68348700000206,742.7127156999777,None,742.7127156999777,743.6957399999956,0.07159320003120229,None,,,,,,,,,9,001,2019_Dec_25_0842,untitled,3.1.0,59.69835614956724,
_,_2,N,45,_,_,__2N045__,N,0,157,157,73,,,1.0090000000000001,745.4659003000124,745.8100987999933,745.8263077000156,746.1093714999733,746.125972400012,None,up,2.034306599991396,746.125972400012,None,746.125972400012,747.125341499981,0.06317129998933524,None,,,,,,,,,9,001,2019_Dec_25_0842,untitled,3.1.0,59.69835614956724,
493,_5,M,180,L,N,493_5M180LN,HLN,0,158,158,188,,,0.8290000000000001,748.2305904999957,748.5741797999945,748.5906028000172,748.8737723999657,748.8903142999625,None,down,2.4829359999857843,748.8903142999625,None,748.8903142999625,749.7063506999984,0.06392899999627843,None,,,,,,,,,9,001,2019_Dec_25_0842,untitled,3.1.0,59.69835614956724,
485,_5,N,180,L,N,485_5N180LN,HLN,0,159,159,284,,,1.321,751.5651516999933,751.8553687999956,751.8553687999956,752.0886462999624,752.1041613999987,None,up,2.0496078000287525,752.1041613999987,None,752.1041613999987,753.4035429999931,0.18466139998054132,None,,,,,,,,,9,001,2019_Dec_25_0842,untitled,3.1.0,59.69835614956724,
005,R,N,180,R,N,005RN180RN,HRN,0,160,160,196,,,0.9450000000000001,754.3507372000022,754.6524744000053,754.6524744000053,754.8686555000022,754.8861293999944,None,None,,754.8861293999944,None,754.8861293999944,755.8175378000014,0.18907389999367297,None,,,,,,,,,9,001,2019_Dec_25_0842,untitled,3.1.0,59.69835614956724,
462,_5,M,225,R,N,462_5M225RN,HRN,0,161,161,181,,,1.163,758.4390416999813,758.7651390999672,758.7819304000004,759.0649871999631,759.0815058000153,758.4390416999813,up,2.2675554999732412,759.0815058000153,None,759.0815058000153,760.2304363999865,0.08215539995580912,None,,,,,,,,,9,001,2019_Dec_25_0842,untitled,3.1.0,59.69835614956724,
171,F,M,90,L,N,171FM090LN,HLN,0,162,162,122,,,1.306,761.5407187999808,761.829291299975,761.829291299975,762.0624643999618,762.0789781999774,None,down,2.481436800037045,762.0789781999774,None,762.0789781999774,763.360884499969,0.1847254000022076,None,,,,,,,,,9,001,2019_Dec_25_0842,untitled,3.1.0,59.69835614956724,
272,_2,M,315,R,N,272_2M315RN,HRN,0,163,163,151,,,1.029,764.6371679999866,764.9762788999942,764.9931968000019,765.2762816000031,765.2928259000182,None,None,,765.2928259000182,None,765.2928259000182,766.3082599999616,0.06921659997897223,None,,,,,,,,,9,001,2019_Dec_25_0842,untitled,3.1.0,59.69835614956724,
_,_2,M,135,_,_,__2M135__,N,0,164,164,27,,,0.961,768.8281244999962,769.1730825999985,769.1896985999774,769.4727654000162,769.4895948999911,768.8281244999962,down,3.4137700999854133,769.4895948999911,None,769.4895948999911,770.4382386999787,0.06204689998412505,None,,,,,,,,,9,001,2019_Dec_25_0842,untitled,3.1.0,59.69835614956724,
455,_5,N,270,R,N,455_5N270RN,HRN,0,165,165,278,,,1.03,773.079041799996,773.3692752000061,773.3692752000061,773.6190101999673,773.6356563000008,None,up,2.315005399985239,773.6356563000008,None,773.6356563000008,774.6515217999695,0.16838889999780804,None,,,,,,,,,9,001,2019_Dec_25_0842,untitled,3.1.0,59.69835614956724,
168,F,N,315,L,N,168FN315LN,HLN,0,166,166,223,,,1.244,776.1397055999842,776.4335448999773,776.4335448999773,776.6663069999777,776.6828843000112,None,up,2.8315326999872923,776.6828843000112,None,776.6828843000112,777.9153040999663,0.18235710001317784,None,,,,,,,,,9,001,2019_Dec_25_0842,untitled,3.1.0,59.69835614956724,
047,R,M,270,L,N,047RM270LN,HLN,0,167,167,110,,,0.784,779.7051919999649,779.9966512999963,779.9966512999963,780.2299703999888,780.246552800003,None,down,2.297921599994879,780.246552800003,None,780.246552800003,781.0120825999766,0.1820873999968171,None,,,,,,,,,9,001,2019_Dec_25_0842,untitled,3.1.0,59.69835614956724,
450,_5,N,45,R,N,450_5N045RN,HRN,0,168,168,273,,,1.096,782.7134937999654,783.0103952999925,783.0103952999925,783.2602897000033,783.2771691000089,None,up,2.0001918000052683,783.2771691000089,None,783.2771691000089,784.3594802999869,0.16050570004153997,None,,,,,,,,,9,001,2019_Dec_25_0842,untitled,3.1.0,59.69835614956724,
484,_5,N,135,L,N,484_5N135LN,HLN,0,169,169,283,,,0.9480000000000001,785.3475800000015,785.691737999965,785.7086397999665,785.991906100011,786.0078274999978,None,up,1.9162594999652356,786.0078274999978,None,786.0078274999978,786.9411587999784,0.06349050003336743,None,,,,,,,,,9,001,2019_Dec_25_0842,untitled,3.1.0,59.69835614956724,
161,F,N,0,L,N,161FN000LN,HLN,0,170,170,216,,,0.805,788.0168141999748,788.3395273999777,788.357444299967,788.6395236999961,788.6556915999972,None,up,1.483907799993176,788.6556915999972,None,788.6556915999972,789.438495600014,0.08345649996772408,None,,,,,,,,,9,001,2019_Dec_25_0842,untitled,3.1.0,59.69835614956724,
033,R,N,0,L,N,033RN000LN,HLN,0,171,171,200,,,0.753,790.360820700007,790.6538815000094,790.6538815000094,790.8538339000079,790.8703434999916,None,up,2.465721799992025,790.8703434999916,None,790.8703434999916,791.6034801999922,0.21415329998126253,None,,,,,,,,,9,001,2019_Dec_25_0842,untitled,3.1.0,59.69835614956724,
196,G,N,135,R,N,196GN135RN,HRN,0,172,172,227,,,1.206,793.4138317999896,793.7513021999621,793.7683904999867,794.0511221999768,794.0681493000011,None,up,2.4149743000161834,794.0681493000011,None,794.0681493000011,795.2500449999934,0.07027450000168756,None,,,,,,,,,9,001,2019_Dec_25_0842,untitled,3.1.0,59.69835614956724,
_,G,N,45,_,_,_GN045__,N,0,173,173,57,,,0.791,796.6762688999879,796.96511499997,796.96511499997,797.2001680000103,797.2149458999629,None,up,1.6178607000038028,797.2149458999629,None,797.2149458999629,797.9810700999806,0.1858238999848254,None,,,,,,,,,9,001,2019_Dec_25_0842,untitled,3.1.0,59.69835614956724,
166,F,N,225,L,N,166FN225LN,HLN,0,174,174,221,,,1.1,798.9917732999893,799.2795036999742,799.2795036999742,799.5460173999891,799.5625118999742,None,up,2.3510390000301413,799.5625118999742,None,799.5625118999742,800.6452549999813,0.1519723999663256,None,,,,,,,,,9,001,2019_Dec_25_0842,untitled,3.1.0,59.69835614956724,
_,G,M,0,_,_,_GM000__,N,0,175,175,8,,,1.368,802.1128045999794,802.4104528999887,802.4104528999887,802.6269125000108,802.6435503999819,None,down,3.2144464000011794,802.6435503999819,None,802.6435503999819,803.9927133999881,0.19228819996351376,None,,,,,,,,,9,001,2019_Dec_25_0842,untitled,3.1.0,59.69835614956724,
_,R,N,90,_,_,_RN090__,N,0,176,176,66,,,1.339,806.0478488999652,806.340598699986,806.340598699986,806.5736202999833,806.5902725000051,None,up,2.3145935999928042,806.5902725000051,None,806.5902725000051,807.9059272999875,0.18221100000664592,None,,,,,,,,,9,001,2019_Dec_25_0842,untitled,3.1.0,59.69835614956724,
227,G,N,90,L,N,227GN090LN,HLN,0,177,177,234,,,0.8310000000000001,808.9768814999843,809.3212647999753,809.3381889999728,809.6205806999933,809.6387562999735,None,up,1.650456499948632,809.6387562999735,None,809.6387562999735,810.453378700011,0.0647461999906227,None,,,,,,,,,9,001,2019_Dec_25_0842,untitled,3.1.0,59.69835614956724,
037,R,N,180,L,N,037RN180LN,HLN,0,178,178,204,,,1.063,811.4631062999833,811.7520903999684,811.7520903999684,812.0024421999697,812.0185811999836,None,down,3.29960020002909,812.0185811999836,None,812.0185811999836,813.0678707999759,0.1653647999628447,None,,,,,,,,,9,001,2019_Dec_25_0842,untitled,3.1.0,59.69835614956724,
233,G,M,0,L,N,233GM000LN,HLN,0,179,179,136,,,0.884,815.5052145000082,815.7986215999699,815.7986215999699,816.0322663999978,816.049039400008,None,None,,816.049039400008,None,816.049039400008,816.9149324999889,0.1797198000131175,None,,,,,,,,,9,001,2019_Dec_25_0842,untitled,3.1.0,59.69835614956724,
_,F,N,90,_,_,_FN090__,N,0,180,180,50,,,0.8180000000000001,819.699586600007,819.9951868999633,819.9951868999633,820.2307233000174,820.2458708999911,819.699586600007,up,2.0816117000067607,820.2458708999911,None,820.2458708999911,821.0443667999934,0.17947700002696365,None,,,,,,,,,9,001,2019_Dec_25_0842,untitled,3.1.0,59.69835614956724,
036,R,N,135,L,N,036RN135LN,HLN,0,181,181,203,,,0.712,822.3987755000126,822.743267999962,822.7594294999726,823.0423291999614,823.0592410999816,None,up,1.401359700015746,823.0592410999816,None,823.0592410999816,823.7589444000041,0.06445990002248436,None,,,,,,,,,9,001,2019_Dec_25_0842,untitled,3.1.0,59.69835614956724,
162,F,N,45,L,N,162FN045LN,HLN,0,182,182,217,,,0.936,824.538039600011,824.8743382999673,824.8911231000093,825.1819759999635,825.1819759999635,None,up,1.8908624000032432,825.1819759999635,None,825.1819759999635,826.1065184000181,0.06921470002271235,None,,,,,,,,,9,001,2019_Dec_25_0842,untitled,3.1.0,59.69835614956724,
176,F,M,315,L,N,176FM315LN,HLN,0,183,183,127,,,0.835,827.1433889999753,827.4891058999929,827.5055738000083,827.7895283999969,827.8049926999956,None,down,2.7005491000018083,827.8049926999956,None,827.8049926999956,828.6214006000082,0.063642900029663,None,,,,,,,,,9,001,2019_Dec_25_0842,untitled,3.1.0,59.69835614956724,
_,_2,N,135,_,_,__2N135__,N,0,184,184,75,,,0.988,830.5783978999825,830.9194904000033,830.9359577000141,831.2186809999985,831.2353453999967,None,up,2.9647581999888644,831.2353453999967,None,831.2353453999967,832.2012247999664,0.06599480001023039,None,,,,,,,,,9,001,2019_Dec_25_0842,untitled,3.1.0,59.69835614956724,
489,_5,M,0,L,N,489_5M000LN,HLN,0,185,185,184,,,1.147,834.2706548999995,834.6159167999867,834.632449799974,834.9158924999647,834.9326006000047,None,down,2.500054900010582,834.9326006000047,None,834.9326006000047,836.0649192999699,0.06392310000956059,None,,,,,,,,,9,001,2019_Dec_25_0842,untitled,3.1.0,59.69835614956724,
_,R,M,135,_,_,_RM135__,N,0,186,186,19,,,1.028,837.5186637999723,837.8467174000107,837.8634170999867,838.1468439999735,838.1643803999759,None,down,2.8301742000039667,838.1643803999759,None,838.1643803999759,839.178700199991,0.07692970003699884,None,,,,,,,,,9,001,2019_Dec_25_0842,untitled,3.1.0,59.69835614956724,
174,F,M,225,L,N,174FM225LN,HLN,0,187,187,125,,,0.895,841.0663459000061,841.4098266999936,841.4268830000074,841.7099596000044,841.7264831999782,None,None,,841.7264831999782,None,841.7264831999782,842.6085872999975,0.0646159999887459,None,,,,,,,,,9,001,2019_Dec_25_0842,untitled,3.1.0,59.69835614956724,
_,G,M,315,_,_,_GM315__,N,0,188,188,15,,,1.1520000000000001,845.2636649999768,845.6061688999762,845.6231652999995,845.9063800000004,845.922499999986,845.2636649999768,None,,845.922499999986,None,845.922499999986,847.0547299999744,0.06643910001730546,None,,,,,,,,,9,001,2019_Dec_25_0842,untitled,3.1.0,59.69835614956724,
397,_4,M,180,R,N,397_4M180RN,HRN,0,189,189,164,,,1.08,849.567890700011,849.8692960999906,849.8692960999906,850.1025651000091,850.119037299999,849.567890700011,down,2.098646500031464,850.119037299999,None,850.119037299999,851.1842244999716,0.1751343000214547,None,,,,,,,,,9,001,2019_Dec_25_0842,untitled,3.1.0,59.69835614956724,
259,_2,N,90,R,N,259_2N090RN,HRN,0,190,190,242,,,1.379,852.2890269999625,852.6332986999769,852.6502964000101,852.9345653000055,852.9506530999788,None,up,2.4823678000248037,852.9506530999788,None,852.9506530999788,854.315155099961,0.06454409996513277,None,,,,,,,,,9,001,2019_Dec_25_0842,untitled,3.1.0,59.69835614956724,
194,G,N,45,R,N,194GN045RN,HRN,0,191,191,225,,,0.855,855.5028171999729,855.8473752000136,855.8641287999926,856.1472050999873,856.1636022999883,None,up,1.8993123000254855,856.1636022999883,None,856.1636022999883,856.9962454999913,0.06323090003570542,None,,,,,,,,,9,001,2019_Dec_25_0842,untitled,3.1.0,59.69835614956724,
483,_5,N,90,L,N,483_5N090LN,HLN,0,192,192,282,,,1.1520000000000001,858.1355307999766,858.4789414000115,858.4954241999658,858.7778672999702,858.7951765999896,None,up,2.117191199969966,858.7951765999896,None,858.7951765999896,859.9279943999718,0.06560460000764579,None,,,,,,,,,9,001,2019_Dec_25_0842,untitled,3.1.0,59.69835614956724,
015,R,M,270,R,N,015RM270RN,HRN,0,193,193,102,,,1.23,860.9971409999998,861.3254947999958,861.3422996000154,861.6256293999613,861.64226589998,None,None,,861.64226589998,None,861.64226589998,862.857556300005,0.07675389997893944,None,,,,,,,,,9,001,2019_Dec_25_0842,untitled,3.1.0,59.69835614956724,
391,_4,N,270,R,N,391_4N270RN,HRN,0,194,194,262,,,1.2610000000000001,865.1992348000058,865.5224320999696,865.5402100000065,865.8216157999705,865.8382640999625,865.1992348000058,down,2.232055600034073,865.8382640999625,None,865.8382640999625,867.0877903999644,0.06458060001023114,None,,,,,,,,,9,001,2019_Dec_25_0842,untitled,3.1.0,59.69835614956724,
041,R,M,0,L,N,041RM000LN,HLN,0,195,195,104,,,1.385,868.2503573999857,868.5389886999619,868.5389886999619,868.7863788999966,868.8025113000185,None,down,2.5013430999824777,868.8025113000185,None,868.8025113000185,870.1686146999709,0.17242349998559803,None,,,,,,,,,9,001,2019_Dec_25_0842,untitled,3.1.0,59.69835614956724,
006,R,N,225,R,N,006RN225RN,HRN,0,196,196,197,,,0.915,871.3758448999724,871.7169554000138,871.7341951999697,872.016814099974,872.0329544999986,None,up,2.68285649997415,872.0329544999986,None,872.0329544999986,872.9320750000188,0.06523360003484413,None,,,,,,,,,9,001,2019_Dec_25_0842,untitled,3.1.0,59.69835614956724,
292,_2,N,135,L,N,292_2N135LN,HLN,0,197,197,251,,,0.989,874.7887073999736,875.1423890999868,875.1487068000133,875.4304597000009,875.4464479999733,None,up,2.4671673999982886,875.4464479999733,None,875.4464479999733,876.4123753000167,0.06613699998706579,None,,,,,,,,,9,001,2019_Dec_25_0842,untitled,3.1.0,59.69835614956724,
_,_4,N,180,_,_,__4N180__,N,0,198,198,84,,,0.7000000000000001,877.9999569999636,878.3282801000169,878.3446314000175,878.6278235999634,878.6441630999907,None,up,1.7154956000158563,878.6441630999907,None,878.6441630999907,879.3264859999763,0.07865739997942,None,,,,,,,,,9,001,2019_Dec_25_0842,untitled,3.1.0,59.69835614956724,
_,_4,M,180,_,_,__4M180__,N,0,199,199,36,,,1.256,880.4291262999759,880.7760277999914,880.7929707000148,881.0759295999887,881.0927069999743,None,down,2.2977738000336103,881.0927069999743,None,881.0927069999743,882.3240363000077,0.06269079999765381,None,,,,,,,,,9,001,2019_Dec_25_0842,untitled,3.1.0,59.69835614956724,
014,R,M,225,R,N,014RM225RN,HRN,0,200,200,101,,,0.9410000000000001,883.4602642999962,883.8061797000119,883.8238803999848,884.1057689000154,884.1224647999625,None,None,,884.1224647999625,None,884.1224647999625,885.0393279999844,0.06260780000593513,None,,,,,,,,,9,001,2019_Dec_25_0842,untitled,3.1.0,59.69835614956724,
131,F,N,90,R,N,131FN090RN,HRN,0,201,201,210,,,1.17,887.6574417999946,888.0025817999849,888.0192316999892,888.3025417000172,888.3192720999941,887.6574417999946,up,2.1158755000215024,888.3192720999941,None,888.3192720999941,889.4678707999992,0.06310299999313429,None,,,,,,,,,9,001,2019_Dec_25_0842,untitled,3.1.0,59.69835614956724,
490,_5,M,45,L,N,490_5M045LN,HLN,0,202,202,185,,,1.381,890.5170556000085,890.8505704000127,890.8667174999719,891.1496654999792,891.1661279000109,None,down,2.548318199987989,891.1661279000109,None,891.1661279000109,892.5317931000027,0.07286249997559935,None,,,,,,,,,9,001,2019_Dec_25_0842,untitled,3.1.0,59.69835614956724,
003,R,N,90,R,N,003RN090RN,HRN,0,203,203,194,,,0.9550000000000001,893.7852873000083,894.1307010999881,894.1472461000085,894.4302883999771,894.4468118000077,None,up,2.582317700027488,894.4468118000077,None,894.4468118000077,895.3801464000135,0.06396080000558868,None,,,,,,,,,9,001,2019_Dec_25_0842,untitled,3.1.0,59.69835614956724,
_,G,N,0,_,_,_GN000__,N,0,204,204,56,,,0.757,897.2330209999927,897.5277234999812,897.5277234999812,897.7442157000187,897.7615455999621,None,up,1.5480171999661252,897.7615455999621,None,897.7615455999621,898.4935583000188,0.19667169998865575,None,,,,,,,,,9,001,2019_Dec_25_0842,untitled,3.1.0,59.69835614956724,
423,_4,N,270,L,N,423_4N270LN,HLN,0,205,205,270,,,0.922,899.3820526999771,899.725746000011,899.7426785000134,900.0254966999637,900.0425258000032,None,up,2.7807828999939375,900.0425258000032,None,900.0425258000032,900.9414098999696,0.06554179999511689,None,,,,,,,,,9,001,2019_Dec_25_0842,untitled,3.1.0,59.69835614956724,
040,R,N,315,L,N,040RN315LN,HLN,0,206,206,207,,,0.705,902.9081296999939,903.2399189000134,903.2561564999633,903.5395976,903.555352299998,None,up,1.815861999988556,903.555352299998,None,903.555352299998,904.2385140999686,0.077429500001017,None,,,,,,,,,9,001,2019_Dec_25_0842,untitled,3.1.0,59.69835614956724,
270,_2,M,225,R,N,270_2M225RN,HRN,0,207,207,149,,,1.32,905.4425395000144,905.7886061000172,905.8040575999767,906.0878642000025,906.103465799999,None,down,2.7158862999640405,906.103465799999,None,906.103465799999,907.4026748000178,0.06442790001165122,None,,,,,,,,,9,001,2019_Dec_25_0842,untitled,3.1.0,59.69835614956724,
_,_4,N,315,_,_,__4N315__,N,0,208,208,87,,,1.353,908.8956607999862,909.234243599989,909.2513981999946,909.5337524999632,909.550539000018,None,up,2.6324590999865904,909.550539000018,None,909.550539000018,910.8829911999637,0.06875380000565201,None,,,,,,,,,9,001,2019_Dec_25_0842,untitled,3.1.0,59.69835614956724,
_,R,N,45,_,_,_RN045__,N,0,209,209,65,,,1.379,912.3679238000186,912.6643050999846,912.6643050999846,912.897929299972,912.91434139997,None,up,2.798119899991434,912.91434139997,None,912.91434139997,914.2793864000123,0.17324749997351319,None,,,,,,,,,9,001,2019_Dec_25_0842,untitled,3.1.0,59.69835614956724,
459,_5,M,90,R,N,459_5M090RN,HRN,0,210,210,178,,,0.898,915.7851863999967,916.1281012999825,916.144840199966,916.4276510999771,916.4443140999647,None,down,3.115221999993082,916.4443140999647,None,916.4443140999647,917.327229699993,0.06601710000541061,None,,,,,,,,,9,001,2019_Dec_25_0842,untitled,3.1.0,59.69835614956724,
294,_2,N,225,L,N,294_2N225LN,HLN,0,211,211,253,,,1.104,919.6308381999843,919.9760785999824,919.9913976999815,920.2749078999623,920.2918472000165,None,up,2.2157048999797553,920.2918472000165,None,920.2918472000165,921.3742266999907,0.06485359999351203,None,,,,,,,,,9,001,2019_Dec_25_0842,untitled,3.1.0,59.69835614956724,
_,R,M,180,_,_,_RM180__,N,0,212,212,20,,,0.923,922.5784832999925,922.9221633999841,922.9388088000123,923.2224211000139,923.2387177000055,None,down,2.981400799995754,923.2387177000055,None,923.2387177000055,924.1376628999715,0.06441729998914525,None,,,,,,,,,9,001,2019_Dec_25_0842,untitled,3.1.0,59.69835614956724,
199,G,N,270,R,N,199GN270RN,HRN,0,213,213,230,,,1.3900000000000001,926.2901382999844,926.6355196000077,926.6537871999899,926.9353009000188,926.952089599974,None,up,2.4481855000485666,926.952089599974,None,926.952089599974,928.3175754999975,0.06257400003960356,None,,,,,,,,,9,001,2019_Dec_25_0842,untitled,3.1.0,59.69835614956724,
165,F,N,180,L,N,165FN180LN,HLN,0,214,214,220,,,1.0070000000000001,929.5939672999666,929.8828566999873,929.8828566999873,930.1158725999994,930.1322822999791,None,None,,930.1322822999791,None,930.1322822999791,931.114838199981,0.1836598999798298,None,,,,,,,,,9,001,2019_Dec_25_0842,untitled,3.1.0,59.69835614956724,
013,R,M,180,R,N,013RM180RN,HRN,0,215,215,100,,,0.84,933.6712671999703,934.0124203999876,934.0295604999992,934.3121429000166,934.3295154999942,933.6712671999703,down,2.3168655000044964,934.3295154999942,None,934.3295154999942,935.1611440000124,0.06727529998170212,None,,,,,,,,,9,001,2019_Dec_25_0842,untitled,3.1.0,59.69835614956724,
_,R,N,225,_,_,_RN225__,N,0,216,216,69,,,0.8320000000000001,936.7163037999999,937.060069900006,937.0766762999701,937.3595952999895,937.3762501999736,None,up,2.049800300039351,937.3762501999736,None,937.3762501999736,938.1924767000019,0.06324200000381097,None,,,,,,,,,9,001,2019_Dec_25_0842,untitled,3.1.0,59.69835614956724,
269,_2,M,180,R,N,269_2M180RN,HRN,0,217,217,148,,,0.8220000000000001,939.5031871999963,939.8418577999691,939.8586495000054,940.1412268999848,940.1578131999704,None,up,3.1327345999889076,940.1578131999704,None,940.1578131999704,940.9561699000187,0.06974789995001629,None,,,,,,,,,9,001,2019_Dec_25_0842,untitled,3.1.0,59.69835614956724,
240,G,M,315,L,N,240GM315LN,HLN,0,218,218,143,,,1.258,943.4833291000105,943.770950599981,943.770950599981,944.0039610000094,944.0205966999638,None,down,2.965122799971141,944.0205966999638,None,944.0205966999638,945.2692936999956,0.1840680000022985,None,,,,,,,,,9,001,2019_Dec_25_0842,untitled,3.1.0,59.69835614956724,
463,_5,M,270,R,N,463_5M270RN,HRN,0,219,219,182,,,1.111,947.184859299974,947.4843400999671,947.4843400999671,947.7007873000111,947.7173697999679,None,down,3.3990702000446618,947.7173697999679,None,947.7173697999679,948.81658839999,0.1898450000444427,None,,,,,,,,,9,001,2019_Dec_25_0842,untitled,3.1.0,59.69835614956724,
262,_2,N,225,R,N,262_2N225RN,HRN,0,220,220,245,,,0.802,951.1855303999619,951.5314089999883,951.5476368999807,951.8303699999815,951.8476855999907,None,up,1.8480985999922268,951.8476855999907,None,951.8476855999907,952.629529399972,0.0625131000415422,None,,,,,,,,,9,001,2019_Dec_25_0842,untitled,3.1.0,59.69835614956724,
482,_5,N,45,L,N,482_5N045LN,HLN,0,221,221,281,,,1.268,953.7695126999752,954.1116816999856,954.1285434999736,954.4115814999677,954.4284904999658,None,up,2.017012100026477,954.4284904999658,None,954.4284904999658,955.6773168999935,0.06724919995758682,None,,,,,,,,,9,001,2019_Dec_25_0842,untitled,3.1.0,59.69835614956724,
421,_4,N,180,L,N,421_4N180LN,HLN,0,222,222,268,,,1.364,956.5175524000078,956.8595281000016,956.8757269000052,957.1595438999939,957.1757297000149,None,down,2.5655158000299707,957.1757297000149,None,957.1757297000149,958.5250969000044,0.06549680000171065,None,,,,,,,,,9,001,2019_Dec_25_0842,untitled,3.1.0,59.69835614956724,
265,_2,M,0,R,N,265_2M000RN,HRN,0,223,223,144,,,1.0170000000000001,959.8210594999837,960.1572549999692,960.1729213999934,960.456055299961,960.4727277999627,None,None,,960.4727277999627,None,960.4727277999627,961.4717164000031,0.07222080003703013,None,,,,,,,,,9,001,2019_Dec_25_0842,untitled,3.1.0,59.69835614956724,
_,G,N,225,_,_,_GN225__,N,0,224,224,61,,,1.06,964.0093601999688,964.3529793999624,964.3695110999979,964.6526608999702,964.6690867000143,964.0093601999688,up,2.449185099976603,964.6690867000143,None,964.6690867000143,965.7183633999666,0.06657540000742301,None,,,,,,,,,9,001,2019_Dec_25_0842,untitled,3.1.0,59.69835614956724,
_,F,N,0,_,_,_FN000__,N,0,225,225,48,,,0.937,967.3354054999654,967.6333308999892,967.6333308999892,967.8334129999857,967.8500526999705,None,up,1.9834853999782354,967.8500526999705,None,967.8500526999705,968.7656054999679,0.20725939999101683,None,,,,,,,,,9,001,2019_Dec_25_0842,untitled,3.1.0,59.69835614956724,
302,_2,M,225,L,N,302_2M225LN,HLN,0,226,226,157,,,1.016,969.9038419999997,970.247796599986,970.2641376999673,970.5474735000171,970.5643070999649,None,up,2.66401239996776,970.5643070999649,None,970.5643070999649,971.5626688000048,0.06323480000719428,None,,,,,,,,,9,001,2019_Dec_25_0842,untitled,3.1.0,59.69835614956724,
046,R,M,225,L,N,046RM225LN,HLN,0,227,227,109,,,1.284,973.4077146999771,973.7096560999635,973.7096560999635,973.9450092999614,973.960616299999,None,down,2.565269799961243,973.960616299999,None,973.960616299999,975.2265833999845,0.17236100003356114,None,,,,,,,,,9,001,2019_Dec_25_0842,untitled,3.1.0,59.69835614956724,
_,_5,N,90,_,_,__5N090__,N,0,228,228,90,,,1.314,976.704837199999,976.9938083000015,976.9938083000015,977.2416175999679,977.2582047000178,None,up,2.0991371999843977,977.2582047000178,None,977.2582047000178,978.5570332999923,0.17129959998419508,None,,,,,,,,,9,001,2019_Dec_25_0842,untitled,3.1.0,59.69835614956724,
_,G,M,180,_,_,_GM180__,N,0,229,229,12,,,0.713,979.4270635999856,979.7728214999661,979.7891621000017,980.0724671999924,980.0886380000156,None,down,2.0168193000135943,980.0886380000156,None,980.0886380000156,980.7894404999679,0.06259699998190627,None,,,,,,,,,9,001,2019_Dec_25_0842,untitled,3.1.0,59.69835614956724,
298,_2,M,45,L,N,298_2M045LN,HLN,0,230,230,153,,,0.924,982.1851337999688,982.520560999983,982.5372287000064,982.8203203000012,982.8384315000148,None,down,2.4821020000381395,982.8384315000148,None,982.8384315000148,983.7358700999757,0.07211259996984154,None,,,,,,,,,9,001,2019_Dec_25_0842,untitled,3.1.0,59.69835614956724,
456,_5,N,315,R,N,456_5N315RN,HRN,0,231,231,279,,,0.861,985.3922689000028,985.733814599982,985.7506069999654,986.0341133999755,986.0505630999687,None,up,1.8172481000074185,986.0505630999687,None,986.0505630999687,986.8993316999986,0.06495939998421818,None,,,,,,,,,9,001,2019_Dec_25_0842,untitled,3.1.0,59.69835614956724,
396,_4,M,135,R,N,396_4M135RN,HRN,0,232,232,163,,,1.143,987.9415120999911,988.2818984999903,988.2986021999968,988.5817432999611,988.5981938000186,None,down,2.4649880999932066,988.5981938000186,None,988.5981938000186,989.7310541999759,0.06597710005007684,None,,,,,,,,,9,001,2019_Dec_25_0842,untitled,3.1.0,59.69835614956724,
491,_5,M,90,L,N,491_5M090LN,HLN,0,233,233,186,,,0.853,991.1360296999919,991.4792405999615,991.4960524999769,991.779048700002,991.7956022999715,None,down,2.3839899999438785,991.7956022999715,None,991.7956022999715,992.6279745000065,0.0660996999940835,None,,,,,,,,,9,001,2019_Dec_25_0842,untitled,3.1.0,59.69835614956724,
267,_2,M,90,R,N,267_2M090RN,HRN,0,234,234,146,,,0.7020000000000001,994.2613480999717,994.5940441999701,994.6099044000148,994.893103600014,994.9094365999917,None,down,1.9152545999968424,994.9094365999917,None,994.9094365999917,995.5924593000091,0.07323549996362999,None,,,,,,,,,9,001,2019_Dec_25_0842,untitled,3.1.0,59.69835614956724,
_,_4,M,45,_,_,__4M045__,N,0,235,235,33,,,1.03,996.8949345999863,997.2422155999811,997.2578590000048,997.5406949999742,997.5571931999875,None,down,1.9656531999935396,997.5571931999875,None,997.5571931999875,998.5737635999685,0.0633133000228554,None,,,,,,,,,9,001,2019_Dec_25_0842,untitled,3.1.0,59.69835614956724,
004,R,N,135,R,N,004RN135RN,HRN,0,236,236,195,,,1.361,999.5949886000017,999.9382738000131,999.9548709999654,1000.2384962000069,1000.2545285999659,None,up,2.518005899968557,1000.2545285999659,None,1000.2545285999659,1001.6036957000033,0.06515789998229593,None,,,,,,,,,9,001,2019_Dec_25_0842,untitled,3.1.0,59.69835614956724,
_,R,N,315,_,_,_RN315__,N,0,237,237,71,,,0.721,1002.8591708000167,1003.1856977000134,1003.2027089999756,1003.4857859999756,1003.5020286999643,None,up,1.6990976000088267,1003.5020286999643,None,1003.5020286999643,1004.2021077999962,0.07869200001005083,None,,,,,,,,,9,001,2019_Dec_25_0842,untitled,3.1.0,59.69835614956724,
_,G,M,45,_,_,_GM045__,N,0,238,238,9,,,0.785,1005.2706625999999,1005.6170698999777,1005.6331430000137,1005.9167372999946,1005.9335228999844,None,down,1.8842545000370592,1005.9335228999844,None,1005.9335228999844,1006.6994511999656,0.06280830001924187,None,,,,,,,,,9,001,2019_Dec_25_0842,untitled,3.1.0,59.69835614956724,
_,G,M,135,_,_,_GM135__,N,0,239,239,11,,,0.854,1007.8923030999722,1008.2319622999639,1008.2476928000106,1008.5310255999793,1008.5479422999779,None,down,2.697720099997241,1008.5479422999779,None,1008.5479422999779,1009.3801326999674,0.06765929999528453,None,,,,,,,,,9,001,2019_Dec_25_0842,untitled,3.1.0,59.69835614956724,
_,_5,M,315,_,_,__5M315__,N,0,240,240,47,,,1.056,1011.339590299991,1011.6617762999958,1011.6785526999738,1011.9618127999711,1011.9784707999788,None,down,2.26636279997183,1011.9784707999788,None,1011.9784707999788,1013.0135149999987,0.08668449998367578,None,,,,,,,,,9,001,2019_Dec_25_0842,untitled,3.1.0,59.69835614956724,
239,G,M,270,L,N,239GM270LN,HLN,0,241,241,142,,,1.098,1014.3460283000022,1014.6595822999952,1014.676092699985,1014.9588063000119,1014.9748451999621,None,down,2.250958599965088,1014.9748451999621,None,1014.9748451999621,1016.057980499987,0.09144350001588464,None,,,,,,,,,9,001,2019_Dec_25_0842,untitled,3.1.0,59.69835614956724,
235,G,M,90,L,N,235GM090LN,HLN,0,242,242,138,,,1.311,1017.3907504999661,1017.689607999986,1017.689607999986,1017.9394108999986,1017.9560302000027,None,down,2.1490772999823093,1017.9560302000027,None,1017.9560302000027,1019.2553071000148,0.15484279999509454,None,,,,,,,,,9,001,2019_Dec_25_0842,untitled,3.1.0,59.69835614956724,
394,_4,M,45,R,N,394_4M045RN,HRN,0,243,243,161,,,1.3880000000000001,1020.1799400000018,1020.5204141999711,1020.5370101999724,1020.8205879000016,1020.8369865000132,None,down,2.2651366000063717,1020.8369865000132,None,1020.8369865000132,1022.2024387000129,0.06802100001368672,None,,,,,,,,,9,001,2019_Dec_25_0842,untitled,3.1.0,59.69835614956724,
425,_4,M,0,L,N,425_4M000LN,HLN,0,244,244,168,,,1.016,1023.1735453999718,1023.5179370999685,1023.5346973999985,1023.817836400005,1023.8342058999697,None,up,1.9996850999887101,1023.8342058999697,None,1023.8342058999697,1024.8334525999962,0.06447079998906702,None,,,,,,,,,9,001,2019_Dec_25_0842,untitled,3.1.0,59.69835614956724,
_,R,N,270,_,_,_RN270__,N,0,245,245,70,,,1.109,1025.9112352000084,1026.2487468000036,1026.2656582999625,1026.5490396000096,1026.565466,None,up,1.8660369000281207,1026.565466,None,1026.565466,1027.6647898000083,0.06991199997719377,None,,,,,,,,,9,001,2019_Dec_25_0842,untitled,3.1.0,59.69835614956724,
_,F,M,180,_,_,_FM180__,N,0,246,246,4,,,1.0070000000000001,1028.5026211999939,1028.8469222999993,1028.8636857999954,1029.1460940999677,1029.1627960000187,None,down,2.3487820999580435,1029.1627960000187,None,1029.1627960000187,1030.145350900013,0.06285980000393465,None,,,,,,,,,9,001,2019_Dec_25_0842,untitled,3.1.0,59.69835614956724,
_,R,N,135,_,_,_RN135__,N,0,247,247,67,,,1.008,1031.5864445000188,1031.9274685999844,1031.944399399974,1032.2272387999692,1032.2448633000022,None,up,2.8637333000078797,1032.2448633000022,None,1032.2448633000022,1033.2261209000135,0.06801779998932034,None,,,,,,,,,9,001,2019_Dec_25_0842,untitled,3.1.0,59.69835614956724,
424,_4,N,315,L,N,424_4N315LN,HLN,0,248,248,271,,,0.795,1035.2028993999702,1035.524508900009,1035.5413742999663,1035.824145099963,1035.840848199965,None,up,2.234839299984742,1035.840848199965,None,1035.840848199965,1036.6229528000113,0.06414649996440858,None,,,,,,,,,9,001,2019_Dec_25_0842,untitled,3.1.0,59.69835614956724,
228,G,N,135,L,N,228GN135LN,HLN,0,249,249,235,,,1.1520000000000001,1038.14707549999,1038.4885086999857,1038.5048227999941,1038.7883551999694,1038.8046838999726,None,up,2.6155697999638505,1038.8046838999726,None,1038.8046838999726,1039.9369905999629,0.06392699998104945,None,,,,,,,,,9,001,2019_Dec_25_0842,untitled,3.1.0,59.69835614956724,
257,_2,N,0,R,N,257_2N000RN,HRN,0,250,250,240,,,0.755,1041.490858300007,1041.8356405000086,1041.8523610999691,1042.1348956999718,1042.1524987000157,None,up,1.501369400008116,1042.1524987000157,None,1042.1524987000157,1042.8847163000028,0.063958199985791,None,,,,,,,,,9,001,2019_Dec_25_0842,untitled,3.1.0,59.69835614956724,
_,F,N,270,_,_,_FN270__,N,0,251,251,54,,,0.8280000000000001,1043.7257389000151,1044.0672516999766,1044.0835304000066,1044.3669283000054,1044.3828313999693,None,up,2.415056199999526,1044.3828313999693,None,1044.3828313999693,1045.2003269999987,0.06504299998050556,None,,,,,,,,,9,001,2019_Dec_25_0842,untitled,3.1.0,59.69835614956724,
173,F,M,180,L,N,173FM180LN,HLN,0,252,252,124,,,0.9590000000000001,1046.8731786999851,1047.214027500013,1047.2307080000173,1047.5136044999817,1047.530663899961,None,down,2.5481826000032015,1047.530663899961,None,1047.530663899961,1048.4633361999877,0.0683452999801375,None,,,,,,,,,9,001,2019_Dec_25_0842,untitled,3.1.0,59.69835614956724,
293,_2,N,180,L,N,293_2N180LN,HLN,0,253,253,252,,,0.8160000000000001,1050.1513060000143,1050.4945293999626,1050.511553499964,1050.7945389999659,1050.8109269000124,None,up,2.632547200017143,1050.8109269000124,None,1050.8109269000124,1051.6097059000167,0.06487840000772849,None,,,,,,,,,9,001,2019_Dec_25_0842,untitled,3.1.0,59.69835614956724,
_,_2,N,90,_,_,__2N090__,N,0,254,254,74,,,1.078,1053.5287727999967,1053.8578422999708,1053.8747469999944,1054.157846099988,1054.17451599997,None,up,1.9483537999913096,1054.17451599997,None,1054.17451599997,1055.2405682000099,0.07744369999272749,None,,,,,,,,,9,001,2019_Dec_25_0842,untitled,3.1.0,59.69835614956724,
007,R,N,270,R,N,007RN270RN,HRN,0,255,255,198,,,1.215,1056.2000617000158,1056.5392950999667,1056.555960299971,1056.8392601999803,1056.856505099975,None,None,,1056.856505099975,None,1056.856505099975,1058.0542530000093,0.0696969999698922,None,,,,,,,,,9,001,2019_Dec_25_0842,untitled,3.1.0,59.69835614956724,
418,_4,N,45,L,N,418_4N045LN,HLN,0,256,256,265,,,1.012,1060.4043211999815,1060.7354444999946,1060.7522900999757,1061.0349948999938,1061.0515559999621,1060.4043211999815,up,1.865755699982401,1061.0515559999621,None,1061.0515559999621,1062.0513251000084,0.07568079995689914,None,,,,,,,,,9,001,2019_Dec_25_0842,untitled,3.1.0,59.69835614956724,
206,G,M,225,R,N,206GM225RN,HRN,0,257,257,133,,,1.024,1063.0072691999958,1063.3330409000046,1063.3499917999725,1063.6329685999663,1063.6499294000096,None,up,2.7327796000172384,1063.6499294000096,None,1063.6499294000096,1064.6488023999846,0.0819278999697417,None,,,,,,,,,9,001,2019_Dec_25_0842,untitled,3.1.0,59.69835614956724,
_,G,N,180,_,_,_GN180__,N,0,258,258,60,,,0.925,1066.4653095999965,1066.7971811000025,1066.8138766000047,1067.096996999986,1067.1135269000079,None,None,,1067.1135269000079,None,1067.1135269000079,1068.0291457999847,0.07403729995712638,None,,,,,,,,,9,001,2019_Dec_25_0842,untitled,3.1.0,59.69835614956724,
_,_4,M,225,_,_,__4M225__,N,0,259,259,37,,,1.234,1070.6479401999968,1070.9929819999961,1071.010217699979,1071.2934541999712,1071.3097485000035,1070.6479401999968,up,3.386017399956472,1071.3097485000035,None,1071.3097485000035,1072.5250193999964,0.06393439997918904,None,,,,,,,,,9,001,2019_Dec_25_0842,untitled,3.1.0,59.69835614956724,
460,_5,M,135,R,N,460_5M135RN,HRN,0,260,260,179,,,0.709,1074.7961465999833,1075.1061076999758,1075.1227963999845,1075.405870299961,1075.4225427999627,None,up,3.2491153999581,1075.4225427999627,None,1075.4225427999627,1076.1221757999738,0.08953910000855103,None,,,,,,,,,9,001,2019_Dec_25_0842,untitled,3.1.0,59.69835614956724,
238,G,M,225,L,N,238GM225LN,HLN,0,261,261,141,,,0.886,1078.741701299965,1079.0865666000172,1079.1031587999896,1079.3853961999994,1079.4021780000185,None,down,2.498556100006681,1079.4021780000185,None,1079.4021780000185,1080.268761400017,0.06278300000121817,None,,,,,,,,,9,001,2019_Dec_25_0842,untitled,3.1.0,59.69835614956724,
_,F,N,135,_,_,_FN135__,N,0,262,262,51,,,1.073,1081.9826409000088,1082.3166393999709,1082.333414599998,1082.6168201999972,1082.6329236999736,None,up,3.3320875000208616,1082.6329236999736,None,1082.6329236999736,1083.6822663999628,0.07313530001556501,None,,,,,,,,,9,001,2019_Dec_25_0842,untitled,3.1.0,59.69835614956724,
236,G,M,135,L,N,236GM135LN,HLN,0,263,263,139,,,0.9520000000000001,1086.0341300999862,1086.3796834999812,1086.3967356999638,1086.6800698000006,1086.699853099999,None,down,2.3945701000047848,1086.699853099999,None,1086.699853099999,1087.629315899976,0.06163149996427819,None,,,,,,,,,9,001,2019_Dec_25_0842,untitled,3.1.0,59.69835614956724,
_,F,M,45,_,_,_FM045__,N,0,264,264,1,,,0.856,1089.1702765999944,1089.5116964000044,1089.5273392999661,1089.8102308000089,1089.827042000019,None,down,1.8339421999990009,1089.827042000019,None,1089.827042000019,1090.6592734999722,0.06930769997416064,None,,,,,,,,,9,001,2019_Dec_25_0842,untitled,3.1.0,59.69835614956724,
495,_5,M,270,L,N,495_5M270LN,HLN,0,265,265,190,,,0.777,1091.7323226999724,1092.0748607999994,1092.0912505000015,1092.374745499983,1092.3912008000189,None,down,2.0834234000067227,1092.3912008000189,None,1092.3912008000189,1093.1573211000068,0.06438919994980097,None,,,,,,,,,9,001,2019_Dec_25_0842,untitled,3.1.0,59.69835614956724,
142,F,M,225,R,N,142FM225RN,HRN,0,266,266,117,,,0.988,1094.546117699996,1094.8892063999665,1094.9057112999726,1095.188569299993,1095.2049865999725,None,down,2.050493100017775,1095.2049865999725,None,1095.2049865999725,1096.1713071999839,0.0641071000136435,None,,,,,,,,,9,001,2019_Dec_25_0842,untitled,3.1.0,59.69835614956724,
_,_2,N,180,_,_,__2N180__,N,0,267,267,76,,,0.766,1097.3248628000147,1097.6700377999805,1097.6867375000147,1097.9702464999864,1097.986851900001,None,up,2.198148299998138,1097.986851900001,None,1097.986851900001,1098.7354900999926,0.06208359997253865,None,,,,,,,,,9,001,2019_Dec_25_0842,untitled,3.1.0,59.69835614956724,
295,_2,N,270,L,N,295_2N270LN,HLN,0,268,268,254,,,1.068,1100.2697736999835,1100.6007541000145,1100.6174685999868,1100.9009896999924,1100.9171466999687,None,up,2.5481585999950767,1100.9171466999687,None,1100.9171466999687,1101.9668105000164,0.07646510004997253,None,,,,,,,,,9,001,2019_Dec_25_0842,untitled,3.1.0,59.69835614956724,
304,_2,M,315,L,N,304_2M315LN,HLN,0,269,269,159,,,1.315,1103.537896899972,1103.881293799961,1103.8982460999978,1104.1809017999913,1104.197370800015,None,down,2.5042261999915354,1104.197370800015,None,1104.197370800015,1105.4968136000098,0.06524319999152794,None,,,,,,,,,9,001,2019_Dec_25_0842,untitled,3.1.0,59.69835614956724,
_,_2,M,270,_,_,__2M270__,N,0,270,270,30,,,1.347,1106.8044226999627,1107.1117321999627,1107.1290643999819,1107.4117414999637,1107.4286278999643,None,down,2.9822436000104062,1107.4286278999643,None,1107.4286278999643,1108.7614351999946,0.09197820001281798,None,,,,,,,,,9,001,2019_Dec_25_0842,untitled,3.1.0,59.69835614956724,
427,_4,M,90,L,N,427_4M090LN,HLN,0,271,271,170,,,1.245,1110.4876936000073,1110.8261958999792,1110.8418549000053,1111.1247141999775,1111.1413856999716,None,down,3.1494392000022344,1111.1413856999716,None,1111.1413856999716,1112.3741401999723,0.07002060004742816,None,,,,,,,,,9,001,2019_Dec_25_0842,untitled,3.1.0,59.69835614956724,
193,G,N,0,R,N,193GN000RN,HRN,0,272,272,224,,,1.083,1114.3758359999629,1114.705201499979,1114.721858099976,1115.0048109999625,1115.0213472999749,None,up,2.1653340000193566,1115.0213472999749,None,1115.0213472999749,1116.0875917999656,0.07701499998802319,None,,,,,,,,,9,001,2019_Dec_25_0842,untitled,3.1.0,59.69835614956724,
291,_2,N,90,L,N,291_2N090LN,HLN,0,273,273,250,,,0.8230000000000001,1117.2571926999954,1117.6024020999903,1117.618998799997,1117.9030068999855,1117.9191341999685,None,up,1.6012890999554656,1117.9191341999685,None,1117.9191341999685,1118.718064500019,0.06348400004208088,None,,,,,,,,,9,001,2019_Dec_25_0842,untitled,3.1.0,59.69835614956724,
_,_2,N,225,_,_,__2N225__,N,0,274,274,77,,,1.185,1119.5910208999994,1119.9333680999698,1119.9500087999622,1120.2335106999963,1120.2499532999936,None,up,2.0482964999973774,1120.2499532999936,None,1120.2499532999936,1121.416386500001,0.06397379998816177,None,,,,,,,,,9,001,2019_Dec_25_0842,untitled,3.1.0,59.69835614956724,
449,_5,N,0,R,N,449_5N000RN,HRN,0,275,275,272,,,0.792,1122.3686396999983,1122.7158877999755,1122.7315017000074,1123.0147886999766,1123.0312735000043,None,up,2.150266200012993,1123.0312735000043,None,1123.0312735000043,1123.7968891999917,0.06380200001876801,None,,,,,,,,,9,001,2019_Dec_25_0842,untitled,3.1.0,59.69835614956724,
452,_5,N,135,R,N,452_5N135RN,HRN,0,276,276,275,,,0.724,1125.2515686000115,1125.5955852000043,1125.6125847999938,1125.8959574999753,1125.9118377999985,None,up,2.415025800000876,1125.9118377999985,None,1125.9118377999985,1126.6115069999942,0.06311420002020895,None,,,,,,,,,9,001,2019_Dec_25_0842,untitled,3.1.0,59.69835614956724,
_,F,M,135,_,_,_FM135__,N,0,277,277,3,,,0.784,1128.396378799982,1128.7428767000092,1128.7607089999947,1129.0433864999795,1129.0594111999962,None,down,2.7646359000355005,1129.0594111999962,None,1129.0594111999962,1129.8252200999996,0.06263270002091303,None,,,,,,,,,9,001,2019_Dec_25_0842,untitled,3.1.0,59.69835614956724,
389,_4,N,180,R,N,389_4N180RN,HRN,0,278,278,260,,,1.218,1131.8956789000076,1132.240744300012,1132.256869099976,1132.5398901000153,1132.556285700004,None,down,2.632060400035698,1132.556285700004,None,1132.556285700004,1133.7559570000158,0.06482209998648614,None,,,,,,,,,9,001,2019_Dec_25_0842,untitled,3.1.0,59.69835614956724,
388,_4,N,135,R,N,388_4N135RN,HRN,0,279,279,259,,,1.184,1135.2677703999798,1135.6036553999875,1135.6203729999834,1135.9034871999756,1135.9203483000165,None,up,2.780868800007738,1135.9203483000165,None,1135.9203483000165,1137.0868598999805,0.07277829997474328,None,,,,,,,,,9,001,2019_Dec_25_0842,untitled,3.1.0,59.69835614956724,
143,F,M,270,R,N,143FM270RN,HRN,0,280,280,118,,,0.759,1138.779660100001,1139.1175258000148,1139.1342443000176,1139.4172312999726,1139.4336473000003,None,down,1.8152121999883093,1139.4336473000003,None,1139.4336473000003,1140.1660750000156,0.07052040001144633,None,,,,,,,,,9,001,2019_Dec_25_0842,untitled,3.1.0,59.69835614956724,
170,F,M,45,L,N,170FM045LN,HLN,0,281,281,121,,,1.367,1141.3186817999813,1141.666067400016,1141.6819658000022,1141.9647458000109,1141.9815115999663,None,down,2.2985057999612764,1141.9815115999663,None,1141.9815115999663,1143.3300707999733,0.0631081000319682,None,,,,,,,,,9,001,2019_Dec_25_0842,untitled,3.1.0,59.69835614956724,
451,_5,N,90,R,N,451_5N090RN,HRN,0,282,282,274,,,0.9570000000000001,1144.3517102000187,1144.6966020999826,1144.7126722999965,1144.9954156000167,1145.0122760999948,None,up,2.2323208000161685,1145.0122760999948,None,1145.0122760999948,1145.9449698000099,0.06391749996691942,None,,,,,,,,,9,001,2019_Dec_25_0842,untitled,3.1.0,59.69835614956724,
_,G,N,90,_,_,_GN090__,N,0,283,283,58,,,1.041,1147.314294699987,1147.6598350999993,1147.676433799963,1147.9594500999665,1147.9760279000038,None,up,2.5661013000062667,1147.9760279000038,None,1147.9760279000038,1148.9918478999753,0.061976300028618425,None,,,,,,,,,9,001,2019_Dec_25_0842,untitled,3.1.0,59.69835614956724,
_,F,N,45,_,_,_FN045__,N,0,284,284,49,,,1.3880000000000001,1150.6301411999739,1150.9567573000095,1150.9739087999915,1151.2574653999764,1151.2731330000097,None,up,2.049331899965182,1151.2731330000097,None,1151.2731330000097,1152.6390762999654,0.07996400003321469,None,,,,,,,,,9,001,2019_Dec_25_0842,untitled,3.1.0,59.69835614956724,
_,_2,M,180,_,_,__2M180__,N,0,285,285,28,,,1.1,1153.3926147000166,1153.7380669999984,1153.7546318999957,1154.0400051000179,1154.0550122999703,None,down,2.5650755999959074,1154.0550122999703,None,1154.0550122999703,1155.1664888999658,0.06361670000478625,None,,,,,,,,,9,001,2019_Dec_25_0842,untitled,3.1.0,59.69835614956724,
_,_5,M,135,_,_,__5M135__,N,0,286,286,43,,,1.157,1156.8065350999823,1157.1013730000122,1157.1013730000122,1157.3352562999935,1157.3534991999622,None,None,,1157.3534991999622,None,1157.3534991999622,1158.483744999976,0.17843700002413243,None,,,,,,,,,9,001,2019_Dec_25_0842,untitled,3.1.0,59.69835614956724,
299,_2,M,90,L,N,299_2M090LN,HLN,0,287,287,154,,,1.248,1160.9903104999685,1161.2811808999977,1161.2811808999977,1161.5310995000182,1161.547552199976,1160.9903104999685,down,2.6513103999895975,1161.547552199976,None,1161.547552199976,1162.780387100007,0.1690997999976389,None,,,,,,,,,9,001,2019_Dec_25_0842,untitled,3.1.0,59.69835614956724,
,,,,,,,,,,,,,,,,,,,,,,,,,,,,,1164.212040000013,None,1173.9198078999761,None,1176.3014384999988,None,1180.6970871000085,None,,,,,,,
