Numb,picture_show,Video_1,picture_judge,trials.thisRepN,trials.thisTrialN,trials.thisN,trials.thisIndex,image_intr.started,image_intr.stopped,key_resp_intr.keys,key_resp_intr.rt,key_resp_intr.started,key_resp_intr.stopped,image_show_text.started,image_show_text.stopped,image_show.started,image_show.stopped,image_video_text.started,image_video_text.stopped,image_judge.started,image_judge.stopped,image_judge_text.started,image_judge_text.stopped,slider_left.response,slider_left.rt,slider_left.started,slider_left.stopped,slider_mid.response,slider_mid.rt,slider_mid.started,slider_mid.stopped,slider_right.response,slider_right.rt,slider_right.started,slider_right.stopped,key_resp_next.keys,key_resp_next.rt,key_resp_next.started,key_resp_next.stopped,group,participant,age,gender(m/f),date,expName,psychopyVersion,frameRate,
,,,,,,,,29.45435999997426,None,space,24.370145199995022,29.45435999997426,None,,,,,,,,,,,,,,,,,,,,,,,,,,,A,duyv,25,f,2021_Oct_13_1824,untitled_groupA_k,2021.1.4,119.8002211919427,
77,picture\p38.tif,GG_right_01_42\GGY38.mp4,picture\p38.tif,0,0,0,76,,,,,,,53.882286400010344,54.89316279999912,54.868386499991175,None,57.49313219997566,58.50176939996891,87.77642429998377,None,87.77642429998377,None,3.98125,4.461160000006203,87.77642429998377,None,3.990625,11.42824030003976,87.77642429998377,None,3.98125,9.662036499998067,87.77642429998377,None,space,13.864890700031538,87.77642429998377,None,A,duyv,25,f,2021_Oct_13_1824,untitled_groupA_k,2021.1.4,119.8002211919427,
17,picture\p17.tif,RR_left_01_42\RRZ17.mp4,picture\p17.tif,0,1,1,16,,,,,,,101.66599159996258,102.67472439998528,102.66597169998568,None,105.24941529997159,106.257546000008,135.52211809996516,None,135.52211809996516,None,3.015625,14.752961100020912,135.52211809996516,None,4.009375,10.753477499994915,135.52211809996516,None,5.5,7.995345400006045,135.52211809996516,None,space,17.75878079998074,135.52211809996516,None,A,duyv,25,f,2021_Oct_13_1824,untitled_groupA_k,2021.1.4,119.8002211919427,
28,picture\p28.tif,RR_left_01_42\RRZ28.mp4,picture\p28.tif,0,2,2,27,,,,,,,153.3127441999968,154.32094060000964,154.30727819999447,None,156.90505419997498,157.91243959998246,187.18711100000655,None,187.18711100000655,None,5.4906250000000005,8.210695200017653,187.18711100000655,None,3.0250000000000004,12.344251900038216,187.18711100000655,None,3.98125,14.519568999996409,187.18711100000655,None,space,19.166082600015216,187.18711100000655,None,A,duyv,25,f,2021_Oct_13_1824,untitled_groupA_k,2021.1.4,119.8002211919427,
63,picture\p24.tif,RR_right_01_42\RRY24.mp4,picture\p24.tif,0,3,3,62,,,,,,,206.37699099996826,207.3877833999577,207.3781261999975,None,209.9605198999634,210.96800519997487,240.23393350001425,None,240.23393350001425,None,3.9718750000000007,16.077404799987562,240.23393350001425,None,6.034375000000001,6.5867379999835975,240.23393350001425,None,3.4750000000000005,13.536777200002689,240.23393350001425,None,space,24.243425900000148,240.23393350001425,None,A,duyv,25,f,2021_Oct_13_1824,untitled_groupA_k,2021.1.4,119.8002211919427,
65,picture\p26.tif,RR_right_01_42\RRY26.mp4,picture\p26.tif,0,4,4,64,,,,,,,264.5072536999942,265.5160918000038,265.49997549998807,None,268.0908297999995,269.099019199959,298.3725168000092,None,298.3725168000092,None,5.012499999999999,11.260766900028102,298.3725168000092,None,3.015625,7.544471999979578,298.3725168000092,None,3.015625,9.403558299993165,298.3725168000092,None,space,13.023466799990274,298.3725168000092,None,A,duyv,25,f,2021_Oct_13_1824,untitled_groupA_k,2021.1.4,119.8002211919427,
1,picture\p01.tif,GR_left_01_42\GRZ01.mp4,picture\p01.tif,0,5,5,0,,,,,,,311.4296077999752,312.4384793000063,312.42407889995957,None,315.02177429996664,316.0295739999856,345.29434560000664,None,345.29434560000664,None,4.99375,20.21047519997228,345.29434560000664,None,5.012499999999999,15.494398600014392,345.29434560000664,None,2.0218750000000005,8.953160399978515,345.29434560000664,None,space,22.681942600000184,345.29434560000664,None,A,duyv,25,f,2021_Oct_13_1824,untitled_groupA_k,2021.1.4,119.8002211919427,
50,picture\p11.tif,RG_right_01_42\RGY11.mp4,picture\p11.tif,0,6,6,49,,,,,,,368.00976139999693,369.0271292999969,369.01082989998395,None,371.6106550999684,372.6178397999611,401.8913384999614,None,401.8913384999614,None,5.003125000000001,10.344617399969138,401.8913384999614,None,4.9750000000000005,8.694946200004779,401.8913384999614,None,3.015625,4.170443199982401,401.8913384999614,None,space,23.333825499983504,401.8913384999614,None,A,duyv,25,f,2021_Oct_13_1824,untitled_groupA_k,2021.1.4,119.8002211919427,
5,picture\p05.tif,GR_left_01_42\GRZ05.mp4,picture\p05.tif,0,7,7,4,,,,,,,425.24877189996187,426.2573537999997,426.2417546999641,None,428.84055099997204,429.84124879998853,459.1391585000092,None,459.1391585000092,None,2.9875,3.9695664000464603,459.1391585000092,None,5.012499999999999,5.845852900005411,459.1391585000092,None,5.003125000000001,7.346132699982263,459.1391585000092,None,space,8.970107599976473,459.1391585000092,None,A,duyv,25,f,2021_Oct_13_1824,untitled_groupA_k,2021.1.4,119.8002211919427,
55,picture\p16.tif,RG_right_01_42\RGY16.mp4,picture\p16.tif,0,8,8,54,,,,,,,468.1378063999582,469.1547906000051,469.1386560999672,None,471.7298279000097,472.73831579997204,502.0121900999802,None,502.0121900999802,None,2.9593750000000005,4.468792200030293,502.0121900999802,None,5.003125000000001,7.926911899994593,502.0121900999802,None,4.9750000000000005,13.060924099991098,502.0121900999802,None,space,13.815831399988383,502.0121900999802,None,A,duyv,25,f,2021_Oct_13_1824,untitled_groupA_k,2021.1.4,119.8002211919427,
22,picture\p22.tif,RR_left_01_42\RRZ22.mp4,picture\p22.tif,0,9,9,21,,,,,,,515.8603600999922,516.8615925000049,516.8615925000049,None,519.4527077999664,520.4541048000101,549.7261700999807,None,549.7261700999807,None,4.99375,3.5606355000054464,549.7261700999807,None,4.018750000000001,18.777167599997483,549.7261700999807,None,3.0343750000000007,11.660975199949462,549.7261700999807,None,space,28.258550100028515,549.7261700999807,None,A,duyv,25,f,2021_Oct_13_1824,untitled_groupA_k,2021.1.4,119.8002211919427,
34,picture\p34.tif,GG_left_01_42\GGZ34.mp4,picture\p34.tif,0,10,10,33,,,,,,,578.0155425000121,579.027168200002,579.0172133999877,None,581.6077607999905,582.6150683999876,611.8894594999729,None,611.8894594999729,None,4.5062500000000005,11.444108000025153,611.8894594999729,None,4.468750000000001,13.07772160001332,611.8894594999729,None,4.468750000000001,15.178345000022091,611.8894594999729,None,space,17.07581830001436,611.8894594999729,None,A,duyv,25,f,2021_Oct_13_1824,untitled_groupA_k,2021.1.4,119.8002211919427,
46,picture\p07.tif,RG_right_01_42\RGY07.mp4,picture\p07.tif,0,11,11,45,,,,,,,629.0009427999612,630.0132891999674,630.0006315999781,None,632.5964957000106,633.604057199962,662.870045299991,None,662.870045299991,None,4.028125,17.543960400042124,662.870045299991,None,2.996875,4.353743200015742,662.870045299991,None,4.05625,15.228399299958255,662.870045299991,None,space,19.168682499963325,662.870045299991,None,A,duyv,25,f,2021_Oct_13_1824,untitled_groupA_k,2021.1.4,119.8002211919427,
69,picture\p30.tif,RR_right_01_42\RRY30.mp4,picture\p30.tif,0,12,12,68,,,,,,,682.0731065999717,683.0846978999907,683.0705389999785,None,685.6604859000072,686.660536099982,715.9498783999588,None,715.9498783999588,None,3.015625,8.585602200007997,715.9498783999588,None,4.99375,4.436117100005504,715.9498783999588,None,3.9718750000000007,6.2360538999782875,715.9498783999588,None,space,9.773064400011208,715.9498783999588,None,A,duyv,25,f,2021_Oct_13_1824,untitled_groupA_k,2021.1.4,119.8002211919427,
30,picture\p30.tif,GG_left_01_42\GGZ30.mp4,picture\p30.tif,0,13,13,29,,,,,,,725.749239399971,726.7584829999832,726.7439881999744,None,729.3415738999611,730.3412716999883,759.6230320999748,None,759.6230320999748,None,3.98125,3.227119799994398,759.6230320999748,None,3.990625,4.477806799986865,759.6230320999748,None,3.9625000000000004,5.9198632999905385,759.6230320999748,None,space,6.8271536999964155,759.6230320999748,None,A,duyv,25,f,2021_Oct_13_1824,untitled_groupA_k,2021.1.4,119.8002211919427,
21,picture\p21.tif,RR_left_01_42\RRZ21.mp4,picture\p21.tif,0,14,14,20,,,,,,,766.4805250999634,767.4893762000138,767.4750805000076,None,770.0644300999702,771.0722332999576,800.3380845999927,None,800.3380845999927,None,3.015625,5.25240490003489,800.3380845999927,None,5.0218750000000005,3.4201128000277095,800.3380845999927,None,4.018750000000001,6.620907399978023,800.3380845999927,None,space,11.960881499981042,800.3380845999927,None,A,duyv,25,f,2021_Oct_13_1824,untitled_groupA_k,2021.1.4,119.8002211919427,
19,picture\p19.tif,RR_left_01_42\RRZ19.mp4,picture\p19.tif,0,15,15,18,,,,,,,812.337097199983,813.3529426999739,813.336570799991,None,815.9198323999881,816.9199477999937,846.1930363000138,None,846.1930363000138,None,2.996875,5.385578599991277,846.1930363000138,None,3.9718750000000007,7.836097500054166,846.1930363000138,None,5.012499999999999,3.168584600032773,846.1930363000138,None,space,9.189809800009243,846.1930363000138,None,A,duyv,25,f,2021_Oct_13_1824,untitled_groupA_k,2021.1.4,119.8002211919427,
79,picture\p40.tif,GG_right_01_42\GGY40.mp4,picture\p40.tif,0,16,16,78,,,,,,,855.4174759999732,856.4180605000001,856.4180605000001,None,859.0099933999591,860.017881000007,889.2995837999624,None,889.2995837999624,None,3.990625,3.0855174000025727,889.2995837999624,None,3.9718750000000007,4.127367400040384,889.2995837999624,None,4.018750000000001,5.644407199986745,889.2995837999624,None,space,19.95352380000986,889.2995837999624,None,A,duyv,25,f,2021_Oct_13_1824,untitled_groupA_k,2021.1.4,119.8002211919427,
38,picture\p38.tif,GG_left_01_42\GGZ38.mp4,picture\p38.tif,0,17,17,37,,,,,,,909.2896706999745,910.2986547999899,910.290136799973,None,912.873516599997,913.8809493999579,943.1545858999598,None,943.1545858999598,None,4.009375,3.495117000013124,943.1545858999598,None,3.990625,14.561690600006841,943.1545858999598,None,3.990625,6.854135799978394,943.1545858999598,None,space,15.662426199996844,943.1545858999598,None,A,duyv,25,f,2021_Oct_13_1824,untitled_groupA_k,2021.1.4,119.8002211919427,
70,picture\p31.tif,RR_right_01_42\RRY31.mp4,picture\p31.tif,0,18,18,69,,,,,,,958.8541427999735,959.8710124999634,959.8546855999739,None,962.4380965000018,963.453306099982,992.7187637999887,None,992.7187637999887,None,4.984375,3.2618907999712974,992.7187637999887,None,4.018750000000001,6.553178499976639,992.7187637999887,None,3.0062500000000005,4.845103700004984,992.7187637999887,None,space,7.995783600024879,992.7187637999887,None,A,duyv,25,f,2021_Oct_13_1824,untitled_groupA_k,2021.1.4,119.8002211919427,
62,picture\p23.tif,RR_right_01_42\RRY23.mp4,picture\p23.tif,0,19,19,61,,,,,,,1000.7432241999777,1001.7603023999836,1001.74327430001,None,1004.3352998999762,1005.3429756999831,1034.6255327999825,None,1034.6255327999825,None,2.9781250000000004,5.020002800039947,1034.6255327999825,None,4.028125,6.711894399952143,1034.6255327999825,None,5.003125000000001,3.245281600044109,1034.6255327999825,None,space,8.494878400000744,1034.6255327999825,None,A,duyv,25,f,2021_Oct_13_1824,untitled_groupA_k,2021.1.4,119.8002211919427,
68,picture\p29.tif,RR_right_01_42\RRY29.mp4,picture\p29.tif,0,20,20,67,,,,,,,1043.1576307999785,1044.1657575999852,1044.1521962999832,None,1046.7499407999567,1047.757249599963,1077.0317820999771,None,1077.0317820999771,None,4.028125,6.785797899996396,1077.0317820999771,None,4.99375,3.835924300015904,1077.0317820999771,None,2.996875,5.36174399999436,1077.0317820999771,None,space,7.599877999979071,1077.0317820999771,None,A,duyv,25,f,2021_Oct_13_1824,untitled_groupA_k,2021.1.4,119.8002211919427,
31,picture\p31.tif,GG_left_01_42\GGZ31.mp4,picture\p31.tif,0,21,21,30,,,,,,,1084.6643968999851,1085.6646004999639,1085.6646004999639,None,1088.2564383000135,1089.2565373000107,1118.5376025000005,None,1118.5376025000005,None,3.9718750000000007,3.369937999988906,1118.5376025000005,None,3.98125,4.803822999994736,1118.5376025000005,None,3.98125,6.103983799985144,1118.5376025000005,None,space,6.885341799992602,1118.5376025000005,None,A,duyv,25,f,2021_Oct_13_1824,untitled_groupA_k,2021.1.4,119.8002211919427,
39,picture\p39.tif,GG_left_01_42\GGZ39.mp4,picture\p39.tif,0,22,22,38,,,,,,,1125.4616107000038,1126.4713251999929,1126.4624608999584,None,1129.0456025999738,1130.0446787999826,1159.318826099974,None,1159.318826099974,None,4.018750000000001,2.5787993000121787,1159.318826099974,None,3.9718750000000007,3.829137700027786,1159.318826099974,None,4.009375,5.354972600005567,1159.318826099974,None,space,8.346813699987251,1159.318826099974,None,A,duyv,25,f,2021_Oct_13_1824,untitled_groupA_k,2021.1.4,119.8002211919427,
52,picture\p13.tif,RG_right_01_42\RGY13.mp4,picture\p13.tif,0,23,23,51,,,,,,,1167.7016389999771,1168.7096499999752,1168.6956298999721,None,1171.30135590001,1172.3031387999654,1201.582687599992,None,1201.582687599992,None,2.9593750000000005,3.7531339999986812,1201.582687599992,None,4.45,5.254056499979924,1201.582687599992,None,4.440625000000001,6.671236300026067,1201.582687599992,None,space,8.431668400007766,1201.582687599992,None,A,duyv,25,f,2021_Oct_13_1824,untitled_groupA_k,2021.1.4,119.8002211919427,
48,picture\p09.tif,RG_right_01_42\RGY09.mp4,picture\p09.tif,0,24,24,47,,,,,,,1210.0405732999789,1211.0486727000098,1211.0348704999778,None,1213.6412355999928,1214.6487669000053,1243.9226601999835,None,1243.9226601999835,None,4.5062500000000005,6.8532538000145,1243.9226601999835,None,4.487500000000001,5.245427199988626,1243.9226601999835,None,2.996875,3.3291636999929324,1243.9226601999835,None,space,9.541697999986354,1243.9226601999835,None,A,duyv,25,f,2021_Oct_13_1824,untitled_groupA_k,2021.1.4,119.8002211919427,
37,picture\p37.tif,GG_left_01_42\GGZ37.mp4,picture\p37.tif,0,25,25,36,,,,,,,1253.4881477999734,1254.497598499991,1254.484719400003,None,1257.0714793999796,1258.0816909999703,1287.345469699998,None,1287.345469699998,None,4.028125,3.0201085000298917,1287.345469699998,None,3.990625,4.270612699969206,1287.345469699998,None,4.018750000000001,5.771161699958611,1287.345469699998,None,space,7.313876200001687,1287.345469699998,None,A,duyv,25,f,2021_Oct_13_1824,untitled_groupA_k,2021.1.4,119.8002211919427,
36,picture\p36.tif,GG_left_01_42\GGZ36.mp4,picture\p36.tif,0,26,26,35,,,,,,,1294.6860877000145,1295.69463849999,1295.6806085999706,None,1298.2776476999861,1299.2857016999624,1328.5605388999684,None,1328.5605388999684,None,4.4125000000000005,14.86895260005258,1328.5605388999684,None,4.403125,17.952968500030693,1328.5605388999684,None,4.384375,19.90396000002511,1328.5605388999684,None,space,20.723685499979183,1328.5605388999684,None,A,duyv,25,f,2021_Oct_13_1824,untitled_groupA_k,2021.1.4,119.8002211919427,
81,picture\p42.tif,GG_right_01_42\GGY42.mp4,picture\p42.tif,0,27,27,80,,,,,,,1349.3164650999825,1350.3246593999793,1350.310471899982,None,1352.9087329999893,1353.916636799986,1383.1906906999648,None,1383.1906906999648,None,4.4125000000000005,5.0607399000437,1383.1906906999648,None,4.4125000000000005,7.277545700024348,1383.1906906999648,None,4.403125,9.24414229998365,1383.1906906999648,None,space,17.02681109996047,1383.1906906999648,None,A,duyv,25,f,2021_Oct_13_1824,untitled_groupA_k,2021.1.4,119.8002211919427,
60,picture\p21.tif,RR_right_01_42\RRY21.mp4,picture\p21.tif,0,28,28,59,,,,,,,1400.2471657000133,1401.255292799964,1401.2418403999764,None,1403.8388148999657,1404.846828699985,1434.1124950000085,None,1434.1124950000085,None,3.015625,7.27764569997089,1434.1124950000085,None,4.99375,3.528736799955368,1434.1124950000085,None,3.990625,9.062983500014525,1434.1124950000085,None,space,11.152633799996693,1434.1124950000085,None,A,duyv,25,f,2021_Oct_13_1824,untitled_groupA_k,2021.1.4,119.8002211919427,
18,picture\p18.tif,RR_left_01_42\RRZ18.mp4,picture\p18.tif,0,29,29,17,,,,,,,1445.295473599981,1446.3035830999725,1446.2951542999945,None,1448.8872798999655,1449.8867555999896,1479.160548099957,None,1479.160548099957,None,3.990625,8.026602600002661,1479.160548099957,None,5.012499999999999,3.3944806000217795,1479.160548099957,None,3.0250000000000004,5.3529676999896765,1479.160548099957,None,space,10.698622199997772,1479.160548099957,None,A,duyv,25,f,2021_Oct_13_1824,untitled_groupA_k,2021.1.4,119.8002211919427,
25,picture\p25.tif,RR_left_01_42\RRZ25.mp4,picture\p25.tif,0,30,30,24,,,,,,,1489.884791599994,1490.8847637000144,1490.8847637000144,None,1493.467831899994,1494.467541399994,1523.7413950999617,None,1523.7413950999617,None,2.9875,4.686517300026026,1523.7413950999617,None,3.990625,6.062132099992596,1523.7413950999617,None,4.99375,3.0704185999929905,1523.7413950999617,None,space,7.070877299993299,1523.7413950999617,None,A,duyv,25,f,2021_Oct_13_1824,untitled_groupA_k,2021.1.4,119.8002211919427,
3,picture\p03.tif,GR_left_01_42\GRZ03.mp4,picture\p03.tif,0,31,31,2,,,,,,,1530.840499199985,1531.8491618999979,1531.8404568000115,None,1534.441175999993,1535.4486102999654,1564.7218156000017,None,1564.7218156000017,None,4.009375,6.83542119996855,1564.7218156000017,None,3.98125,5.1697334999917075,1564.7218156000017,None,3.04375,3.8117254999815486,1564.7218156000017,None,space,8.706177800020669,1564.7218156000017,None,A,duyv,25,f,2021_Oct_13_1824,untitled_groupA_k,2021.1.4,119.8002211919427,
74,picture\p35.tif,GG_right_01_42\GGY35.mp4,picture\p35.tif,0,32,32,73,,,,,,,1573.4546360999811,1574.4628976999666,1574.4493319999892,None,1577.0387326999917,1578.046070899989,1607.312221399974,None,1607.312221399974,None,4.009375,4.294895999948494,1607.312221399974,None,4.028125,5.879139099968597,1607.312221399974,None,4.018750000000001,7.862964900035877,1607.312221399974,None,space,10.83485029998701,1607.312221399974,None,A,duyv,25,f,2021_Oct_13_1824,untitled_groupA_k,2021.1.4,119.8002211919427,
58,picture\p19.tif,RR_right_01_42\RRY19.mp4,picture\p19.tif,0,33,33,57,,,,,,,1618.1770606999635,1619.186260699993,1619.1776894999784,None,1621.7612225000048,1622.7695917999954,1652.0347186999861,None,1652.0347186999861,None,3.0062500000000005,4.552969099953771,1652.0347186999861,None,3.98125,6.0028465000214055,1652.0347186999861,None,5.050000000000001,3.053999900002964,1652.0347186999861,None,space,7.620365499984473,1652.0347186999861,None,A,duyv,25,f,2021_Oct_13_1824,untitled_groupA_k,2021.1.4,119.8002211919427,
12,picture\p12.tif,GR_left_01_42\GRZ12.mp4,picture\p12.tif,0,34,34,11,,,,,,,1659.6935005999985,1660.700892599998,1660.6922872999567,None,1663.2925276999595,1664.3001033999608,1693.5741640999913,None,1693.5741640999913,None,4.421875,5.51069040002767,1693.5741640999913,None,3.015625,4.003163099987432,1693.5741640999913,None,4.393750000000001,7.211799499986228,1693.5741640999913,None,space,11.268549700034782,1693.5741640999913,None,A,duyv,25,f,2021_Oct_13_1824,untitled_groupA_k,2021.1.4,119.8002211919427,
29,picture\p29.tif,GG_left_01_42\GGZ29.mp4,picture\p29.tif,0,35,35,28,,,,,,,1704.881151199981,1705.889588799968,1705.875776699977,None,1708.4651333999936,1709.4751145999762,1738.7459738999605,None,1738.7459738999605,None,3.990625,4.702913099958096,1738.7459738999605,None,3.990625,6.778952499968,1738.7459738999605,None,4.028125,9.05423820001306,1738.7459738999605,None,space,12.19555429997854,1738.7459738999605,None,A,duyv,25,f,2021_Oct_13_1824,untitled_groupA_k,2021.1.4,119.8002211919427,
82,picture\p01.tif,GG_right_01_42\GGY01.mp4,picture\p01.tif,0,36,36,81,,,,,,,1750.970382599975,1751.970764699974,1751.970764699974,None,1754.5705498000025,1755.5876411999925,1784.8524774999823,None,1784.8524774999823,None,4.009375,7.702391099999659,1784.8524774999823,None,4.009375,9.212161000003107,1784.8524774999823,None,4.018750000000001,10.654065900016576,1784.8524774999823,None,space,12.586643500020728,1784.8524774999823,None,A,duyv,25,f,2021_Oct_13_1824,untitled_groupA_k,2021.1.4,119.8002211919427,
44,picture\p05.tif,RG_right_01_42\RGY05.mp4,picture\p05.tif,0,37,37,43,,,,,,,1797.4678630999988,1798.4683210999938,1798.4683210999938,None,1801.0596240999876,1802.0767693999805,1831.3412289000116,None,1831.3412289000116,None,3.015625,8.30997419997584,1831.3412289000116,None,4.384375,12.243855100008659,1831.3412289000116,None,4.403125,14.260585199983325,1831.3412289000116,None,space,15.275418900011573,1831.3412289000116,None,A,duyv,25,f,2021_Oct_13_1824,untitled_groupA_k,2021.1.4,119.8002211919427,
64,picture\p25.tif,RR_right_01_42\RRY25.mp4,picture\p25.tif,0,38,38,63,,,,,,,1846.6486701999675,1847.6568116999697,1847.6490342000034,None,1850.2325074999826,1851.231934499985,1880.5065137000056,None,1880.5065137000056,None,3.0250000000000004,6.711311699997168,1880.5065137000056,None,3.990625,7.962098399992101,1880.5065137000056,None,5.0218750000000005,4.079055100039113,1880.5065137000056,None,space,9.63098119996721,1880.5065137000056,None,A,duyv,25,f,2021_Oct_13_1824,untitled_groupA_k,2021.1.4,119.8002211919427,
8,picture\p08.tif,GR_left_01_42\GRZ08.mp4,picture\p08.tif,0,39,39,7,,,,,,,1890.171332900005,1891.1795225999667,1891.1653229999938,None,1893.772008,1894.7816673999769,1924.0451802999596,None,1924.0451802999596,None,2.9875,3.777287399978377,1924.0451802999596,None,3.990625,5.511817599995993,1924.0451802999596,None,4.0,7.262143099971581,1924.0451802999596,None,space,15.493488100008108,1924.0451802999596,None,A,duyv,25,f,2021_Oct_13_1824,untitled_groupA_k,2021.1.4,119.8002211919427,
54,picture\p15.tif,RG_right_01_42\RGY15.mp4,picture\p15.tif,0,40,40,53,,,,,,,1939.5770894999732,1940.58521499997,1940.5709535999922,None,1943.1781313999672,1944.1850434999797,1973.4587615999626,None,1973.4587615999626,None,4.065625000000001,4.994284700020216,1973.4587615999626,None,3.015625,3.002353599993512,1973.4587615999626,None,4.065625000000001,8.186891599965747,1973.4587615999626,None,space,9.925644499948248,1973.4587615999626,None,A,duyv,25,f,2021_Oct_13_1824,untitled_groupA_k,2021.1.4,119.8002211919427,
75,picture\p36.tif,GG_right_01_42\GGY36.mp4,picture\p36.tif,0,41,41,74,,,,,,,1983.4163675999735,1984.4254318999592,1984.4129286999814,None,1987.0080694999779,1988.0086542000063,2017.2991547000129,None,2017.2991547000129,None,4.028125,3.3349895999999717,2017.2991547000129,None,4.0375,4.810726900002919,2017.2991547000129,None,4.018750000000001,6.861955199972726,2017.2991547000129,None,space,9.516543000005186,2017.2991547000129,None,A,duyv,25,f,2021_Oct_13_1824,untitled_groupA_k,2021.1.4,119.8002211919427,
32,picture\p32.tif,GG_left_01_42\GGZ32.mp4,picture\p32.tif,0,42,42,31,,,,,,,2026.8477430999628,2027.8565516999806,2027.8479923999985,None,2030.4403252999764,2031.456148999976,2060.714081999962,None,2060.714081999962,None,4.028125,3.343560500012245,2060.714081999962,None,4.0,4.585597900033463,2060.714081999962,None,3.98125,6.186369400005788,2060.714081999962,None,space,9.498098999960348,2060.714081999962,None,A,duyv,25,f,2021_Oct_13_1824,untitled_groupA_k,2021.1.4,119.8002211919427,
24,picture\p24.tif,RR_left_01_42\RRZ24.mp4,picture\p24.tif,0,43,43,23,,,,,,,2070.2374034000095,2071.246437099995,2071.232770600007,None,2073.820449599996,2074.8281988999806,2104.110858800006,None,2104.110858800006,None,3.9437500000000005,9.011173999984749,2104.110858800006,None,5.003125000000001,5.336720099963713,2104.110858800006,None,3.015625,6.631194800022058,2104.110858800006,None,space,10.842040499963332,2104.110858800006,None,A,duyv,25,f,2021_Oct_13_1824,untitled_groupA_k,2021.1.4,119.8002211919427,
27,picture\p27.tif,RR_left_01_42\RRZ27.mp4,picture\p27.tif,0,44,44,26,,,,,,,2114.9845231999643,2115.992687699967,2115.9785213999567,None,2118.576638199971,2119.5845594999846,2148.8667441,None,2148.8667441,None,3.0062500000000005,5.352616899996065,2148.8667441,None,3.990625,6.8786207000375725,2148.8667441,None,4.956250000000001,3.578724900027737,2148.8667441,None,space,8.271662699989974,2148.8667441,None,A,duyv,25,f,2021_Oct_13_1824,untitled_groupA_k,2021.1.4,119.8002211919427,
83,picture\p02.tif,GG_right_01_42\GGY02.mp4,picture\p02.tif,0,45,45,82,,,,,,,2157.166173500009,2158.1748867999995,2158.161779899965,None,2160.757445199997,2161.757244299981,2191.0394783999654,None,2191.0394783999654,None,3.990625,2.9857375000137836,2191.0394783999654,None,3.990625,4.085867799993139,2191.0394783999654,None,4.018750000000001,5.469663500029128,2191.0394783999654,None,space,6.829777600010857,2191.0394783999654,None,A,duyv,25,f,2021_Oct_13_1824,untitled_groupA_k,2021.1.4,119.8002211919427,
78,picture\p39.tif,GG_right_01_42\GGY39.mp4,picture\p39.tif,0,46,46,77,,,,,,,2197.9051205999567,2198.9060363000026,2198.9060363000026,None,2201.4978705999674,2202.5051455000066,2231.7789973999606,None,2231.7789973999606,None,4.018750000000001,3.2616880000568926,2231.7789973999606,None,4.009375,4.753444799978752,2231.7789973999606,None,4.018750000000001,7.2126971000107005,2231.7789973999606,None,space,8.03038019995438,2231.7789973999606,None,A,duyv,25,f,2021_Oct_13_1824,untitled_groupA_k,2021.1.4,119.8002211919427,
20,picture\p20.tif,RR_left_01_42\RRZ20.mp4,picture\p20.tif,0,47,47,19,,,,,,,2239.8368772999966,2240.8369754999876,2240.8369754999876,None,2243.4195429999963,2244.4197348000016,2273.6939805999864,None,2273.6939805999864,None,4.018750000000001,5.201894300000276,2273.6939805999864,None,5.012499999999999,2.1105407999712043,2273.6939805999864,None,2.996875,3.6279559999820776,2273.6939805999864,None,space,8.923335399944335,2273.6939805999864,None,A,duyv,25,f,2021_Oct_13_1824,untitled_groupA_k,2021.1.4,119.8002211919427,
71,picture\p32.tif,GG_right_01_42\GGY32.mp4,picture\p32.tif,0,48,48,70,,,,,,,2282.6506446999847,2283.6592539999983,2283.645377399982,None,2286.242824999965,2287.242291099974,2316.5166406999924,None,2316.5166406999924,None,4.009375,2.6845268000033684,2316.5166406999924,None,4.0,3.8854252000455745,2316.5166406999924,None,3.9625000000000004,5.285700700012967,2316.5166406999924,None,space,6.825249100045767,2316.5166406999924,None,A,duyv,25,f,2021_Oct_13_1824,untitled_groupA_k,2021.1.4,119.8002211919427,
2,picture\p02.tif,GR_left_01_42\GRZ02.mp4,picture\p02.tif,0,49,49,1,,,,,,,2323.3653286999906,2324.365662099968,2324.365662099968,None,2326.96522730001,2327.965536599979,2357.255586399988,None,2357.255586399988,None,4.046875000000001,4.268611399980728,2357.255586399988,None,3.015625,3.102391099964734,2357.255586399988,None,4.05625,5.6447611000039615,2357.255586399988,None,space,7.809196199988946,2357.255586399988,None,A,duyv,25,f,2021_Oct_13_1824,untitled_groupA_k,2021.1.4,119.8002211919427,
41,picture\p41.tif,GG_left_01_42\GGZ41.mp4,picture\p41.tif,0,50,50,40,,,,,,,2365.0963892000145,2366.0975252999924,2366.0975252999924,None,2368.680209299957,2369.6884663999663,2398.9622590999934,None,2398.9622590999934,None,4.028125,2.460402199998498,2398.9622590999934,None,4.009375,3.7613086000201292,2398.9622590999934,None,3.9718750000000007,6.1779666999937035,2398.9622590999934,None,space,7.102646900049876,2398.9622590999934,None,A,duyv,25,f,2021_Oct_13_1824,untitled_groupA_k,2021.1.4,119.8002211919427,
35,picture\p35.tif,GG_left_01_42\GGZ35.mp4,picture\p35.tif,0,51,51,34,,,,,,,2406.0940886999597,2407.11158919998,2407.095760299999,None,2409.6865233000135,2410.694450400013,2439.960653899994,None,2439.960653899994,None,3.990625,1.6504043000168167,2439.960653899994,None,3.990625,3.2089264999958687,2439.960653899994,None,4.0,4.484671999991406,2439.960653899994,None,space,5.2525193999754265,2439.960653899994,None,A,duyv,25,f,2021_Oct_13_1824,untitled_groupA_k,2021.1.4,119.8002211919427,
56,picture\p17.tif,RG_right_01_42\RGY17.mp4,picture\p17.tif,0,52,52,55,,,,,,,2445.2503996999585,2446.2509105000063,2446.2509105000063,None,2448.851137099962,2449.8593589999946,2479.1237367999856,None,2479.1237367999856,None,3.9718750000000007,6.794655599980615,2479.1237367999856,None,2.9687500000000004,3.3821023000054993,2479.1237367999856,None,3.990625,5.129014999954961,2479.1237367999856,None,space,8.044933199998923,2479.1237367999856,None,A,duyv,25,f,2021_Oct_13_1824,untitled_groupA_k,2021.1.4,119.8002211919427,
6,picture\p06.tif,GR_left_01_42\GRZ06.mp4,picture\p06.tif,0,53,53,5,,,,,,,2487.206543999957,2488.2072119999793,2488.2072119999793,None,2490.7982230999623,2491.806767400005,2521.088112599973,None,2521.088112599973,None,3.0343750000000007,2.7691998000373133,2521.088112599973,None,3.9718750000000007,4.553425799997058,2521.088112599973,None,4.009375,5.937672800035216,2521.088112599973,None,space,6.624392799974885,2521.088112599973,None,A,duyv,25,f,2021_Oct_13_1824,untitled_groupA_k,2021.1.4,119.8002211919427,
47,picture\p08.tif,RG_right_01_42\RGY08.mp4,picture\p08.tif,0,54,54,46,,,,,,,2527.7462051999755,2528.7467912999564,2528.7467912999564,None,2531.3377098999918,2532.3462504000054,2561.619800399989,None,2561.619800399989,None,3.015625,2.85141860001022,2561.619800399989,None,3.9718750000000007,3.9680752999847755,2561.619800399989,None,3.9625000000000004,6.06909760000417,2561.619800399989,None,space,7.452409900026396,2561.619800399989,None,A,duyv,25,f,2021_Oct_13_1824,untitled_groupA_k,2021.1.4,119.8002211919427,
7,picture\p07.tif,GR_left_01_42\GRZ07.mp4,picture\p07.tif,0,55,55,6,,,,,,,2569.11058649997,2570.1271147999796,2570.1111168999923,None,2572.7106139999814,2573.71250699996,2603.004045000009,None,2603.004045000009,None,3.990625,3.7193035999662243,2603.004045000009,None,2.996875,2.3689637999632396,2603.004045000009,None,4.0,5.711608799989335,2603.004045000009,None,space,6.816975800029468,2603.004045000009,None,A,duyv,25,f,2021_Oct_13_1824,untitled_groupA_k,2021.1.4,119.8002211919427,
80,picture\p41.tif,GG_right_01_42\GGY41.mp4,picture\p41.tif,0,56,56,79,,,,,,,2609.850139999995,2610.858947700006,2610.8447357999976,None,2613.433940399962,2614.441430100007,2643.7065550999832,None,2643.7065550999832,None,4.028125,2.8192583000054583,2643.7065550999832,None,4.009375,4.2279706000117585,2643.7065550999832,None,4.0,6.3278302999679,2643.7065550999832,None,space,7.284515100007411,2643.7065550999832,None,A,duyv,25,f,2021_Oct_13_1824,untitled_groupA_k,2021.1.4,119.8002211919427,
16,picture\p16.tif,RR_left_01_42\RRZ16.mp4,picture\p16.tif,0,57,57,15,,,,,,,2651.0236617999617,2652.0311639999854,2652.0176615999662,None,2654.606791500002,2655.614361899963,2684.8753254999756,None,2684.8753254999756,None,3.990625,8.0033980999724,2684.8753254999756,None,2.9875,5.529577100009192,2684.8753254999756,None,4.99375,3.9713484999956563,2684.8753254999756,None,space,26.87443110003369,2684.8753254999756,None,A,duyv,25,f,2021_Oct_13_1824,untitled_groupA_k,2021.1.4,119.8002211919427,
10,picture\p10.tif,GR_left_01_42\GRZ10.mp4,picture\p10.tif,0,58,58,9,,,,,,,2711.778030699992,2712.787036099995,2712.778426899982,None,2715.3790897,2716.394431599998,2745.660418699961,None,2745.660418699961,None,4.018750000000001,3.5865521999658085,2745.660418699961,None,2.9875,2.5041807999950834,2745.660418699961,None,3.990625,4.937576999946032,2745.660418699961,None,space,6.0135299999965355,2745.660418699961,None,A,duyv,25,f,2021_Oct_13_1824,untitled_groupA_k,2021.1.4,119.8002211919427,
49,picture\p10.tif,RG_right_01_42\RGY10.mp4,picture\p10.tif,0,59,59,48,,,,,,,2751.7009846,2752.7118669999763,2752.689288499998,None,2755.2926410000073,2756.3034172999905,2785.5742884000065,None,2785.5742884000065,None,4.018750000000001,4.736847800028045,2785.5742884000065,None,2.9875,3.0543728999909945,2785.5742884000065,None,3.990625,6.396211499988567,2785.5742884000065,None,space,7.4424689000006765,2785.5742884000065,None,A,duyv,25,f,2021_Oct_13_1824,untitled_groupA_k,2021.1.4,119.8002211919427,
66,picture\p27.tif,RR_right_01_42\RRY27.mp4,picture\p27.tif,0,60,60,65,,,,,,,2793.048957199964,2794.0578128999914,2794.0452511999756,None,2796.6321212999756,2797.631935399957,2826.9054170000018,None,2826.9054170000018,None,3.04375,4.244775999977719,2826.9054170000018,None,4.009375,5.428985200007446,2826.9054170000018,None,5.03125,2.9618741999729536,2826.9054170000018,None,space,6.855205100029707,2826.9054170000018,None,A,duyv,25,f,2021_Oct_13_1824,untitled_groupA_k,2021.1.4,119.8002211919427,
15,picture\p15.tif,RR_left_01_42\RRZ15.mp4,picture\p15.tif,0,61,61,14,,,,,,,2833.7966563999653,2834.805740999989,2834.7971583000035,None,2837.3804529999616,2838.380237800011,2867.6532995000016,None,2867.6532995000016,None,4.965625,2.7362791000050493,2867.6532995000016,None,4.0,6.54524239996681,2867.6532995000016,None,3.015625,4.845604999980424,2867.6532995000016,None,space,7.448277199990116,2867.6532995000016,None,A,duyv,25,f,2021_Oct_13_1824,untitled_groupA_k,2021.1.4,119.8002211919427,
84,picture\p03.tif,GG_right_01_42\GGY03.mp4,picture\p03.tif,0,62,62,83,,,,,,,2875.127916299971,2876.1285505999695,2876.1285505999695,None,2878.719620899996,2879.7279624000075,2909.00241299998,None,2909.00241299998,None,3.98125,4.118758800032083,2909.00241299998,None,3.990625,5.027318899985403,2909.00241299998,None,4.0,6.303117900039069,2909.00241299998,None,space,7.292713300033938,2909.00241299998,None,A,duyv,25,f,2021_Oct_13_1824,untitled_groupA_k,2021.1.4,119.8002211919427,
4,picture\p04.tif,GR_left_01_42\GRZ04.mp4,picture\p04.tif,0,63,63,3,,,,,,,2916.3256118000136,2917.3344616999966,2917.3259647999657,None,2919.9178255999577,2920.9255975999986,2950.1992742999573,None,2950.1992742999573,None,4.009375,3.9765669000335038,2950.1992742999573,None,2.996875,2.584878799971193,2950.1992742999573,None,3.990625,5.94514149997849,2950.1992742999573,None,space,6.7672366999904625,2950.1992742999573,None,A,duyv,25,f,2021_Oct_13_1824,untitled_groupA_k,2021.1.4,119.8002211919427,
59,picture\p20.tif,RR_right_01_42\RRY20.mp4,picture\p20.tif,0,64,64,58,,,,,,,2956.9992105999845,2958.007186300005,2957.9986614999943,None,2960.5900998999714,2961.5985605999595,2990.8809914999874,None,2990.8809914999874,None,4.018750000000001,5.875684199971147,2990.8809914999874,None,4.9750000000000005,2.9438386999536306,2990.8809914999874,None,3.04375,4.460503600013908,2990.8809914999874,None,space,6.751945900032297,2990.8809914999874,None,A,duyv,25,f,2021_Oct_13_1824,untitled_groupA_k,2021.1.4,119.8002211919427,
23,picture\p23.tif,RR_left_01_42\RRZ23.mp4,picture\p23.tif,0,65,65,22,,,,,,,2997.6721246999805,2998.68039709999,2998.671744899999,None,3001.255822099978,3002.271463299985,3031.5291167999967,None,3031.5291167999967,None,3.0343750000000007,4.742890299996361,3031.5291167999967,None,3.9718750000000007,5.9106198999797925,3031.5291167999967,None,4.984375,2.9349577000248246,3031.5291167999967,None,space,7.113322799967136,3031.5291167999967,None,A,duyv,25,f,2021_Oct_13_1824,untitled_groupA_k,2021.1.4,119.8002211919427,
53,picture\p14.tif,RG_right_01_42\RGY14.mp4,picture\p14.tif,0,66,66,52,,,,,,,3038.6692113999743,3039.6705246999627,3039.6705246999627,None,3042.2692405999987,3043.2702378999675,3072.56051380001,None,3072.56051380001,None,4.009375,7.334735199983697,3072.56051380001,None,2.9875,4.110794799984433,3072.56051380001,None,3.990625,5.344768800016027,3072.56051380001,None,space,8.490463100024499,3072.56051380001,None,A,duyv,25,f,2021_Oct_13_1824,untitled_groupA_k,2021.1.4,119.8002211919427,
76,picture\p37.tif,GG_right_01_42\GGY37.mp4,picture\p37.tif,0,67,67,75,,,,,,,3081.0836844999576,3082.0918199999724,3082.078534799977,None,3084.6752966999775,3085.67523980001,3114.948449999967,None,3114.948449999967,None,4.046875000000001,2.785735600045882,3114.948449999967,None,4.0,4.3603175999596715,3114.948449999967,None,4.009375,5.629091700015124,3114.948449999967,None,space,6.656014400010463,3114.948449999967,None,A,duyv,25,f,2021_Oct_13_1824,untitled_groupA_k,2021.1.4,119.8002211919427,
14,picture\p14.tif,GR_left_01_42\GRZ14.mp4,picture\p14.tif,0,68,68,13,,,,,,,3121.631474900001,3122.641142299981,3122.631786299986,None,3125.2236352000036,3126.2310866999906,3155.513649499975,None,3155.513649499975,None,4.0,3.9199161999858916,3155.513649499975,None,2.9875,2.770166000002064,3155.513649499975,None,4.0,5.403543499996886,3155.513649499975,None,space,6.183622399985325,3155.513649499975,None,A,duyv,25,f,2021_Oct_13_1824,untitled_groupA_k,2021.1.4,119.8002211919427,
43,picture\p04.tif,RG_right_01_42\RGY04.mp4,picture\p04.tif,0,69,69,42,,,,,,,3161.73009919998,3162.7390720999683,3162.7259007999673,None,3165.321592299966,3166.3290983999614,3195.6116129999864,None,3195.6116129999864,None,4.0375,4.218439399963245,3195.6116129999864,None,2.9781250000000004,3.0562889999710023,3195.6116129999864,None,4.018750000000001,5.90278699999908,3195.6116129999864,None,space,7.478894200001378,3195.6116129999864,None,A,duyv,25,f,2021_Oct_13_1824,untitled_groupA_k,2021.1.4,119.8002211919427,
13,picture\p13.tif,GR_left_01_42\GRZ13.mp4,picture\p13.tif,0,70,70,12,,,,,,,3203.1271930999937,3204.1359589999774,3204.121840899985,None,3206.727456199995,3207.7277617999935,3237.017901299987,None,3237.017901299987,None,3.015625,1.836345200019423,3237.017901299987,None,4.018750000000001,3.1123802000074647,3237.017901299987,None,4.0,8.178499699977692,3237.017901299987,None,space,9.129053900018334,3237.017901299987,None,A,duyv,25,f,2021_Oct_13_1824,untitled_groupA_k,2021.1.4,119.8002211919427,
33,picture\p33.tif,GG_left_01_42\GGZ33.mp4,picture\p33.tif,0,71,71,32,,,,,,,3246.175687799987,3247.1831577999983,3247.168995199958,None,3249.7582672999706,3250.758165200008,3280.032247199968,None,3280.032247199968,None,4.009375,2.6104872999712825,3280.032247199968,None,4.0,4.643515500007197,3280.032247199968,None,4.0,6.0282357999822125,3280.032247199968,None,space,6.99757279996993,3280.032247199968,None,A,duyv,25,f,2021_Oct_13_1824,untitled_groupA_k,2021.1.4,119.8002211919427,
9,picture\p09.tif,GR_left_01_42\GRZ09.mp4,picture\p09.tif,0,72,72,8,,,,,,,3287.0621089999913,3288.0672521999804,3288.0577200999833,None,3290.6646096999757,3291.664811099996,3320.9544659999665,None,3320.9544659999665,None,4.0,7.235545500006992,3320.9544659999665,None,4.009375,5.678232299978845,3320.9544659999665,None,2.9781250000000004,3.678582400025334,3320.9544659999665,None,space,7.912583800032735,3320.9544659999665,None,A,duyv,25,f,2021_Oct_13_1824,untitled_groupA_k,2021.1.4,119.8002211919427,
61,picture\p22.tif,RR_right_01_42\RRY22.mp4,picture\p22.tif,0,73,73,60,,,,,,,3328.892889699957,3329.903803399997,3329.887967299961,None,3332.479323300009,3333.4874616999878,3362.7608801999595,None,3362.7608801999595,None,4.99375,3.136092800006736,3362.7608801999595,None,4.028125,7.786222899972927,3362.7608801999595,None,3.0250000000000004,4.577750399999786,3362.7608801999595,None,space,9.080310299992561,3362.7608801999595,None,A,duyv,25,f,2021_Oct_13_1824,untitled_groupA_k,2021.1.4,119.8002211919427,
57,picture\p18.tif,RR_right_01_42\RRY18.mp4,picture\p18.tif,0,74,74,56,,,,,,,3371.8775517999893,3372.8775607999996,3372.8775607999996,None,3375.459988399991,3376.4601133000106,3405.7343757000053,None,3405.7343757000053,None,4.0,5.5177240000339225,3405.7343757000053,None,4.956250000000001,3.0265649000066333,3405.7343757000053,None,2.9781250000000004,4.1853292000014335,3405.7343757000053,None,space,6.3424458999652416,3405.7343757000053,None,A,duyv,25,f,2021_Oct_13_1824,untitled_groupA_k,2021.1.4,119.8002211919427,
73,picture\p34.tif,GG_right_01_42\GGY34.mp4,picture\p34.tif,0,75,75,72,,,,,,,3412.1079386000056,3413.116041500005,3413.1018695000093,None,3415.699536399974,3416.707531699969,3445.9728662999696,None,3445.9728662999696,None,4.028125,2.9362356000347063,3445.9728662999696,None,4.018750000000001,4.2196636000298895,3445.9728662999696,None,4.009375,5.578332700009923,3445.9728662999696,None,space,6.426476599997841,3445.9728662999696,None,A,duyv,25,f,2021_Oct_13_1824,untitled_groupA_k,2021.1.4,119.8002211919427,
26,picture\p26.tif,RR_left_01_42\RRZ26.mp4,picture\p26.tif,0,76,76,25,,,,,,,3452.4308167999843,3453.431456799968,3453.431456799968,None,3456.014308999991,3457.0146580999717,3486.3044095999794,None,3486.3044095999794,None,5.0218750000000005,2.8196776999975555,3486.3044095999794,None,3.990625,5.245238200004678,3486.3044095999794,None,3.04375,4.0202564999926835,3486.3044095999794,None,space,6.175264800025616,3486.3044095999794,None,A,duyv,25,f,2021_Oct_13_1824,untitled_groupA_k,2021.1.4,119.8002211919427,
11,picture\p11.tif,GR_left_01_42\GRZ11.mp4,picture\p11.tif,0,77,77,10,,,,,,,3492.503644499986,3493.5118805000093,3493.497801599966,None,3496.103708299983,3497.104347699962,3526.402854199987,None,3526.402854199987,None,4.0,5.869739899993874,3526.402854199987,None,4.009375,4.078515300003346,3526.402854199987,None,2.9875,2.7452400000183843,3526.402854199987,None,space,7.081323700025678,3526.402854199987,None,A,duyv,25,f,2021_Oct_13_1824,untitled_groupA_k,2021.1.4,119.8002211919427,
45,picture\p06.tif,RG_right_01_42\RGY06.mp4,picture\p06.tif,0,78,78,44,,,,,,,3533.509870400012,3534.5180715000024,3534.5038290999946,None,3537.1017885999754,3538.1094646999845,3567.3843197000097,None,3567.3843197000097,None,2.9499999999999997,3.3433687999495305,3567.3843197000097,None,3.98125,4.7441082000150345,3567.3843197000097,None,3.98125,6.0442734999815,3567.3843197000097,None,space,7.855411600030493,3567.3843197000097,None,A,duyv,25,f,2021_Oct_13_1824,untitled_groupA_k,2021.1.4,119.8002211919427,
40,picture\p40.tif,GG_left_01_42\GGZ40.mp4,picture\p40.tif,0,79,79,39,,,,,,,3575.265912199975,3576.2667169999913,3576.258142000006,None,3578.8583497999934,3579.8660017999937,3609.1391260999953,None,3609.1391260999953,None,3.9625000000000004,2.053399799973704,3609.1391260999953,None,3.990625,3.985817600041628,3609.1391260999953,None,3.9718750000000007,5.845781100040767,3609.1391260999953,None,space,7.4297132000210695,3609.1391260999953,None,A,duyv,25,f,2021_Oct_13_1824,untitled_groupA_k,2021.1.4,119.8002211919427,
42,picture\p42.tif,GG_left_01_42\GGZ42.mp4,picture\p42.tif,0,80,80,41,,,,,,,3616.6054818999837,3617.6058558999794,3617.6058558999794,None,3620.197540299967,3621.2050690999604,3650.4793806999805,None,3650.4793806999805,None,4.018750000000001,2.5196948999655433,3650.4793806999805,None,4.009375,3.6782244000351056,3650.4793806999805,None,4.028125,4.878352800034918,3650.4793806999805,None,space,6.660250700020697,3650.4793806999805,None,A,duyv,25,f,2021_Oct_13_1824,untitled_groupA_k,2021.1.4,119.8002211919427,
67,picture\p28.tif,RR_right_01_42\RRY28.mp4,picture\p28.tif,0,81,81,66,,,,,,,3657.1786601999775,3658.189415599976,3658.1798262000084,None,3660.762234899972,3661.7697528999997,3691.035493500007,None,3691.035493500007,None,5.003125000000001,3.5692092000390403,3691.035493500007,None,3.0062500000000005,4.962242499983404,3691.035493500007,None,4.018750000000001,6.519974399998318,3691.035493500007,None,space,7.746094800007995,3691.035493500007,None,A,duyv,25,f,2021_Oct_13_1824,untitled_groupA_k,2021.1.4,119.8002211919427,
51,picture\p12.tif,RG_right_01_42\RGY12.mp4,picture\p12.tif,0,82,82,50,,,,,,,3698.818984899961,3699.826524199976,3699.8124798999634,None,3702.409973300004,3703.4181327999686,3732.688119700004,None,3732.688119700004,None,4.0,4.4961456000455655,3732.688119700004,None,2.9687500000000004,2.688210499996785,3732.688119700004,None,3.990625,7.122021500021219,3732.688119700004,None,space,8.690330500015989,3732.688119700004,None,A,duyv,25,f,2021_Oct_13_1824,untitled_groupA_k,2021.1.4,119.8002211919427,
72,picture\p33.tif,GG_right_01_42\GGY33.mp4,picture\p33.tif,0,83,83,71,,,,,,,3741.4156168999616,3742.4237278999644,3742.409538000007,None,3745.0071855999995,3746.0151562999818,3775.2983730999986,None,3775.2983730999986,None,4.009375,10.225486200011801,3775.2983730999986,None,4.009375,8.06032970000524,3775.2983730999986,None,4.0,5.910763500025496,3775.2983730999986,None,space,12.40400929999305,3775.2983730999986,None,A,duyv,25,f,2021_Oct_13_1824,untitled_groupA_k,2021.1.4,119.8002211919427,
