Numb,picture_show,Video_1,picture_judge,trials.thisRepN,trials.thisTrialN,trials.thisN,trials.thisIndex,image_intr.started,image_intr.stopped,key_resp_intr.keys,key_resp_intr.rt,key_resp_intr.started,key_resp_intr.stopped,image_show_text.started,image_show_text.stopped,image_show.started,image_show.stopped,image_video_text.started,image_video_text.stopped,image_judge.started,image_judge.stopped,image_judge_text.started,image_judge_text.stopped,slider_left.response,slider_left.rt,slider_left.started,slider_left.stopped,slider_mid.response,slider_mid.rt,slider_mid.started,slider_mid.stopped,slider_right.response,slider_right.rt,slider_right.started,slider_right.stopped,key_resp_next.keys,key_resp_next.rt,key_resp_next.started,key_resp_next.stopped,group,participant,age,gender(m/f),date,expName,psychopyVersion,frameRate,
,,,,,,,,33.04944400000386,None,space,113.2200532000279,33.04944400000386,None,,,,,,,,,,,,,,,,,,,,,,,,,,,C,zhongli,22,m,2021_Oct_18_1036,untitled_groupA_k,2021.1.4,119.99054481275915,
50,picture\p11.tif,GG_right_01_42\GGY11.mp4,picture\p11.tif,0,0,0,49,,,,,,,146.3349639000371,147.34472030005418,147.32284200005233,None,150.73539010004606,151.74241050001,181.02491360000568,None,181.02491360000568,None,6.859375,15.334786299965344,181.02491360000568,None,3.859375000000001,27.818212100013625,181.02491360000568,None,6.015625,29.527137299999595,181.02491360000568,None,space,31.77801609999733,181.02491360000568,None,C,zhongli,22,m,2021_Oct_18_1036,untitled_groupA_k,2021.1.4,119.99054481275915,
77,picture\p38.tif,RR_right_01_42\RRY38.mp4,picture\p38.tif,0,1,1,76,,,,,,,212.8309847000055,213.83353709999938,213.83353709999938,None,217.18955600005575,218.19854980002856,247.47073840000667,None,247.47073840000667,None,4.05625,28.134132500039414,247.47073840000667,None,2.2375000000000003,9.393995599995833,247.47073840000667,None,7.0,3.976867299992591,247.47073840000667,None,space,33.633435900032055,247.47073840000667,None,C,zhongli,22,m,2021_Oct_18_1036,untitled_groupA_k,2021.1.4,119.99054481275915,
14,picture\p14.tif,GG_left_01_42\GGZ14.mp4,picture\p14.tif,0,2,2,13,,,,,,,281.13645890000043,282.144886300026,282.1284287000308,None,285.49418220005464,286.5112446999992,315.7849570000544,None,315.7849570000544,None,5.059375,5.752768500009552,315.7849570000544,None,4.074999999999999,7.6862595999846235,315.7849570000544,None,3.990625,14.020447699993383,315.7849570000544,None,space,21.00168990000384,315.7849570000544,None,C,zhongli,22,m,2021_Oct_18_1036,untitled_groupA_k,2021.1.4,119.99054481275915,
42,picture\p42.tif,RR_left_01_42\RRZ42.mp4,picture\p42.tif,0,3,3,41,,,,,,,336.82475760002853,337.8353989000316,337.8121732000145,None,341.1828429000452,342.2000852000201,371.4643328000093,None,371.4643328000093,None,2.9593750000000005,7.1614266000106,371.4643328000093,None,3.9156250000000004,9.494766799965873,371.4643328000093,None,6.953125,4.394997700001113,371.4643328000093,None,space,11.406723199994303,371.4643328000093,None,C,zhongli,22,m,2021_Oct_18_1036,untitled_groupA_k,2021.1.4,119.99054481275915,
10,picture\p10.tif,GG_left_01_42\GGZ10.mp4,picture\p10.tif,0,4,4,9,,,,,,,382.8936081000138,383.90661390003515,383.89297490002355,None,387.26467920001596,388.28079500002787,417.528959200019,None,417.528959200019,None,3.9156250000000004,21.860914800025057,417.528959200019,None,6.925000000000001,13.395179599989206,417.528959200019,None,4.946875,28.670435700041708,417.528959200019,None,space,29.86103730002651,417.528959200019,None,C,zhongli,22,m,2021_Oct_18_1036,untitled_groupA_k,2021.1.4,119.99054481275915,
49,picture\p10.tif,GG_right_01_42\GGY10.mp4,picture\p10.tif,0,5,5,48,,,,,,,447.4189069000422,448.43624330003513,448.4202028000145,None,451.786323700042,452.7941781000118,482.06825650000246,None,482.06825650000246,None,3.9156250000000004,17.541620700038038,482.06825650000246,None,6.071875,15.93367430003127,482.06825650000246,None,5.8656250000000005,13.242337300034706,482.06825650000246,None,space,22.160547699953895,482.06825650000246,None,C,zhongli,22,m,2021_Oct_18_1036,untitled_groupA_k,2021.1.4,119.99054481275915,
8,picture\p08.tif,GG_left_01_42\GGZ08.mp4,picture\p08.tif,0,6,6,7,,,,,,,504.2584552000044,505.2751042000018,505.25872260000324,None,508.6241323000286,509.62622520001605,538.897488000046,None,538.897488000046,None,3.109375000000001,12.91858149995096,538.897488000046,None,4.0375,16.65254099998856,538.897488000046,None,5.050000000000001,14.936467299994547,538.897488000046,None,space,17.556662299961317,538.897488000046,None,C,zhongli,22,m,2021_Oct_18_1036,untitled_groupA_k,2021.1.4,119.99054481275915,
34,picture\p34.tif,RR_left_01_42\RRZ34.mp4,picture\p34.tif,0,7,7,33,,,,,,,556.4882289000088,557.5058317000512,557.4889299000497,None,560.8631246000296,561.8734059000271,591.1381222000346,None,591.1381222000346,None,2.9406250000000003,7.0847840999485925,591.1381222000346,None,4.028125,10.368753199989442,591.1381222000346,None,6.934374999999999,3.7276187000097707,591.1381222000346,None,space,13.55155500001274,591.1381222000346,None,C,zhongli,22,m,2021_Oct_18_1036,untitled_groupA_k,2021.1.4,119.99054481275915,
1,picture\p01.tif,GG_left_01_42\GGZ01.mp4,picture\p01.tif,0,8,8,0,,,,,,,604.7237003000337,605.7356008000206,605.7213374000276,None,609.0949875000515,610.1020535000134,639.3755939000403,None,639.3755939000403,None,5.78125,23.57641149999108,639.3755939000403,None,4.0,10.778332699963357,639.3755939000403,None,4.9375,17.62006599997403,639.3755939000403,None,space,24.598152499995194,639.3755939000403,None,C,zhongli,22,m,2021_Oct_18_1036,untitled_groupA_k,2021.1.4,119.99054481275915,
54,picture\p15.tif,GG_right_01_42\GGY15.mp4,picture\p15.tif,0,9,9,53,,,,,,,664.0078086000285,665.025146000029,665.0088122000452,None,668.3747963000205,669.3830019000452,698.6491288000252,None,698.6491288000252,None,3.953125,9.284714200010058,698.6491288000252,None,3.4093750000000003,24.459212800022215,698.6491288000252,None,6.11875,19.40935910004191,698.6491288000252,None,space,30.838420399988536,698.6491288000252,None,C,zhongli,22,m,2021_Oct_18_1036,untitled_groupA_k,2021.1.4,119.99054481275915,
9,picture\p09.tif,GG_left_01_42\GGZ09.mp4,picture\p09.tif,0,10,10,8,,,,,,,729.5211614000145,730.5305947000161,730.5170925999992,None,733.8885587000404,734.89783120004,764.1623411000473,None,764.1623411000473,None,4.9281250000000005,3.5256176000111736,764.1623411000473,None,4.206250000000001,11.925612899998669,764.1623411000473,None,5.228125,8.81780889997026,764.1623411000473,None,space,13.427475799981039,764.1623411000473,None,C,zhongli,22,m,2021_Oct_18_1036,untitled_groupA_k,2021.1.4,119.99054481275915,
46,picture\p07.tif,GG_right_01_42\GGY07.mp4,picture\p07.tif,0,11,11,45,,,,,,,777.6193108000443,778.6211505000247,778.6211505000247,None,781.9939602000522,782.9951797000249,812.2758168000146,None,812.2758168000146,None,5.171875,7.393027399957646,812.2758168000146,None,5.228125,15.493112299998756,812.2758168000146,None,4.0375,12.993860899994615,812.2758168000146,None,space,15.957164300023578,812.2758168000146,None,C,zhongli,22,m,2021_Oct_18_1036,untitled_groupA_k,2021.1.4,119.99054481275915,
76,picture\p37.tif,RR_right_01_42\RRY37.mp4,picture\p37.tif,0,12,12,75,,,,,,,828.258387400012,829.2671988000511,829.2540570000419,None,832.6247781999991,833.6322677000426,862.8979909000336,None,862.8979909000336,None,3.990625,11.270160200016107,862.8979909000336,None,6.887499999999999,3.5872689000098035,862.8979909000336,None,6.034375000000001,5.05440040002577,862.8979909000336,None,space,11.633397999976296,862.8979909000336,None,C,zhongli,22,m,2021_Oct_18_1036,untitled_groupA_k,2021.1.4,119.99054481275915,
45,picture\p06.tif,GG_right_01_42\GGY06.mp4,picture\p06.tif,0,13,13,44,,,,,,,874.5553861000226,875.557636600046,875.557636600046,None,878.9306721000466,879.9381548000383,909.2134571000352,None,909.2134571000352,None,3.990625,3.2430798999848776,909.2134571000352,None,5.134375,8.67651380004827,909.2134571000352,None,4.1781250000000005,11.984943400020711,909.2134571000352,None,space,13.216789899975993,909.2134571000352,None,C,zhongli,22,m,2021_Oct_18_1036,untitled_groupA_k,2021.1.4,119.99054481275915,
82,picture\p01.tif,RR_right_01_42\RRY01.mp4,picture\p01.tif,0,14,14,81,,,,,,,922.461294000037,923.4786044000066,923.461799700046,None,926.8370096000144,927.8462384000304,957.1108621000312,None,957.1108621000312,None,6.15625,16.125562499975786,957.1108621000312,None,7.0,12.201074599986896,957.1108621000312,None,4.103125,17.926073500013445,957.1108621000312,None,space,18.489188399980776,957.1108621000312,None,C,zhongli,22,m,2021_Oct_18_1036,untitled_groupA_k,2021.1.4,119.99054481275915,
32,picture\p32.tif,RR_left_01_42\RRZ32.mp4,picture\p32.tif,0,15,15,31,,,,,,,975.6249649000238,976.6347364000394,976.6212133000372,None,979.9916813000455,980.9939257000224,1010.265410400054,None,1010.265410400054,None,2.903125,4.802162699983455,1010.265410400054,None,4.121874999999999,6.102502099995036,1010.265410400054,None,6.9437500000000005,2.0192937000538222,1010.265410400054,None,space,7.119003600033466,1010.265410400054,None,C,zhongli,22,m,2021_Oct_18_1036,untitled_groupA_k,2021.1.4,119.99054481275915,
2,picture\p02.tif,GG_left_01_42\GGZ02.mp4,picture\p02.tif,0,16,16,1,,,,,,,1017.4230875000358,1018.4403840000159,1018.4237941000029,None,1021.7816652000183,1022.789841400052,1052.0638391000102,None,1052.0638391000102,None,6.1000000000000005,5.250859100022353,1052.0638391000102,None,5.978125,3.8592986000003293,1052.0638391000102,None,4.984375,12.42636979999952,1052.0638391000102,None,space,13.053794000006747,1052.0638391000102,None,C,zhongli,22,m,2021_Oct_18_1036,untitled_groupA_k,2021.1.4,119.99054481275915,
84,picture\p03.tif,RR_right_01_42\RRY03.mp4,picture\p03.tif,0,17,17,83,,,,,,,1065.1456266000168,1066.146672700008,1066.146672700008,None,1069.5036123000318,1070.514235700015,1099.7864642000059,None,1099.7864642000059,None,2.9499999999999997,10.685395600041375,1099.7864642000059,None,7,6.118886000011116,1099.7864642000059,None,4.046875000000001,12.694454099982977,1099.7864642000059,None,space,13.551364300015848,1099.7864642000059,None,C,zhongli,22,m,2021_Oct_18_1036,untitled_groupA_k,2021.1.4,119.99054481275915,
64,picture\p25.tif,RG_right_01_42\RGY25.mp4,picture\p25.tif,0,18,18,63,,,,,,,1113.36868470005,1114.3783496000106,1114.3556480000261,None,1117.7517885000561,1118.7597389000002,1148.0258361000451,None,1148.0258361000451,None,3.9437500000000005,11.843135399976745,1148.0258361000451,None,2.0968750000000007,10.644304100016598,1148.0258361000451,None,4.05625,8.58592729998054,1148.0258361000451,None,space,18.245296599983703,1148.0258361000451,None,C,zhongli,22,m,2021_Oct_18_1036,untitled_groupA_k,2021.1.4,119.99054481275915,
5,picture\p05.tif,GG_left_01_42\GGZ05.mp4,picture\p05.tif,0,19,19,4,,,,,,,1166.2987766000442,1167.3011224000365,1167.2916823000414,None,1170.6740866000182,1171.6815522000543,1200.9562630000291,None,1200.9562630000291,None,4.984375,21.901471599994693,1200.9562630000291,None,4.159375000000001,23.22670520003885,1200.9562630000291,None,4.084375,5.677754700009245,1200.9562630000291,None,space,23.902859399968293,1200.9562630000291,None,C,zhongli,22,m,2021_Oct_18_1036,untitled_groupA_k,2021.1.4,119.99054481275915,
3,picture\p03.tif,GG_left_01_42\GGZ03.mp4,picture\p03.tif,0,20,20,2,,,,,,,1224.8956959000207,1225.897995300009,1225.897995300009,None,1229.2627042000531,1230.2723451000056,1259.5437419000082,None,1259.5437419000082,None,5.228125,12.110517699969932,1259.5437419000082,None,7,4.394258199958131,1259.5437419000082,None,4.1875,5.836285900033545,1259.5437419000082,None,space,16.906154499971308,1259.5437419000082,None,C,zhongli,22,m,2021_Oct_18_1036,untitled_groupA_k,2021.1.4,119.99054481275915,
73,picture\p34.tif,RR_right_01_42\RRY34.mp4,picture\p34.tif,0,21,21,72,,,,,,,1276.476373100013,1277.4844536000164,1277.4701844000374,None,1280.8348501000437,1281.8450289000175,1311.1170045000035,None,1311.1170045000035,None,2.9781250000000004,7.7517006999696605,1311.1170045000035,None,4.093750000000001,4.861260799982119,1311.1170045000035,None,7.0,6.253158600011375,1311.1170045000035,None,space,8.514361300040036,1311.1170045000035,None,C,zhongli,22,m,2021_Oct_18_1036,untitled_groupA_k,2021.1.4,119.99054481275915,
30,picture\p30.tif,RR_left_01_42\RRZ30.mp4,picture\p30.tif,0,22,22,29,,,,,,,1319.6659769000253,1320.6749818000244,1320.661705000035,None,1324.0416988000507,1325.050007300044,1354.3311795000336,None,1354.3311795000336,None,7,2.1450545999687165,1354.3311795000336,None,2.9875,3.995448000030592,1354.3311795000336,None,4.074999999999999,5.528973499953281,1354.3311795000336,None,space,6.824695700022858,1354.3311795000336,None,C,zhongli,22,m,2021_Oct_18_1036,untitled_groupA_k,2021.1.4,119.99054481275915,
68,picture\p29.tif,RG_right_01_42\RGY29.mp4,picture\p29.tif,0,23,23,67,,,,,,,1361.1887187000248,1362.1967996000312,1362.182713700051,None,1365.5642885000561,1366.5731330000563,1395.846213700017,None,1395.846213700017,None,1.9093750000000007,4.142806500021834,1395.846213700017,None,4.018750000000001,10.902560600021388,1395.846213700017,None,6.025,6.385559699963778,1395.846213700017,None,space,15.471838800003752,1395.846213700017,None,C,zhongli,22,m,2021_Oct_18_1036,untitled_groupA_k,2021.1.4,119.99054481275915,
83,picture\p02.tif,RR_right_01_42\RRY02.mp4,picture\p02.tif,0,24,24,82,,,,,,,1411.3450870000524,1412.354016199999,1412.340269300039,None,1415.7035355000407,1416.7029019000474,1445.9759434000007,None,1445.9759434000007,None,7,2.5276023999904282,1445.9759434000007,None,5.078125,16.153101000003517,1445.9759434000007,None,7,13.495374599995557,1445.9759434000007,None,space,24.384072499989998,1445.9759434000007,None,C,zhongli,22,m,2021_Oct_18_1036,untitled_groupA_k,2021.1.4,119.99054481275915,
67,picture\p28.tif,RG_right_01_42\RGY28.mp4,picture\p28.tif,0,25,25,66,,,,,,,1470.391633500054,1471.3929959000088,1471.3929959000088,None,1474.7583602000377,1475.7673413000302,1505.0405810000375,None,1505.0405810000375,None,3.9437500000000005,10.843073600030039,1505.0405810000375,None,5.940625000000001,9.460428699967451,1505.0405810000375,None,5.153125,7.843574400001671,1505.0405810000375,None,space,11.674590999959037,1505.0405810000375,None,C,zhongli,22,m,2021_Oct_18_1036,untitled_groupA_k,2021.1.4,119.99054481275915,
20,picture\p20.tif,GR_left_01_42\GRZ20.mp4,picture\p20.tif,0,26,26,19,,,,,,,1516.747302600008,1517.7579233000288,1517.7487942000153,None,1521.1231528000208,1522.132249700022,1551.3960747000528,None,1551.3960747000528,None,2.05,10.076791999978013,1551.3960747000528,None,4.0375,8.127286500006448,1551.3960747000528,None,3.990625,9.077768900024239,1551.3960747000528,None,space,11.266386400035117,1551.3960747000528,None,C,zhongli,22,m,2021_Oct_18_1036,untitled_groupA_k,2021.1.4,119.99054481275915,
21,picture\p21.tif,GR_left_01_42\GRZ21.mp4,picture\p21.tif,0,27,27,20,,,,,,,1562.6866850000224,1563.6891587999999,1563.679766300018,None,1567.053928700043,1568.0551487000193,1597.319177700032,None,1597.319177700032,None,2.9875,3.7440821999916807,1597.319177700032,None,4.0,6.669337400002405,1597.319177700032,None,2.9312500000000004,5.086281500000041,1597.319177700032,None,space,7.512808199971914,1597.319177700032,None,C,zhongli,22,m,2021_Oct_18_1036,untitled_groupA_k,2021.1.4,119.99054481275915,
61,picture\p22.tif,RG_right_01_42\RGY22.mp4,picture\p22.tif,0,28,28,60,,,,,,,1604.8685716000036,1605.87691000005,1605.8604092000169,None,1609.234370900027,1610.243734800024,1639.5170280000311,None,1639.5170280000311,None,2.8656249999999996,16.47645439999178,1639.5170280000311,None,1.9656250000000002,17.660167000023648,1639.5170280000311,None,3.071875000000001,18.7443295000121,1639.5170280000311,None,space,19.50798409996787,1639.5170280000311,None,C,zhongli,22,m,2021_Oct_18_1036,untitled_groupA_k,2021.1.4,119.99054481275915,
75,picture\p36.tif,RR_right_01_42\RRY36.mp4,picture\p36.tif,0,29,29,74,,,,,,,1659.0485854000435,1660.0657511000172,1660.0356701000128,None,1663.4156625000178,1664.4233641000465,1693.6971837000456,None,1693.6971837000456,None,6.15625,8.736199600039981,1693.6971837000456,None,4.84375,11.553340400045272,1693.6971837000456,None,6.887499999999999,13.77946620003786,1693.6971837000456,None,space,20.5556690999656,1693.6971837000456,None,C,zhongli,22,m,2021_Oct_18_1036,untitled_groupA_k,2021.1.4,119.99054481275915,
22,picture\p22.tif,GR_left_01_42\GRZ22.mp4,picture\p22.tif,0,30,30,21,,,,,,,1714.278904100007,1715.2814739000169,1715.2721439000452,None,1718.6452955999994,1719.6537330000428,1748.9270315000322,None,1748.9270315000322,None,3.1187500000000004,4.093817999993917,1748.9270315000322,None,1.0843750000000005,2.619074299989734,1748.9270315000322,None,3.1750000000000003,5.253179999999702,1748.9270315000322,None,space,6.243156500044279,1748.9270315000322,None,C,zhongli,22,m,2021_Oct_18_1036,untitled_groupA_k,2021.1.4,119.99054481275915,
60,picture\p21.tif,RG_right_01_42\RGY21.mp4,picture\p21.tif,0,31,31,59,,,,,,,1755.1986813000403,1756.211271600041,1756.1975149000064,None,1759.568944700004,1760.5771720000193,1789.8510564000462,None,1789.8510564000462,None,3.0062500000000005,3.043530000024475,1789.8510564000462,None,3.9156250000000004,7.801705899997614,1789.8510564000462,None,1.9562500000000003,5.4517881000065245,1789.8510564000462,None,space,8.824537300039083,1789.8510564000462,None,C,zhongli,22,m,2021_Oct_18_1036,untitled_groupA_k,2021.1.4,119.99054481275915,
35,picture\p35.tif,RR_left_01_42\RRZ35.mp4,picture\p35.tif,0,32,32,34,,,,,,,1798.708012600022,1799.719011100009,1799.7090938000474,None,1803.0744060000288,1804.0750918000122,1833.348950100015,None,1833.348950100015,None,4.9375,5.010051499994006,1833.348950100015,None,5.059375,8.818548800016288,1833.348950100015,None,4.909375000000001,6.678069699963089,1833.348950100015,None,space,10.19537400000263,1833.348950100015,None,C,zhongli,22,m,2021_Oct_18_1036,untitled_groupA_k,2021.1.4,119.99054481275915,
69,picture\p30.tif,RG_right_01_42\RGY30.mp4,picture\p30.tif,0,33,33,68,,,,,,,1843.5721215000376,1844.583087600011,1844.5736121000373,None,1847.9470746000297,1848.9556751000346,1878.228654000035,None,1878.228654000035,None,5.9593750000000005,4.519826199975796,1878.228654000035,None,6.090625,5.186762099969201,1878.228654000035,None,2.8937500000000003,6.2866330000106245,1878.228654000035,None,space,10.033271499967668,1878.228654000035,None,C,zhongli,22,m,2021_Oct_18_1036,untitled_groupA_k,2021.1.4,119.99054481275915,
57,picture\p18.tif,RG_right_01_42\RGY18.mp4,picture\p18.tif,0,34,34,56,,,,,,,1888.2866898000357,1889.3040677000536,1889.2874057000154,None,1892.6614374000346,1893.6707691000192,1922.944197100005,None,1922.944197100005,None,5.696875,10.234712400007993,1922.944197100005,None,6.5125,21.392834099999163,1922.944197100005,None,6.49375,23.419022499991115,1922.944197100005,None,space,43.79676029999973,1922.944197100005,None,C,zhongli,22,m,2021_Oct_18_1036,untitled_groupA_k,2021.1.4,119.99054481275915,
38,picture\p38.tif,RR_left_01_42\RRZ38.mp4,picture\p38.tif,0,35,35,37,,,,,,,1966.7611111000297,1967.7667602000292,1967.7542235000292,None,1971.1250522000482,1972.1331895000185,2001.4056306999992,None,2001.4056306999992,None,4.046875000000001,8.795100699993782,2001.4056306999992,None,3.015625,12.470092100033071,2001.4056306999992,None,7,2.22910390002653,2001.4056306999992,None,space,12.936555500025861,2001.4056306999992,None,C,zhongli,22,m,2021_Oct_18_1036,untitled_groupA_k,2021.1.4,119.99054481275915,
33,picture\p33.tif,RR_left_01_42\RRZ33.mp4,picture\p33.tif,0,36,36,32,,,,,,,2014.3723564000102,2015.374136600003,2015.3647038000054,None,2018.7383253000444,2019.7473016000004,2049.0212775000255,None,2049.0212775000255,None,6.090625,6.766899899987038,2049.0212775000255,None,5.29375,11.650667399982922,2049.0212775000255,None,4.028125,9.075615899986587,2049.0212775000255,None,space,12.343936800025403,2049.0212775000255,None,C,zhongli,22,m,2021_Oct_18_1036,untitled_groupA_k,2021.1.4,119.99054481275915,
74,picture\p35.tif,RR_right_01_42\RRY35.mp4,picture\p35.tif,0,37,37,73,,,,,,,2061.3944691000506,2062.4048995000194,2062.3824431000394,None,2065.753042700002,2066.760891300044,2096.0264474000433,None,2096.0264474000433,None,6.128125000000001,3.569695000012871,2096.0264474000433,None,6.0625,11.19496990001062,2096.0264474000433,None,5.78125,12.178778500005137,2096.0264474000433,None,space,13.508640500018373,2096.0264474000433,None,C,zhongli,22,m,2021_Oct_18_1036,untitled_groupA_k,2021.1.4,119.99054481275915,
58,picture\p19.tif,RG_right_01_42\RGY19.mp4,picture\p19.tif,0,38,38,57,,,,,,,2109.558720900037,2110.5599023000104,2110.5599023000104,None,2113.933437800035,2114.942428600043,2144.2234176000347,None,2144.2234176000347,None,5.978125,5.569064500043169,2144.2234176000347,None,4.084375,16.185562700033188,2144.2234176000347,None,6.081250000000001,6.861646699951962,2144.2234176000347,None,space,18.20010859996546,2144.2234176000347,None,C,zhongli,22,m,2021_Oct_18_1036,untitled_groupA_k,2021.1.4,119.99054481275915,
11,picture\p11.tif,GG_left_01_42\GGZ11.mp4,picture\p11.tif,0,39,39,10,,,,,,,2162.448261200043,2163.458585400018,2163.4351606000564,None,2166.8064588000416,2167.814829800045,2197.0716892000055,None,2197.0716892000055,None,6.784375000000001,11.501421399996616,2197.0716892000055,None,6.015625,6.244298599951435,2197.0716892000055,None,3.990625,8.528060199983884,2197.0716892000055,None,space,12.353665100003127,2197.0716892000055,None,C,zhongli,22,m,2021_Oct_18_1036,untitled_groupA_k,2021.1.4,119.99054481275915,
48,picture\p09.tif,GG_right_01_42\GGY09.mp4,picture\p09.tif,0,40,40,47,,,,,,,2209.4534984000493,2210.4616124000167,2210.449818700028,None,2213.8117633000365,2214.820721700031,2244.0942397000035,None,2244.0942397000035,None,6.11875,9.218715100025292,2244.0942397000035,None,5.6312500000000005,19.168520000006538,2244.0942397000035,None,6.456250000000001,17.753184199973475,2244.0942397000035,None,space,20.026209500036202,2244.0942397000035,None,C,zhongli,22,m,2021_Oct_18_1036,untitled_groupA_k,2021.1.4,119.99054481275915,
63,picture\p24.tif,RG_right_01_42\RGY24.mp4,picture\p24.tif,0,41,41,62,,,,,,,2264.150840700022,2265.159825800045,2265.143101900001,None,2268.526384100027,2269.5345093000215,2298.7912922000396,None,2298.7912922000396,None,1.1687500000000004,7.717447800037917,2298.7912922000396,None,1,8.593591700016987,2298.7912922000396,None,6.0625,9.66055490000872,2298.7912922000396,None,space,10.456597800017335,2298.7912922000396,None,C,zhongli,22,m,2021_Oct_18_1036,untitled_groupA_k,2021.1.4,119.99054481275915,
36,picture\p36.tif,RR_left_01_42\RRZ36.mp4,picture\p36.tif,0,42,42,35,,,,,,,2309.2733954000287,2310.2825236000353,2310.26943320001,None,2313.6401163000264,2314.6570663000457,2343.922326400003,None,2343.922326400003,None,6.015625,13.24333620001562,2343.922326400003,None,4.9,14.902269600017462,2343.922326400003,None,7.0,9.044892500038259,2343.922326400003,None,space,15.739306400006171,2343.922326400003,None,C,zhongli,22,m,2021_Oct_18_1036,untitled_groupA_k,2021.1.4,119.99054481275915,
25,picture\p25.tif,GR_left_01_42\GRZ25.mp4,picture\p25.tif,0,43,43,24,,,,,,,2359.695857600018,2360.706457799999,2360.6833650000044,None,2364.0712867000257,2365.079621700046,2394.352788600023,None,2394.352788600023,None,1,5.719745500013232,2394.352788600023,None,1.0093750000000004,2.412407899973914,2394.352788600023,None,7,3.7702786999871023,2394.352788600023,None,space,6.824292799981777,2394.352788600023,None,C,zhongli,22,m,2021_Oct_18_1036,untitled_groupA_k,2021.1.4,119.99054481275915,
62,picture\p23.tif,RG_right_01_42\RGY23.mp4,picture\p23.tif,0,44,44,61,,,,,,,2401.210357600008,2402.2183959000395,2402.204704200034,None,2405.5857881000265,2406.5947355000535,2435.8509990000166,None,2435.8509990000166,None,1.0562500000000004,5.377489599981345,2435.8509990000166,None,6.081250000000001,2.7107893000356853,2435.8509990000166,None,6.915625,8.927864000026602,2435.8509990000166,None,space,11.867894700029865,2435.8509990000166,None,C,zhongli,22,m,2021_Oct_18_1036,untitled_groupA_k,2021.1.4,119.99054481275915,
80,picture\p41.tif,RR_right_01_42\RRY41.mp4,picture\p41.tif,0,45,45,79,,,,,,,2447.7578835000168,2448.7674979000003,2448.7501705000177,None,2452.1162916000467,2453.124975200044,2482.390023600019,None,2482.390023600019,None,4.028125,3.7032091000000946,2482.390023600019,None,5.040625,5.619764399947599,2482.390023600019,None,3.9718750000000007,7.420568700006697,2482.390023600019,None,space,22.46148759999778,2482.390023600019,None,C,zhongli,22,m,2021_Oct_18_1036,untitled_groupA_k,2021.1.4,119.99054481275915,
40,picture\p40.tif,RR_left_01_42\RRZ40.mp4,picture\p40.tif,0,46,46,39,,,,,,,2504.8799354000366,2505.882502600027,2505.8726792000234,None,2509.2472091000527,2510.254843300034,2539.536445900041,None,2539.536445900041,None,5.603125,9.29531890002545,2539.536445900041,None,3.1375,33.22076430002926,2539.536445900041,None,4.909375000000001,12.58746660000179,2539.536445900041,None,space,34.504985700012185,2539.536445900041,None,C,zhongli,22,m,2021_Oct_18_1036,untitled_groupA_k,2021.1.4,119.99054481275915,
28,picture\p28.tif,GR_left_01_42\GRZ28.mp4,picture\p28.tif,0,47,47,27,,,,,,,2574.0770207000314,2575.085593399999,2575.072428500047,None,2578.4602638000506,2579.470258400019,2608.741300900001,None,2608.741300900001,None,6.653124999999999,7.4775174999958836,2608.741300900001,None,5.921875,10.286648500012234,2608.741300900001,None,4.99375,15.22008860000642,2608.741300900001,None,space,15.545684800017625,2608.741300900001,None,C,zhongli,22,m,2021_Oct_18_1036,untitled_groupA_k,2021.1.4,119.99054481275915,
71,picture\p32.tif,RR_right_01_42\RRY32.mp4,picture\p32.tif,0,48,48,70,,,,,,,2624.324390200025,2625.3261864000233,2625.316791600024,None,2628.6912148000556,2629.6993502000114,2658.973306400003,None,2658.973306400003,None,4.871874999999999,13.48424109996995,2658.973306400003,None,4.009375,18.659551100048702,2658.973306400003,None,5.40625,10.194083199952729,2658.973306400003,None,space,19.066964699944947,2658.973306400003,None,C,zhongli,22,m,2021_Oct_18_1036,untitled_groupA_k,2021.1.4,119.99054481275915,
53,picture\p14.tif,GG_right_01_42\GGY14.mp4,picture\p14.tif,0,49,49,52,,,,,,,2678.0717842000304,2679.082044300041,2679.0588756000507,None,2682.4381208000123,2683.445850600023,2712.7114771000342,None,2712.7114771000342,None,5.4625,10.260150899994187,2712.7114771000342,None,5.809374999999999,8.402182499994524,2712.7114771000342,None,5.303125,17.877573399979156,2712.7114771000342,None,space,25.60758910002187,2712.7114771000342,None,C,zhongli,22,m,2021_Oct_18_1036,untitled_groupA_k,2021.1.4,119.99054481275915,
51,picture\p12.tif,GG_right_01_42\GGY12.mp4,picture\p12.tif,0,50,50,50,,,,,,,2738.3431382000563,2739.34536820004,2739.335776300053,None,2742.717883300036,2743.735169899999,2773.009436400025,None,2773.009436400025,None,5.9593750000000005,10.360682899947278,2773.009436400025,None,5.040625,14.202645000012126,2773.009436400025,None,4.093750000000001,15.586506300023757,2773.009436400025,None,space,23.97694780002348,2773.009436400025,None,C,zhongli,22,m,2021_Oct_18_1036,untitled_groupA_k,2021.1.4,119.99054481275915,
55,picture\p16.tif,GG_right_01_42\GGY16.mp4,picture\p16.tif,0,51,51,54,,,,,,,2797.0122004000004,2798.024604300037,2798.0123637000215,None,2801.3906406000024,2802.391172500036,2831.6636354000075,None,2831.6636354000075,None,5.134375,9.844115500047337,2831.6636354000075,None,4.05625,8.794791600026656,2831.6636354000075,None,5.809374999999999,3.753736399987247,2831.6636354000075,None,space,11.51173289999133,2831.6636354000075,None,C,zhongli,22,m,2021_Oct_18_1036,untitled_groupA_k,2021.1.4,119.99054481275915,
43,picture\p04.tif,GG_right_01_42\GGY04.mp4,picture\p04.tif,0,52,52,42,,,,,,,2843.2126002000296,2844.221785300004,2844.2078233000357,None,2847.579785500013,2848.588516900025,2877.8693435000023,None,2877.8693435000023,None,6.137499999999999,12.134699799993541,2877.8693435000023,None,4.6937500000000005,15.692886899982113,2877.8693435000023,None,4.1312500000000005,13.952626499987673,2877.8693435000023,None,space,20.21049159998074,2877.8693435000023,None,C,zhongli,22,m,2021_Oct_18_1036,untitled_groupA_k,2021.1.4,119.99054481275915,
39,picture\p39.tif,RR_left_01_42\RRZ39.mp4,picture\p39.tif,0,53,53,38,,,,,,,2898.118792400055,2899.1289698000182,2899.1055095000193,None,2902.485172500019,2903.5018650000566,2932.7588674,None,2932.7588674,None,2.921875000000001,1.5096195000223815,2932.7588674,None,6.109375,3.743313900020439,2932.7588674,None,5.0218750000000005,4.426895799988415,2932.7588674,None,space,5.0780831999727525,2932.7588674,None,C,zhongli,22,m,2021_Oct_18_1036,untitled_groupA_k,2021.1.4,119.99054481275915,
81,picture\p42.tif,RR_right_01_42\RRY42.mp4,picture\p42.tif,0,54,54,80,,,,,,,2937.8751678000554,2938.8840881000506,2938.8704069000087,None,2942.241566600045,2943.251498000056,2972.5224669000017,None,2972.5224669000017,None,5.978125,2.90286750002997,2972.5224669000017,None,2.9875,5.803183799958788,2972.5224669000017,None,7,4.154312700033188,2972.5224669000017,None,space,7.247532700013835,2972.5224669000017,None,C,zhongli,22,m,2021_Oct_18_1036,untitled_groupA_k,2021.1.4,119.99054481275915,
65,picture\p26.tif,RG_right_01_42\RGY26.mp4,picture\p26.tif,0,55,55,64,,,,,,,2979.8065893000457,2980.815901300055,2980.793819500017,None,2984.181102100003,2985.1892700000317,3014.4717904000427,None,3014.4717904000427,None,7.0,12.468168799998239,3014.4717904000427,None,6.090625,13.793267800007015,3014.4717904000427,None,3.053125,18.087418899987824,3014.4717904000427,None,space,18.83748749998631,3014.4717904000427,None,C,zhongli,22,m,2021_Oct_18_1036,untitled_groupA_k,2021.1.4,119.99054481275915,
23,picture\p23.tif,GR_left_01_42\GRZ23.mp4,picture\p23.tif,0,56,56,22,,,,,,,3033.3363229000242,3034.345259500027,3034.332819800009,None,3037.7115549000446,3038.71955790004,3067.993719400023,None,3067.993719400023,None,1.0562500000000004,5.899671800027136,3067.993719400023,None,5.528124999999999,21.166425800009165,3067.993719400023,None,6.953125,4.358993800007738,3067.993719400023,None,space,23.652486099977978,3067.993719400023,None,C,zhongli,22,m,2021_Oct_18_1036,untitled_groupA_k,2021.1.4,119.99054481275915,
19,picture\p19.tif,GR_left_01_42\GRZ19.mp4,picture\p19.tif,0,57,57,18,,,,,,,3091.6833029000554,3092.683768100047,3092.683768100047,None,3096.066254400008,3097.076666100009,3126.349363800022,None,3126.349363800022,None,6.887499999999999,16.14415570005076,3126.349363800022,None,5.359375,18.602587800007313,3126.349363800022,None,6.4281250000000005,8.894887700036634,3126.349363800022,None,space,22.445263499976136,3126.349363800022,None,C,zhongli,22,m,2021_Oct_18_1036,untitled_groupA_k,2021.1.4,119.99054481275915,
66,picture\p27.tif,RG_right_01_42\RGY27.mp4,picture\p27.tif,0,58,58,65,,,,,,,3148.8188630000222,3149.831397800008,3149.817585600016,None,3153.205681200023,3154.2139423000044,3183.4790181000135,None,3183.4790181000135,None,7.0,5.7614863000344485,3183.4790181000135,None,6.025,8.811864699993748,3183.4790181000135,None,2.78125,12.144928299996536,3183.4790181000135,None,space,13.093172800028697,3183.4790181000135,None,C,zhongli,22,m,2021_Oct_18_1036,untitled_groupA_k,2021.1.4,119.99054481275915,
52,picture\p13.tif,GG_right_01_42\GGY13.mp4,picture\p13.tif,0,59,59,51,,,,,,,3196.6112582000205,3197.6204510000534,3197.603849100007,None,3200.995385600021,3202.0033261000062,3231.267612100055,None,3231.267612100055,None,3.990625,18.642955999996047,3231.267612100055,None,5.8187500000000005,14.40142739994917,3231.267612100055,None,4.9750000000000005,26.860376700002234,3231.267612100055,None,space,28.11966389999725,3231.267612100055,None,C,zhongli,22,m,2021_Oct_18_1036,untitled_groupA_k,2021.1.4,119.99054481275915,
16,picture\p16.tif,GR_left_01_42\GRZ16.mp4,picture\p16.tif,0,60,60,15,,,,,,,3259.4162955000065,3260.425796399999,3260.412280800054,None,3263.808087500045,3264.817210100009,3294.090379800007,None,3294.090379800007,None,5.059375,4.727577900048345,3294.090379800007,None,4.0,7.936287300020922,3294.090379800007,None,6.85,6.84465830004774,3294.090379800007,None,space,8.628406700037885,3294.090379800007,None,C,zhongli,22,m,2021_Oct_18_1036,untitled_groupA_k,2021.1.4,119.99054481275915,
6,picture\p06.tif,GG_left_01_42\GGZ06.mp4,picture\p06.tif,0,61,61,5,,,,,,,3302.7478983000037,3303.7554983000155,3303.742213700025,None,3307.122346500051,3308.1313603000017,3337.4038820000133,None,3337.4038820000133,None,5.93125,11.910962800029665,3337.4038820000133,None,4.009375,12.76120790001005,3337.4038820000133,None,2.9406250000000003,13.745225699967705,3337.4038820000133,None,space,14.298855900007766,3337.4038820000133,None,C,zhongli,22,m,2021_Oct_18_1036,untitled_groupA_k,2021.1.4,119.99054481275915,
72,picture\p33.tif,RR_right_01_42\RRY33.mp4,picture\p33.tif,0,62,62,71,,,,,,,3351.7364352000295,3352.7446054000175,3352.73214940005,None,3356.0948854000308,3357.1036347000045,3386.3764062000555,None,3386.3764062000555,None,6.043749999999999,3.418915599992033,3386.3764062000555,None,3.0999999999999996,6.202308600011747,3386.3764062000555,None,5.303125,4.74405450001359,3386.3764062000555,None,space,6.786716700007673,3386.3764062000555,None,C,zhongli,22,m,2021_Oct_18_1036,untitled_groupA_k,2021.1.4,119.99054481275915,
56,picture\p17.tif,GG_right_01_42\GGY17.mp4,picture\p17.tif,0,63,63,55,,,,,,,3393.201124400017,3394.2116237000446,3394.18844550004,None,3397.559871400008,3398.56959020003,3427.8328423000057,None,3427.8328423000057,None,6.409375000000001,8.193400299991481,3427.8328423000057,None,5.800000000000001,9.077377299952786,3427.8328423000057,None,5.378125000000001,10.886507500021253,3427.8328423000057,None,space,12.328904299996793,3427.8328423000057,None,C,zhongli,22,m,2021_Oct_18_1036,untitled_groupA_k,2021.1.4,119.99054481275915,
78,picture\p39.tif,RR_right_01_42\RRY39.mp4,picture\p39.tif,0,64,64,77,,,,,,,3440.1903489000397,3441.2008153000497,3441.1780762000126,None,3444.548602499999,3445.557469100051,3474.8309354000376,None,3474.8309354000376,None,5.574999999999999,12.410062399983872,3474.8309354000376,None,6.887499999999999,4.043600000033621,3474.8309354000376,None,6.231249999999999,13.710618700017221,3474.8309354000376,None,space,15.409731700026896,3474.8309354000376,None,C,zhongli,22,m,2021_Oct_18_1036,untitled_groupA_k,2021.1.4,119.99054481275915,
79,picture\p40.tif,RR_right_01_42\RRY40.mp4,picture\p40.tif,0,65,65,78,,,,,,,3490.2712915000156,3491.2881509000435,3491.271972300019,None,3494.629412600014,3495.6386581000406,3524.9192326000193,None,3524.9192326000193,None,6.4750000000000005,9.18650000001071,3524.9192326000193,None,2.9312500000000004,18.66142169997329,3524.9192326000193,None,4.8812500000000005,16.095175499969628,3524.9192326000193,None,space,19.828565299976617,3524.9192326000193,None,C,zhongli,22,m,2021_Oct_18_1036,untitled_groupA_k,2021.1.4,119.99054481275915,
70,picture\p31.tif,RG_right_01_42\RGY31.mp4,picture\p31.tif,0,66,66,69,,,,,,,3544.785067300021,3545.785532500013,3545.785532500013,None,3549.1607850000146,3550.169898800028,3579.441667600011,None,3579.441667600011,None,6.71875,9.761181899986695,3579.441667600011,None,4.946875,6.219618300034199,3579.441667600011,None,5.9125000000000005,10.745277700014412,3579.441667600011,None,space,11.437541699968278,3579.441667600011,None,C,zhongli,22,m,2021_Oct_18_1036,untitled_groupA_k,2021.1.4,119.99054481275915,
29,picture\p29.tif,RR_left_01_42\RRZ29.mp4,picture\p29.tif,0,67,67,28,,,,,,,3590.9077684000367,3591.916314500035,3591.899891500012,None,3595.274473800033,3596.282340600039,3625.5473096000496,None,3625.5473096000496,None,6.465624999999999,10.760015800013207,3625.5473096000496,None,5.96875,13.69402389996685,3625.5473096000496,None,5.012499999999999,16.644717500021216,3625.5473096000496,None,space,17.328969900030643,3625.5473096000496,None,C,zhongli,22,m,2021_Oct_18_1036,untitled_groupA_k,2021.1.4,119.99054481275915,
7,picture\p07.tif,GG_left_01_42\GGZ07.mp4,picture\p07.tif,0,68,68,6,,,,,,,3642.9132985000033,3643.9223987000296,3643.909163400007,None,3647.272647200036,3648.2817208000342,3677.5455538000097,None,3677.5455538000097,None,5.949999999999999,14.318038099969272,3677.5455538000097,None,4.581250000000001,19.21876609994797,3677.5455538000097,None,5.4625,20.81981390004512,3677.5455538000097,None,space,21.566299300000537,3677.5455538000097,None,C,zhongli,22,m,2021_Oct_18_1036,untitled_groupA_k,2021.1.4,119.99054481275915,
12,picture\p12.tif,GG_left_01_42\GGZ12.mp4,picture\p12.tif,0,69,69,11,,,,,,,3699.1354414000525,3700.1528093000525,3700.1359793000156,None,3703.5113044000464,3704.512035700027,3733.7849142000196,None,3733.7849142000196,None,6.465624999999999,4.468984099978115,3733.7849142000196,None,5.6875,5.260870600002818,3733.7849142000196,None,4.590625,6.111723300011363,3733.7849142000196,None,space,11.067660600005183,3733.7849142000196,None,C,zhongli,22,m,2021_Oct_18_1036,untitled_groupA_k,2021.1.4,119.99054481275915,
24,picture\p24.tif,GR_left_01_42\GRZ24.mp4,picture\p24.tif,0,70,70,23,,,,,,,3744.883705700049,3745.8920673000393,3745.875504000054,None,3749.2753137000254,3750.2762538000243,3779.548999999999,None,3779.548999999999,None,5.987500000000001,10.868033100035973,3779.548999999999,None,1.0187500000000003,8.47678139997879,3779.548999999999,None,7,9.593861900037155,3779.548999999999,None,space,11.44604300003266,3779.548999999999,None,C,zhongli,22,m,2021_Oct_18_1036,untitled_groupA_k,2021.1.4,119.99054481275915,
17,picture\p17.tif,GR_left_01_42\GRZ17.mp4,picture\p17.tif,0,71,71,16,,,,,,,3791.023086800007,3792.0318090000073,3792.0149298000033,None,3795.3975225000177,3796.3993640000117,3825.6709539000294,None,3825.6709539000294,None,6.925000000000001,19.868123900028877,3825.6709539000294,None,5.9593750000000005,8.869778599997517,3825.6709539000294,None,5.078125,9.928559099964332,3825.6709539000294,None,space,24.795607000007294,3825.6709539000294,None,C,zhongli,22,m,2021_Oct_18_1036,untitled_groupA_k,2021.1.4,119.99054481275915,
44,picture\p05.tif,GG_right_01_42\GGY05.mp4,picture\p05.tif,0,72,72,43,,,,,,,3850.494327799999,3851.503424499999,3851.489913300029,None,3854.111727600044,3855.1109117000015,3884.3852780000307,None,3884.3852780000307,None,6.071875,5.309313799953088,3884.3852780000307,None,5.0218750000000005,6.535620699985884,3884.3852780000307,None,3.053125,2.6937008000095375,3884.3852780000307,None,space,7.114510099985637,3884.3852780000307,None,C,zhongli,22,m,2021_Oct_18_1036,untitled_groupA_k,2021.1.4,119.99054481275915,
18,picture\p18.tif,GR_left_01_42\GRZ18.mp4,picture\p18.tif,0,73,73,17,,,,,,,3891.5259681000025,3892.542913000041,3892.5264730000054,None,3895.8928803000017,3896.9009963000426,3926.183641200012,None,3926.183641200012,None,6.165625,4.985358899983112,3926.183641200012,None,6.9437500000000005,3.536045600019861,3926.183641200012,None,5.987500000000001,7.687497100036126,3926.183641200012,None,space,8.506720200006384,3926.183641200012,None,C,zhongli,22,m,2021_Oct_18_1036,untitled_groupA_k,2021.1.4,119.99054481275915,
27,picture\p27.tif,GR_left_01_42\GRZ27.mp4,picture\p27.tif,0,74,74,26,,,,,,,3934.7238873000024,3935.7320624000276,3935.7172610000125,None,3939.0900767000276,3940.107063100033,3969.371474100044,None,3969.371474100044,None,7,1.8033548999810591,3969.371474100044,None,5.93125,2.779076599981636,3969.371474100044,None,3.053125,4.145506399974693,3969.371474100044,None,space,4.691682300006505,3969.371474100044,None,C,zhongli,22,m,2021_Oct_18_1036,untitled_groupA_k,2021.1.4,119.99054481275915,
47,picture\p08.tif,GG_right_01_42\GGY08.mp4,picture\p08.tif,0,75,75,46,,,,,,,3974.0962848000345,3975.0985887999996,3975.0985887999996,None,3978.471795200021,3979.480168600043,4008.7365828000475,None,4008.7365828000475,None,3.9625000000000004,5.059240399976261,4008.7365828000475,None,5.8656250000000005,2.7263590999646112,4008.7365828000475,None,5.078125,3.426833599980455,4008.7365828000475,None,space,6.724450300040189,4008.7365828000475,None,C,zhongli,22,m,2021_Oct_18_1036,untitled_groupA_k,2021.1.4,119.99054481275915,
41,picture\p41.tif,RR_left_01_42\RRZ41.mp4,picture\p41.tif,0,76,76,40,,,,,,,4015.4858445000136,4016.496259400039,4016.473205300048,None,4019.8442523000413,4020.8543518000515,4050.117706500052,None,4050.117706500052,None,2.8937500000000003,4.902697800018359,4050.117706500052,None,7,2.8024393999949098,4050.117706500052,None,5.875,3.6622968000010587,4050.117706500052,None,space,5.6837716000154614,4050.117706500052,None,C,zhongli,22,m,2021_Oct_18_1036,untitled_groupA_k,2021.1.4,119.99054481275915,
13,picture\p13.tif,GG_left_01_42\GGZ13.mp4,picture\p13.tif,0,77,77,12,,,,,,,4055.825436700019,4056.8427334000007,4056.8261768000084,None,4060.1843812000006,4061.192606800003,4090.449406700034,None,4090.449406700034,None,5.987500000000001,8.285155299992766,4090.449406700034,None,5.987500000000001,9.327702299982775,4090.449406700034,None,4.946875,11.311610999982804,4090.449406700034,None,space,15.260543899959885,4090.449406700034,None,C,zhongli,22,m,2021_Oct_18_1036,untitled_groupA_k,2021.1.4,119.99054481275915,
59,picture\p20.tif,RG_right_01_42\RGY20.mp4,picture\p20.tif,0,78,78,58,,,,,,,4105.74795660004,4106.765700800053,4106.7485960000195,None,4110.114625100046,4111.124933000014,4140.396011500037,None,4140.396011500037,None,2.9312500000000004,4.9354655999923125,4140.396011500037,None,6.1000000000000005,8.203385300002992,4140.396011500037,None,7,6.711685699992813,4140.396011500037,None,space,8.725016500044148,4140.396011500037,None,C,zhongli,22,m,2021_Oct_18_1036,untitled_groupA_k,2021.1.4,119.99054481275915,
15,picture\p15.tif,GR_left_01_42\GRZ15.mp4,picture\p15.tif,0,79,79,14,,,,,,,4149.154529700056,4150.162957100023,4150.146992200054,None,4153.520711500023,4154.5224438000005,4183.810453200014,None,4183.810453200014,None,6.015625,3.7944768000161275,4183.810453200014,None,4.121874999999999,5.51988729997538,4183.810453200014,None,6.915625,2.678291999967769,4183.810453200014,None,space,6.0808902000426315,4183.810453200014,None,C,zhongli,22,m,2021_Oct_18_1036,untitled_groupA_k,2021.1.4,119.99054481275915,
37,picture\p37.tif,RR_left_01_42\RRZ37.mp4,picture\p37.tif,0,80,80,36,,,,,,,4189.927251200017,4190.93854100001,4190.928838300053,None,4194.285132900055,4195.293044600054,4224.568315600045,None,4224.568315600045,None,4.862500000000001,7.841217900044285,4224.568315600045,None,6.128125000000001,5.158284700009972,4224.568315600045,None,7,3.650644799985457,4224.568315600045,None,space,8.393350299971644,4224.568315600045,None,C,zhongli,22,m,2021_Oct_18_1036,untitled_groupA_k,2021.1.4,119.99054481275915,
26,picture\p26.tif,GR_left_01_42\GRZ26.mp4,picture\p26.tif,0,81,81,25,,,,,,,4232.99972240004,4234.002008300042,4234.002008300042,None,4237.374910000013,4238.3847465,4267.648080100014,None,4267.648080100014,None,7,3.3275482999742962,4267.648080100014,None,6.390625,5.069774899980985,4267.648080100014,None,3.0812500000000003,9.211068300006445,4267.648080100014,None,space,9.747364400012884,4267.648080100014,None,C,zhongli,22,m,2021_Oct_18_1036,untitled_groupA_k,2021.1.4,119.99054481275915,
4,picture\p04.tif,GG_left_01_42\GGZ04.mp4,picture\p04.tif,0,82,82,3,,,,,,,4277.431287400017,4278.448214700038,4278.431346000056,None,4281.79779760004,4282.80647120002,4312.071323600016,None,4312.071323600016,None,6.3062499999999995,7.568028700014111,4312.071323600016,None,5.65,8.511245200003032,4312.071323600016,None,4.890625,9.318892400013283,4312.071323600016,None,space,10.091698999982327,4312.071323600016,None,C,zhongli,22,m,2021_Oct_18_1036,untitled_groupA_k,2021.1.4,119.99054481275915,
31,picture\p31.tif,RR_left_01_42\RRZ31.mp4,picture\p31.tif,0,83,83,30,,,,,,,4322.195107000007,4323.197534200037,4323.188126100053,None,4326.562340200006,4327.570688600012,4356.826553200022,None,4356.826553200022,None,6.699999999999999,2.3447791999788024,4356.826553200022,None,5.8656250000000005,3.1200547000044025,4356.826553200022,None,5.3500000000000005,4.8122893999679945,4356.826553200022,None,space,5.640773899969645,4356.826553200022,None,C,zhongli,22,m,2021_Oct_18_1036,untitled_groupA_k,2021.1.4,119.99054481275915,
