Numb,picture_show,Video_1,picture_judge,trials.thisRepN,trials.thisTrialN,trials.thisN,trials.thisIndex,image_intr.started,image_intr.stopped,key_resp_intr.keys,key_resp_intr.rt,key_resp_intr.started,key_resp_intr.stopped,image_show_text.started,image_show_text.stopped,image_show.started,image_show.stopped,image_video_text.started,image_video_text.stopped,image_judge.started,image_judge.stopped,image_judge_text.started,image_judge_text.stopped,slider_left.response,slider_left.rt,slider_left.started,slider_left.stopped,slider_mid.response,slider_mid.rt,slider_mid.started,slider_mid.stopped,slider_right.response,slider_right.rt,slider_right.started,slider_right.stopped,key_resp_next.keys,key_resp_next.rt,key_resp_next.started,key_resp_next.stopped,group,participant,age,gender(m/f),date,expName,psychopyVersion,frameRate,
,,,,,,,,40.01206290000118,None,space,16.527660700001434,40.01206290000118,None,,,,,,,,,,,,,,,,,,,,,,,,,,,C,zouping,21,f,2021_Oct_14_0959,untitled_groupA_k,2021.1.4,119.94233172588457,
26,picture\p26.tif,GR_left_01_42\GRZ26.mp4,picture\p26.tif,0,0,0,25,,,,,,,56.590349800000695,57.59613460000037,57.57441589999871,None,60.230565699999715,61.23577250000017,90.51038260000132,None,90.51038260000132,None,6.9625,6.616233000000648,90.51038260000132,None,1.0750000000000002,11.328323700003239,90.51038260000132,None,5.893750000000001,9.262372699999105,90.51038260000132,None,space,12.662297200000467,90.51038260000132,None,C,zouping,21,f,2021_Oct_14_0959,untitled_groupA_k,2021.1.4,119.94233172588457,
68,picture\p29.tif,RG_right_01_42\RGY29.mp4,picture\p29.tif,0,1,1,67,,,,,,,103.20815529999891,104.21700129999954,104.20382550000068,None,106.83397600000171,107.83503610000116,137.09839289999945,None,137.09839289999945,None,4.065625000000001,22.45160350000151,137.09839289999945,None,6.859375,6.877410000000964,137.09839289999945,None,5.96875,14.402587599997787,137.09839289999945,None,space,23.092100899997604,137.09839289999945,None,C,zouping,21,f,2021_Oct_14_0959,untitled_groupA_k,2021.1.4,119.94233172588457,
7,picture\p07.tif,GG_left_01_42\GGZ07.mp4,picture\p07.tif,0,2,2,6,,,,,,,160.22189549999894,161.2240899999997,161.2240899999997,None,163.82203089999894,164.83205950000047,194.1043548000016,None,194.1043548000016,None,4.121874999999999,1.7691647999999986,194.1043548000016,None,4.028125,2.953067899998132,194.1043548000016,None,4.009375,4.07024139999703,194.1043548000016,None,space,4.498242499998014,194.1043548000016,None,C,zouping,21,f,2021_Oct_14_0959,untitled_groupA_k,2021.1.4,119.94233172588457,
69,picture\p30.tif,RG_right_01_42\RGY30.mp4,picture\p30.tif,0,3,3,68,,,,,,,198.62816380000004,199.63724680000087,199.62089189999824,None,203.0454065999984,204.05422900000121,233.3274937999995,None,233.3274937999995,None,4.018750000000001,16.042868200001976,233.3274937999995,None,7,9.777562899998884,233.3274937999995,None,1.928125,17.452223900003446,233.3274937999995,None,space,18.302217799999198,233.3274937999995,None,C,zouping,21,f,2021_Oct_14_0959,untitled_groupA_k,2021.1.4,119.94233172588457,
71,picture\p32.tif,RR_right_01_42\RRY32.mp4,picture\p32.tif,0,4,4,70,,,,,,,251.66773779999858,252.66936239999995,252.66936239999995,None,255.26747729999988,256.27660509999987,285.54932140000165,None,285.54932140000165,None,6.0531250000000005,9.227612200000294,285.54932140000165,None,5.059375,10.30272839999816,285.54932140000165,None,6.915625,2.7281280999995943,285.54932140000165,None,space,10.53041839999787,285.54932140000165,None,C,zouping,21,f,2021_Oct_14_0959,untitled_groupA_k,2021.1.4,119.94233172588457,
17,picture\p17.tif,GR_left_01_42\GRZ17.mp4,picture\p17.tif,0,5,5,16,,,,,,,296.1033482999992,297.1076816999994,297.0944605000004,None,299.72372109999924,300.73339810000107,329.9976018000016,None,329.9976018000016,None,7,3.735636400000658,329.9976018000016,None,1.0937500000000004,9.336322099999961,329.9976018000016,None,5.9593750000000005,5.6194589999977325,329.9976018000016,None,space,9.603110899999592,329.9976018000016,None,C,zouping,21,f,2021_Oct_14_0959,untitled_groupA_k,2021.1.4,119.94233172588457,
29,picture\p29.tif,RR_left_01_42\RRZ29.mp4,picture\p29.tif,0,6,6,28,,,,,,,339.6381991999988,340.6472627000003,340.62506740000026,None,343.2550408999996,344.2647364000004,373.53691249999974,None,373.53691249999974,None,5.153125,10.419753900001524,373.53691249999974,None,6.85,1.569526399998722,373.53691249999974,None,6.1468750000000005,5.103652099998726,373.53691249999974,None,space,11.274384199998167,373.53691249999974,None,C,zouping,21,f,2021_Oct_14_0959,untitled_groupA_k,2021.1.4,119.94233172588457,
27,picture\p27.tif,GR_left_01_42\GRZ27.mp4,picture\p27.tif,0,7,7,26,,,,,,,384.84397309999986,385.8541839999998,385.8313702999985,None,388.46061539999937,389.4693918000012,418.73386780000146,None,418.73386780000146,None,4.946875,9.353144699998666,418.73386780000146,None,6.034375000000001,8.128664500000014,418.73386780000146,None,6.98125,6.136283899999398,418.73386780000146,None,space,9.786091000001761,418.73386780000146,None,C,zouping,21,f,2021_Oct_14_0959,untitled_groupA_k,2021.1.4,119.94233172588457,
53,picture\p14.tif,GG_right_01_42\GGY14.mp4,picture\p14.tif,0,8,8,52,,,,,,,428.558019600001,429.56657890000133,429.55260740000085,None,432.1582888000012,433.16824780000024,462.4324336999998,None,462.4324336999998,None,4.99375,3.2778490999990026,462.4324336999998,None,4.99375,3.6442266999983985,462.4324336999998,None,4.9375,4.611832599999616,462.4324336999998,None,space,4.874458800000866,462.4324336999998,None,C,zouping,21,f,2021_Oct_14_0959,untitled_groupA_k,2021.1.4,119.94233172588457,
49,picture\p10.tif,GG_right_01_42\GGY10.mp4,picture\p10.tif,0,9,9,48,,,,,,,467.33156450000024,468.3407593999982,468.31928340000013,None,471.16506070000105,472.1738183999987,501.43865300000107,None,501.43865300000107,None,4.9750000000000005,2.177199000001565,501.43865300000107,None,4.8812500000000005,3.144614400000137,501.43865300000107,None,4.909375000000001,4.112204800003383,501.43865300000107,None,space,4.324004699999932,501.43865300000107,None,C,zouping,21,f,2021_Oct_14_0959,untitled_groupA_k,2021.1.4,119.94233172588457,
18,picture\p18.tif,GR_left_01_42\GRZ18.mp4,picture\p18.tif,0,10,10,17,,,,,,,505.7874883000004,506.7955382,506.7815953999998,None,509.82922770000005,510.8378279999997,540.1114409000002,None,540.1114409000002,None,5.903124999999999,3.811109899997973,540.1114409000002,None,6.878125000000001,2.8358170999999857,540.1114409000002,None,4.862500000000001,4.845405799998844,540.1114409000002,None,space,5.212870800001838,540.1114409000002,None,C,zouping,21,f,2021_Oct_14_0959,untitled_groupA_k,2021.1.4,119.94233172588457,
47,picture\p08.tif,GG_right_01_42\GGY08.mp4,picture\p08.tif,0,11,11,46,,,,,,,545.3610119000004,546.3713912999992,546.3618754000017,None,549.5022126000003,550.5110152000016,579.7841646999987,None,579.7841646999987,None,5.059375,2.068558999999368,579.7841646999987,None,5.153125,3.0362060999977984,579.7841646999987,None,4.99375,4.037039099999674,579.7841646999987,None,space,4.217825600000651,579.7841646999987,None,C,zouping,21,f,2021_Oct_14_0959,untitled_groupA_k,2021.1.4,119.94233172588457,
16,picture\p16.tif,GR_left_01_42\GRZ16.mp4,picture\p16.tif,0,12,12,15,,,,,,,584.025828400001,585.0340118999993,585.0179137999985,None,589.1756270000005,590.1836260000018,619.4658374999999,None,619.4658374999999,None,5.771875,3.33616119999715,619.4658374999999,None,6.9625,2.353049099998316,619.4658374999999,None,4.862500000000001,4.587551499997062,619.4658374999999,None,space,5.02695070000118,619.4658374999999,None,C,zouping,21,f,2021_Oct_14_0959,untitled_groupA_k,2021.1.4,119.94233172588457,
46,picture\p07.tif,GG_right_01_42\GGY07.mp4,picture\p07.tif,0,13,13,45,,,,,,,624.5230339000009,625.5322680999998,625.515576400001,None,628.8482094999999,629.8567120000007,659.1295290000016,None,659.1295290000016,None,4.8812500000000005,3.019271799999842,659.1295290000016,None,4.91875,4.003571599998395,659.1295290000016,None,4.9750000000000005,4.970594500002335,659.1295290000016,None,space,5.229480300000432,659.1295290000016,None,C,zouping,21,f,2021_Oct_14_0959,untitled_groupA_k,2021.1.4,119.94233172588457,
54,picture\p15.tif,GG_right_01_42\GGY15.mp4,picture\p15.tif,0,14,14,53,,,,,,,664.383219899999,665.3967119000008,665.3831320999998,None,668.5125154999987,669.5228324000018,698.7856639999991,None,698.7856639999991,None,4.834375,2.4779335999992327,698.7856639999991,None,4.834375,2.478915200001211,698.7856639999991,None,5.0875,3.92941140000039,698.7856639999991,None,space,4.296682299998793,698.7856639999991,None,C,zouping,21,f,2021_Oct_14_0959,untitled_groupA_k,2021.1.4,119.94233172588457,
4,picture\p04.tif,GG_left_01_42\GGZ04.mp4,picture\p04.tif,0,15,15,3,,,,,,,703.1190032999984,704.1217494000011,704.112255,None,707.1778976999994,708.1866449000008,737.4593120999998,None,737.4593120999998,None,4.965625,2.1509285000029195,737.4593120999998,None,4.965625,2.51839640000253,737.4593120999998,None,4.946875,3.426686700000573,737.4593120999998,None,space,3.8362051000003703,737.4593120999998,None,C,zouping,21,f,2021_Oct_14_0959,untitled_groupA_k,2021.1.4,119.94233172588457,
21,picture\p21.tif,GR_left_01_42\GRZ21.mp4,picture\p21.tif,0,16,16,20,,,,,,,741.3306929999999,742.3417946000009,742.3278213000012,None,746.8587329000002,747.8665794000008,777.1414016999988,None,777.1414016999988,None,5.012499999999999,7.868941900000209,777.1414016999988,None,5.106249999999999,16.835749400001077,777.1414016999988,None,3.953125,3.1862989000001107,777.1414016999988,None,space,17.127685100000235,777.1414016999988,None,C,zouping,21,f,2021_Oct_14_0959,untitled_groupA_k,2021.1.4,119.94233172588457,
45,picture\p06.tif,GG_right_01_42\GGY06.mp4,picture\p06.tif,0,17,17,44,,,,,,,794.2977991000007,795.3066212999984,795.2903852000018,None,797.9060877000011,798.9164013000009,828.1889905999997,None,828.1889905999997,None,4.703125000000001,1.8181419000029564,828.1889905999997,None,4.759375,2.993641999997635,828.1889905999997,None,4.6375,4.044134200001281,828.1889905999997,None,space,4.487330799998745,828.1889905999997,None,C,zouping,21,f,2021_Oct_14_0959,untitled_groupA_k,2021.1.4,119.94233172588457,
50,picture\p11.tif,GG_right_01_42\GGY11.mp4,picture\p11.tif,0,18,18,49,,,,,,,832.7004498999995,833.7053860000015,833.6917993999996,None,837.2372996999984,838.2472828999998,867.5198759999985,None,867.5198759999985,None,4.956250000000001,1.8359713000027114,867.5198759999985,None,4.91875,2.844920799998363,867.5198759999985,None,4.9375,3.8199520999987726,867.5198759999985,None,space,4.091897600002994,867.5198759999985,None,C,zouping,21,f,2021_Oct_14_0959,untitled_groupA_k,2021.1.4,119.94233172588457,
35,picture\p35.tif,RR_left_01_42\RRZ35.mp4,picture\p35.tif,0,19,19,34,,,,,,,871.6439592999996,872.6541761000008,872.6311758999982,None,876.9108755000016,877.9196526999986,907.1929565999999,None,907.1929565999999,None,5.987500000000001,6.685685200001899,907.1929565999999,None,3.8781250000000003,11.73645740000211,907.1929565999999,None,5.96875,7.919631200002186,907.1929565999999,None,space,11.961167800000112,907.1929565999999,None,C,zouping,21,f,2021_Oct_14_0959,untitled_groupA_k,2021.1.4,119.94233172588457,
22,picture\p22.tif,GR_left_01_42\GRZ22.mp4,picture\p22.tif,0,20,20,21,,,,,,,919.1836162,920.1919636999992,920.1787169000017,None,922.7916034000009,923.7995613999992,953.0728591000006,None,953.0728591000006,None,6.137499999999999,2.7106565999965824,953.0728591000006,None,3.925,1.6529077000013785,953.0728591000006,None,6.137499999999999,6.7863389999984065,953.0728591000006,None,space,8.439578900000924,953.0728591000006,None,C,zouping,21,f,2021_Oct_14_0959,untitled_groupA_k,2021.1.4,119.94233172588457,
77,picture\p38.tif,RR_right_01_42\RRY38.mp4,picture\p38.tif,0,21,21,76,,,,,,,961.5397176000006,962.5483496999987,962.5349428000009,None,965.1479517000007,966.1577768999996,995.4219254000018,None,995.4219254000018,None,4.0,11.545301800000743,995.4219254000018,None,1.0000000000000007,7.5613589999993565,995.4219254000018,None,6.934374999999999,2.47076929999821,995.4219254000018,None,space,12.4221323999991,995.4219254000018,None,C,zouping,21,f,2021_Oct_14_0959,untitled_groupA_k,2021.1.4,119.94233172588457,
11,picture\p11.tif,GG_left_01_42\GGZ11.mp4,picture\p11.tif,0,22,22,10,,,,,,,1007.8706454999992,1008.8790436000018,1008.8657041000006,None,1011.4707110999989,1012.4794073999983,1041.7434233999993,None,1041.7434233999993,None,3.8968750000000005,1.8279507999977795,1041.7434233999993,None,3.71875,2.8038277000014205,1041.7434233999993,None,3.8499999999999996,4.004421199999342,1041.7434233999993,None,space,4.525958300000639,1041.7434233999993,None,C,zouping,21,f,2021_Oct_14_0959,untitled_groupA_k,2021.1.4,119.94233172588457,
25,picture\p25.tif,GR_left_01_42\GRZ25.mp4,picture\p25.tif,0,23,23,24,,,,,,,1046.3019193,1047.3102371999994,1047.2939208999996,None,1050.4852066999993,1051.4941227000018,1080.7672739000009,None,1080.7672739000009,None,4.065625000000001,5.1933715999985,1080.7672739000009,None,1.1218750000000006,2.086014600001363,1080.7672739000009,None,3.9062500000000004,6.236832099999447,1080.7672739000009,None,space,6.585342400001537,1080.7672739000009,None,C,zouping,21,f,2021_Oct_14_0959,untitled_groupA_k,2021.1.4,119.94233172588457,
79,picture\p40.tif,RR_right_01_42\RRY40.mp4,picture\p40.tif,0,24,24,78,,,,,,,1087.3871207999982,1088.3996799999986,1088.3839961999984,None,1090.990800399999,1091.9999309000013,1121.2724911000005,None,1121.2724911000005,None,4.009375,16.319480699999986,1121.2724911000005,None,3.9437500000000005,15.128559400000086,1121.2724911000005,None,1,9.212055700001656,1121.2724911000005,None,space,19.5265982000019,1121.2724911000005,None,C,zouping,21,f,2021_Oct_14_0959,untitled_groupA_k,2021.1.4,119.94233172588457,
56,picture\p17.tif,GG_right_01_42\GGY17.mp4,picture\p17.tif,0,25,25,55,,,,,,,1140.8298251000015,1141.839392400001,1141.8258600000008,None,1144.438642699999,1145.448214600001,1174.7122922999988,None,1174.7122922999988,None,4.15,1.9110081999970134,1174.7122922999988,None,3.8968750000000005,2.937138400000549,1174.7122922999988,None,4.018750000000001,3.9962978000003204,1174.7122922999988,None,space,4.8954040000026,1174.7122922999988,None,C,zouping,21,f,2021_Oct_14_0959,untitled_groupA_k,2021.1.4,119.94233172588457,
15,picture\p15.tif,GR_left_01_42\GRZ15.mp4,picture\p15.tif,0,26,26,14,,,,,,,1179.6446455000005,1180.6471841999992,1180.637696599999,None,1183.553149899999,1184.5536481999989,1213.8260144999986,None,1213.8260144999986,None,5.003125000000001,5.485808699999325,1213.8260144999986,None,1.9000000000000008,6.64464339999904,1213.8260144999986,None,4.909375000000001,4.3359937999994145,1213.8260144999986,None,space,7.097081899999466,1213.8260144999986,None,C,zouping,21,f,2021_Oct_14_0959,untitled_groupA_k,2021.1.4,119.94233172588457,
51,picture\p12.tif,GG_right_01_42\GGY12.mp4,picture\p12.tif,0,27,27,50,,,,,,,1220.947656299999,1221.9618741999984,1221.9375862000015,None,1224.5677037999994,1225.5693653999988,1254.8406079999986,None,1254.8406079999986,None,3.8968750000000005,2.711009100003139,1254.8406079999986,None,3.8218750000000004,3.5866070999982185,1254.8406079999986,None,3.746875,4.5454710999983945,1254.8406079999986,None,space,4.9975469000019075,1254.8406079999986,None,C,zouping,21,f,2021_Oct_14_0959,untitled_groupA_k,2021.1.4,119.94233172588457,
36,picture\p36.tif,RR_left_01_42\RRZ36.mp4,picture\p36.tif,0,28,28,35,,,,,,,1259.8707171999995,1260.8738532999996,1260.861535,None,1263.882682200001,1264.8840042999982,1294.1561656999984,None,1294.1561656999984,None,7,4.760570300000836,1294.1561656999984,None,5.040625,13.518356100001256,1294.1561656999984,None,7,20.070392800000263,1294.1561656999984,None,space,22.402777100000094,1294.1561656999984,None,C,zouping,21,f,2021_Oct_14_0959,untitled_groupA_k,2021.1.4,119.94233172588457,
80,picture\p41.tif,RR_right_01_42\RRY41.mp4,picture\p41.tif,0,29,29,79,,,,,,,1316.5966961999984,1317.6046939000007,1317.5904536999988,None,1320.1964573000005,1321.1979036000012,1350.4709377,None,1350.4709377,None,4.9,6.408420200001274,1350.4709377,None,6.025,3.8005247000000963,1350.4709377,None,1.9749999999999999,7.826234700001805,1350.4709377,None,space,8.4060642000004,1350.4709377,None,C,zouping,21,f,2021_Oct_14_0959,untitled_groupA_k,2021.1.4,119.94233172588457,
12,picture\p12.tif,GG_left_01_42\GGZ12.mp4,picture\p12.tif,0,30,30,11,,,,,,,1358.9102375000002,1359.9196183999993,1359.9028934999988,None,1362.5102346999993,1363.5127895000005,1392.792953600001,None,1392.792953600001,None,4.05625,1.394916600002034,1392.792953600001,None,4.084375,2.2864100000006147,1392.792953600001,None,4.05625,3.1951544000003196,1392.792953600001,None,space,3.4510866999989958,1392.792953600001,None,C,zouping,21,f,2021_Oct_14_0959,untitled_groupA_k,2021.1.4,119.94233172588457,
57,picture\p18.tif,RG_right_01_42\RGY18.mp4,picture\p18.tif,0,31,31,56,,,,,,,1396.2750704999999,1397.2846046000013,1397.2706685000012,None,1401.9591217000016,1402.9684729,1432.2315702000014,None,1432.2315702000014,None,2.0218750000000005,4.361272999998619,1432.2315702000014,None,5.8375,7.386607799999183,1432.2315702000014,None,4.121874999999999,8.511572800001886,1432.2315702000014,None,space,8.753872699999192,1432.2315702000014,None,C,zouping,21,f,2021_Oct_14_0959,untitled_groupA_k,2021.1.4,119.94233172588457,
65,picture\p26.tif,RG_right_01_42\RGY26.mp4,picture\p26.tif,0,32,32,64,,,,,,,1441.015080699999,1442.0254114000018,1442.0026806999995,None,1444.6234406000003,1445.6247772999996,1474.9127780000017,None,1474.9127780000017,None,3.8968750000000005,4.719321700002183,1474.9127780000017,None,1.9843750000000007,3.3039835000017774,1474.9127780000017,None,5.753125000000001,6.47846760000175,1474.9127780000017,None,space,6.918095500001073,1474.9127780000017,None,C,zouping,21,f,2021_Oct_14_0959,untitled_groupA_k,2021.1.4,119.94233172588457,
23,picture\p23.tif,GR_left_01_42\GRZ23.mp4,picture\p23.tif,0,33,33,22,,,,,,,1481.8633133000003,1482.8713143999994,1482.855288499999,None,1485.4708081999997,1486.4724338999986,1515.7704516000013,None,1515.7704516000013,None,5.2,6.2109807999986515,1515.7704516000013,None,2.0218750000000005,2.0945357999989938,1515.7704516000013,None,3.953125,4.361540400001104,1515.7704516000013,None,space,6.830173900001682,1515.7704516000013,None,C,zouping,21,f,2021_Oct_14_0959,untitled_groupA_k,2021.1.4,119.94233172588457,
72,picture\p33.tif,RR_right_01_42\RRY33.mp4,picture\p33.tif,0,34,34,71,,,,,,,1522.6271336999998,1523.6358768999999,1523.6222378999992,None,1526.2274297000004,1527.2357306999984,1556.5012852,None,1556.5012852,None,5.0218750000000005,9.67674579999948,1556.5012852,None,6.9906250000000005,7.211241000000882,1556.5012852,None,4.16875,11.619141999999556,1556.5012852,None,space,12.230677100000321,1556.5012852,None,C,zouping,21,f,2021_Oct_14_0959,untitled_groupA_k,2021.1.4,119.94233172588457,
9,picture\p09.tif,GG_left_01_42\GGZ09.mp4,picture\p09.tif,0,35,35,8,,,,,,,1568.758426299999,1569.7669255,1569.7530703000011,None,1572.3583433999993,1573.366855100001,1602.6394938999983,None,1602.6394938999983,None,4.112500000000001,5.57022859999779,1602.6394938999983,None,4.16875,4.637959800002136,1602.6394938999983,None,4.028125,7.0875254000020504,1602.6394938999983,None,space,7.489402999999584,1602.6394938999983,None,C,zouping,21,f,2021_Oct_14_0959,untitled_groupA_k,2021.1.4,119.94233172588457,
33,picture\p33.tif,RR_left_01_42\RRZ33.mp4,picture\p33.tif,0,36,36,32,,,,,,,1610.164134300001,1611.1732168000017,1611.1603329999998,None,1613.7644947000008,1614.7730392000012,1644.0464661000005,None,1644.0464661000005,None,5.987500000000001,3.617912500001694,1644.0464661000005,None,5.987500000000001,4.6854426999998395,1644.0464661000005,None,2.2,6.027904999999009,1644.0464661000005,None,space,6.717281899997033,1644.0464661000005,None,C,zouping,21,f,2021_Oct_14_0959,untitled_groupA_k,2021.1.4,119.94233172588457,
2,picture\p02.tif,GG_left_01_42\GGZ02.mp4,picture\p02.tif,0,37,37,1,,,,,,,1650.7953758000003,1651.8126421999987,1651.7960598999998,None,1654.4038953999989,1655.4127407999986,1684.6864572999984,None,1684.6864572999984,None,4.018750000000001,3.100325100000191,1684.6864572999984,None,4.028125,4.169769699998142,1684.6864572999984,None,4.1312500000000005,5.085271799998736,1684.6864572999984,None,space,5.3991060000007565,1684.6864572999984,None,C,zouping,21,f,2021_Oct_14_0959,untitled_groupA_k,2021.1.4,119.94233172588457,
37,picture\p37.tif,RR_left_01_42\RRZ37.mp4,picture\p37.tif,0,38,38,36,,,,,,,1690.109948199999,1691.1205444000007,1691.0979143000004,None,1693.7188801000011,1694.7289820000005,1724.0009123000018,None,1724.0009123000018,None,5.1156250000000005,26.744391500000347,1724.0009123000018,None,5.893750000000001,4.8705254000014975,1724.0009123000018,None,5.050000000000001,22.09588249999797,1724.0009123000018,None,space,27.068027500001335,1724.0009123000018,None,C,zouping,21,f,2021_Oct_14_0959,untitled_groupA_k,2021.1.4,119.94233172588457,
82,picture\p01.tif,RR_right_01_42\RRY01.mp4,picture\p01.tif,0,39,39,81,,,,,,,1751.1078233000007,1752.117552399999,1752.0944968000003,None,1754.7073329999985,1755.7171474999996,1784.9800576999987,None,1784.9800576999987,None,3.9437500000000005,6.510937800001557,1784.9800576999987,None,6.081250000000001,4.07772660000046,1784.9800576999987,None,4.028125,8.454072200001974,1784.9800576999987,None,space,8.691958099996555,1784.9800576999987,None,C,zouping,21,f,2021_Oct_14_0959,untitled_groupA_k,2021.1.4,119.94233172588457,
76,picture\p37.tif,RR_right_01_42\RRY37.mp4,picture\p37.tif,0,40,40,75,,,,,,,1793.7046478999982,1794.7136906999986,1794.7005653999986,None,1797.53845,1798.5382186999996,1827.8119450000013,None,1827.8119450000013,None,3.9718750000000007,6.343245299998671,1827.8119450000013,None,7,3.2430631999995967,1827.8119450000013,None,5.949999999999999,4.978075300001365,1827.8119450000013,None,space,6.83286699999735,1827.8119450000013,None,C,zouping,21,f,2021_Oct_14_0959,untitled_groupA_k,2021.1.4,119.94233172588457,
67,picture\p28.tif,RG_right_01_42\RGY28.mp4,picture\p28.tif,0,41,41,66,,,,,,,1834.677668100001,1835.6886387999984,1835.6645820000012,None,1838.294810899999,1839.3037091000006,1868.5757902000005,None,1868.5757902000005,None,4.112500000000001,6.22023839999747,1868.5757902000005,None,6.915625,1.7622174000025552,1868.5757902000005,None,4.0,5.079659999999421,1868.5757902000005,None,space,6.557459099996777,1868.5757902000005,None,C,zouping,21,f,2021_Oct_14_0959,untitled_groupA_k,2021.1.4,119.94233172588457,
63,picture\p24.tif,RG_right_01_42\RGY24.mp4,picture\p24.tif,0,42,42,62,,,,,,,1875.1671623000002,1876.1766511999995,1876.162973999999,None,1878.7845855999985,1879.7918217000006,1909.0653605000007,None,1909.0653605000007,None,2.837500000000001,1.996438099999068,1909.0653605000007,None,4.946875,5.395750499999849,1909.0653605000007,None,3.859375000000001,6.854881299997942,1909.0653605000007,None,space,7.239195900001505,1909.0653605000007,None,C,zouping,21,f,2021_Oct_14_0959,untitled_groupA_k,2021.1.4,119.94233172588457,
6,picture\p06.tif,GG_left_01_42\GGZ06.mp4,picture\p06.tif,0,43,43,5,,,,,,,1916.3400030999983,1917.348536900001,1917.3347801000018,None,1919.9489828000005,1920.9503009,1950.2315493999995,None,1950.2315493999995,None,4.290625,1.2939162000002398,1950.2315493999995,None,3.925,2.4033182000021043,1950.2315493999995,None,3.9625000000000004,3.3941894999989017,1950.2315493999995,None,space,3.891316999997798,1950.2315493999995,None,C,zouping,21,f,2021_Oct_14_0959,untitled_groupA_k,2021.1.4,119.94233172588457,
20,picture\p20.tif,GR_left_01_42\GRZ20.mp4,picture\p20.tif,0,44,44,19,,,,,,,1954.1464352000003,1955.1639007000012,1955.1477258000014,None,1959.6462313999982,1960.6632266999986,1989.928602,None,1989.928602,None,4.1312500000000005,4.98683660000097,1989.928602,None,5.0875,8.137651000000915,1989.928602,None,6.128125000000001,2.8866512999993574,1989.928602,None,space,8.828426899999613,1989.928602,None,C,zouping,21,f,2021_Oct_14_0959,untitled_groupA_k,2021.1.4,119.94233172588457,
42,picture\p42.tif,RR_left_01_42\RRZ42.mp4,picture\p42.tif,0,45,45,41,,,,,,,1998.786364399999,1999.7954882000013,1999.773785199999,None,2002.3858242999995,2003.3882172000012,2032.6601999000013,None,2032.6601999000013,None,3.7843750000000003,4.168930799998634,2032.6601999000013,None,5.771875,6.502851000001101,2032.6601999000013,None,6.98125,1.9861930000006396,2032.6601999000013,None,space,7.01987519999966,2032.6601999000013,None,C,zouping,21,f,2021_Oct_14_0959,untitled_groupA_k,2021.1.4,119.94233172588457,
5,picture\p05.tif,GG_left_01_42\GGZ05.mp4,picture\p05.tif,0,46,46,4,,,,,,,2039.7066965000013,2040.719226199999,2040.6958046,None,2043.3174916999997,2044.3274567000008,2073.5902444999992,None,2073.5902444999992,None,3.98125,1.7539113999991969,2073.5902444999992,None,4.028125,2.628568700001779,2073.5902444999992,None,4.234375,3.7467708000003768,2073.5902444999992,None,space,4.03974609999932,2073.5902444999992,None,C,zouping,21,f,2021_Oct_14_0959,untitled_groupA_k,2021.1.4,119.94233172588457,
70,picture\p31.tif,RG_right_01_42\RGY31.mp4,picture\p31.tif,0,47,47,69,,,,,,,2077.652922000001,2078.6740819000006,2078.6567135000005,None,2082.6739242000003,2083.682696600001,2112.9476896999986,None,2112.9476896999986,None,4.9750000000000005,8.293790499999886,2112.9476896999986,None,3.04375,5.044212699998752,2112.9476896999986,None,5.1156250000000005,10.062315499999386,2112.9476896999986,None,space,10.329196700000466,2112.9476896999986,None,C,zouping,21,f,2021_Oct_14_0959,untitled_groupA_k,2021.1.4,119.94233172588457,
13,picture\p13.tif,GG_left_01_42\GGZ13.mp4,picture\p13.tif,0,48,48,12,,,,,,,2123.310223100001,2124.3153091999993,2124.3057406000007,None,2126.9215508999987,2127.9291010999987,2157.203143300001,None,2157.203143300001,None,4.05625,1.3278258999998798,2157.203143300001,None,3.9718750000000007,2.2788098999990325,2157.203143300001,None,3.9062500000000004,3.229178999998112,2157.203143300001,None,space,3.497332399998413,2157.203143300001,None,C,zouping,21,f,2021_Oct_14_0959,untitled_groupA_k,2021.1.4,119.94233172588457,
81,picture\p42.tif,RR_right_01_42\RRY42.mp4,picture\p42.tif,0,49,49,80,,,,,,,2160.732842900001,2161.7438975000005,2161.7297776000014,None,2166.0196183000007,2167.0294902999995,2196.2923440999984,None,2196.2923440999984,None,4.018750000000001,5.212096499999461,2196.2923440999984,None,5.059375,3.8623158000009425,2196.2923440999984,None,7,1.8456719999994675,2196.2923440999984,None,space,7.959631500001706,2196.2923440999984,None,C,zouping,21,f,2021_Oct_14_0959,untitled_groupA_k,2021.1.4,119.94233172588457,
28,picture\p28.tif,GR_left_01_42\GRZ28.mp4,picture\p28.tif,0,50,50,27,,,,,,,2204.2835885999993,2205.2944816000017,2205.271336599999,None,2209.1503324000005,2210.1524274000003,2239.440445100001,None,2239.440445100001,None,4.05625,6.052753700001631,2239.440445100001,None,6.090625,3.3032549999988987,2239.440445100001,None,2.8656249999999996,1.986928700000135,2239.440445100001,None,space,7.958629600001586,2239.440445100001,None,C,zouping,21,f,2021_Oct_14_0959,untitled_groupA_k,2021.1.4,119.94233172588457,
39,picture\p39.tif,RR_left_01_42\RRZ39.mp4,picture\p39.tif,0,51,51,38,,,,,,,2247.4230159,2248.432476400001,2248.4187678000017,None,2251.0321320000003,2252.0334306000004,2281.3059441000005,None,2281.3059441000005,None,5.096875000000001,8.19227630000023,2281.3059441000005,None,2.9406250000000003,6.875755400000344,2281.3059441000005,None,6.109375,2.435225499997614,2281.3059441000005,None,space,8.486768300001131,2281.3059441000005,None,C,zouping,21,f,2021_Oct_14_0959,untitled_groupA_k,2021.1.4,119.94233172588457,
3,picture\p03.tif,GG_left_01_42\GGZ03.mp4,picture\p03.tif,0,52,52,2,,,,,,,2289.820838200001,2290.8304007000006,2290.8171518000017,None,2296.9211264000005,2297.9300267,2327.2039317000017,None,2327.2039317000017,None,4.300000000000001,1.6750132000015583,2327.2039317000017,None,4.253125000000001,2.784035799999401,2327.2039317000017,None,4.35625,5.926440100000036,2327.2039317000017,None,space,7.2686642999979085,2327.2039317000017,None,C,zouping,21,f,2021_Oct_14_0959,untitled_groupA_k,2021.1.4,119.94233172588457,
34,picture\p34.tif,RR_left_01_42\RRZ34.mp4,picture\p34.tif,0,53,53,33,,,,,,,2334.5030783,2335.5110981,2335.4948890999985,None,2338.101819399999,2339.111233899999,2368.3934206999984,None,2368.3934206999984,None,4.084375,17.458517199997004,2368.3934206999984,None,5.996874999999999,11.651811299998371,2368.3934206999984,None,5.050000000000001,15.209974100002,2368.3934206999984,None,space,18.198015900001337,2368.3934206999984,None,C,zouping,21,f,2021_Oct_14_0959,untitled_groupA_k,2021.1.4,119.94233172588457,
66,picture\p27.tif,RG_right_01_42\RGY27.mp4,picture\p27.tif,0,54,54,65,,,,,,,2386.6219420000016,2387.6407594999982,2387.6117285,None,2390.2416010999987,2391.2497422999986,2420.523331100001,None,2420.523331100001,None,5.0875,9.727576000001136,2420.523331100001,None,6.081250000000001,8.502867299997888,2420.523331100001,None,7,5.953271600003063,2420.523331100001,None,space,10.173557600002823,2420.523331100001,None,C,zouping,21,f,2021_Oct_14_0959,untitled_groupA_k,2021.1.4,119.94233172588457,
1,picture\p01.tif,GG_left_01_42\GGZ01.mp4,picture\p01.tif,0,55,55,0,,,,,,,2430.7220364999994,2431.739149500001,2431.721923699999,None,2434.3311410999995,2435.340312799999,2464.6041584999984,None,2464.6041584999984,None,4.1312500000000005,7.526995899999747,2464.6041584999984,None,5.978125,3.66975210000237,2464.6041584999984,None,3.7843750000000003,5.079253699997935,2464.6041584999984,None,space,8.651894300001004,2464.6041584999984,None,C,zouping,21,f,2021_Oct_14_0959,untitled_groupA_k,2021.1.4,119.94233172588457,
8,picture\p08.tif,GG_left_01_42\GGZ08.mp4,picture\p08.tif,0,56,56,7,,,,,,,2473.2951810000013,2474.312054099999,2474.295797499999,None,2476.9036903000015,2477.9122782000013,2507.185506900001,None,2507.185506900001,None,4.046875000000001,2.97076780000134,2507.185506900001,None,4.046875000000001,2.9717153000019607,2507.185506900001,None,4.1312500000000005,4.155054299997573,2507.185506900001,None,space,4.542122200000449,2507.185506900001,None,C,zouping,21,f,2021_Oct_14_0959,untitled_groupA_k,2021.1.4,119.94233172588457,
14,picture\p14.tif,GG_left_01_42\GGZ14.mp4,picture\p14.tif,0,57,57,13,,,,,,,2511.7564367000014,2512.7701854000006,2512.7467996999985,None,2516.168787499999,2517.170053500002,2546.4424254000005,None,2546.4424254000005,None,4.028125,4.918500700001459,2546.4424254000005,None,4.028125,4.919520600000396,2546.4424254000005,None,4.028125,4.920500899999752,2546.4424254000005,None,space,5.356429100000241,2546.4424254000005,None,C,zouping,21,f,2021_Oct_14_0959,untitled_groupA_k,2021.1.4,119.94233172588457,
78,picture\p39.tif,RR_right_01_42\RRY39.mp4,picture\p39.tif,0,58,58,77,,,,,,,2551.8324356999983,2552.8497954999984,2552.8333332,None,2555.841744199999,2556.843005399998,2586.1139342999995,None,2586.1139342999995,None,4.984375,5.178116600000067,2586.1139342999995,None,2.9781250000000004,7.328676999997697,2586.1139342999995,None,6.11875,2.154466899999534,2586.1139342999995,None,space,7.539887599999929,2586.1139342999995,None,C,zouping,21,f,2021_Oct_14_0959,untitled_groupA_k,2021.1.4,119.94233172588457,
30,picture\p30.tif,RR_left_01_42\RRZ30.mp4,picture\p30.tif,0,59,59,29,,,,,,,2593.6802596999987,2594.6910499000005,2594.6678383,None,2600.7807579,2601.7972935,2631.0536759999995,None,2631.0536759999995,None,3.1468749999999996,2.9433337000009487,2631.0536759999995,None,4.8812500000000005,1.836320499998692,2631.0536759999995,None,5.0218750000000005,4.653698499998427,2631.0536759999995,None,space,7.7208959000017785,2631.0536759999995,None,C,zouping,21,f,2021_Oct_14_0959,untitled_groupA_k,2021.1.4,119.94233172588457,
48,picture\p09.tif,GG_right_01_42\GGY09.mp4,picture\p09.tif,0,60,60,47,,,,,,,2638.8037903000004,2639.8139935,2639.7905671000008,None,2642.4201673999996,2643.4296983999993,2672.6933500999985,None,2672.6933500999985,None,4.15,3.6107232999966072,2672.6933500999985,None,4.0375,7.720337099999597,2672.6933500999985,None,4.0375,7.721414100000402,2672.6933500999985,None,space,8.866736699998,2672.6933500999985,None,C,zouping,21,f,2021_Oct_14_0959,untitled_groupA_k,2021.1.4,119.94233172588457,
55,picture\p16.tif,GG_right_01_42\GGY16.mp4,picture\p16.tif,0,61,61,54,,,,,,,2681.5926306,2682.6015136999995,2682.5847919000007,None,2685.1923726999994,2686.209672000001,2715.4748962000012,None,2715.4748962000012,None,4.018750000000001,10.58554709999953,2715.4748962000012,None,4.05625,9.43629289999808,2715.4748962000012,None,4.112500000000001,8.18681739999738,2715.4748962000012,None,space,11.098496099999466,2715.4748962000012,None,C,zouping,21,f,2021_Oct_14_0959,untitled_groupA_k,2021.1.4,119.94233172588457,
83,picture\p02.tif,RR_right_01_42\RRY02.mp4,picture\p02.tif,0,62,62,82,,,,,,,2726.598654900001,2727.601756,2727.601756,None,2730.215785799999,2731.2241106,2760.496744,None,2760.496744,None,5.1625000000000005,2.711782599999424,2760.496744,None,3.9625000000000004,9.970249400001194,2760.496744,None,2.9875,6.370545599998877,2760.496744,None,space,10.593790099999751,2760.496744,None,C,zouping,21,f,2021_Oct_14_0959,untitled_groupA_k,2021.1.4,119.94233172588457,
73,picture\p34.tif,RR_right_01_42\RRY34.mp4,picture\p34.tif,0,63,63,72,,,,,,,2771.129573800001,2772.1390404999984,2772.122295699999,None,2774.7294285999997,2775.7307785999983,2805.003585900002,None,2805.003585900002,None,4.1312500000000005,4.510159699999349,2805.003585900002,None,6.071875,6.44418399999995,2805.003585900002,None,6.00625,2.66109779999897,2805.003585900002,None,space,7.397350200000801,2805.003585900002,None,C,zouping,21,f,2021_Oct_14_0959,untitled_groupA_k,2021.1.4,119.94233172588457,
31,picture\p31.tif,RR_left_01_42\RRZ31.mp4,picture\p31.tif,0,64,64,30,,,,,,,2812.4358060000013,2813.4447456999987,2813.4281679000014,None,2816.0450280000005,2817.043723300001,2846.318314700002,None,2846.318314700002,None,4.956250000000001,2.6445504000002984,2846.318314700002,None,4.0,4.511721999999281,2846.318314700002,None,4.009375,5.8620703000015055,2846.318314700002,None,space,6.165370599999733,2846.318314700002,None,C,zouping,21,f,2021_Oct_14_0959,untitled_groupA_k,2021.1.4,119.94233172588457,
60,picture\p21.tif,RG_right_01_42\RGY21.mp4,picture\p21.tif,0,65,65,59,,,,,,,2852.508668900002,2853.5112107999994,2853.5019451000007,None,2856.1259309999987,2857.1359015999988,2886.4077857999982,None,2886.4077857999982,None,3.9437500000000005,9.02747889999955,2886.4077857999982,None,4.946875,5.74428110000008,2886.4077857999982,None,2.9593750000000005,2.9196196000011696,2886.4077857999982,None,space,9.288475299999845,2886.4077857999982,None,C,zouping,21,f,2021_Oct_14_0959,untitled_groupA_k,2021.1.4,119.94233172588457,
32,picture\p32.tif,RR_left_01_42\RRZ32.mp4,picture\p32.tif,0,66,66,31,,,,,,,2895.7232277000003,2896.7322544000017,2896.719430500001,None,2899.3317398,2900.3478531,2929.6065316999993,None,2929.6065316999993,None,5.134375,11.201531700000487,2929.6065316999993,None,6.9437500000000005,4.127172799999244,2929.6065316999993,None,2.9406250000000003,8.16108670000176,2929.6065316999993,None,space,13.022192699998413,2929.6065316999993,None,C,zouping,21,f,2021_Oct_14_0959,untitled_groupA_k,2021.1.4,119.94233172588457,
75,picture\p36.tif,RR_right_01_42\RRY36.mp4,picture\p36.tif,0,67,67,74,,,,,,,2942.6623344,2943.6717796999983,2943.6581183000017,None,2946.2622727000016,2947.2627267999997,2976.5363929000014,None,2976.5363929000014,None,6.11875,2.0862134999988484,2976.5363929000014,None,3.1656250000000004,5.49495079999906,2976.5363929000014,None,5.059375,6.955018900000141,2976.5363929000014,None,space,7.236159100000805,2976.5363929000014,None,C,zouping,21,f,2021_Oct_14_0959,untitled_groupA_k,2021.1.4,119.94233172588457,
19,picture\p19.tif,GR_left_01_42\GRZ19.mp4,picture\p19.tif,0,68,68,18,,,,,,,2983.8109406000003,2984.8275639999993,2984.811495599999,None,2987.4271315000005,2988.4370549999985,3017.7097184999984,None,3017.7097184999984,None,5.06875,8.992764200000238,3017.7097184999984,None,2.8937500000000003,3.4518955999992613,3017.7097184999984,None,5.096875000000001,10.476343300000735,3017.7097184999984,None,space,10.76906980000058,3017.7097184999984,None,C,zouping,21,f,2021_Oct_14_0959,untitled_groupA_k,2021.1.4,119.94233172588457,
74,picture\p35.tif,RR_right_01_42\RRY35.mp4,picture\p35.tif,0,69,69,73,,,,,,,3028.5079239000006,3029.518806,3029.5093252000006,None,3032.1083808000003,3033.116962600001,3062.386647800002,None,3062.386647800002,None,6.11875,2.8539743999972416,3062.386647800002,None,4.140625,5.771753200002422,3062.386647800002,None,2.9312500000000004,9.39726410000003,3062.386647800002,None,space,9.724906899999041,3062.386647800002,None,C,zouping,21,f,2021_Oct_14_0959,untitled_groupA_k,2021.1.4,119.94233172588457,
24,picture\p24.tif,GR_left_01_42\GRZ24.mp4,picture\p24.tif,0,70,70,23,,,,,,,3072.1396798999995,3073.1485863999987,3073.1350740999987,None,3075.7478530000008,3076.7566965000005,3106.0293905,None,3106.0293905,None,2.85625,2.2091742000011436,3106.0293905,None,4.084375,4.558762900000147,3106.0293905,None,4.046875000000001,5.7106595000004745,3106.0293905,None,space,6.153123399999458,3106.0293905,None,C,zouping,21,f,2021_Oct_14_0959,untitled_groupA_k,2021.1.4,119.94233172588457,
61,picture\p22.tif,RG_right_01_42\RGY22.mp4,picture\p22.tif,0,71,71,60,,,,,,,3112.2120151000017,3113.2201757000003,3113.2059707000008,None,3115.828850499998,3116.839170700001,3146.1192889000013,None,3146.1192889000013,None,5.143750000000001,9.110759399998642,3146.1192889000013,None,2.0687500000000005,7.12759780000124,3146.1192889000013,None,4.0,10.862245600001188,3146.1192889000013,None,space,11.174172700000781,3146.1192889000013,None,C,zouping,21,f,2021_Oct_14_0959,untitled_groupA_k,2021.1.4,119.94233172588457,
58,picture\p19.tif,RG_right_01_42\RGY19.mp4,picture\p19.tif,0,72,72,57,,,,,,,3157.3188746999986,3158.335375999999,3158.3187260000013,None,3160.9355553999994,3161.9434401,3191.2086791,None,3191.2086791,None,4.871874999999999,7.152653299999656,3191.2086791,None,2.8656249999999996,3.1862293999984104,3191.2086791,None,3.8499999999999996,5.745643000002019,3191.2086791,None,space,7.433510999999271,3191.2086791,None,C,zouping,21,f,2021_Oct_14_0959,untitled_groupA_k,2021.1.4,119.94233172588457,
59,picture\p20.tif,RG_right_01_42\RGY20.mp4,picture\p20.tif,0,73,73,58,,,,,,,3198.6660512000017,3199.6744822,3199.6619979999996,None,3202.2838779999984,3203.2911338999984,3232.5565423000007,None,3232.5565423000007,None,4.05625,1.9357180999977572,3232.5565423000007,None,5.846875000000001,5.485902100001113,3232.5565423000007,None,2.8843750000000004,6.844719200002146,3232.5565423000007,None,space,7.214836399998603,3232.5565423000007,None,C,zouping,21,f,2021_Oct_14_0959,untitled_groupA_k,2021.1.4,119.94233172588457,
43,picture\p04.tif,GG_right_01_42\GGY04.mp4,picture\p04.tif,0,74,74,42,,,,,,,3239.805453699999,3240.8149975000015,3240.8015178999995,None,3243.4062287999986,3244.4133616,3273.687103799999,None,3273.687103799999,None,4.009375,3.419169700002385,3273.687103799999,None,4.009375,3.4202247000030184,3273.687103799999,None,4.009375,3.4046147000008204,3273.687103799999,None,space,3.87518529999943,3273.687103799999,None,C,zouping,21,f,2021_Oct_14_0959,untitled_groupA_k,2021.1.4,119.94233172588457,
62,picture\p23.tif,RG_right_01_42\RGY23.mp4,picture\p23.tif,0,75,75,61,,,,,,,3277.5954496000013,3278.6041275999996,3278.5880996000014,None,3282.279233699999,3283.2873216000007,3312.544739000001,None,3312.544739000001,None,5.078125,5.967533699997148,3312.544739000001,None,1.9749999999999999,3.6509277999975893,3312.544739000001,None,4.0375,7.226195499999449,3312.544739000001,None,space,7.804039999999077,3312.544739000001,None,C,zouping,21,f,2021_Oct_14_0959,untitled_groupA_k,2021.1.4,119.94233172588457,
38,picture\p38.tif,RR_left_01_42\RRZ38.mp4,picture\p38.tif,0,76,76,37,,,,,,,3320.3854576000012,3321.3877089999987,3321.378229599999,None,3324.001990500001,3325.003287399999,3354.282925399999,None,3354.282925399999,None,3.990625,4.103207299998758,3354.282925399999,None,6.071875,2.620434300002671,3354.282925399999,None,7,1.5040007999996305,3354.282925399999,None,space,4.352968099999998,3354.282925399999,None,C,zouping,21,f,2021_Oct_14_0959,untitled_groupA_k,2021.1.4,119.94233172588457,
52,picture\p13.tif,GG_right_01_42\GGY13.mp4,picture\p13.tif,0,77,77,51,,,,,,,3358.674317600002,3359.6830045999995,3359.6673207999993,None,3362.624858899999,3363.6330283999996,3392.897563499999,None,3392.897563499999,None,3.812500000000001,1.2281118999999308,3392.897563499999,None,3.953125,3.9040437000003294,3392.897563499999,None,3.953125,3.905095699999947,3392.897563499999,None,space,4.454460599998129,3392.897563499999,None,C,zouping,21,f,2021_Oct_14_0959,untitled_groupA_k,2021.1.4,119.94233172588457,
41,picture\p41.tif,RR_left_01_42\RRZ41.mp4,picture\p41.tif,0,78,78,40,,,,,,,3397.3806098999994,3398.3820865000016,3398.3820865000016,None,3402.2807777999988,3403.2897768000003,3432.5626693000013,None,3432.5626693000013,None,4.956250000000001,5.585299000002124,3432.5626693000013,None,5.987500000000001,2.719264399998792,3432.5626693000013,None,1.9749999999999999,4.186269699999684,3432.5626693000013,None,space,5.878374200001417,3432.5626693000013,None,C,zouping,21,f,2021_Oct_14_0959,untitled_groupA_k,2021.1.4,119.94233172588457,
84,picture\p03.tif,RR_right_01_42\RRY03.mp4,picture\p03.tif,0,79,79,83,,,,,,,3438.4703044000016,3439.481517,3439.471908200001,None,3445.4125362999985,3446.4135330999998,3475.684964600001,None,3475.684964600001,None,4.1875,5.493668400002207,3475.684964600001,None,6.090625,3.4356407999985095,3475.684964600001,None,4.281250000000001,7.685890400000062,3475.684964600001,None,space,8.322610799998074,3475.684964600001,None,C,zouping,21,f,2021_Oct_14_0959,untitled_groupA_k,2021.1.4,119.94233172588457,
64,picture\p25.tif,RG_right_01_42\RGY25.mp4,picture\p25.tif,0,80,80,63,,,,,,,3484.0345737999996,3485.043670700001,3485.031367200001,None,3487.651510200001,3488.652631500001,3517.9171930999983,None,3517.9171930999983,None,6.1468750000000005,6.943578100002924,3517.9171930999983,None,4.965625,4.878045699999348,3517.9171930999983,None,4.065625000000001,13.237027600000147,3517.9171930999983,None,space,13.505595300001005,3517.9171930999983,None,C,zouping,21,f,2021_Oct_14_0959,untitled_groupA_k,2021.1.4,119.94233172588457,
40,picture\p40.tif,RR_left_01_42\RRZ40.mp4,picture\p40.tif,0,81,81,39,,,,,,,3531.4574213999986,3532.4598788000003,3532.4504512999993,None,3535.0575186999995,3536.0665837000015,3565.3469910999993,None,3565.3469910999993,None,4.028125,11.743617600001016,3565.3469910999993,None,4.99375,7.45284200000242,3565.3469910999993,None,2.0406250000000004,4.07801290000134,3565.3469910999993,None,space,11.793219499999395,3565.3469910999993,None,C,zouping,21,f,2021_Oct_14_0959,untitled_groupA_k,2021.1.4,119.94233172588457,
44,picture\p05.tif,GG_right_01_42\GGY05.mp4,picture\p05.tif,0,82,82,43,,,,,,,3577.1806208000016,3578.1886753,3578.1724179999983,None,3580.8058071999985,3581.8138144000004,3611.0785410999997,None,3611.0785410999997,None,4.140625,1.3202157000014267,3611.0785410999997,None,4.1781250000000005,2.35422109999854,3611.0785410999997,None,4.112500000000001,3.5714071999973385,3611.0785410999997,None,space,3.8266791999994894,3611.0785410999997,None,C,zouping,21,f,2021_Oct_14_0959,untitled_groupA_k,2021.1.4,119.94233172588457,
10,picture\p10.tif,GG_left_01_42\GGZ10.mp4,picture\p10.tif,0,83,83,9,,,,,,,3614.937163999999,3615.938846500001,3615.9290444,None,3620.5361868,3621.5365233999983,3650.8271021,None,3650.8271021,None,5.0875,1.8689720000002126,3650.8271021,None,4.103125,3.3447577000006277,3650.8271021,None,4.112500000000001,4.562057499999355,3650.8271021,None,space,4.926401100001385,3650.8271021,None,C,zouping,21,f,2021_Oct_14_0959,untitled_groupA_k,2021.1.4,119.94233172588457,
