Numb,picture_show,Video_1,picture_judge,trials.thisRepN,trials.thisTrialN,trials.thisN,trials.thisIndex,image_intr.started,image_intr.stopped,key_resp_intr.keys,key_resp_intr.rt,key_resp_intr.started,key_resp_intr.stopped,image_show_text.started,image_show_text.stopped,image_show.started,image_show.stopped,image_video_text.started,image_video_text.stopped,image_judge.started,image_judge.stopped,image_judge_text.started,image_judge_text.stopped,slider_left.response,slider_left.rt,slider_left.started,slider_left.stopped,slider_mid.response,slider_mid.rt,slider_mid.started,slider_mid.stopped,slider_right.response,slider_right.rt,slider_right.started,slider_right.stopped,key_resp_next.keys,key_resp_next.rt,key_resp_next.started,key_resp_next.stopped,group,participant,age,gender(m/f),date,expName,psychopyVersion,frameRate,
,,,,,,,,41.167447600048035,None,space,67.31576729984954,41.167447600048035,None,,,,,,,,,,,,,,,,,,,,,,,,,,,B,keyulu,24,f,2021_Dec_26_2056,untitled_groupA_k,2021.1.4,59.99757610740702,
64,picture\p25.tif,BB_right_01_42\BBY25.mp4,picture\p25.tif,0,0,0,63,,,,,,,108.56046660011634,109.5661905000452,109.55025420011953,None,112.71947190002538,113.76709070010111,143.02996250009164,None,143.02996250009164,None,5.091666666666667,8.985417699906975,143.02996250009164,None,5.06388888888889,11.136239999905229,143.02996250009164,None,5.036111111111111,12.488861999940127,143.02996250009164,None,space,14.685419599991292,143.02996250009164,None,B,keyulu,24,f,2021_Dec_26_2056,untitled_groupA_k,2021.1.4,59.99757610740702,
84,picture\p03.tif,RB_right_01_42\RBY03.mp4,picture\p03.tif,0,1,1,83,,,,,,,157.7558501001913,158.7564497999847,158.74015020020306,None,162.19560179999098,163.2057247001212,192.49737980007194,None,192.49737980007194,None,4.022222222222222,11.15152610000223,192.49737980007194,None,5.841666666666667,13.285018700174987,192.49737980007194,None,1.105555555555556,4.938323099864647,192.49737980007194,None,space,15.179648000048473,192.49737980007194,None,B,keyulu,24,f,2021_Dec_26_2056,untitled_groupA_k,2021.1.4,59.99757610740702,
10,picture\p10.tif,RR_left_01_42\RRZ10.mp4,picture\p10.tif,0,2,2,9,,,,,,,207.722207600018,208.7305974001065,208.7144723001402,None,211.6258171000518,212.62896430003457,241.92481860006228,None,241.92481860006228,None,7,3.3818978001363575,241.92481860006228,None,5.091666666666667,6.237367899855599,241.92481860006228,None,5.175,4.804626900004223,241.92481860006228,None,space,8.492559800157323,241.92481860006228,None,B,keyulu,24,f,2021_Dec_26_2056,untitled_groupA_k,2021.1.4,59.99757610740702,
14,picture\p14.tif,RR_left_01_42\RRZ14.mp4,picture\p14.tif,0,3,3,13,,,,,,,250.44841370009817,251.45513890008442,251.43908440019004,None,254.39212940004654,255.40372250019573,284.69601980014704,None,284.69601980014704,None,4.313888888888889,5.65262239985168,284.69601980014704,None,4.327777777777778,4.4814627999439836,284.69601980014704,None,6.9944444444444445,3.2207303000614047,284.69601980014704,None,space,7.233386500040069,284.69601980014704,None,B,keyulu,24,f,2021_Dec_26_2056,untitled_groupA_k,2021.1.4,59.99757610740702,
71,picture\p32.tif,RB_right_01_42\RBY32.mp4,picture\p32.tif,0,4,4,70,,,,,,,291.95656960015185,292.9640585000161,292.94810839998536,None,295.9256792999804,296.92986650019884,326.2213183999993,None,326.2213183999993,None,6.05,21.24842399987392,326.2213183999993,None,1.188888888888889,5.218240699963644,326.2213183999993,None,6.022222222222222,19.751956099877134,326.2213183999993,None,space,21.90014600008726,326.2213183999993,None,B,keyulu,24,f,2021_Dec_26_2056,untitled_groupA_k,2021.1.4,59.99757610740702,
77,picture\p38.tif,RB_right_01_42\RBY38.mp4,picture\p38.tif,0,5,5,76,,,,,,,348.1662413000595,349.16806100006215,349.15134860016406,None,352.07945289998315,353.0855510002002,382.38260590005666,None,382.38260590005666,None,1.9250000000000003,3.5641310999635607,382.38260590005666,None,6.008333333333334,5.498687299899757,382.38260590005666,None,6.008333333333334,10.159183699870482,382.38260590005666,None,space,15.67761390004307,382.38260590005666,None,B,keyulu,24,f,2021_Dec_26_2056,untitled_groupA_k,2021.1.4,59.99757610740702,
43,picture\p04.tif,RR_right_01_42\RRY04.mp4,picture\p04.tif,0,6,6,42,,,,,,,398.10943960002623,399.12493080017157,399.09157140017487,None,401.96556830010377,402.974001100054,432.2686439000536,None,432.2686439000536,None,6.966666666666667,3.634775400161743,432.2686439000536,None,5.0777777777777775,7.004228299949318,432.2686439000536,None,2.938888888888889,5.022264200029895,432.2686439000536,None,space,8.61237349989824,432.2686439000536,None,B,keyulu,24,f,2021_Dec_26_2056,untitled_groupA_k,2021.1.4,59.99757610740702,
27,picture\p27.tif,BB_left_01_42\BBZ27.mp4,picture\p27.tif,0,7,7,26,,,,,,,440.9095434001647,441.9162920000963,441.8996686001774,None,444.8440329001751,445.8502584001981,475.14290040009655,None,475.14290040009655,None,6.091666666666667,3.7021325000096112,475.14290040009655,None,5.883333333333333,4.6021246002055705,475.14290040009655,None,5.952777777777778,5.571595000103116,475.14290040009655,None,space,6.54332789988257,475.14290040009655,None,B,keyulu,24,f,2021_Dec_26_2056,untitled_groupA_k,2021.1.4,59.99757610740702,
78,picture\p39.tif,RB_right_01_42\RBY39.mp4,picture\p39.tif,0,8,8,77,,,,,,,481.71954550012015,482.726222100202,482.71029289998114,None,486.08363060001284,487.09078930015676,516.3666694001295,None,516.3666694001295,None,1.0638888888888896,6.419309299904853,516.3666694001295,None,5.841666666666667,13.26738249999471,516.3666694001295,None,6.063888888888888,14.119639500044286,516.3666694001295,None,space,14.798366100061685,516.3666694001295,None,B,keyulu,24,f,2021_Dec_26_2056,untitled_groupA_k,2021.1.4,59.99757610740702,
20,picture\p20.tif,BB_left_01_42\BBZ20.mp4,picture\p20.tif,0,9,9,19,,,,,,,531.1957783000544,532.2002122001722,532.1827500001527,None,535.1121422001161,536.1157364000101,565.411359900143,None,565.411359900143,None,5.772222222222222,2.5486356001347303,565.411359900143,None,6.063888888888888,3.6331382000353187,565.411359900143,None,5.911111111111111,4.8722275998443365,565.411359900143,None,space,6.473818399943411,565.411359900143,None,B,keyulu,24,f,2021_Dec_26_2056,untitled_groupA_k,2021.1.4,59.99757610740702,
26,picture\p26.tif,BB_left_01_42\BBZ26.mp4,picture\p26.tif,0,10,10,25,,,,,,,571.9203952001408,572.9254702001344,572.9095594000537,None,575.8839486001525,576.8915144000202,606.1820793000516,None,606.1820793000516,None,5.994444444444445,3.6192706001456827,606.1820793000516,None,6.063888888888888,4.7199143001344055,606.1820793000516,None,6.2027777777777775,5.572837899904698,606.1820793000516,None,space,8.463620899943635,606.1820793000516,None,B,keyulu,24,f,2021_Dec_26_2056,untitled_groupA_k,2021.1.4,59.99757610740702,
72,picture\p33.tif,RB_right_01_42\RBY33.mp4,picture\p33.tif,0,11,11,71,,,,,,,614.676644399995,615.6837603000458,615.6671539000235,None,618.6331589000765,619.6503748001996,648.945754900109,None,648.945754900109,None,6.161111111111111,8.397470599971712,648.945754900109,None,1.1472222222222226,6.898531199898571,648.945754900109,None,6.091666666666667,9.269174400018528,648.945754900109,None,space,11.499698499916121,648.945754900109,None,B,keyulu,24,f,2021_Dec_26_2056,untitled_groupA_k,2021.1.4,59.99757610740702,
17,picture\p17.tif,BB_left_01_42\BBZ17.mp4,picture\p17.tif,0,12,12,16,,,,,,,660.4823912000284,661.4910982002039,661.4753136001527,None,664.3831954000052,665.389615500113,694.6840396001935,None,694.6840396001935,None,6.0777777777777775,4.819486499996856,694.6840396001935,None,6.05,6.1059229001402855,694.6840396001935,None,6.022222222222222,8.391157800098881,694.6840396001935,None,space,9.810893000103533,694.6840396001935,None,B,keyulu,24,f,2021_Dec_26_2056,untitled_groupA_k,2021.1.4,59.99757610740702,
36,picture\p36.tif,BR_left_01_42\BRZ36.mp4,picture\p36.tif,0,13,13,35,,,,,,,704.524719200097,705.5325917999726,705.5168645000085,None,708.5093608000316,709.5135918001179,738.8055313001387,None,738.8055313001387,None,6.341666666666667,3.968905400019139,738.8055313001387,None,6.147222222222222,4.888992700027302,738.8055313001387,None,1.1472222222222226,2.388447399949655,738.8055313001387,None,space,6.679500799858943,738.8055313001387,None,B,keyulu,24,f,2021_Dec_26_2056,untitled_groupA_k,2021.1.4,59.99757610740702,
41,picture\p41.tif,BR_left_01_42\BRZ41.mp4,picture\p41.tif,0,14,14,40,,,,,,,745.5171994999982,746.523262700066,746.5069064002018,None,749.5271835001186,750.5394334001467,779.830843700096,None,779.830843700096,None,1.230555555555556,5.519833900034428,779.830843700096,None,6.147222222222222,6.886308399960399,779.830843700096,None,6.18888888888889,8.005152099998668,779.830843700096,None,space,8.759435700019822,779.830843700096,None,B,keyulu,24,f,2021_Dec_26_2056,untitled_groupA_k,2021.1.4,59.99757610740702,
50,picture\p11.tif,RR_right_01_42\RRY11.mp4,picture\p11.tif,0,15,15,49,,,,,,,788.6238514999859,789.6327500001062,789.6170169999823,None,793.0683102000039,794.0818786001764,823.3747423000168,None,823.3747423000168,None,5.216666666666667,5.756319999927655,823.3747423000168,None,6.8694444444444445,2.2852491999510676,823.3747423000168,None,5.105555555555556,7.5132364998571575,823.3747423000168,None,space,8.969232499832287,823.3747423000168,None,B,keyulu,24,f,2021_Dec_26_2056,untitled_groupA_k,2021.1.4,59.99757610740702,
76,picture\p37.tif,RB_right_01_42\RBY37.mp4,picture\p37.tif,0,16,16,75,,,,,,,832.3819542999845,833.3907691000495,833.3582543001976,None,836.2737458001357,837.2888132000808,866.5820568001363,None,866.5820568001363,None,2.1333333333333337,4.434686199994758,866.5820568001363,None,6.0777777777777775,7.103207999840379,866.5820568001363,None,5.911111111111111,8.937951999949291,866.5820568001363,None,space,9.856512199854478,866.5820568001363,None,B,keyulu,24,f,2021_Dec_26_2056,untitled_groupA_k,2021.1.4,59.99757610740702,
54,picture\p15.tif,RR_right_01_42\RRY15.mp4,picture\p15.tif,0,17,17,53,,,,,,,876.4749584000092,877.4815591000952,877.4648769001942,None,880.3699237999972,881.3814046001062,910.6744393000845,None,910.6744393000845,None,6.952777777777778,2.367244399851188,910.6744393000845,None,4.966666666666667,4.817798200063407,910.6744393000845,None,5.911111111111111,3.470966799883172,910.6744393000845,None,space,5.897193500073627,910.6744393000845,None,B,keyulu,24,f,2021_Dec_26_2056,untitled_groupA_k,2021.1.4,59.99757610740702,
16,picture\p16.tif,BB_left_01_42\BBZ16.mp4,picture\p16.tif,0,18,18,15,,,,,,,916.6005989001133,917.6075983000919,917.5924339001067,None,920.5219599001575,921.5232995999977,950.8154959001113,None,950.8154959001113,None,6.022222222222222,3.8858495999593288,950.8154959001113,None,6.036111111111111,5.052292099921033,950.8154959001113,None,6.133333333333334,6.574375899974257,950.8154959001113,None,space,7.423836200032383,950.8154959001113,None,B,keyulu,24,f,2021_Dec_26_2056,untitled_groupA_k,2021.1.4,59.99757610740702,
21,picture\p21.tif,BB_left_01_42\BBZ21.mp4,picture\p21.tif,0,19,19,20,,,,,,,958.2832055999897,959.2827288000844,959.2827288000844,None,962.192580500152,963.1985769001767,992.4894671000075,None,992.4894671000075,None,6.063888888888888,3.4695732998661697,992.4894671000075,None,6.105555555555556,5.219973600003868,992.4894671000075,None,6.022222222222222,9.071927699958906,992.4894671000075,None,space,9.915688599925488,992.4894671000075,None,B,keyulu,24,f,2021_Dec_26_2056,untitled_groupA_k,2021.1.4,59.99757610740702,
51,picture\p12.tif,RR_right_01_42\RRY12.mp4,picture\p12.tif,0,20,20,50,,,,,,,1002.4430968000088,1003.457424600143,1003.4416236001998,None,1006.4732665000483,1007.4735543001443,1036.8002851000056,None,1036.8002851000056,None,6.966666666666667,3.483892400050536,1036.8002851000056,None,5.133333333333333,6.269170299870893,1036.8002851000056,None,5.161111111111111,7.4055439999792725,1036.8002851000056,None,space,8.826720100129023,1036.8002851000056,None,B,keyulu,24,f,2021_Dec_26_2056,untitled_groupA_k,2021.1.4,59.99757610740702,
1,picture\p01.tif,RR_left_01_42\RRZ01.mp4,picture\p01.tif,0,21,21,0,,,,,,,1045.65783440019,1046.6654622000642,1046.64951080014,None,1049.5546722,1050.564568700036,1079.8400877001695,None,1079.8400877001695,None,6.008333333333334,4.569567000027746,1079.8400877001695,None,7,3.4365269001573324,1079.8400877001695,None,6.2027777777777775,5.957669600145891,1079.8400877001695,None,space,8.37113570002839,1079.8400877001695,None,B,keyulu,24,f,2021_Dec_26_2056,untitled_groupA_k,2021.1.4,59.99757610740702,
42,picture\p42.tif,BR_left_01_42\BRZ42.mp4,picture\p42.tif,0,22,22,41,,,,,,,1088.2564686001278,1089.2571201000828,1089.2418812001124,None,1092.1849925001152,1093.1899073000532,1122.4784157001413,None,1122.4784157001413,None,5.022222222222222,6.5605055000633,1122.4784157001413,None,3.188888888888889,4.83783459989354,1122.4784157001413,None,7,2.4395208000205457,1122.4784157001413,None,space,7.549540499923751,1122.4784157001413,None,B,keyulu,24,f,2021_Dec_26_2056,untitled_groupA_k,2021.1.4,59.99757610740702,
33,picture\p33.tif,BR_left_01_42\BRZ33.mp4,picture\p33.tif,0,23,23,32,,,,,,,1130.0603625001386,1131.066558800172,1131.0500732001383,None,1134.4939552000724,1135.4980370001867,1164.807751600165,None,1164.807751600165,None,5.091666666666667,4.205685699824244,1164.807751600165,None,1.119444444444445,2.8053673000540584,1164.807751600165,None,5.0777777777777775,5.7241294998675585,1164.807751600165,None,space,6.0548034000676125,1164.807751600165,None,B,keyulu,24,f,2021_Dec_26_2056,untitled_groupA_k,2021.1.4,59.99757610740702,
66,picture\p27.tif,BB_right_01_42\BBY27.mp4,picture\p27.tif,0,24,24,65,,,,,,,1170.9003865001723,1171.9083257000893,1171.892108200118,None,1174.7678813000675,1175.7736159001943,1205.0681632000487,None,1205.0681632000487,None,5.980555555555556,3.1340193999931216,1205.0681632000487,None,6.022222222222222,5.6018747999332845,1205.0681632000487,None,6.022222222222222,6.056479900144041,1205.0681632000487,None,space,6.996704899938777,1205.0681632000487,None,B,keyulu,24,f,2021_Dec_26_2056,untitled_groupA_k,2021.1.4,59.99757610740702,
39,picture\p39.tif,BR_left_01_42\BRZ39.mp4,picture\p39.tif,0,25,25,38,,,,,,,1212.0927591000218,1213.0986731001176,1213.0845571001992,None,1216.0347434000578,1217.0488379001617,1246.3403571001254,None,1246.3403571001254,None,6.05,5.954335300019011,1246.3403571001254,None,1.1611111111111114,4.503114500083029,1246.3403571001254,None,6.05,7.089425100013614,1246.3403571001254,None,space,7.629161400021985,1246.3403571001254,None,B,keyulu,24,f,2021_Dec_26_2056,untitled_groupA_k,2021.1.4,59.99757610740702,
80,picture\p41.tif,RB_right_01_42\RBY41.mp4,picture\p41.tif,0,26,26,79,,,,,,,1253.999768000096,1255.0076450000051,1254.991258900147,None,1257.906976800179,1258.907280200161,1288.2175038000569,None,1288.2175038000569,None,1.1611111111111114,1.9350860000122339,1288.2175038000569,None,6.063888888888888,3.419452999951318,1288.2175038000569,None,4.897222222222222,5.00643609999679,1288.2175038000569,None,space,5.5159432999789715,1288.2175038000569,None,B,keyulu,24,f,2021_Dec_26_2056,untitled_groupA_k,2021.1.4,59.99757610740702,
12,picture\p12.tif,RR_left_01_42\RRZ12.mp4,picture\p12.tif,0,27,27,11,,,,,,,1293.7597660000902,1294.7655713001732,1294.748803799972,None,1297.6150318,1298.6159053000156,1327.9241812000982,None,1327.9241812000982,None,7,2.302850400097668,1327.9241812000982,None,5.161111111111111,9.471746399998665,1327.9241812000982,None,3.0916666666666672,8.225427200086415,1327.9241812000982,None,space,9.978798999916762,1327.9241812000982,None,B,keyulu,24,f,2021_Dec_26_2056,untitled_groupA_k,2021.1.4,59.99757610740702,
48,picture\p09.tif,RR_right_01_42\RRY09.mp4,picture\p09.tif,0,28,28,47,,,,,,,1337.934028699994,1338.941292700125,1338.9255949000362,None,1341.815639700042,1342.8239211000036,1372.1149138000328,None,1372.1149138000328,None,3.0638888888888887,7.737547100055963,1372.1149138000328,None,7,5.519317600177601,1372.1149138000328,None,4.980555555555556,9.174652999965474,1372.1149138000328,None,space,9.95076459995471,1372.1149138000328,None,B,keyulu,24,f,2021_Dec_26_2056,untitled_groupA_k,2021.1.4,59.99757610740702,
83,picture\p02.tif,RB_right_01_42\RBY02.mp4,picture\p02.tif,0,29,29,82,,,,,,,1382.101614800049,1383.1161092000548,1383.1004806000274,None,1385.9689829000272,1386.982276899973,1416.273234500084,None,1416.273234500084,None,5.966666666666667,9.720706100109965,1416.273234500084,None,1.0083333333333337,1.9194326000288129,1416.273234500084,None,5.827777777777778,8.441732099978253,1416.273234500084,None,space,9.936403600033373,1416.273234500084,None,B,keyulu,24,f,2021_Dec_26_2056,untitled_groupA_k,2021.1.4,59.99757610740702,
5,picture\p05.tif,RR_left_01_42\RRZ05.mp4,picture\p05.tif,0,30,30,4,,,,,,,1426.250575200189,1427.257406000048,1427.241635600105,None,1430.1416947001126,1431.1551666001324,1460.449272800004,None,1460.449272800004,None,2.9527777777777784,4.353742399951443,1460.449272800004,None,2.994444444444445,5.456057399976999,1460.449272800004,None,6.883333333333334,1.5095792999491096,1460.449272800004,None,space,6.393428500043228,1460.449272800004,None,B,keyulu,24,f,2021_Dec_26_2056,untitled_groupA_k,2021.1.4,59.99757610740702,
13,picture\p13.tif,RR_left_01_42\RRZ13.mp4,picture\p13.tif,0,31,31,12,,,,,,,1466.8781128001865,1467.8833012001123,1467.867697500158,None,1471.243960400112,1472.2486610000487,1501.5434237001464,None,1501.5434237001464,None,4.175,9.1336451000534,1501.5434237001464,None,3.2027777777777784,6.718336199875921,1501.5434237001464,None,7,2.440744400024414,1501.5434237001464,None,space,9.567762800026685,1501.5434237001464,None,B,keyulu,24,f,2021_Dec_26_2056,untitled_groupA_k,2021.1.4,59.99757610740702,
65,picture\p26.tif,BB_right_01_42\BBY26.mp4,picture\p26.tif,0,32,32,64,,,,,,,1511.1511401000898,1512.1572633001488,1512.1416837000288,None,1515.1082862999756,1516.1232045001816,1545.4167888001539,None,1545.4167888001539,None,5.980555555555556,2.7985694999806583,1545.4167888001539,None,5.897222222222222,3.9849177999421954,1545.4167888001539,None,5.841666666666667,4.9902545001823455,1545.4167888001539,None,space,5.574765300145373,1545.4167888001539,None,B,keyulu,24,f,2021_Dec_26_2056,untitled_groupA_k,2021.1.4,59.99757610740702,
38,picture\p38.tif,BR_left_01_42\BRZ38.mp4,picture\p38.tif,0,33,33,37,,,,,,,1551.0421872001607,1552.0488252001815,1552.03186680004,None,1554.9220200001728,1555.931913900189,1585.2103695000987,None,1585.2103695000987,None,1.1333333333333333,1.8693041999358684,1585.2103695000987,None,5.230555555555556,7.268874099943787,1585.2103695000987,None,5.036111111111111,8.85267739999108,1585.2103695000987,None,space,9.13496240018867,1585.2103695000987,None,B,keyulu,24,f,2021_Dec_26_2056,untitled_groupA_k,2021.1.4,59.99757610740702,
81,picture\p42.tif,RB_right_01_42\RBY42.mp4,picture\p42.tif,0,34,34,80,,,,,,,1594.3847817000933,1595.3909570001997,1595.3751293001696,None,1598.3382103000768,1599.3403796001803,1628.6326002001297,None,1628.6326002001297,None,4.063888888888889,11.419306699885055,1628.6326002001297,None,1.188888888888889,12.68540220009163,1628.6326002001297,None,5.938888888888889,9.393630600068718,1628.6326002001297,None,space,13.391595300054178,1628.6326002001297,None,B,keyulu,24,f,2021_Dec_26_2056,untitled_groupA_k,2021.1.4,59.99757610740702,
61,picture\p22.tif,BB_right_01_42\BBY22.mp4,picture\p22.tif,0,35,35,60,,,,,,,1642.059625599999,1643.064095800044,1643.0470289001241,None,1646.0234352999832,1647.030660700053,1676.3265215000138,None,1676.3265215000138,None,6.161111111111111,2.015898199984804,1676.3265215000138,None,6.05,3.1169201999437064,1676.3265215000138,None,6.161111111111111,4.920045299921185,1676.3265215000138,None,space,5.81239639990963,1676.3265215000138,None,B,keyulu,24,f,2021_Dec_26_2056,untitled_groupA_k,2021.1.4,59.99757610740702,
23,picture\p23.tif,BB_left_01_42\BBZ23.mp4,picture\p23.tif,0,36,36,22,,,,,,,1682.173773500137,1683.1745916001964,1683.1593337000813,None,1686.6319602001458,1687.6395131000318,1716.9290432000998,None,1716.9290432000998,None,5.925,1.6871370000299066,1716.9290432000998,None,6.022222222222222,2.9564024000428617,1716.9290432000998,None,6.022222222222222,3.9922452000901103,1716.9290432000998,None,space,5.1829369000624865,1716.9290432000998,None,B,keyulu,24,f,2021_Dec_26_2056,untitled_groupA_k,2021.1.4,59.99757610740702,
6,picture\p06.tif,RR_left_01_42\RRZ06.mp4,picture\p06.tif,0,37,37,5,,,,,,,1722.1414293001872,1723.1508653999772,1723.1202796001453,None,1726.025754700182,1727.0305469001178,1756.3258412000723,None,1756.3258412000723,None,4.022222222222222,9.704270400106907,1756.3258412000723,None,3.855555555555556,8.345160899916664,1756.3258412000723,None,7,2.0040197998750955,1756.3258412000723,None,space,10.92597630014643,1756.3258412000723,None,B,keyulu,24,f,2021_Dec_26_2056,untitled_groupA_k,2021.1.4,59.99757610740702,
37,picture\p37.tif,BR_left_01_42\BRZ37.mp4,picture\p37.tif,0,38,38,36,,,,,,,1767.285619799979,1768.290120900143,1768.2724258999806,None,1771.946608000202,1772.9547541001812,1802.257350299973,None,1802.257350299973,None,1.313888888888889,3.181036900030449,1802.257350299973,None,6.0777777777777775,9.249926700023934,1802.257350299973,None,6.05,7.6001633000560105,1802.257350299973,None,space,10.426463299896568,1802.257350299973,None,B,keyulu,24,f,2021_Dec_26_2056,untitled_groupA_k,2021.1.4,59.99757610740702,
7,picture\p07.tif,RR_left_01_42\RRZ07.mp4,picture\p07.tif,0,39,39,6,,,,,,,1812.7274484999944,1813.731574299978,1813.7153668000828,None,1816.6320144000929,1817.6460466000717,1846.9412371001672,None,1846.9412371001672,None,3.1194444444444445,3.5820977000985295,1846.9412371001672,None,4.022222222222222,4.992877800017595,1846.9412371001672,None,6.966666666666667,2.1962272999808192,1846.9412371001672,None,space,5.394965499872342,1846.9412371001672,None,B,keyulu,24,f,2021_Dec_26_2056,untitled_groupA_k,2021.1.4,59.99757610740702,
59,picture\p20.tif,BB_right_01_42\BBY20.mp4,picture\p20.tif,0,40,40,58,,,,,,,1852.3677525001112,1853.3722641000059,1853.3557920001913,None,1856.3803159000818,1857.3884126001503,1886.6632405000273,None,1886.6632405000273,None,6.133333333333334,9.721828599926084,1886.6632405000273,None,6.147222222222222,4.852707700105384,1886.6632405000273,None,6.161111111111111,6.30796859995462,1886.6632405000273,None,space,11.427959100110456,1886.6632405000273,None,B,keyulu,24,f,2021_Dec_26_2056,untitled_groupA_k,2021.1.4,59.99757610740702,
52,picture\p13.tif,RR_right_01_42\RRY13.mp4,picture\p13.tif,0,41,41,51,,,,,,,1898.1270647000056,1899.1312057999894,1899.1153449001722,None,1902.09289430012,1903.1011104001664,1932.3895354000852,None,1932.3895354000852,None,4.938888888888889,5.466418800177053,1932.3895354000852,None,3.9527777777777784,3.4020393998362124,1932.3895354000852,None,6.911111111111111,2.1533240999560803,1932.3895354000852,None,space,5.912434000056237,1932.3895354000852,None,B,keyulu,24,f,2021_Dec_26_2056,untitled_groupA_k,2021.1.4,59.99757610740702,
25,picture\p25.tif,BB_left_01_42\BBZ25.mp4,picture\p25.tif,0,42,42,24,,,,,,,1938.3318767000455,1939.3401731001213,1939.3241830000188,None,1942.2528318001423,1943.2554433001205,1972.54967460013,None,1972.54967460013,None,6.147222222222222,2.7020721998997033,1972.54967460013,None,6.1194444444444445,3.8859270999673754,1972.54967460013,None,6.036111111111111,5.170804599998519,1972.54967460013,None,space,5.831066400045529,1972.54967460013,None,B,keyulu,24,f,2021_Dec_26_2056,untitled_groupA_k,2021.1.4,59.99757610740702,
56,picture\p17.tif,RR_right_01_42\RRY17.mp4,picture\p17.tif,0,43,43,55,,,,,,,1978.4085434000008,1979.4155669000465,1979.3995740001556,None,1982.3223779001273,1983.3314759000205,2012.6218376001343,None,2012.6218376001343,None,3.938888888888889,4.218881200067699,2012.6218376001343,None,4.925,5.238980800146237,2012.6218376001343,None,6.966666666666667,2.539044300094247,2012.6218376001343,None,space,5.838587999809533,2012.6218376001343,None,B,keyulu,24,f,2021_Dec_26_2056,untitled_groupA_k,2021.1.4,59.99757610740702,
55,picture\p16.tif,RR_right_01_42\RRY16.mp4,picture\p16.tif,0,44,44,54,,,,,,,2018.5011403001845,2019.5075016000774,2019.4896482001059,None,2022.3875528001226,2023.3889667000622,2052.6712111001834,None,2052.6712111001834,None,4.966666666666667,4.6986526001710445,2052.6712111001834,None,2.8416666666666672,3.648423100123182,2052.6712111001834,None,7,1.881458800053224,2052.6712111001834,None,space,5.423390599898994,2052.6712111001834,None,B,keyulu,24,f,2021_Dec_26_2056,untitled_groupA_k,2021.1.4,59.99757610740702,
60,picture\p21.tif,BB_right_01_42\BBY21.mp4,picture\p21.tif,0,45,45,59,,,,,,,2058.130317399977,2059.133226300124,2059.1173239001073,None,2062.0751309001353,2063.08252730011,2092.372742900159,None,2092.372742900159,None,5.952777777777778,1.809629200026393,2092.372742900159,None,5.952777777777778,3.5871532999444753,2092.372742900159,None,5.980555555555556,4.773816799977794,2092.372742900159,None,space,4.994857700075954,2092.372742900159,None,B,keyulu,24,f,2021_Dec_26_2056,untitled_groupA_k,2021.1.4,59.99757610740702,
3,picture\p03.tif,RR_left_01_42\RRZ03.mp4,picture\p03.tif,0,46,46,2,,,,,,,2097.4013875999954,2098.408803800121,2098.3941713999957,None,2101.8062732000835,2102.808181800181,2132.103931900114,None,2132.103931900114,None,3.9944444444444445,8.88774610008113,2132.103931900114,None,7,1.8504681999329478,2132.103931900114,None,2.994444444444445,7.3512851998675615,2132.103931900114,None,space,10.546548099955544,2132.103931900114,None,B,keyulu,24,f,2021_Dec_26_2056,untitled_groupA_k,2021.1.4,59.99757610740702,
40,picture\p40.tif,BR_left_01_42\BRZ40.mp4,picture\p40.tif,0,47,47,39,,,,,,,2142.6780197001062,2143.683525700122,2143.669294200139,None,2146.564209900098,2147.564667900093,2176.8609565000515,None,2176.8609565000515,None,5.161111111111111,2.7989566000178456,2176.8609565000515,None,1.2166666666666672,1.6515836999751627,2176.8609565000515,None,4.841666666666667,4.750170499784872,2176.8609565000515,None,space,5.276340399868786,2176.8609565000515,None,B,keyulu,24,f,2021_Dec_26_2056,untitled_groupA_k,2021.1.4,59.99757610740702,
53,picture\p14.tif,RR_right_01_42\RRY14.mp4,picture\p14.tif,0,48,48,52,,,,,,,2182.166852600174,2183.175393300131,2183.1429286000784,None,2186.057819100097,2187.073170900112,2216.3682311000302,None,2216.3682311000302,None,3.0638888888888887,3.271692000096664,2216.3682311000302,None,4.938888888888889,4.490578500088304,2216.3682311000302,None,6.966666666666667,2.123781999805942,2216.3682311000302,None,space,5.167589100077748,2216.3682311000302,None,B,keyulu,24,f,2021_Dec_26_2056,untitled_groupA_k,2021.1.4,59.99757610740702,
70,picture\p31.tif,BB_right_01_42\BBY31.mp4,picture\p31.tif,0,49,49,69,,,,,,,2221.589111100184,2222.6011219001375,2222.5850341999903,None,2225.467363000149,2226.4670537000056,2255.7764756002,None,2255.7764756002,None,6.2027777777777775,3.55342680006288,2255.7764756002,None,6.063888888888888,4.857665200019255,2255.7764756002,None,5.994444444444445,6.059133399976417,2255.7764756002,None,space,6.448880099924281,2255.7764756002,None,B,keyulu,24,f,2021_Dec_26_2056,untitled_groupA_k,2021.1.4,59.99757610740702,
79,picture\p40.tif,RB_right_01_42\RBY40.mp4,picture\p40.tif,0,50,50,78,,,,,,,2262.2535885002,2263.2602753001265,2263.2436375999823,None,2266.138186200056,2267.1423514999915,2296.432097800076,None,2296.432097800076,None,5.952777777777778,4.656398999970406,2296.432097800076,None,1.0777777777777784,2.2211302001960576,2296.432097800076,None,5.091666666666667,5.890837999992073,2296.432097800076,None,space,7.722455400042236,2296.432097800076,None,B,keyulu,24,f,2021_Dec_26_2056,untitled_groupA_k,2021.1.4,59.99757610740702,
46,picture\p07.tif,RR_right_01_42\RRY07.mp4,picture\p07.tif,0,51,51,45,,,,,,,2304.1943445000798,2305.201421200065,2305.1859972001985,None,2308.0906750001013,2309.099315600004,2338.3764723001514,None,2338.3764723001514,None,1.952777777777778,3.6539113000035286,2338.3764723001514,None,5.008333333333334,6.470846300013363,2338.3764723001514,None,7,2.155275900149718,2338.3764723001514,None,space,6.670038999989629,2338.3764723001514,None,B,keyulu,24,f,2021_Dec_26_2056,untitled_groupA_k,2021.1.4,59.99757610740702,
32,picture\p32.tif,BR_left_01_42\BRZ32.mp4,picture\p32.tif,0,52,52,31,,,,,,,2345.0860021000262,2346.093433300033,2346.0775948001537,None,2348.9428521001246,2349.9583098001312,2379.2503568001557,None,2379.2503568001557,None,5.800000000000001,5.9203048998024315,2379.2503568001557,None,1.202777777777778,2.3362271001096815,2379.2503568001557,None,6.008333333333334,3.5386898000724614,2379.2503568001557,None,space,7.11706000007689,2379.2503568001557,None,B,keyulu,24,f,2021_Dec_26_2056,untitled_groupA_k,2021.1.4,59.99757610740702,
45,picture\p06.tif,RR_right_01_42\RRY06.mp4,picture\p06.tif,0,53,53,44,,,,,,,2386.395103200106,2387.401954700006,2387.3859189001378,None,2390.2998744000215,2391.3013660002034,2420.5938904001378,None,2420.5938904001378,None,3.9666666666666677,6.172943699872121,2420.5938904001378,None,2.1055555555555556,3.711453099967912,2420.5938904001378,None,7,2.3854499999433756,2420.5938904001378,None,space,7.036925599910319,2420.5938904001378,None,B,keyulu,24,f,2021_Dec_26_2056,untitled_groupA_k,2021.1.4,59.99757610740702,
73,picture\p34.tif,RB_right_01_42\RBY34.mp4,picture\p34.tif,0,54,54,72,,,,,,,2427.672123500146,2428.676243999973,2428.65909500001,None,2432.0057871001773,2433.009714800166,2462.2932620001957,None,2462.2932620001957,None,5.216666666666667,6.8778232000768185,2462.2932620001957,None,1.1333333333333333,5.326317199971527,2462.2932620001957,None,5.911111111111111,4.0488092000596225,2462.2932620001957,None,space,7.747479300014675,2462.2932620001957,None,B,keyulu,24,f,2021_Dec_26_2056,untitled_groupA_k,2021.1.4,59.99757610740702,
9,picture\p09.tif,RR_left_01_42\RRZ09.mp4,picture\p09.tif,0,55,55,8,,,,,,,2470.077771899989,2471.084399700165,2471.0676810001023,None,2473.9558171001263,2474.968147000065,2504.259621600155,None,2504.259621600155,None,3.0361111111111114,7.3615761999972165,2504.259621600155,None,7,1.836206000065431,2504.259621600155,None,4.855555555555556,8.90510299988091,2504.259621600155,None,space,10.286459899973124,2504.259621600155,None,B,keyulu,24,f,2021_Dec_26_2056,untitled_groupA_k,2021.1.4,59.99757610740702,
44,picture\p05.tif,RR_right_01_42\RRY05.mp4,picture\p05.tif,0,56,56,43,,,,,,,2514.5879397001117,2515.5931236001197,2515.5763531001285,None,2518.477304500062,2519.4928586001042,2548.784383600112,None,2548.784383600112,None,4.036111111111111,11.117874099873006,2548.784383600112,None,2.2583333333333337,9.274330599932,2548.784383600112,None,6.966666666666667,3.003359599970281,2548.784383600112,None,space,11.503299299860373,2548.784383600112,None,B,keyulu,24,f,2021_Dec_26_2056,untitled_groupA_k,2021.1.4,59.99757610740702,
49,picture\p10.tif,RR_right_01_42\RRY10.mp4,picture\p10.tif,0,57,57,48,,,,,,,2560.3290973000694,2561.3346450000536,2561.318168699974,None,2564.2041047001258,2565.2171003001276,2594.5259961001575,None,2594.5259961001575,None,7,2.7015970000065863,2594.5259961001575,None,4.050000000000001,6.593597499886528,2594.5259961001575,None,1.9666666666666668,5.30812820000574,2594.5259961001575,None,space,6.765439599985257,2594.5259961001575,None,B,keyulu,24,f,2021_Dec_26_2056,untitled_groupA_k,2021.1.4,59.99757610740702,
11,picture\p11.tif,RR_left_01_42\RRZ11.mp4,picture\p11.tif,0,58,58,10,,,,,,,2601.326241099974,2602.32648040005,2602.3086912001017,None,2605.2482418001164,2606.259110300103,2635.532831000164,None,2635.532831000164,None,2.1333333333333337,3.4057135998737067,2635.532831000164,None,7,2.3373302000109106,2635.532831000164,None,5.036111111111111,5.108705399790779,2635.532831000164,None,space,5.567203599959612,2635.532831000164,None,B,keyulu,24,f,2021_Dec_26_2056,untitled_groupA_k,2021.1.4,59.99757610740702,
62,picture\p23.tif,BB_right_01_42\BBY23.mp4,picture\p23.tif,0,59,59,61,,,,,,,2641.127041900065,2642.134604400024,2642.117310700007,None,2645.05938290013,2646.0683321000542,2675.359568900196,None,2675.359568900196,None,6.036111111111111,4.0363154001533985,2675.359568900196,None,5.952777777777778,5.78702379995957,2675.359568900196,None,6.05,6.872588199796155,2675.359568900196,None,space,7.122512599918991,2675.359568900196,None,B,keyulu,24,f,2021_Dec_26_2056,untitled_groupA_k,2021.1.4,59.99757610740702,
4,picture\p04.tif,RR_left_01_42\RRZ04.mp4,picture\p04.tif,0,60,60,3,,,,,,,2682.5209348001517,2683.5276591000147,2683.511353300186,None,2686.4140967000276,2687.4262802000158,2716.7204963001423,None,2716.7204963001423,None,7,1.934994600014761,2716.7204963001423,None,5.091666666666667,4.654409500071779,2716.7204963001423,None,1.1611111111111114,3.28727460000664,2716.7204963001423,None,space,5.582749699940905,2716.7204963001423,None,B,keyulu,24,f,2021_Dec_26_2056,untitled_groupA_k,2021.1.4,59.99757610740702,
8,picture\p08.tif,RR_left_01_42\RRZ08.mp4,picture\p08.tif,0,61,61,7,,,,,,,2722.3297298001125,2723.33501540008,2723.3208730001934,None,2726.269383700099,2727.268449500203,2756.578619300155,None,2756.578619300155,None,4.911111111111111,7.234988800017163,2756.578619300155,None,6.980555555555556,4.049897700082511,2756.578619300155,None,1.9944444444444445,5.891043300041929,2756.578619300155,None,space,7.744134700158611,2756.578619300155,None,B,keyulu,24,f,2021_Dec_26_2056,untitled_groupA_k,2021.1.4,59.99757610740702,
74,picture\p35.tif,RB_right_01_42\RBY35.mp4,picture\p35.tif,0,62,62,73,,,,,,,2764.357827699976,2765.3609981001355,2765.346158000175,None,2768.7331149000674,2769.743659700034,2799.017361700069,None,2799.017361700069,None,5.966666666666667,5.468115600058809,2799.017361700069,None,6.133333333333334,6.638534399913624,2799.017361700069,None,1.0777777777777784,3.039460799889639,2799.017361700069,None,space,7.1526254999917,2799.017361700069,None,B,keyulu,24,f,2021_Dec_26_2056,untitled_groupA_k,2021.1.4,59.99757610740702,
68,picture\p29.tif,BB_right_01_42\BBY29.mp4,picture\p29.tif,0,63,63,67,,,,,,,2806.195520600071,2807.204456300009,2807.1895838000346,None,2810.130696200067,2811.137658199994,2840.4276808002032,None,2840.4276808002032,None,6.063888888888888,1.438035300001502,2840.4276808002032,None,6.022222222222222,2.3720879000611603,2840.4276808002032,None,5.980555555555556,3.4094839999452233,2840.4276808002032,None,space,3.882741800043732,2840.4276808002032,None,B,keyulu,24,f,2021_Dec_26_2056,untitled_groupA_k,2021.1.4,59.99757610740702,
35,picture\p35.tif,BR_left_01_42\BRZ35.mp4,picture\p35.tif,0,64,64,34,,,,,,,2844.33629700006,2845.3459165000822,2845.3275199001655,None,2848.300924099982,2849.3106735001784,2878.588275599992,None,2878.588275599992,None,5.980555555555556,3.4840573999099433,2878.588275599992,None,6.091666666666667,8.768166500143707,2878.588275599992,None,1,2.086389600066468,2878.588275599992,None,space,9.012255599955097,2878.588275599992,None,B,keyulu,24,f,2021_Dec_26_2056,untitled_groupA_k,2021.1.4,59.99757610740702,
63,picture\p24.tif,BB_right_01_42\BBY24.mp4,picture\p24.tif,0,65,65,62,,,,,,,2887.631054900121,2888.6366596000735,2888.6201110000256,None,2891.555563900154,2892.568978500087,2921.8644577001687,None,2921.8644577001687,None,5.883333333333333,1.832580499816686,2921.8644577001687,None,6.091666666666667,2.933841599849984,2921.8644577001687,None,6.0777777777777775,4.305487500037998,2921.8644577001687,None,space,4.484478899976239,2921.8644577001687,None,B,keyulu,24,f,2021_Dec_26_2056,untitled_groupA_k,2021.1.4,59.99757610740702,
19,picture\p19.tif,BB_left_01_42\BBZ19.mp4,picture\p19.tif,0,66,66,18,,,,,,,2926.394937200006,2927.3944515001494,2927.377852300182,None,2930.4020335001405,2931.411460200092,2960.6918907000218,None,2960.6918907000218,None,6.105555555555556,1.6848867998924106,2960.6918907000218,None,5.938888888888889,2.8850302998907864,2960.6918907000218,None,6.008333333333334,5.4410043999087065,2960.6918907000218,None,space,5.779042599955574,2960.6918907000218,None,B,keyulu,24,f,2021_Dec_26_2056,untitled_groupA_k,2021.1.4,59.99757610740702,
57,picture\p18.tif,BB_right_01_42\BBY18.mp4,picture\p18.tif,0,67,67,56,,,,,,,2966.4983437000774,2967.504727100022,2967.488750600023,None,2970.4344738000073,2971.4372017001733,3000.731507900171,None,3000.731507900171,None,5.994444444444445,2.0037726999726146,3000.731507900171,None,6.091666666666667,2.986465899972245,3000.731507900171,None,6.091666666666667,3.9646278999280185,3000.731507900171,None,space,4.033068899996579,3000.731507900171,None,B,keyulu,24,f,2021_Dec_26_2056,untitled_groupA_k,2021.1.4,59.99757610740702,
82,picture\p01.tif,RB_right_01_42\RBY01.mp4,picture\p01.tif,0,68,68,81,,,,,,,3004.8057965000626,3005.8140196001623,3005.798938400112,None,3008.76499340008,3009.779688300099,3039.073524000123,None,3039.073524000123,None,6.063888888888888,7.518510899972171,3039.073524000123,None,6.05,4.834540400188416,3039.073524000123,None,1.0777777777777784,2.2233895000535995,3039.073524000123,None,space,7.828131000045687,3039.073524000123,None,B,keyulu,24,f,2021_Dec_26_2056,untitled_groupA_k,2021.1.4,59.99757610740702,
31,picture\p31.tif,BR_left_01_42\BRZ31.mp4,picture\p31.tif,0,69,69,30,,,,,,,3046.931995399995,3047.938124800101,3047.9231802001595,None,3050.858799500158,3051.8715461001266,3081.1614922001027,None,3081.1614922001027,None,6.05,5.154726800043136,3081.1614922001027,None,1.1333333333333333,3.954215600155294,3081.1614922001027,None,6.105555555555556,6.352961099939421,3081.1614922001027,None,space,6.747607299825177,3081.1614922001027,None,B,keyulu,24,f,2021_Dec_26_2056,untitled_groupA_k,2021.1.4,59.99757610740702,
69,picture\p30.tif,BB_right_01_42\BBY30.mp4,picture\p30.tif,0,70,70,68,,,,,,,3087.9399580999743,3088.947374700103,3088.9322357000783,None,3092.29104869999,3093.2966287001036,3122.588701599976,None,3122.588701599976,None,5.966666666666667,1.656049899989739,3122.588701599976,None,6.105555555555556,2.746447999961674,3122.588701599976,None,6.063888888888888,3.807037099963054,3122.588701599976,None,space,4.311564200092107,3122.588701599976,None,B,keyulu,24,f,2021_Dec_26_2056,untitled_groupA_k,2021.1.4,59.99757610740702,
47,picture\p08.tif,RR_right_01_42\RRY08.mp4,picture\p08.tif,0,71,71,46,,,,,,,3126.9329908001237,3127.9391911001876,3127.9242554001976,None,3130.8380258001853,3131.8388286000118,3161.1463176000398,None,3161.1463176000398,None,4.258333333333334,5.340483200037852,3161.1463176000398,None,7,2.237657699966803,3161.1463176000398,None,2.0916666666666677,4.0328269000165164,3161.1463176000398,None,space,5.744572199881077,3161.1463176000398,None,B,keyulu,24,f,2021_Dec_26_2056,untitled_groupA_k,2021.1.4,59.99757610740702,
28,picture\p28.tif,BB_left_01_42\BBZ28.mp4,picture\p28.tif,0,72,72,27,,,,,,,3166.9343147000764,3167.9490494001657,3167.9329246000852,None,3170.8286195001565,3171.8313844001386,3201.1241006001364,None,3201.1241006001364,None,6.05,2.6689652998466045,3201.1241006001364,None,6.022222222222222,4.018245399929583,3201.1241006001364,None,5.980555555555556,5.523466599872336,3201.1241006001364,None,space,5.843893799930811,3201.1241006001364,None,B,keyulu,24,f,2021_Dec_26_2056,untitled_groupA_k,2021.1.4,59.99757610740702,
34,picture\p34.tif,BR_left_01_42\BRZ34.mp4,picture\p34.tif,0,73,73,33,,,,,,,3207.003569900058,3208.008062600158,3207.9915777000133,None,3210.888465899974,3211.8901790000964,3241.2022600001656,None,3241.2022600001656,None,4.0777777777777775,7.15217290003784,3241.2022600001656,None,1.1750000000000007,3.766683700028807,3241.2022600001656,None,6.022222222222222,5.703389000147581,3241.2022600001656,None,space,7.47093589999713,3241.2022600001656,None,B,keyulu,24,f,2021_Dec_26_2056,untitled_groupA_k,2021.1.4,59.99757610740702,
67,picture\p28.tif,BB_right_01_42\BBY28.mp4,picture\p28.tif,0,74,74,66,,,,,,,3248.708814700134,3249.715890600113,3249.699924300192,None,3252.631180400029,3253.6319059000816,3282.92309330008,None,3282.92309330008,None,5.966666666666667,2.3194045000709593,3282.92309330008,None,6.0777777777777775,3.555730599910021,3282.92309330008,None,5.911111111111111,4.69176710001193,3282.92309330008,None,space,5.09333850000985,3282.92309330008,None,B,keyulu,24,f,2021_Dec_26_2056,untitled_groupA_k,2021.1.4,59.99757610740702,
18,picture\p18.tif,BB_left_01_42\BBZ18.mp4,picture\p18.tif,0,75,75,17,,,,,,,3288.0502393001225,3289.056884400081,3289.041287000058,None,3291.972132000141,3292.9738017001655,3322.2645996999927,None,3322.2645996999927,None,5.8694444444444445,1.8880765999201685,3322.2645996999927,None,5.938888888888889,2.9565867001656443,3322.2645996999927,None,5.925,6.039242099970579,3322.2645996999927,None,space,7.109054500004277,3322.2645996999927,None,B,keyulu,24,f,2021_Dec_26_2056,untitled_groupA_k,2021.1.4,59.99757610740702,
75,picture\p36.tif,RB_right_01_42\RBY36.mp4,picture\p36.tif,0,76,76,74,,,,,,,3329.408583300188,3330.4156045001,3330.39929940016,None,3333.295229600044,3334.299332300201,3363.590884800069,None,3363.590884800069,None,6.05,3.718200200004503,3363.590884800069,None,5.994444444444445,8.339847299968824,3363.590884800069,None,1.0916666666666668,2.587901100050658,3363.590884800069,None,space,8.636643699835986,3363.590884800069,None,B,keyulu,24,f,2021_Dec_26_2056,untitled_groupA_k,2021.1.4,59.99757610740702,
58,picture\p19.tif,BB_right_01_42\BBY19.mp4,picture\p19.tif,0,77,77,57,,,,,,,3372.2676546000876,3373.2748808001634,3373.259084300138,None,3376.2004947001114,3377.207679199986,3406.514232000103,None,3406.514232000103,None,5.994444444444445,2.2631719999480993,3406.514232000103,None,6.022222222222222,3.428638900164515,3406.514232000103,None,5.966666666666667,4.68325600004755,3406.514232000103,None,space,5.104538600193337,3406.514232000103,None,B,keyulu,24,f,2021_Dec_26_2056,untitled_groupA_k,2021.1.4,59.99757610740702,
2,picture\p02.tif,RR_left_01_42\RRZ02.mp4,picture\p02.tif,0,78,78,1,,,,,,,3411.659875100013,3412.6815694000106,3412.6380257001147,None,3416.0442944001406,3417.04968120018,3446.3441368001513,None,3446.3441368001513,None,6.980555555555556,2.1336826998740435,3446.3441368001513,None,4.216666666666667,5.511255200020969,3446.3441368001513,None,2.0222222222222226,4.406955600017682,3446.3441368001513,None,space,6.0567449000664055,3446.3441368001513,None,B,keyulu,24,f,2021_Dec_26_2056,untitled_groupA_k,2021.1.4,59.99757610740702,
22,picture\p22.tif,BB_left_01_42\BBZ22.mp4,picture\p22.tif,0,79,79,21,,,,,,,3452.4342339001596,3453.4415680000093,3453.4255496000405,None,3456.4022301000077,3457.408480199985,3486.70092079998,None,3486.70092079998,None,5.8694444444444445,1.1046216001268476,3486.70092079998,None,5.980555555555556,2.3072647999506444,3486.70092079998,None,6.008333333333334,4.231718700146303,3486.70092079998,None,space,4.614991600159556,3486.70092079998,None,B,keyulu,24,f,2021_Dec_26_2056,untitled_groupA_k,2021.1.4,59.99757610740702,
15,picture\p15.tif,BB_left_01_42\BBZ15.mp4,picture\p15.tif,0,80,80,14,,,,,,,3491.344400400063,3492.350419400027,3492.3335908001754,None,3495.739003600087,3496.7491553002037,3526.0293351002038,None,3526.0293351002038,None,6.2027777777777775,1.5657023000530899,3526.0293351002038,None,6.1194444444444445,2.851681699976325,3526.0293351002038,None,6.216666666666667,4.204626200022176,3526.0293351002038,None,space,4.500897299963981,3526.0293351002038,None,B,keyulu,24,f,2021_Dec_26_2056,untitled_groupA_k,2021.1.4,59.99757610740702,
29,picture\p29.tif,BR_left_01_42\BRZ29.mp4,picture\p29.tif,0,81,81,28,,,,,,,3530.5699474001303,3531.577128899982,3531.5612021000125,None,3534.4282003000844,3535.442877500085,3564.733109400142,None,3564.733109400142,None,1.1333333333333333,1.7535769999958575,3564.733109400142,None,5.925,2.970962099963799,3564.733109400142,None,5.050000000000001,4.3591532001737505,3564.733109400142,None,space,4.786039900034666,3564.733109400142,None,B,keyulu,24,f,2021_Dec_26_2056,untitled_groupA_k,2021.1.4,59.99757610740702,
24,picture\p24.tif,BB_left_01_42\BBZ24.mp4,picture\p24.tif,0,82,82,23,,,,,,,3569.547033500159,3570.5526492001954,3570.536145700142,None,3573.4718826001044,3574.4854959000368,3603.77603790001,None,3603.77603790001,None,5.911111111111111,1.8893464000429958,3603.77603790001,None,5.911111111111111,2.381611500168219,3603.77603790001,None,6.05,4.8903147000819445,3603.77603790001,None,space,5.261138999834657,3603.77603790001,None,B,keyulu,24,f,2021_Dec_26_2056,untitled_groupA_k,2021.1.4,59.99757610740702,
30,picture\p30.tif,BR_left_01_42\BRZ30.mp4,picture\p30.tif,0,83,83,29,,,,,,,3609.071674000006,3610.078191800043,3610.0627890999895,None,3613.011924599996,3614.026263399981,3643.3194139001425,None,3643.3194139001425,None,5.105555555555556,5.940512799890712,3643.3194139001425,None,6.0777777777777775,4.772566200001165,3643.3194139001425,None,1.0361111111111112,1.7029871998820454,3643.3194139001425,None,space,6.030299500096589,3643.3194139001425,None,B,keyulu,24,f,2021_Dec_26_2056,untitled_groupA_k,2021.1.4,59.99757610740702,
