Numb,picture_show,Video_1,picture_judge,trials.thisRepN,trials.thisTrialN,trials.thisN,trials.thisIndex,image_intr.started,image_intr.stopped,key_resp_intr.keys,key_resp_intr.rt,key_resp_intr.started,key_resp_intr.stopped,image_show_text.started,image_show_text.stopped,image_show.started,image_show.stopped,image_video_text.started,image_video_text.stopped,image_judge.started,image_judge.stopped,image_judge_text.started,image_judge_text.stopped,slider_left.response,slider_left.rt,slider_left.started,slider_left.stopped,slider_mid.response,slider_mid.rt,slider_mid.started,slider_mid.stopped,slider_right.response,slider_right.rt,slider_right.started,slider_right.stopped,key_resp_next.keys,key_resp_next.rt,key_resp_next.started,key_resp_next.stopped,group,participant,age,gender(m/f),date,expName,psychopyVersion,frameRate,
,,,,,,,,28.08479759999318,None,space,31.665537399996538,28.08479759999318,None,,,,,,,,,,,,,,,,,,,,,,,,,,,A,laifang,19,f,2021_Dec_26_1615,untitled_groupA_k,2021.1.4,120.23508363392148,
6,picture\p06.tif,BR_left_01_42\BRZ06.mp4,picture\p06.tif,0,0,0,5,,,,,,,59.808180299995,60.81433299998753,60.79149370000232,None,63.43104699999094,64.43871180000133,93.71468639999512,None,93.71468639999512,None,1.9187500000000004,4.111128499993356,93.71468639999512,None,3.934375,8.328734799986705,93.71468639999512,None,5.85625,6.987664499989478,93.71468639999512,None,space,8.826409500004956,93.71468639999512,None,A,laifang,19,f,2021_Dec_26_1615,untitled_groupA_k,2021.1.4,120.23508363392148,
44,picture\p05.tif,RB_right_01_42\RBY05.mp4,picture\p05.tif,0,1,1,43,,,,,,,102.57086159999017,103.57842389997677,103.56426569999894,None,106.15392219999922,107.16196579998359,136.43576449999819,None,136.43576449999819,None,1.9937500000000004,3.743893199978629,136.43576449999819,None,5.85625,9.744885499996599,136.43576449999819,None,5.903124999999999,13.194690300006187,136.43576449999819,None,space,14.539044700009981,136.43576449999819,None,A,laifang,19,f,2021_Dec_26_1615,untitled_groupA_k,2021.1.4,120.23508363392148,
82,picture\p01.tif,BB_right_01_42\BBY01.mp4,picture\p01.tif,0,2,2,81,,,,,,,151.00165099999867,152.00988289999077,151.99418239999795,None,154.5848435999942,155.59317889998783,184.8662697999971,None,184.8662697999971,None,4.290625,5.1604141000134405,184.8662697999971,None,4.300000000000001,13.411709300009534,184.8662697999971,None,4.15,10.169121999992058,184.8662697999971,None,space,14.389149499998894,184.8662697999971,None,A,laifang,19,f,2021_Dec_26_1615,untitled_groupA_k,2021.1.4,120.23508363392148,
43,picture\p04.tif,RB_right_01_42\RBY04.mp4,picture\p04.tif,0,3,3,42,,,,,,,199.2912212999945,200.29882769999676,200.28386589998263,None,202.8826504999888,203.89022119998117,233.15613019999,None,233.15613019999,None,5.565625000000001,5.978340000001481,233.15613019999,None,1.4781250000000004,2.2941754999919794,233.15613019999,None,5.03125,7.469820800004527,233.15613019999,None,space,7.758367499976885,233.15613019999,None,A,laifang,19,f,2021_Dec_26_1615,untitled_groupA_k,2021.1.4,120.23508363392148,
4,picture\p04.tif,BR_left_01_42\BRZ04.mp4,picture\p04.tif,0,4,4,3,,,,,,,240.94716309997602,241.95578150000074,241.9416367999802,None,244.53009409998776,245.53816529997857,274.8119477999862,None,274.8119477999862,None,6.175000000000001,2.2531102999928407,274.8119477999862,None,4.028125,4.02840829998604,274.8119477999862,None,5.2,5.853984400018817,274.8119477999862,None,space,7.259983099997044,274.8119477999862,None,A,laifang,19,f,2021_Dec_26_1615,untitled_groupA_k,2021.1.4,120.23508363392148,
76,picture\p37.tif,BB_right_01_42\BBY37.mp4,picture\p37.tif,0,5,5,75,,,,,,,282.0951263999741,283.10366559997783,283.0881053999765,None,285.67822789997444,286.6862888999749,315.9607265999948,None,315.9607265999948,None,4.84375,2.427842800010694,315.9607265999948,None,4.946875,3.961103000008734,315.9607265999948,None,5.3968750000000005,9.711999799998011,315.9607265999948,None,space,9.935345799982315,315.9607265999948,None,A,laifang,19,f,2021_Dec_26_1615,untitled_groupA_k,2021.1.4,120.23508363392148,
54,picture\p15.tif,RB_right_01_42\RBY15.mp4,picture\p15.tif,0,6,6,53,,,,,,,325.92679199998383,326.93473690000246,326.9113672999956,None,329.51771899999585,330.52569919999223,359.79568419998395,None,359.79568419998395,None,5.846875000000001,4.819579000002705,359.79568419998395,None,3.625000000000001,3.3235071999952197,359.79568419998395,None,5.893750000000001,6.921638100000564,359.79568419998395,None,space,7.446653599996353,359.79568419998395,None,A,laifang,19,f,2021_Dec_26_1615,untitled_groupA_k,2021.1.4,120.23508363392148,
34,picture\p34.tif,BB_left_01_42\BBZ34.mp4,picture\p34.tif,0,7,7,33,,,,,,,367.2662794999778,368.2669845999917,368.2669845999917,None,370.8490321999998,371.8574080999824,401.1312901999918,None,401.1312901999918,None,5.29375,11.39439339999808,401.1312901999918,None,5.265625,6.835927900014212,401.1312901999918,None,5.143750000000001,9.178641199978301,401.1312901999918,None,space,12.220800500013866,401.1312901999918,None,A,laifang,19,f,2021_Dec_26_1615,untitled_groupA_k,2021.1.4,120.23508363392148,
79,picture\p40.tif,BB_right_01_42\BBY40.mp4,picture\p40.tif,0,8,8,78,,,,,,,413.3807198999857,414.38050010000006,414.38050010000006,None,416.9635249999992,417.9719279999845,447.2375329999777,None,447.2375329999777,None,4.487500000000001,7.077684000018053,447.2375329999777,None,4.834375,3.661090500012506,447.2375329999777,None,5.0875,8.661346599983517,447.2375329999777,None,space,9.396165899990592,447.2375329999777,None,A,laifang,19,f,2021_Dec_26_1615,untitled_groupA_k,2021.1.4,120.23508363392148,
13,picture\p13.tif,BR_left_01_42\BRZ13.mp4,picture\p13.tif,0,9,9,12,,,,,,,456.66179079998983,457.6697101999889,457.64708889997564,None,460.2452652999782,461.25291179999476,490.5100972999935,None,490.5100972999935,None,2.753125,4.403293100011069,490.5100972999935,None,5.0875,7.64526040002238,490.5100972999935,None,5.134375,6.136552299984032,490.5100972999935,None,space,8.341238399996655,490.5100972999935,None,A,laifang,19,f,2021_Dec_26_1615,untitled_groupA_k,2021.1.4,120.23508363392148,
48,picture\p09.tif,RB_right_01_42\RBY09.mp4,picture\p09.tif,0,10,10,47,,,,,,,498.87662259998615,499.8842347000027,499.86967970000114,None,502.4596571000002,503.4674899999809,532.724725099979,None,532.724725099979,None,4.6937500000000005,7.3782718000002205,532.724725099979,None,4.543749999999999,6.070228500000667,532.724725099979,None,2.9593750000000005,4.911974900023779,532.724725099979,None,space,8.097197700000834,532.724725099979,None,A,laifang,19,f,2021_Dec_26_1615,untitled_groupA_k,2021.1.4,120.23508363392148,
66,picture\p27.tif,RR_right_01_42\RRY27.mp4,picture\p27.tif,0,11,11,65,,,,,,,540.8577441999805,541.8654852999898,541.851540899981,None,544.4492979999923,545.457288799982,574.7230424000008,None,574.7230424000008,None,3.0625,3.861788499983959,574.7230424000008,None,4.721875000000001,5.178754199994728,574.7230424000008,None,5.96875,2.4203772000037134,574.7230424000008,None,space,5.955622000008589,574.7230424000008,None,A,laifang,19,f,2021_Dec_26_1615,untitled_groupA_k,2021.1.4,120.23508363392148,
61,picture\p22.tif,RR_right_01_42\RRY22.mp4,picture\p22.tif,0,12,12,60,,,,,,,580.7146611999779,581.7218842000002,581.7071117000014,None,584.2975623999955,585.305007899995,614.5793300999794,None,614.5793300999794,None,6.0531250000000005,2.560815900011221,614.5793300999794,None,5.106249999999999,4.053937999997288,614.5793300999794,None,4.084375,5.086530400003539,614.5793300999794,None,space,5.455346100003226,614.5793300999794,None,A,laifang,19,f,2021_Dec_26_1615,untitled_groupA_k,2021.1.4,120.23508363392148,
83,picture\p02.tif,BB_right_01_42\BBY02.mp4,picture\p02.tif,0,13,13,82,,,,,,,620.0708460999886,621.0783310999977,621.062952599983,None,623.6539699999848,624.6623161000025,653.9268425999908,None,653.9268425999908,None,5.284375000000001,5.977731599996332,653.9268425999908,None,5.21875,4.644351299997652,653.9268425999908,None,5.4625,3.4781773000140674,653.9268425999908,None,space,6.765298199985409,653.9268425999908,None,A,laifang,19,f,2021_Dec_26_1615,untitled_groupA_k,2021.1.4,120.23508363392148,
58,picture\p19.tif,RR_right_01_42\RRY19.mp4,picture\p19.tif,0,14,14,57,,,,,,,660.7131688999943,661.7185290999769,661.7043386999867,None,664.3015098999895,665.309468499996,694.5839203999785,None,694.5839203999785,None,2.59375,12.68496739998227,694.5839203999785,None,4.946875,4.686463499994716,694.5839203999785,None,5.5375,2.668811800016556,694.5839203999785,None,space,13.19221410001046,694.5839203999785,None,A,laifang,19,f,2021_Dec_26_1615,untitled_groupA_k,2021.1.4,120.23508363392148,
74,picture\p35.tif,BB_right_01_42\BBY35.mp4,picture\p35.tif,0,15,15,73,,,,,,,707.8082261999953,708.8164847999869,708.793816999998,None,711.3991524000012,712.407794699975,741.6808317999821,None,741.6808317999821,None,4.984375,3.222796300018672,741.6808317999821,None,4.890625,4.689570300019113,741.6808317999821,None,4.99375,6.187120000016876,741.6808317999821,None,space,6.612339599989355,741.6808317999821,None,A,laifang,19,f,2021_Dec_26_1615,untitled_groupA_k,2021.1.4,120.23508363392148,
81,picture\p42.tif,BB_right_01_42\BBY42.mp4,picture\p42.tif,0,16,16,80,,,,,,,748.3229221999936,749.3303843999747,749.3159084999934,None,751.9059619999898,752.9141074999934,782.179163599998,None,782.179163599998,None,4.5531250000000005,2.028078200004529,782.179163599998,None,4.515625,7.07839489998878,782.179163599998,None,4.543749999999999,10.437610099994345,782.179163599998,None,space,10.8010317000153,782.179163599998,None,A,laifang,19,f,2021_Dec_26_1615,untitled_groupA_k,2021.1.4,120.23508363392148,
42,picture\p42.tif,BB_left_01_42\BBZ42.mp4,picture\p42.tif,0,17,17,41,,,,,,,793.0206934000016,794.0282770999765,794.014586299978,None,796.6124094999977,797.6201045999769,826.8856820999936,None,826.8856820999936,None,4.5625,1.9273308000119869,826.8856820999936,None,4.6,3.228746200009482,826.8856820999936,None,4.534375000000001,4.628583999990951,826.8856820999936,None,space,5.081881699996302,826.8856820999936,None,A,laifang,19,f,2021_Dec_26_1615,untitled_groupA_k,2021.1.4,120.23508363392148,
68,picture\p29.tif,RR_right_01_42\RRY29.mp4,picture\p29.tif,0,18,18,67,,,,,,,831.9938305999967,833.0013596999925,832.9869681999844,None,835.5853113999765,836.5928100000019,865.8672149999766,None,865.8672149999766,None,5.06875,6.986921900010202,865.8672149999766,None,6.043749999999999,2.261946899991017,865.8672149999766,None,3.5031250000000007,8.612277400010498,865.8672149999766,None,space,10.08368030001293,865.8672149999766,None,A,laifang,19,f,2021_Dec_26_1615,untitled_groupA_k,2021.1.4,120.23508363392148,
59,picture\p20.tif,RR_right_01_42\RRY20.mp4,picture\p20.tif,0,19,19,58,,,,,,,875.9829686000012,876.9913747999817,876.9761806000024,None,879.5666237999976,880.5739571999875,909.8476575999812,None,909.8476575999812,None,4.9,4.019652099988889,909.8476575999812,None,5.9593750000000005,1.6479773999890313,909.8476575999812,None,4.009375,2.828890100005083,909.8476575999812,None,space,5.310301799996523,909.8476575999812,None,A,laifang,19,f,2021_Dec_26_1615,untitled_groupA_k,2021.1.4,120.23508363392148,
22,picture\p22.tif,RR_left_01_42\RRZ22.mp4,picture\p22.tif,0,20,20,21,,,,,,,915.198066699988,916.2056175999751,916.1913751999964,None,918.7894228999794,919.7970591999765,949.0666579999961,None,949.0666579999961,None,5.734375,1.7794796999951359,949.0666579999961,None,4.534375000000001,3.812983899988467,949.0666579999961,None,3.521875,4.9718391000060365,949.0666579999961,None,space,5.086773100018036,949.0666579999961,None,A,laifang,19,f,2021_Dec_26_1615,untitled_groupA_k,2021.1.4,120.23508363392148,
47,picture\p08.tif,RB_right_01_42\RBY08.mp4,picture\p08.tif,0,21,21,46,,,,,,,954.179198799975,955.1870807999803,955.1732565999846,None,957.7708696999762,958.7794441999868,988.0522440999921,None,988.0522440999921,None,3.4093750000000003,2.8522941000119317,988.0522440999921,None,6.043749999999999,4.127823700022418,988.0522440999921,None,4.4593750000000005,5.187122200004524,988.0522440999921,None,space,5.380754499987233,988.0522440999921,None,A,laifang,19,f,2021_Dec_26_1615,untitled_groupA_k,2021.1.4,120.23508363392148,
28,picture\p28.tif,RR_left_01_42\RRZ28.mp4,picture\p28.tif,0,22,22,27,,,,,,,993.4609169999894,994.4684866000025,994.4543323999969,None,997.0436289999925,998.0516516999924,1027.3259852999763,None,1027.3259852999763,None,5.5843750000000005,3.547877700009849,1027.3259852999763,None,3.0812500000000003,8.653941399999894,1027.3259852999763,None,4.6937500000000005,7.538188900012756,1027.3259852999763,None,space,8.947197000001324,1027.3259852999763,None,A,laifang,19,f,2021_Dec_26_1615,untitled_groupA_k,2021.1.4,120.23508363392148,
36,picture\p36.tif,BB_left_01_42\BBZ36.mp4,picture\p36.tif,0,23,23,35,,,,,,,1036.300330899976,1037.3080660999985,1037.2933890999993,None,1039.8921117999998,1040.8996625999862,1070.1740543999767,None,1070.1740543999767,None,4.281250000000001,3.078912999975728,1070.1740543999767,None,4.215625,4.329214699973818,1070.1740543999767,None,4.215625,5.76246140000876,1070.1740543999767,None,space,6.078753799985861,1070.1740543999767,None,A,laifang,19,f,2021_Dec_26_1615,untitled_groupA_k,2021.1.4,120.23508363392148,
9,picture\p09.tif,BR_left_01_42\BRZ09.mp4,picture\p09.tif,0,24,24,8,,,,,,,1076.2818858999817,1077.2894351999857,1077.2747827999992,None,1079.8645732000005,1080.8725956999988,1110.1464281999797,None,1110.1464281999797,None,4.571875,1.8692248000006657,1110.1464281999797,None,4.6,3.9563811999978498,1110.1464281999797,None,3.3343749999999996,5.428612599993357,1110.1464281999797,None,space,5.861813299998175,1110.1464281999797,None,A,laifang,19,f,2021_Dec_26_1615,untitled_groupA_k,2021.1.4,120.23508363392148,
71,picture\p32.tif,BB_right_01_42\BBY32.mp4,picture\p32.tif,0,25,25,70,,,,,,,1116.0381897999905,1117.0458460999944,1117.0312273000018,None,1119.6294202999852,1120.6379531999992,1149.9109374999825,None,1149.9109374999825,None,4.61875,2.460839899984421,1149.9109374999825,None,4.6375,3.7448512999981176,1149.9109374999825,None,4.6468750000000005,4.945844700007001,1149.9109374999825,None,space,5.6040027999843005,1149.9109374999825,None,A,laifang,19,f,2021_Dec_26_1615,untitled_groupA_k,2021.1.4,120.23508363392148,
10,picture\p10.tif,BR_left_01_42\BRZ10.mp4,picture\p10.tif,0,26,26,9,,,,,,,1155.5447245999821,1156.5522849999834,1156.5382217000006,None,1159.1278650999884,1160.1353646999924,1189.4010407000023,None,1189.4010407000023,None,5.171875,1.8783328999998048,1189.4010407000023,None,3.6718750000000004,4.636986700003035,1189.4010407000023,None,5.2,3.253469099989161,1189.4010407000023,None,space,5.266707100003259,1189.4010407000023,None,A,laifang,19,f,2021_Dec_26_1615,untitled_groupA_k,2021.1.4,120.23508363392148,
80,picture\p41.tif,BB_right_01_42\BBY41.mp4,picture\p41.tif,0,27,27,79,,,,,,,1194.6928341999883,1195.7004877,1195.685999599984,None,1198.2841074999887,1199.2923005999764,1228.5660514999763,None,1228.5660514999763,None,4.6937500000000005,2.4195163999975193,1228.5660514999763,None,4.7125,3.7956976999994367,1228.5660514999763,None,4.675000000000001,6.361786299996311,1228.5660514999763,None,space,6.928213599981973,1228.5660514999763,None,A,laifang,19,f,2021_Dec_26_1615,untitled_groupA_k,2021.1.4,120.23508363392148,
46,picture\p07.tif,RB_right_01_42\RBY07.mp4,picture\p07.tif,0,28,28,45,,,,,,,1235.5323957999935,1236.5401637999748,1236.5256990999915,None,1239.1241556000023,1240.1321312999935,1269.3968899000029,None,1269.3968899000029,None,5.059375,5.002989199972944,1269.3968899000029,None,3.840625,3.9938091000076383,1269.3968899000029,None,4.853125,6.56970329998876,1269.3968899000029,None,space,7.440244800003711,1269.3968899000029,None,A,laifang,19,f,2021_Dec_26_1615,untitled_groupA_k,2021.1.4,120.23508363392148,
24,picture\p24.tif,RR_left_01_42\RRZ24.mp4,picture\p24.tif,0,29,29,23,,,,,,,1276.8636620999896,1277.8715971999918,1277.8478979999782,None,1280.4472386999987,1281.454872399976,1310.7199343999964,None,1310.7199343999964,None,4.8812500000000005,4.269611399999121,1310.7199343999964,None,5.903124999999999,1.5277296999993268,1310.7199343999964,None,3.6156249999999996,5.728656199993566,1310.7199343999964,None,space,6.999886000005063,1310.7199343999964,None,A,laifang,19,f,2021_Dec_26_1615,untitled_groupA_k,2021.1.4,120.23508363392148,
14,picture\p14.tif,BR_left_01_42\BRZ14.mp4,picture\p14.tif,0,30,30,13,,,,,,,1317.7481143999903,1318.7621629999776,1318.7377953999967,None,1321.3368030999845,1322.3442478999787,1351.6096030999906,None,1351.6096030999906,None,5.125,2.8366009000164922,1351.6096030999906,None,3.625000000000001,1.6359085000003688,1351.6096030999906,None,5.012499999999999,4.187806300004013,1351.6096030999906,None,space,4.642223800008651,1351.6096030999906,None,A,laifang,19,f,2021_Dec_26_1615,untitled_groupA_k,2021.1.4,120.23508363392148,
30,picture\p30.tif,BB_left_01_42\BBZ30.mp4,picture\p30.tif,0,31,31,29,,,,,,,1356.2767754999804,1357.284237999993,1357.2708521999884,None,1359.867606499989,1360.8759194999875,1390.1374477999925,None,1390.1374477999925,None,4.721875000000001,9.503290799999377,1390.1374477999925,None,4.628125000000001,7.387225999991642,1390.1374477999925,None,4.6375,6.321432199998526,1390.1374477999925,None,space,9.823127599986037,1390.1374477999925,None,A,laifang,19,f,2021_Dec_26_1615,untitled_groupA_k,2021.1.4,120.23508363392148,
40,picture\p40.tif,BB_left_01_42\BBZ40.mp4,picture\p40.tif,0,32,32,39,,,,,,,1399.9996270999836,1401.0070831999765,1400.9925029999868,None,1403.5827046999766,1404.5902313999832,1433.85583819999,None,1433.85583819999,None,4.628125000000001,2.669713299983414,1433.85583819999,None,4.665625,3.896101100021042,1433.85583819999,None,4.581250000000001,5.270977499982109,1433.85583819999,None,space,5.744944400008535,1433.85583819999,None,A,laifang,19,f,2021_Dec_26_1615,untitled_groupA_k,2021.1.4,120.23508363392148,
19,picture\p19.tif,RR_left_01_42\RRZ19.mp4,picture\p19.tif,0,33,33,18,,,,,,,1439.6389208999753,1440.6473006999877,1440.631797799986,None,1443.2226942999987,1444.2222910999844,1473.495342099981,None,1473.495342099981,None,3.4281250000000005,9.086009999999078,1473.495342099981,None,5.425000000000001,11.544998600002145,1473.495342099981,None,5.3500000000000005,10.386057800002163,1473.495342099981,None,space,12.299063399987062,1473.495342099981,None,A,laifang,19,f,2021_Dec_26_1615,untitled_groupA_k,2021.1.4,120.23508363392148,
73,picture\p34.tif,BB_right_01_42\BBY34.mp4,picture\p34.tif,0,34,34,72,,,,,,,1485.8202866999782,1486.8210117999988,1486.8210117999988,None,1489.4029379999847,1490.4114098999999,1519.6848172000027,None,1519.6848172000027,None,4.890625,2.4861477999947965,1519.6848172000027,None,4.84375,3.6698736999824177,1519.6848172000027,None,4.778124999999999,4.753222600003937,1519.6848172000027,None,space,5.166149900003802,1519.6848172000027,None,A,laifang,19,f,2021_Dec_26_1615,untitled_groupA_k,2021.1.4,120.23508363392148,
38,picture\p38.tif,BB_left_01_42\BBZ38.mp4,picture\p38.tif,0,35,35,37,,,,,,,1524.8765650999849,1525.8849532999739,1525.870492499991,None,1528.4681778999802,1529.4678914999822,1558.7419177999836,None,1558.7419177999836,None,4.665625,5.236906300007831,1558.7419177999836,None,4.684375,3.9791988999932073,1558.7419177999836,None,4.675000000000001,6.787692600017181,1558.7419177999836,None,space,7.398205199977383,1558.7419177999836,None,A,laifang,19,f,2021_Dec_26_1615,untitled_groupA_k,2021.1.4,120.23508363392148,
35,picture\p35.tif,BB_left_01_42\BBZ35.mp4,picture\p35.tif,0,36,36,34,,,,,,,1566.1664060999756,1567.1740172999853,1567.1592761999927,None,1569.7581070000015,1570.7575056999922,1600.0309496999835,None,1600.0309496999835,None,4.609375,2.750921600003494,1600.0309496999835,None,4.6,7.8513114000088535,1600.0309496999835,None,4.581250000000001,6.185671500017634,1600.0309496999835,None,space,8.290013899997575,1600.0309496999835,None,A,laifang,19,f,2021_Dec_26_1615,untitled_groupA_k,2021.1.4,120.23508363392148,
49,picture\p10.tif,RB_right_01_42\RBY10.mp4,picture\p10.tif,0,37,37,48,,,,,,,1608.3560944999917,1609.3640652999748,1609.3403689999832,None,1611.9391907999816,1612.9467811999784,1642.2211500999983,None,1642.2211500999983,None,4.7875000000000005,2.969883099984145,1642.2211500999983,None,3.343750000000001,1.8277026999858208,1642.2211500999983,None,4.759375,4.295269399997778,1642.2211500999983,None,space,4.901199100015219,1642.2211500999983,None,A,laifang,19,f,2021_Dec_26_1615,untitled_groupA_k,2021.1.4,120.23508363392148,
16,picture\p16.tif,RR_left_01_42\RRZ16.mp4,picture\p16.tif,0,38,38,15,,,,,,,1647.1457129999762,1648.1533356999862,1648.1386653999798,None,1650.728862799995,1651.7370828999847,1681.0103115999955,None,1681.0103115999955,None,4.496875,5.877964199986309,1681.0103115999955,None,4.543749999999999,4.810901299992111,1681.0103115999955,None,5.828125,3.6527592000202276,1681.0103115999955,None,space,6.544785500009311,1681.0103115999955,None,A,laifang,19,f,2021_Dec_26_1615,untitled_groupA_k,2021.1.4,120.23508363392148,
29,picture\p29.tif,BB_left_01_42\BBZ29.mp4,picture\p29.tif,0,39,39,28,,,,,,,1687.5890411,1688.601760999998,1688.5793894999952,None,1691.1770854999777,1692.1844985999924,1721.4503405999858,None,1721.4503405999858,None,4.365625,1.361455999984173,1721.4503405999858,None,4.384375,2.7537018999864813,1721.4503405999858,None,4.403125,4.045681300020078,1721.4503405999858,None,space,4.539992399979383,1721.4503405999858,None,A,laifang,19,f,2021_Dec_26_1615,untitled_groupA_k,2021.1.4,120.23508363392148,
51,picture\p12.tif,RB_right_01_42\RBY12.mp4,picture\p12.tif,0,40,40,50,,,,,,,1726.0250462999975,1727.0330178999866,1727.0196871999942,None,1729.6164353999775,1730.6246329999994,1759.8900406999746,None,1759.8900406999746,None,4.965625,4.553870799980359,1759.8900406999746,None,3.6812500000000004,7.062414500018349,1759.8900406999746,None,4.890625,9.253815900010522,1759.8900406999746,None,space,9.737521100003505,1759.8900406999746,None,A,laifang,19,f,2021_Dec_26_1615,untitled_groupA_k,2021.1.4,120.23508363392148,
67,picture\p28.tif,RR_right_01_42\RRY28.mp4,picture\p28.tif,0,41,41,66,,,,,,,1769.6566061999765,1770.6646988999855,1770.6421699999773,None,1773.248266199982,1774.255557700002,1803.5215002999757,None,1803.5215002999757,None,4.440625000000001,4.947736800007988,1803.5215002999757,None,4.084375,6.803508999990299,1803.5215002999757,None,4.009375,9.805089100002078,1803.5215002999757,None,space,10.820147199992789,1803.5215002999757,None,A,laifang,19,f,2021_Dec_26_1615,untitled_groupA_k,2021.1.4,120.23508363392148,
50,picture\p11.tif,RB_right_01_42\RBY11.mp4,picture\p11.tif,0,42,42,49,,,,,,,1814.3793787999894,1815.386904199986,1815.3726557999908,None,1817.9621931999864,1818.9700510999828,1848.244365999999,None,1848.244365999999,None,5.59375,9.07003679999616,1848.244365999999,None,5.5843750000000005,5.544920799991814,1848.244365999999,None,3.1750000000000003,1.7790289999975357,1848.244365999999,None,space,9.481046400003834,1848.244365999999,None,A,laifang,19,f,2021_Dec_26_1615,untitled_groupA_k,2021.1.4,120.23508363392148,
45,picture\p06.tif,RB_right_01_42\RBY06.mp4,picture\p06.tif,0,43,43,44,,,,,,,1857.7523249999795,1858.759888999979,1858.7453725999803,None,1861.3349615999905,1862.3429596999777,1891.6167122999905,None,1891.6167122999905,None,3.156250000000001,1.7519518000190146,1891.6167122999905,None,5.1156250000000005,7.185554700001376,1891.6167122999905,None,5.134375,4.962146700010635,1891.6167122999905,None,space,7.61344210000243,1891.6167122999905,None,A,laifang,19,f,2021_Dec_26_1615,untitled_groupA_k,2021.1.4,120.23508363392148,
63,picture\p24.tif,RR_right_01_42\RRY24.mp4,picture\p24.tif,0,44,44,62,,,,,,,1899.258289099991,1900.2667304999777,1900.2523930999741,None,1902.8411438999756,1903.8498664999788,1933.1319916999782,None,1933.1319916999782,None,4.3187500000000005,4.520698500011349,1933.1319916999782,None,5.425000000000001,1.9457867000019178,1933.1319916999782,None,3.23125,3.04686479998054,1933.1319916999782,None,space,6.350944899983006,1933.1319916999782,None,A,laifang,19,f,2021_Dec_26_1615,untitled_groupA_k,2021.1.4,120.23508363392148,
31,picture\p31.tif,BB_left_01_42\BBZ31.mp4,picture\p31.tif,0,45,45,30,,,,,,,1939.5233415999974,1940.531404999987,1940.5087743999902,None,1943.1144830999838,1944.1229440000025,1973.3918370999745,None,1973.3918370999745,None,4.403125,2.995568499987712,1973.3918370999745,None,4.3187500000000005,5.67116250001709,1973.3918370999745,None,4.309374999999999,6.913102599995909,1973.3918370999745,None,space,7.318771899997955,1973.3918370999745,None,A,laifang,19,f,2021_Dec_26_1615,untitled_groupA_k,2021.1.4,120.23508363392148,
25,picture\p25.tif,RR_left_01_42\RRZ25.mp4,picture\p25.tif,0,46,46,24,,,,,,,1980.7381544999953,1981.746010199975,1981.7225103999954,None,1984.3212338000012,1985.328622799978,2014.6031054999912,None,2014.6031054999912,None,2.8843750000000004,3.5362981999933254,2014.6031054999912,None,4.253125000000001,4.628382800001418,2014.6031054999912,None,5.5375,1.5287940999842249,2014.6031054999912,None,space,5.230770499998471,2014.6031054999912,None,A,laifang,19,f,2021_Dec_26_1615,untitled_groupA_k,2021.1.4,120.23508363392148,
56,picture\p17.tif,RB_right_01_42\RBY17.mp4,picture\p17.tif,0,47,47,55,,,,,,,2019.8693577999948,2020.8771265999821,2020.8538187999802,None,2023.452065999998,2024.4527587999764,2053.7425408999843,None,2053.7425408999843,None,4.45,2.769838099979097,2053.7425408999843,None,3.221875,1.6628158999956213,2053.7425408999843,None,4.478125,4.371566999994684,2053.7425408999843,None,space,5.034260699991137,2053.7425408999843,None,A,laifang,19,f,2021_Dec_26_1615,untitled_groupA_k,2021.1.4,120.23508363392148,
27,picture\p27.tif,RR_left_01_42\RRZ27.mp4,picture\p27.tif,0,48,48,26,,,,,,,2058.8006331999786,2059.80840129999,2059.793629299995,None,2062.3918245999957,2063.3998174000008,2092.6735505999823,None,2092.6735505999823,None,3.3343749999999996,4.286522599984892,2092.6735505999823,None,4.440625000000001,5.270220300008077,2092.6735505999823,None,5.55625,3.0033935999963433,2092.6735505999823,None,space,5.8664704999828245,2092.6735505999823,None,A,laifang,19,f,2021_Dec_26_1615,untitled_groupA_k,2021.1.4,120.23508363392148,
26,picture\p26.tif,RR_left_01_42\RRZ26.mp4,picture\p26.tif,0,49,49,25,,,,,,,2098.5607357999834,2099.5737423999817,2099.5503968999838,None,2102.157079799974,2103.164554899995,2132.438512099994,None,2132.438512099994,None,5.4437500000000005,2.27773459997843,2132.438512099994,None,4.468750000000001,5.913038400001824,2132.438512099994,None,2.837500000000001,4.753373799991095,2132.438512099994,None,space,6.271618099999614,2132.438512099994,None,A,laifang,19,f,2021_Dec_26_1615,untitled_groupA_k,2021.1.4,120.23508363392148,
57,picture\p18.tif,RR_right_01_42\RRY18.mp4,picture\p18.tif,0,50,50,56,,,,,,,2138.747385900002,2139.755115099979,2139.7409890999843,None,2142.330210999993,2143.3381609999924,2172.6034181999858,None,2172.6034181999858,None,4.300000000000001,4.235722799989162,2172.6034181999858,None,5.565625000000001,1.6954976000124589,2172.6034181999858,None,3.1750000000000003,3.046036699990509,2172.6034181999858,None,space,4.652919999993173,2172.6034181999858,None,A,laifang,19,f,2021_Dec_26_1615,untitled_groupA_k,2021.1.4,120.23508363392148,
33,picture\p33.tif,BB_left_01_42\BBZ33.mp4,picture\p33.tif,0,51,51,32,,,,,,,2177.2864254000015,2178.2950975999993,2178.2864264999807,None,2180.869375899987,2181.8780419999966,2211.1514783999883,None,2211.1514783999883,None,4.281250000000001,4.845072399999481,2211.1514783999883,None,4.384375,3.3284902999876067,2211.1514783999883,None,4.440625000000001,2.1534955999813974,2211.1514783999883,None,space,5.283145399997011,2211.1514783999883,None,A,laifang,19,f,2021_Dec_26_1615,untitled_groupA_k,2021.1.4,120.23508363392148,
18,picture\p18.tif,RR_left_01_42\RRZ18.mp4,picture\p18.tif,0,52,52,17,,,,,,,2216.459690399992,2217.467798799975,2217.452130999998,None,2220.051335700002,2221.050789000001,2250.332503999991,None,2250.332503999991,None,4.0,3.8106941000150982,2250.332503999991,None,5.93125,1.2936998000077438,2250.332503999991,None,2.9781250000000004,2.4529328999924473,2250.332503999991,None,space,3.993448299996089,2250.332503999991,None,A,laifang,19,f,2021_Dec_26_1615,untitled_groupA_k,2021.1.4,120.23508363392148,
41,picture\p41.tif,BB_left_01_42\BBZ41.mp4,picture\p41.tif,0,53,53,40,,,,,,,2254.3492680999916,2255.3579115999746,2255.3425922000024,None,2257.9326354999794,2258.9403538999904,2288.2147973999963,None,2288.2147973999963,None,4.2250000000000005,6.894613799988292,2288.2147973999963,None,4.234375,5.495247699989704,2288.2147973999963,None,4.24375,2.4951361999846995,2288.2147973999963,None,space,7.268453700002283,2288.2147973999963,None,A,laifang,19,f,2021_Dec_26_1615,untitled_groupA_k,2021.1.4,120.23508363392148,
5,picture\p05.tif,BR_left_01_42\BRZ05.mp4,picture\p05.tif,0,54,54,4,,,,,,,2295.5140736999747,2296.522645799996,2296.4990796999773,None,2299.096911599976,2300.1056456999795,2329.3877574999933,None,2329.3877574999933,None,2.2375000000000003,6.120248199993512,2329.3877574999933,None,4.05625,7.146056199999293,2329.3877574999933,None,5.415625,2.5872354000166524,2329.3877574999933,None,space,7.332884000003105,2329.3877574999933,None,A,laifang,19,f,2021_Dec_26_1615,untitled_groupA_k,2021.1.4,120.23508363392148,
12,picture\p12.tif,BR_left_01_42\BRZ12.mp4,picture\p12.tif,0,55,55,11,,,,,,,2336.7487211999833,2337.7615549999755,2337.7476451999974,None,2340.3448871999863,2341.3535089999787,2370.6312913,None,2370.6312913,None,4.581250000000001,2.8957821000076365,2370.6312913,None,2.828125,1.5826512000057846,2370.6312913,None,4.65625,4.171271999977762,2370.6312913,None,space,4.511085800011642,2370.6312913,None,A,laifang,19,f,2021_Dec_26_1615,untitled_groupA_k,2021.1.4,120.23508363392148,
77,picture\p38.tif,BB_right_01_42\BBY38.mp4,picture\p38.tif,0,56,56,76,,,,,,,2375.172133999993,2376.185270999995,2376.161328999995,None,2378.760286399978,2379.7678525999945,2409.033187199995,None,2409.033187199995,None,4.478125,2.2481495999963954,2409.033187199995,None,4.496875,3.3790567999822088,2409.033187199995,None,4.543749999999999,4.528802799992263,2409.033187199995,None,space,4.780443800002104,2409.033187199995,None,A,laifang,19,f,2021_Dec_26_1615,untitled_groupA_k,2021.1.4,120.23508363392148,
64,picture\p25.tif,RR_right_01_42\RRY25.mp4,picture\p25.tif,0,57,57,63,,,,,,,2413.8500419999764,2414.8583671999804,2414.834820799995,None,2417.4419010999845,2418.449867999996,2447.715046700003,None,2447.715046700003,None,2.9124999999999996,3.120037799992133,2447.715046700003,None,4.140625,4.119965499994578,2447.715046700003,None,5.546875,2.0040369000053033,2447.715046700003,None,space,4.291751899989322,2447.715046700003,None,A,laifang,19,f,2021_Dec_26_1615,untitled_groupA_k,2021.1.4,120.23508363392148,
15,picture\p15.tif,RR_left_01_42\RRZ15.mp4,picture\p15.tif,0,58,58,14,,,,,,,2452.0319509999827,2453.0399368999933,2453.024617099989,None,2455.622772199975,2456.6306121999805,2485.9050565999933,None,2485.9050565999933,None,5.425000000000001,1.1363460999855306,2485.9050565999933,None,4.440625000000001,2.278648899984546,2485.9050565999933,None,3.1937500000000005,3.279280500020832,2485.9050565999933,None,space,3.4790409000124782,2485.9050565999933,None,A,laifang,19,f,2021_Dec_26_1615,untitled_groupA_k,2021.1.4,120.23508363392148,
23,picture\p23.tif,RR_left_01_42\RRZ23.mp4,picture\p23.tif,0,59,59,22,,,,,,,2489.4129726999963,2490.42147999999,2490.397496599995,None,2492.9965264999773,2494.0045995999826,2523.278284699976,None,2523.278284699976,None,3.1843749999999997,3.003095200023381,2523.278284699976,None,4.768750000000001,4.119951400003629,2523.278284699976,None,5.903124999999999,1.469572399975732,2523.278284699976,None,space,4.293939900002442,2523.278284699976,None,A,laifang,19,f,2021_Dec_26_1615,untitled_groupA_k,2021.1.4,120.23508363392148,
8,picture\p08.tif,BR_left_01_42\BRZ08.mp4,picture\p08.tif,0,60,60,7,,,,,,,2527.6030232999765,2528.610574399994,2528.5957778999873,None,2531.193984099984,2532.2026447999815,2561.4758438999997,None,2561.4758438999997,None,3.306250000000001,6.023083900014171,2561.4758438999997,None,4.6375,7.069105800008401,2561.4758438999997,None,4.6,10.261030099994969,2561.4758438999997,None,space,11.501941800001077,2561.4758438999997,None,A,laifang,19,f,2021_Dec_26_1615,untitled_groupA_k,2021.1.4,120.23508363392148,
72,picture\p33.tif,BB_right_01_42\BBY33.mp4,picture\p33.tif,0,61,61,71,,,,,,,2573.000588499999,2574.0083954999864,2573.993172199989,None,2576.5836850999913,2577.59152419999,2606.865881799982,None,2606.865881799982,None,4.684375,2.365296399977524,2606.865881799982,None,4.75,3.6363981000031345,2606.865881799982,None,4.675000000000001,4.770342799980426,2606.865881799982,None,space,5.016544399986742,2606.865881799982,None,A,laifang,19,f,2021_Dec_26_1615,untitled_groupA_k,2021.1.4,120.23508363392148,
75,picture\p36.tif,BB_right_01_42\BBY36.mp4,picture\p36.tif,0,62,62,74,,,,,,,2611.9069443999906,2612.907144899975,2612.8988824999833,None,2615.5068658999808,2616.5152478999807,2645.7888463999843,None,2645.7888463999843,None,4.290625,2.3445477999921422,2645.7888463999843,None,4.1781250000000005,4.778310800000327,2645.7888463999843,None,4.271875,6.029205200000433,2645.7888463999843,None,space,6.354640899982769,2645.7888463999843,None,A,laifang,19,f,2021_Dec_26_1615,untitled_groupA_k,2021.1.4,120.23508363392148,
69,picture\p30.tif,RR_right_01_42\RRY30.mp4,picture\p30.tif,0,63,63,68,,,,,,,2652.171940499975,2653.1800951999903,2653.1565414999786,None,2655.7633918999927,2656.771630299976,2686.053737399983,None,2686.053737399983,None,2.5656250000000007,2.811850999976741,2686.053737399983,None,5.790625,1.7868785999889951,2686.053737399983,None,4.046875000000001,4.104314700001851,2686.053737399983,None,space,4.267256999999518,2686.053737399983,None,A,laifang,19,f,2021_Dec_26_1615,untitled_groupA_k,2021.1.4,120.23508363392148,
62,picture\p23.tif,RR_right_01_42\RRY23.mp4,picture\p23.tif,0,64,64,61,,,,,,,2690.3533411999815,2691.3616026999953,2691.338176099991,None,2693.9364589999896,2694.944831699977,2724.2264760999824,None,2724.2264760999824,None,2.837500000000001,3.5944605999975465,2724.2264760999824,None,4.009375,4.803884799999651,2724.2264760999824,None,5.8656250000000005,2.5114209999737795,2724.2264760999824,None,space,4.996120900003007,2724.2264760999824,None,A,laifang,19,f,2021_Dec_26_1615,untitled_groupA_k,2021.1.4,120.23508363392148,
53,picture\p14.tif,RB_right_01_42\RBY14.mp4,picture\p14.tif,0,65,65,52,,,,,,,2729.2514752999996,2730.2591174999834,2730.244400399999,None,2732.8342443,2733.842240799975,2763.116436099983,None,2763.116436099983,None,4.80625,4.486598499992397,2763.116436099983,None,2.7062500000000003,2.0113069000071846,2763.116436099983,None,4.825,3.1454932000197005,2763.116436099983,None,space,4.875991399982013,2763.116436099983,None,A,laifang,19,f,2021_Dec_26_1615,untitled_groupA_k,2021.1.4,120.23508363392148,
60,picture\p21.tif,RR_right_01_42\RRY21.mp4,picture\p21.tif,0,66,66,59,,,,,,,2768.024307399988,2769.03276989999,2769.0086615999753,None,2771.6073607,2772.615387500002,2801.8806804999767,None,2801.8806804999767,None,2.9124999999999996,4.0533148999966215,2801.8806804999767,None,5.715624999999999,2.11986400000751,2801.8806804999767,None,4.206250000000001,5.18780750001315,2801.8806804999767,None,space,5.625541699992027,2801.8806804999767,None,A,laifang,19,f,2021_Dec_26_1615,untitled_groupA_k,2021.1.4,120.23508363392148,
1,picture\p01.tif,BR_left_01_42\BRZ01.mp4,picture\p01.tif,0,67,67,0,,,,,,,2807.5390671999776,2808.5476158999954,2808.5319944999937,None,2811.1304485999863,2812.138411599997,2841.4084293999767,None,2841.4084293999767,None,4.515625,3.9448828999884427,2841.4084293999767,None,4.515625,6.029076799983159,2841.4084293999767,None,2.7718750000000005,2.8372723999782465,2841.4084293999767,None,space,6.350405899982434,2841.4084293999767,None,A,laifang,19,f,2021_Dec_26_1615,untitled_groupA_k,2021.1.4,120.23508363392148,
3,picture\p03.tif,BR_left_01_42\BRZ03.mp4,picture\p03.tif,0,68,68,2,,,,,,,2847.782407199993,2848.795979699993,2848.772454399994,None,2851.3706386999984,2852.378826,2881.6518131999765,None,2881.6518131999765,None,5.06875,3.8860756999929436,2881.6518131999765,None,4.99375,4.852933599991957,2881.6518131999765,None,2.687500000000001,1.5113641000061762,2881.6518131999765,None,space,5.105097599996952,2881.6518131999765,None,A,laifang,19,f,2021_Dec_26_1615,untitled_groupA_k,2021.1.4,120.23508363392148,
78,picture\p39.tif,BB_right_01_42\BBY39.mp4,picture\p39.tif,0,69,69,77,,,,,,,2886.7938568999816,2887.8019599999825,2887.777862799994,None,2890.3767180999857,2891.384624099999,2920.6588402999914,None,2920.6588402999914,None,4.496875,2.1443746000004467,2920.6588402999914,None,4.5062500000000005,6.195522699999856,2920.6588402999914,None,4.571875,4.762450800015358,2920.6588402999914,None,space,6.81548770001973,2920.6588402999914,None,A,laifang,19,f,2021_Dec_26_1615,untitled_groupA_k,2021.1.4,120.23508363392148,
7,picture\p07.tif,BR_left_01_42\BRZ07.mp4,picture\p07.tif,0,70,70,6,,,,,,,2927.5081969999883,2928.5167649999785,2928.5007826999936,None,2931.0912826999847,2932.0992573999974,2961.3737397999794,None,2961.3737397999794,None,4.7125,2.7287556000228506,2961.3737397999794,None,2.4156250000000004,1.4706168999837246,2961.3737397999794,None,4.825,4.170866800006479,2961.3737397999794,None,space,4.694816800008994,2961.3737397999794,None,A,laifang,19,f,2021_Dec_26_1615,untitled_groupA_k,2021.1.4,120.23508363392148,
52,picture\p13.tif,RB_right_01_42\RBY13.mp4,picture\p13.tif,0,71,71,51,,,,,,,2966.1067677999963,2967.1147078999784,2967.0926318999846,None,2969.697706899984,2970.705703499989,2999.9799808999815,None,2999.9799808999815,None,3.4187499999999997,3.3193765000032727,2999.9799808999815,None,4.346875000000001,4.4045852000126615,2999.9799808999815,None,4.3187500000000005,7.38715389999561,2999.9799808999815,None,space,8.27438620000612,2999.9799808999815,None,A,laifang,19,f,2021_Dec_26_1615,untitled_groupA_k,2021.1.4,120.23508363392148,
55,picture\p16.tif,RB_right_01_42\RBY16.mp4,picture\p16.tif,0,72,72,54,,,,,,,3008.2879347999988,3009.287344799988,3009.279239399999,None,3011.87949739999,3012.887675999984,3042.160654699983,None,3042.160654699983,None,2.5093750000000004,2.2943952000059653,3042.160654699983,None,4.675000000000001,4.061878100008471,3042.160654699983,None,4.759375,5.420865199994296,3042.160654699983,None,space,5.745661099994322,3042.160654699983,None,A,laifang,19,f,2021_Dec_26_1615,untitled_groupA_k,2021.1.4,120.23508363392148,
32,picture\p32.tif,BB_left_01_42\BBZ32.mp4,picture\p32.tif,0,73,73,31,,,,,,,3047.935937799979,3048.9436448999913,3048.929410099983,None,3051.518738599989,3052.527096399979,3081.8004666999914,None,3081.8004666999914,None,4.403125,1.6516935999970883,3081.8004666999914,None,4.384375,2.7948487999965437,3081.8004666999914,None,4.309374999999999,3.970018899999559,3081.8004666999914,None,space,4.331512799981283,3081.8004666999914,None,A,laifang,19,f,2021_Dec_26_1615,untitled_groupA_k,2021.1.4,120.23508363392148,
20,picture\p20.tif,RR_left_01_42\RRZ20.mp4,picture\p20.tif,0,74,74,19,,,,,,,3086.15918409999,3087.1667792999942,3087.15224939998,None,3089.750614199991,3090.7588671999983,3120.0318974999827,None,3120.0318974999827,None,3.7,2.7601376000093296,3120.0318974999827,None,5.518750000000001,1.4809667999797966,3120.0318974999827,None,2.396875,3.970236200024374,3120.0318974999827,None,space,4.320328600006178,3120.0318974999827,None,A,laifang,19,f,2021_Dec_26_1615,untitled_groupA_k,2021.1.4,120.23508363392148,
70,picture\p31.tif,RR_right_01_42\RRY31.mp4,picture\p31.tif,0,75,75,69,,,,,,,3124.3824735999806,3125.390115199989,3125.3669123,None,3127.9732605000027,3128.981924199994,3158.2555598999897,None,3158.2555598999897,None,5.434375,2.0791449999960605,3158.2555598999897,None,4.45,4.645779799990123,3158.2555598999897,None,2.903125,3.5955202999757603,3158.2555598999897,None,space,5.0919524999917485,3158.2555598999897,None,A,laifang,19,f,2021_Dec_26_1615,untitled_groupA_k,2021.1.4,120.23508363392148,
84,picture\p03.tif,BB_right_01_42\BBY03.mp4,picture\p03.tif,0,76,76,83,,,,,,,3163.380350899999,3164.3879903999914,3164.373638399993,None,3166.971389299986,3167.9794876999804,3197.253163199988,None,3197.253163199988,None,4.965625,2.4814539999933913,3197.253163199988,None,4.909375000000001,3.695807300013257,3197.253163199988,None,4.91875,4.846364900004119,3197.253163199988,None,space,5.456072799977846,3197.253163199988,None,A,laifang,19,f,2021_Dec_26_1615,untitled_groupA_k,2021.1.4,120.23508363392148,
65,picture\p26.tif,RR_right_01_42\RRY26.mp4,picture\p26.tif,0,77,77,64,,,,,,,3202.744924699975,3203.7532649999775,3203.7300467999885,None,3206.327833599993,3207.3365539999795,3236.6099454999785,None,3236.6099454999785,None,5.59375,2.4279941999993753,3236.6099454999785,None,3.9718750000000007,4.653868399997009,3236.6099454999785,None,2.2281250000000004,3.6292224999924656,3236.6099454999785,None,space,4.867759599990677,3236.6099454999785,None,A,laifang,19,f,2021_Dec_26_1615,untitled_groupA_k,2021.1.4,120.23508363392148,
21,picture\p21.tif,RR_left_01_42\RRZ21.mp4,picture\p21.tif,0,78,78,20,,,,,,,3241.4965463999833,3242.51019489998,3242.4859132999845,None,3245.0849979999766,3246.0923396,3275.3668833999836,None,3275.3668833999836,None,2.4718750000000003,2.485889000003226,3275.3668833999836,None,5.3500000000000005,3.528213500016136,3275.3668833999836,None,4.1312500000000005,4.554014500026824,3275.3668833999836,None,space,4.751189699978568,3275.3668833999836,None,A,laifang,19,f,2021_Dec_26_1615,untitled_groupA_k,2021.1.4,120.23508363392148,
17,picture\p17.tif,RR_left_01_42\RRZ17.mp4,picture\p17.tif,0,79,79,16,,,,,,,3280.1582086999842,3281.1659514999774,3281.1426855000027,None,3283.741213399975,3284.7491910999815,3314.0149670999963,None,3314.0149670999963,None,2.6593750000000003,3.9775613000092562,3314.0149670999963,None,4.1875,6.0116669999843,3314.0149670999963,None,5.771875,2.01188700000057,3314.0149670999963,None,space,6.348870599991642,3314.0149670999963,None,A,laifang,19,f,2021_Dec_26_1615,untitled_groupA_k,2021.1.4,120.23508363392148,
37,picture\p37.tif,BB_left_01_42\BBZ37.mp4,picture\p37.tif,0,80,80,36,,,,,,,3320.397541299986,3321.405556099984,3321.3824915000005,None,3323.981123399979,3324.989159299992,3354.2625492999796,None,3354.2625492999796,None,4.5531250000000005,1.3285593999898992,3354.2625492999796,None,4.534375000000001,2.478677900013281,3354.2625492999796,None,4.5062500000000005,3.6454905999999028,3354.2625492999796,None,space,4.004362600011518,3354.2625492999796,None,A,laifang,19,f,2021_Dec_26_1615,untitled_groupA_k,2021.1.4,120.23508363392148,
11,picture\p11.tif,BR_left_01_42\BRZ11.mp4,picture\p11.tif,0,81,81,10,,,,,,,3358.3041915999784,3359.3119310999755,3359.297444899974,None,3361.887441699975,3362.8956489999837,3392.1772939999937,None,3392.1772939999937,None,4.7406250000000005,2.7040734000038356,3392.1772939999937,None,4.73125,4.587286200025119,3392.1772939999937,None,2.9312500000000004,1.5127666000043973,3392.1772939999937,None,space,4.869436600012705,3392.1772939999937,None,A,laifang,19,f,2021_Dec_26_1615,untitled_groupA_k,2021.1.4,120.23508363392148,
2,picture\p02.tif,BR_left_01_42\BRZ02.mp4,picture\p02.tif,0,82,82,1,,,,,,,3397.077515299985,3398.0859174999932,3398.063043699978,None,3400.669192399975,3401.676812599995,3430.9424323999847,None,3430.9424323999847,None,4.61875,2.869692899985239,3430.9424323999847,None,2.171875000000001,1.337020399980247,3430.9424323999847,None,4.581250000000001,4.146218700014288,3430.9424323999847,None,space,4.639051100006327,3430.9424323999847,None,A,laifang,19,f,2021_Dec_26_1615,untitled_groupA_k,2021.1.4,120.23508363392148,
39,picture\p39.tif,BB_left_01_42\BBZ39.mp4,picture\p39.tif,0,83,83,38,,,,,,,3435.6044818999944,3436.608561399975,3436.60049859999,None,3439.192183499981,3440.199666200002,3469.465363800002,None,3469.465363800002,None,4.0,6.703295199986314,3469.465363800002,None,4.028125,3.6452635999885388,3469.465363800002,None,4.084375,4.787019999988843,3469.465363800002,None,space,7.4050223999947775,3469.465363800002,None,A,laifang,19,f,2021_Dec_26_1615,untitled_groupA_k,2021.1.4,120.23508363392148,
