Numb,picture_show,Video_1,picture_judge,trials.thisRepN,trials.thisTrialN,trials.thisN,trials.thisIndex,image_intr.started,image_intr.stopped,key_resp_intr.keys,key_resp_intr.rt,key_resp_intr.started,key_resp_intr.stopped,image_show_text.started,image_show_text.stopped,image_show.started,image_show.stopped,image_video_text.started,image_video_text.stopped,image_judge.started,image_judge.stopped,image_judge_text.started,image_judge_text.stopped,slider_left.response,slider_left.rt,slider_left.started,slider_left.stopped,slider_mid.response,slider_mid.rt,slider_mid.started,slider_mid.stopped,slider_right.response,slider_right.rt,slider_right.started,slider_right.stopped,key_resp_next.keys,key_resp_next.rt,key_resp_next.started,key_resp_next.stopped,group,participant,age,gender(m/f),date,expName,psychopyVersion,frameRate,
,,,,,,,,38.385849700076506,None,space,55.033304899930954,38.385849700076506,None,,,,,,,,,,,,,,,,,,,,,,,,,,,A,weigede,22,f,2021_Dec_25_0817,untitled_groupA_k,2021.1.4,59.914681457745814,
46,picture\p07.tif,RB_right_01_42\RBY07.mp4,picture\p07.tif,0,0,0,45,,,,,,,93.50423850002699,94.51673349994235,94.50006869994104,None,98.12005140003748,99.13552089990117,128.44335559988394,None,128.44335559988394,None,4.3694444444444445,63.53774149995297,128.44335559988394,None,1.313888888888889,41.62488789996132,128.44335559988394,None,4.925,49.17909469990991,128.44335559988394,None,space,66.96213779994287,128.44335559988394,None,A,weigede,22,f,2021_Dec_25_0817,untitled_groupA_k,2021.1.4,59.914681457745814,
77,picture\p38.tif,BB_right_01_42\BBY38.mp4,picture\p38.tif,0,1,1,76,,,,,,,195.4577166000381,196.46333399997093,196.44675950007513,None,199.3122157000471,200.3143881999422,229.62082349997945,None,229.62082349997945,None,3.938888888888889,28.64851569989696,229.62082349997945,None,4.133333333333334,26.269014700083062,229.62082349997945,None,4.119444444444445,31.386522199958563,229.62082349997945,None,space,35.12478770012967,229.62082349997945,None,A,weigede,22,f,2021_Dec_25_0817,untitled_groupA_k,2021.1.4,59.914681457745814,
49,picture\p10.tif,RB_right_01_42\RBY10.mp4,picture\p10.tif,0,2,2,48,,,,,,,264.78559929993935,265.8013458000496,265.78612480009906,None,268.6868577999994,269.70002739992924,298.9740228999872,None,298.9740228999872,None,4.063888888888889,35.84534900006838,298.9740228999872,None,1.0916666666666668,3.4377631000243127,298.9740228999872,None,4.008333333333334,19.90588070009835,298.9740228999872,None,space,36.30835639988072,298.9740228999872,None,A,weigede,22,f,2021_Dec_25_0817,untitled_groupA_k,2021.1.4,59.914681457745814,
59,picture\p20.tif,RR_right_01_42\RRY20.mp4,picture\p20.tif,0,3,3,58,,,,,,,335.3216202999465,336.33758229995146,336.32160079991445,None,339.24762709997594,340.2532587000169,369.54554220009595,None,369.54554220009595,None,3.9527777777777784,8.16600829991512,369.54554220009595,None,6.9944444444444445,3.3342389001045376,369.54554220009595,None,1,6.256453600013629,369.54554220009595,None,space,8.690917200176045,369.54554220009595,None,A,weigede,22,f,2021_Dec_25_0817,untitled_groupA_k,2021.1.4,59.914681457745814,
4,picture\p04.tif,BR_left_01_42\BRZ04.mp4,picture\p04.tif,0,4,4,3,,,,,,,378.27817830001004,379.2791504000779,379.26296309987083,None,382.1719056998845,383.1766753999982,412.4596241998952,None,412.4596241998952,None,4.466666666666667,36.71018519997597,412.4596241998952,None,1.1333333333333333,3.431855000089854,412.4596241998952,None,4.508333333333334,40.26303089992143,412.4596241998952,None,space,41.225705299992114,412.4596241998952,None,A,weigede,22,f,2021_Dec_25_0817,untitled_groupA_k,2021.1.4,59.914681457745814,
52,picture\p13.tif,RB_right_01_42\RBY13.mp4,picture\p13.tif,0,5,5,51,,,,,,,453.73845799989067,454.74761509988457,454.73140859999694,None,458.1575565999374,459.1634056000039,488.45350810000673,None,488.45350810000673,None,1.0638888888888896,3.0040574001614004,488.45350810000673,None,4.272222222222223,30.5343558001332,488.45350810000673,None,4.161111111111111,27.646168100181967,488.45350810000673,None,space,31.042333699995652,488.45350810000673,None,A,weigede,22,f,2021_Dec_25_0817,untitled_groupA_k,2021.1.4,59.914681457745814,
19,picture\p19.tif,RR_left_01_42\RRZ18.mp4,picture\p19.tif,0,6,6,18,,,,,,,519.5398275000043,520.5511394999921,520.5351066999137,None,523.4444722998887,524.4504452000838,553.7422096999362,None,553.7422096999362,None,6.800000000000001,24.080745900049806,553.7422096999362,None,3.1472222222222226,32.54598799999803,553.7422096999362,None,1.119444444444445,6.403959000017494,553.7422096999362,None,space,33.0726342999842,553.7422096999362,None,A,weigede,22,f,2021_Dec_25_0817,untitled_groupA_k,2021.1.4,59.914681457745814,
41,picture\p41.tif,BB_left_01_42\BBZ41.mp4,picture\p41.tif,0,7,7,40,,,,,,,586.8725568999071,587.8878478000406,587.8551239999942,None,590.7376290999819,591.7374013999943,621.0475095999427,None,621.0475095999427,None,3.980555555555555,5.249939800007269,621.0475095999427,None,3.9666666666666677,7.210518700070679,621.0475095999427,None,4.0777777777777775,9.206260399892926,621.0475095999427,None,space,23.411026400048286,621.0475095999427,None,A,weigede,22,f,2021_Dec_25_0817,untitled_groupA_k,2021.1.4,59.914681457745814,
82,picture\p01.tif,BB_right_01_42\BBY01.mp4,picture\p01.tif,0,8,8,81,,,,,,,644.4926289001014,645.4933919999748,645.4780832999386,None,648.3604079000652,649.376336999936,678.6690610998776,None,678.6690610998776,None,4.063888888888889,4.737711600027978,678.6690610998776,None,4.133333333333334,7.085476899985224,678.6690610998776,None,4.175,12.474088599905372,678.6690610998776,None,space,18.816048600012437,678.6690610998776,None,A,weigede,22,f,2021_Dec_25_0817,untitled_groupA_k,2021.1.4,59.914681457745814,
36,picture\p36.tif,BB_left_01_42\BBZ36.mp4,picture\p36.tif,0,9,9,35,,,,,,,697.5424526999705,698.5489336000755,698.5322459999006,None,701.4002701998688,702.4154014000669,731.7054445999674,None,731.7054445999674,None,4.105555555555556,7.901255799923092,731.7054445999674,None,4.105555555555556,11.436592500191182,731.7054445999674,None,4.133333333333334,13.9579209999647,731.7054445999674,None,space,15.62656440003775,731.7054445999674,None,A,weigede,22,f,2021_Dec_25_0817,untitled_groupA_k,2021.1.4,59.914681457745814,
17,picture\p17.tif,RR_left_01_42\RRZ17.mp4,picture\p17.tif,0,10,10,16,,,,,,,747.3821602999233,748.389676899882,748.3737584000919,None,751.2636365999933,752.2726833000779,781.562871000031,None,781.562871000031,None,1.0638888888888896,8.63792740018107,781.562871000031,None,3.9666666666666677,11.204578700009733,781.562871000031,None,6.925000000000001,2.7374754999764264,781.562871000031,None,space,11.618861200055107,781.562871000031,None,A,weigede,22,f,2021_Dec_25_0817,untitled_groupA_k,2021.1.4,59.914681457745814,
73,picture\p34.tif,BB_right_01_42\BBY34.mp4,picture\p34.tif,0,11,11,72,,,,,,,793.2278891000897,794.2294751999434,794.2139262000564,None,797.6141214000527,798.6284117999021,827.9088121000677,None,827.9088121000677,None,4.091666666666667,4.117777799954638,827.9088121000677,None,4.0777777777777775,7.39444570010528,827.9088121000677,None,4.119444444444445,12.086156599922106,827.9088121000677,None,space,26.90879589994438,827.9088121000677,None,A,weigede,22,f,2021_Dec_25_0817,untitled_groupA_k,2021.1.4,59.914681457745814,
10,picture\p10.tif,BR_left_01_42\BRZ10.mp4,picture\p10.tif,0,12,12,9,,,,,,,854.8472915000748,855.8523981999606,855.8355755000375,None,858.816266000038,859.8177761000115,889.1273538998794,None,889.1273538998794,None,5.133333333333333,44.527604800183326,889.1273538998794,None,1.105555555555556,2.438143099891022,889.1273538998794,None,5.0777777777777775,41.12564629991539,889.1273538998794,None,space,53.74986999994144,889.1273538998794,None,A,weigede,22,f,2021_Dec_25_0817,untitled_groupA_k,2021.1.4,59.914681457745814,
20,picture\p20.tif,RR_left_01_42\RRZ20.mp4,picture\p20.tif,0,13,13,19,,,,,,,942.9293033001013,943.9345315999817,943.9191044000909,None,946.8409746999387,947.8507739000488,977.1430579000153,None,977.1430579000153,None,4.147222222222222,19.987692200113088,977.1430579000153,None,6.952777777777778,6.198870799969882,977.1430579000153,None,1,7.423525399994105,977.1430579000153,None,space,22.18050939985551,977.1430579000153,None,A,weigede,22,f,2021_Dec_25_0817,untitled_groupA_k,2021.1.4,59.914681457745814,
29,picture\p29.tif,BB_left_01_42\BBZ29.mp4,picture\p29.tif,0,14,14,28,,,,,,,999.3677137000486,1000.372700799955,1000.3587990000378,None,1003.2897304999642,1004.2898867998738,1033.5986172999255,None,1033.5986172999255,None,3.980555555555555,5.085871200077236,1033.5986172999255,None,3.938888888888889,9.42226959997788,1033.5986172999255,None,4.063888888888889,11.35522020002827,1033.5986172999255,None,space,11.663727500010282,1033.5986172999255,None,A,weigede,22,f,2021_Dec_25_0817,untitled_groupA_k,2021.1.4,59.914681457745814,
13,picture\p13.tif,BR_left_01_42\BRZ13.mp4,picture\p13.tif,0,15,15,12,,,,,,,1045.2928748000413,1046.2988734000828,1046.28276179987,None,1049.220698500052,1050.2306349999271,1079.5206871000119,None,1079.5206871000119,None,1.0500000000000003,12.473174900049344,1079.5206871000119,None,5.105555555555556,10.903960600029677,1079.5206871000119,None,4.911111111111111,9.272867100080475,1079.5206871000119,None,space,15.51791759999469,1079.5206871000119,None,A,weigede,22,f,2021_Dec_25_0817,untitled_groupA_k,2021.1.4,59.914681457745814,
12,picture\p12.tif,BR_left_01_42\BRZ12.mp4,picture\p12.tif,0,16,16,11,,,,,,,1095.0786202000454,1096.0884948000312,1096.0742267998867,None,1099.4799482000526,1100.4872103000525,1129.7804290999193,None,1129.7804290999193,None,2.1055555555555556,51.45627069985494,1129.7804290999193,None,1.1611111111111114,12.048724600113928,1129.7804290999193,None,4.063888888888889,32.01854839990847,1129.7804290999193,None,space,61.26657239999622,1129.7804290999193,None,A,weigede,22,f,2021_Dec_25_0817,untitled_groupA_k,2021.1.4,59.914681457745814,
5,picture\p05.tif,BR_left_01_42\BRZ05.mp4,picture\p05.tif,0,17,17,4,,,,,,,1191.0862960999366,1192.085532200057,1192.085532200057,None,1194.939790799981,1195.9517236000393,1225.244405800011,None,1225.244405800011,None,1.1611111111111114,7.702971699880436,1225.244405800011,None,4.105555555555556,9.186207300052047,1225.244405800011,None,4.188888888888888,12.147485800087452,1225.244405800011,None,space,15.17323000007309,1225.244405800011,None,A,weigede,22,f,2021_Dec_25_0817,untitled_groupA_k,2021.1.4,59.914681457745814,
33,picture\p33.tif,BB_left_01_42\BBZ33.mp4,picture\p33.tif,0,18,18,32,,,,,,,1240.4548915000632,1241.46016040002,1241.4430144999642,None,1244.3783764000982,1245.3917890000157,1274.6680473999586,None,1274.6680473999586,None,4.091666666666667,3.954065900063142,1274.6680473999586,None,4.0777777777777775,6.022606099955738,1274.6680473999586,None,4.0777777777777775,10.588335699867457,1274.6680473999586,None,space,11.013613399816677,1274.6680473999586,None,A,weigede,22,f,2021_Dec_25_0817,untitled_groupA_k,2021.1.4,59.914681457745814,
63,picture\p24.tif,RR_right_01_42\RRY24.mp4,picture\p24.tif,0,19,19,62,,,,,,,1285.7151808000635,1286.7157713000197,1286.7001602000091,None,1289.6470800000243,1290.6497398999054,1319.9608346000314,None,1319.9608346000314,None,4.327777777777778,24.914010000182316,1319.9608346000314,None,6.2027777777777775,29.732811600202695,1319.9608346000314,None,1.119444444444445,15.537234799936414,1319.9608346000314,None,space,30.419403299922124,1319.9608346000314,None,A,weigede,22,f,2021_Dec_25_0817,untitled_groupA_k,2021.1.4,59.914681457745814,
9,picture\p09.tif,BR_left_01_42\BRZ09.mp4,picture\p09.tif,0,20,20,8,,,,,,,1350.4194400000852,1351.4198469000403,1351.402888200013,None,1354.3140131998807,1355.3203714999836,1384.6225535999984,None,1384.6225535999984,None,4.6194444444444445,18.792997299926355,1384.6225535999984,None,4.605555555555556,21.870926199946553,1384.6225535999984,None,1.1611111111111114,2.377396199852228,1384.6225535999984,None,space,22.97590219997801,1384.6225535999984,None,A,weigede,22,f,2021_Dec_25_0817,untitled_groupA_k,2021.1.4,59.914681457745814,
11,picture\p11.tif,BR_left_01_42\BRZ11.mp4,picture\p11.tif,0,21,21,10,,,,,,,1407.6475003999658,1408.6593035000842,1408.641981499968,None,1412.0205457999837,1413.025614199927,1442.3358602998778,None,1442.3358602998778,None,2.938888888888889,14.731523199938238,1442.3358602998778,None,2.9111111111111114,8.28469350002706,1442.3358602998778,None,1.2166666666666672,2.237760999938473,1442.3358602998778,None,space,16.254838099936023,1442.3358602998778,None,A,weigede,22,f,2021_Dec_25_0817,untitled_groupA_k,2021.1.4,59.914681457745814,
38,picture\p38.tif,BB_left_01_42\BBZ38.mp4,picture\p38.tif,0,22,22,37,,,,,,,1458.6288065998815,1459.633137699915,1459.616851199884,None,1463.0689258999191,1464.0808107000776,1493.3723464000504,None,1493.3723464000504,None,4.063888888888889,3.669719200115651,1493.3723464000504,None,4.105555555555556,10.62090119998902,1493.3723464000504,None,4.0777777777777775,12.707699000136927,1493.3723464000504,None,space,13.341834100196138,1493.3723464000504,None,A,weigede,22,f,2021_Dec_25_0817,untitled_groupA_k,2021.1.4,59.914681457745814,
7,picture\p07.tif,BR_left_01_42\BRZ07.mp4,picture\p07.tif,0,23,23,6,,,,,,,1506.759674699977,1507.7578664999455,1507.7431799999904,None,1510.6079696998931,1511.6229908999521,1540.915317799896,None,1540.915317799896,None,3.9944444444444445,17.817087000003085,1540.915317799896,None,4.105555555555556,19.18236179999076,1540.915317799896,None,4.119444444444445,20.934089200105518,1540.915317799896,None,space,21.322110699955374,1540.915317799896,None,A,weigede,22,f,2021_Dec_25_0817,untitled_groupA_k,2021.1.4,59.914681457745814,
1,picture\p01.tif,BR_left_01_42\BRZ01.mp4,picture\p01.tif,0,24,24,0,,,,,,,1562.2750573998783,1563.2794061999302,1563.2630751000252,None,1566.2003540999722,1567.2121363999322,1596.5024850000627,None,1596.5024850000627,None,4.8,7.001522500067949,1596.5024850000627,None,4.841666666666667,9.804679100168869,1596.5024850000627,None,1.0500000000000003,1.9039026000536978,1596.5024850000627,None,space,10.119635500013828,1596.5024850000627,None,A,weigede,22,f,2021_Dec_25_0817,untitled_groupA_k,2021.1.4,59.914681457745814,
51,picture\p12.tif,RB_right_01_42\RBY12.mp4,picture\p12.tif,0,25,25,50,,,,,,,1606.6628022999503,1607.6706713000312,1607.654621399939,None,1610.6415677000768,1611.653027900029,1640.944390800083,None,1640.944390800083,None,2.675,4.303878899896517,1640.944390800083,None,1.0,6.752808199962601,1640.944390800083,None,3.938888888888889,10.016895699780434,1640.944390800083,None,space,19.824771400075406,1640.944390800083,None,A,weigede,22,f,2021_Dec_25_0817,untitled_groupA_k,2021.1.4,59.914681457745814,
40,picture\p40.tif,BB_left_01_42\BBZ40.mp4,picture\p40.tif,0,26,26,39,,,,,,,1660.8120534000918,1661.8266948000528,1661.810368699953,None,1664.729028899921,1665.7425055999774,1695.019094399875,None,1695.019094399875,None,4.091666666666667,6.80404349998571,1695.019094399875,None,4.119444444444445,4.872014699969441,1695.019094399875,None,4.105555555555556,12.287769600050524,1695.019094399875,None,space,12.608394199982285,1695.019094399875,None,A,weigede,22,f,2021_Dec_25_0817,untitled_groupA_k,2021.1.4,59.914681457745814,
8,picture\p08.tif,BR_left_01_42\BRZ08.mp4,picture\p08.tif,0,27,27,7,,,,,,,1707.6804440999404,1708.6842402999755,1708.6682041999884,None,1711.5819445000961,1712.5834427000955,1741.8925753999501,None,1741.8925753999501,None,1,3.1359628001227975,1741.8925753999501,None,4.161111111111111,5.117181899957359,1741.8925753999501,None,4.2444444444444445,7.005948500009254,1741.8925753999501,None,space,8.973667500074953,1741.8925753999501,None,A,weigede,22,f,2021_Dec_25_0817,untitled_groupA_k,2021.1.4,59.914681457745814,
37,picture\p37.tif,BB_left_01_42\BBZ37.mp4,picture\p37.tif,0,28,28,36,,,,,,,1750.910913999891,1751.925394400023,1751.9092218999285,None,1755.314896499971,1756.324849900091,1785.6150954000186,None,1785.6150954000186,None,4.119444444444445,2.4531356999650598,1785.6150954000186,None,4.008333333333334,4.987205100012943,1785.6150954000186,None,4.063888888888889,6.8395894998684525,1785.6150954000186,None,space,7.181626899866387,1785.6150954000186,None,A,weigede,22,f,2021_Dec_25_0817,untitled_groupA_k,2021.1.4,59.914681457745814,
3,picture\p03.tif,BR_left_01_42\BRZ03.mp4,picture\p03.tif,0,29,29,2,,,,,,,1792.8379130000249,1793.850680500036,1793.8344171999488,None,1796.7547844999935,1797.7665424000006,1827.04044110002,None,1827.04044110002,None,4.147222222222222,6.745901900110766,1827.04044110002,None,4.133333333333334,8.61064670002088,1827.04044110002,None,1.0083333333333337,2.154691099887714,1827.04044110002,None,space,9.167901899898425,1827.04044110002,None,A,weigede,22,f,2021_Dec_25_0817,untitled_groupA_k,2021.1.4,59.914681457745814,
56,picture\p17.tif,RB_right_01_42\RBY17.mp4,picture\p17.tif,0,30,30,55,,,,,,,1836.2343607998919,1837.2422630998772,1837.2254973999225,None,1840.1060468999203,1841.1070316000842,1870.4016736000776,None,1870.4016736000776,None,3.9527777777777784,10.271775600034744,1870.4016736000776,None,1.1611111111111114,8.951352700125426,1870.4016736000776,None,4.175,11.672325199935585,1870.4016736000776,None,space,12.092662799870595,1870.4016736000776,None,A,weigede,22,f,2021_Dec_25_0817,untitled_groupA_k,2021.1.4,59.914681457745814,
22,picture\p22.tif,RR_left_01_42\RRZ22.mp4,picture\p22.tif,0,31,31,21,,,,,,,1882.5370308000129,1883.549625699874,1883.5339242999908,None,1886.4885688999202,1887.4991136000026,1916.7906285999343,None,1916.7906285999343,None,6.925000000000001,1.855064099887386,1916.7906285999343,None,3.980555555555555,7.038098199991509,1916.7906285999343,None,1.119444444444445,4.306028899969533,1916.7906285999343,None,space,15.582063799956813,1916.7906285999343,None,A,weigede,22,f,2021_Dec_25_0817,untitled_groupA_k,2021.1.4,59.914681457745814,
84,picture\p03.tif,BB_right_01_42\BBY03.mp4,picture\p03.tif,0,32,32,83,,,,,,,1932.401892799884,1933.4080054999795,1933.39087309991,None,1936.2744571000803,1937.2893022999633,1966.5801091000903,None,1966.5801091000903,None,4.105555555555556,3.053804599912837,1966.5801091000903,None,4.133333333333334,6.105154599994421,1966.5801091000903,None,4.147222222222222,9.999446199974045,1966.5801091000903,None,space,10.573059599846601,1966.5801091000903,None,A,weigede,22,f,2021_Dec_25_0817,untitled_groupA_k,2021.1.4,59.914681457745814,
62,picture\p23.tif,RR_right_01_42\RRY23.mp4,picture\p23.tif,0,33,33,61,,,,,,,1977.2040883998852,1978.215199700091,1978.19812429999,None,1981.1194809998851,1982.1304228000809,2011.4227225000504,None,2011.4227225000504,None,1.1750000000000007,7.705620199907571,2011.4227225000504,None,4.050000000000001,9.360277300002053,2011.4227225000504,None,7,2.3409066998865455,2011.4227225000504,None,space,9.615268500056118,2011.4227225000504,None,A,weigede,22,f,2021_Dec_25_0817,untitled_groupA_k,2021.1.4,59.914681457745814,
28,picture\p28.tif,RR_left_01_42\RRZ28.mp4,picture\p28.tif,0,34,34,27,,,,,,,2021.0772496999707,2022.089231000049,2022.0727418998722,None,2024.9187443000264,2025.9213787000626,2055.22888459987,None,2055.22888459987,None,5.883333333333333,8.749798599863425,2055.22888459987,None,1.9111111111111114,15.08470860007219,2055.22888459987,None,4.008333333333334,6.840398000087589,2055.22888459987,None,space,16.67084429995157,2055.22888459987,None,A,weigede,22,f,2021_Dec_25_0817,untitled_groupA_k,2021.1.4,59.914681457745814,
67,picture\p28.tif,RR_right_01_42\RRY28.mp4,picture\p28.tif,0,35,35,66,,,,,,,2071.940926600015,2072.9457835999783,2072.9295995000284,None,2076.2519781000447,2077.261716299923,2106.5522984000854,None,2106.5522984000854,None,6.605555555555556,4.9376888000406325,2106.5522984000854,None,1.3000000000000003,15.94349729991518,2106.5522984000854,None,4.050000000000001,8.621037499979138,2106.5522984000854,None,space,18.014344499912113,2106.5522984000854,None,A,weigede,22,f,2021_Dec_25_0817,untitled_groupA_k,2021.1.4,59.914681457745814,
25,picture\p25.tif,RR_left_01_42\RRZ25.mp4,picture\p25.tif,0,36,36,24,,,,,,,2124.6067210000474,2125.618867699988,2125.6033938999753,None,2128.5241433999036,2129.5332448000554,2158.82767769997,None,2158.82767769997,None,1.869444444444445,4.199817599961534,2158.82767769997,None,4.133333333333334,5.75369879999198,2158.82767769997,None,6.536111111111111,2.4371349001303315,2158.82767769997,None,space,5.968907699920237,2158.82767769997,None,A,weigede,22,f,2021_Dec_25_0817,untitled_groupA_k,2021.1.4,59.914681457745814,
57,picture\p18.tif,RR_right_01_42\RRY18.mp4,picture\p18.tif,0,37,37,56,,,,,,,2164.843201499898,2165.8431967000943,2165.8264724998735,None,2168.7176284000743,2169.7255567000248,2199.0186685998924,None,2199.0186685998924,None,1.4388888888888887,10.440261899959296,2199.0186685998924,None,6.605555555555556,2.924782400019467,2199.0186685998924,None,4.036111111111111,12.848256200086325,2199.0186685998924,None,space,13.309284799965099,2199.0186685998924,None,A,weigede,22,f,2021_Dec_25_0817,untitled_groupA_k,2021.1.4,59.914681457745814,
14,picture\p14.tif,BR_left_01_42\BRZ14.mp4,picture\p14.tif,0,38,38,13,,,,,,,2212.367357400013,2213.3671784999315,2213.353327400051,None,2216.2611730000935,2217.2663851000834,2246.565697999904,None,2246.565697999904,None,4.119444444444445,6.435568200191483,2246.565697999904,None,1.1750000000000007,2.2160763000138104,2246.565697999904,None,3.411111111111112,3.7988535000476986,2246.565697999904,None,space,7.028993800049648,2246.565697999904,None,A,weigede,22,f,2021_Dec_25_0817,untitled_groupA_k,2021.1.4,59.914681457745814,
69,picture\p30.tif,RR_right_01_42\RRY30.mp4,picture\p30.tif,0,39,39,68,,,,,,,2253.6271184999496,2254.6424118999857,2254.608949000016,None,2257.6914135999978,2258.691348500084,2288.0161923000123,None,2288.0161923000123,None,1.466666666666667,2.4230857000220567,2288.0161923000123,None,6.688888888888889,4.22891389997676,2288.0161923000123,None,4.008333333333334,7.013182100141421,2288.0161923000123,None,space,16.143715699901804,2288.0161923000123,None,A,weigede,22,f,2021_Dec_25_0817,untitled_groupA_k,2021.1.4,59.914681457745814,
66,picture\p27.tif,RR_right_01_42\RRY27.mp4,picture\p27.tif,0,40,40,65,,,,,,,2304.203701399965,2305.215540499892,2305.198873099871,None,2308.036196900066,2309.0481336000375,2338.3390013999306,None,2338.3390013999306,None,4.7444444444444445,13.722106399945915,2338.3390013999306,None,1.188888888888889,17.93708879989572,2338.3390013999306,None,5.577777777777778,10.107555800117552,2338.3390013999306,None,space,19.56892880005762,2338.3390013999306,None,A,weigede,22,f,2021_Dec_25_0817,untitled_groupA_k,2021.1.4,59.914681457745814,
78,picture\p39.tif,BB_right_01_42\BBY39.mp4,picture\p39.tif,0,41,41,77,,,,,,,2357.9467935999855,2358.9561624999624,2358.9403488999233,None,2361.8126970999874,2362.821920200018,2392.1126514000352,None,2392.1126514000352,None,4.2027777777777775,2.753163699992001,2392.1126514000352,None,4.147222222222222,4.019782100105658,2392.1126514000352,None,4.063888888888889,5.856835999991745,2392.1126514000352,None,space,6.93550239992328,2392.1126514000352,None,A,weigede,22,f,2021_Dec_25_0817,untitled_groupA_k,2021.1.4,59.914681457745814,
71,picture\p32.tif,BB_right_01_42\BBY32.mp4,picture\p32.tif,0,42,42,70,,,,,,,2399.075752499979,2400.081689500017,2400.0658921001013,None,2403.4311273999047,2404.430744299898,2433.7223928000312,None,2433.7223928000312,None,4.216666666666667,6.484848099993542,2433.7223928000312,None,4.0777777777777775,8.319344599964097,2433.7223928000312,None,4.272222222222223,11.13761410000734,2433.7223928000312,None,space,11.457302100025117,2433.7223928000312,None,A,weigede,22,f,2021_Dec_25_0817,untitled_groupA_k,2021.1.4,59.914681457745814,
75,picture\p36.tif,BB_right_01_42\BBY36.mp4,picture\p36.tif,0,43,43,74,,,,,,,2445.2172036000993,2446.222518600058,2446.206322700018,None,2449.1171909999102,2450.1218254000414,2479.411844599992,None,2479.411844599992,None,4.147222222222222,2.5027179000899196,2479.411844599992,None,4.091666666666667,8.13755919993855,2479.411844599992,None,4.0777777777777775,6.792109200032428,2479.411844599992,None,space,9.037968300050125,2479.411844599992,None,A,weigede,22,f,2021_Dec_25_0817,untitled_groupA_k,2021.1.4,59.914681457745814,
42,picture\p42.tif,BB_left_01_42\BBZ42.mp4,picture\p42.tif,0,44,44,41,,,,,,,2488.507245699875,2489.513845700072,2489.497852300061,None,2492.375568199903,2493.38028809987,2522.6704160000663,None,2522.6704160000663,None,4.188888888888888,1.870430699782446,2522.6704160000663,None,4.2027777777777775,7.087590900016949,2522.6704160000663,None,4.161111111111111,5.1405452999752015,2522.6704160000663,None,space,7.65852400008589,2522.6704160000663,None,A,weigede,22,f,2021_Dec_25_0817,untitled_groupA_k,2021.1.4,59.914681457745814,
54,picture\p15.tif,RB_right_01_42\RBY15.mp4,picture\p15.tif,0,45,45,53,,,,,,,2530.377046199981,2531.3890329001006,2531.3733023998793,None,2534.3298219998833,2535.3383571999148,2564.631434999872,None,2564.631434999872,None,6.161111111111111,4.318179500056431,2564.631434999872,None,1.702777777777778,12.570984999882057,2564.631434999872,None,4.022222222222222,7.673553500091657,2564.631434999872,None,space,14.995768599910662,2564.631434999872,None,A,weigede,22,f,2021_Dec_25_0817,untitled_groupA_k,2021.1.4,59.914681457745814,
45,picture\p06.tif,RB_right_01_42\RBY06.mp4,picture\p06.tif,0,46,46,44,,,,,,,2579.6683680000715,2580.6801769000012,2580.663512900006,None,2583.5280303000472,2584.5272842999548,2613.854188499972,None,2613.854188499972,None,1.188888888888889,2.87961050006561,2613.854188499972,None,4.063888888888889,6.996908799977973,2613.854188499972,None,6.036111111111111,5.047510399948806,2613.854188499972,None,space,7.878804699983448,2613.854188499972,None,A,weigede,22,f,2021_Dec_25_0817,untitled_groupA_k,2021.1.4,59.914681457745814,
47,picture\p08.tif,RB_right_01_42\RBY08.mp4,picture\p08.tif,0,47,47,46,,,,,,,2621.76355049992,2622.7697149000596,2622.7530787000433,None,2625.668321199948,2626.6702829001006,2655.9607096998952,None,2655.9607096998952,None,1.202777777777778,2.9560857000760734,2655.9607096998952,None,2.661111111111111,4.954172600060701,2655.9607096998952,None,4.188888888888888,9.138649800093845,2655.9607096998952,None,space,9.70357030001469,2655.9607096998952,None,A,weigede,22,f,2021_Dec_25_0817,untitled_groupA_k,2021.1.4,59.914681457745814,
55,picture\p16.tif,RB_right_01_42\RBY16.mp4,picture\p16.tif,0,48,48,54,,,,,,,2665.6958437000867,2666.695883499924,2666.6801414999645,None,2669.6257746000774,2670.6284650999587,2699.9355566999875,None,2699.9355566999875,None,1.0638888888888896,2.753531799884513,2699.9355566999875,None,4.036111111111111,8.03651800006628,2699.9355566999875,None,3.980555555555555,4.957001599948853,2699.9355566999875,None,space,21.016187800094485,2699.9355566999875,None,A,weigede,22,f,2021_Dec_25_0817,untitled_groupA_k,2021.1.4,59.914681457745814,
27,picture\p27.tif,RR_left_01_42\RRZ27.mp4,picture\p27.tif,0,49,49,26,,,,,,,2720.9814706998877,2721.9849926999304,2721.968633099925,None,2725.3499580998905,2726.350750599988,2755.641652100021,None,2755.641652100021,None,5.577777777777778,2.9217549001332372,2755.641652100021,None,3.3694444444444445,5.038056300021708,2755.641652100021,None,6.8694444444444445,1.687695600092411,2755.641652100021,None,space,8.177414199803025,2755.641652100021,None,A,weigede,22,f,2021_Dec_25_0817,untitled_groupA_k,2021.1.4,59.914681457745814,
58,picture\p19.tif,RR_right_01_42\RRY19.mp4,picture\p19.tif,0,50,50,57,,,,,,,2763.853320099879,2764.859774600016,2764.8443865000736,None,2767.7975522000343,2768.8089542998932,2798.0838409001008,None,2798.0838409001008,None,1.7583333333333337,4.837331400020048,2798.0838409001008,None,4.050000000000001,7.839377600001171,2798.0838409001008,None,6.438888888888889,2.670341999968514,2798.0838409001008,None,space,8.441418499918655,2798.0838409001008,None,A,weigede,22,f,2021_Dec_25_0817,untitled_groupA_k,2021.1.4,59.914681457745814,
35,picture\p35.tif,BB_left_01_42\BBZ35.mp4,picture\p35.tif,0,51,51,34,,,,,,,2806.561727500055,2807.5701486000326,2807.552313500084,None,2810.454170299927,2811.467475600075,2840.742983300006,None,2840.742983300006,None,4.119444444444445,2.986324100056663,2840.742983300006,None,3.9944444444444445,4.741014699917287,2840.742983300006,None,4.133333333333334,6.424664499936625,2840.742983300006,None,space,7.549471100093797,2840.742983300006,None,A,weigede,22,f,2021_Dec_25_0817,untitled_groupA_k,2021.1.4,59.914681457745814,
6,picture\p06.tif,BR_left_01_42\BRZ06.mp4,picture\p06.tif,0,52,52,5,,,,,,,2848.3193977999035,2849.326772399945,2849.31022330001,None,2852.2109898999333,2853.2259559000377,2882.518299399875,None,2882.518299399875,None,1.2583333333333337,2.687144200084731,2882.518299399875,None,3.841666666666667,4.469881899887696,2882.518299399875,None,3.980555555555555,6.094590799883008,2882.518299399875,None,space,9.129791700048372,2882.518299399875,None,A,weigede,22,f,2021_Dec_25_0817,untitled_groupA_k,2021.1.4,59.914681457745814,
26,picture\p26.tif,RR_left_01_42\RRZ26.mp4,picture\p26.tif,0,53,53,25,,,,,,,2891.6783177999314,2892.68477250007,2892.668555899989,None,2895.5996590000577,2896.600612099981,2925.909742299933,None,2925.909742299933,None,6.355555555555556,5.469734000042081,2925.909742299933,None,4.091666666666667,8.273119100136682,2925.909742299933,None,1.230555555555556,6.9896285000722855,2925.909742299933,None,space,8.731690500164405,2925.909742299933,None,A,weigede,22,f,2021_Dec_25_0817,untitled_groupA_k,2021.1.4,59.914681457745814,
31,picture\p31.tif,BB_left_01_42\BBZ31.mp4,picture\p31.tif,0,54,54,30,,,,,,,2934.6741933999583,2935.6762363000307,2935.661784199998,None,2938.5686009000055,2939.575593400048,2968.8701150999404,None,2968.8701150999404,None,4.105555555555556,1.7169609998818487,2968.8701150999404,None,4.0777777777777775,3.8709466999862343,2968.8701150999404,None,4.063888888888889,3.8739765000063926,2968.8701150999404,None,space,5.181458099978045,2968.8701150999404,None,A,weigede,22,f,2021_Dec_25_0817,untitled_groupA_k,2021.1.4,59.914681457745814,
48,picture\p09.tif,RB_right_01_42\RBY09.mp4,picture\p09.tif,0,55,55,47,,,,,,,2974.07794629992,2975.0852733000647,2975.068857999984,None,2978.0197928000707,2979.034496899927,3008.308857599972,None,3008.308857599972,None,4.258333333333334,8.987076200079173,3008.308857599972,None,4.300000000000001,10.536328100133687,3008.308857599972,None,1.3277777777777784,1.987488599959761,3008.308857599972,None,space,11.625537400133908,3008.308857599972,None,A,weigede,22,f,2021_Dec_25_0817,untitled_groupA_k,2021.1.4,59.914681457745814,
2,picture\p02.tif,BR_left_01_42\BRZ02.mp4,picture\p02.tif,0,56,56,1,,,,,,,3019.971911000088,3020.976250699954,3020.9607005999424,None,3023.9729847998824,3024.974232000066,3054.2724136998877,None,3054.2724136998877,None,3.9666666666666677,7.764602900017053,3054.2724136998877,None,1.313888888888889,6.516768099972978,3054.2724136998877,None,4.147222222222222,9.222234099870548,3054.2724136998877,None,space,9.511379100149497,3054.2724136998877,None,A,weigede,22,f,2021_Dec_25_0817,untitled_groupA_k,2021.1.4,59.914681457745814,
32,picture\p32.tif,BB_left_01_42\BBZ32.mp4,picture\p32.tif,0,57,57,31,,,,,,,3063.8105921999086,3064.8175226000603,3064.8012935000006,None,3068.2200219999067,3069.233957899967,3098.5233159998897,None,3098.5233159998897,None,4.133333333333334,2.8866705999244004,3098.5233159998897,None,4.105555555555556,7.705490800086409,3098.5233159998897,None,4.050000000000001,6.105091599980369,3098.5233159998897,None,space,8.366880200104788,3098.5233159998897,None,A,weigede,22,f,2021_Dec_25_0817,untitled_groupA_k,2021.1.4,59.914681457745814,
65,picture\p26.tif,RR_right_01_42\RRY26.mp4,picture\p26.tif,0,58,58,64,,,,,,,3106.9189462999348,3107.926088300068,3107.9097454999574,None,3110.8301550000906,3111.841637100093,3141.1322878999636,None,3141.1322878999636,None,5.897222222222222,3.8019954999908805,3141.1322878999636,None,4.063888888888889,5.740256700199097,3141.1322878999636,None,1.2166666666666672,2.071314600063488,3141.1322878999636,None,space,6.816722400020808,3141.1322878999636,None,A,weigede,22,f,2021_Dec_25_0817,untitled_groupA_k,2021.1.4,59.914681457745814,
15,picture\p15.tif,RR_left_01_42\RRZ15.mp4,picture\p15.tif,0,59,59,14,,,,,,,3147.976980400039,3148.984419199871,3148.9680993999355,None,3151.866654699901,3152.866720299935,3182.1775005999953,None,3182.1775005999953,None,6.091666666666667,1.6507079000584781,3182.1775005999953,None,4.105555555555556,7.10029730014503,3182.1775005999953,None,1.980555555555556,4.737467200029641,3182.1775005999953,None,space,7.397663699928671,3182.1775005999953,None,A,weigede,22,f,2021_Dec_25_0817,untitled_groupA_k,2021.1.4,59.914681457745814,
50,picture\p11.tif,RB_right_01_42\RBY11.mp4,picture\p11.tif,0,60,60,49,,,,,,,3189.601732299896,3190.60947460006,3190.5931925000623,None,3193.621737099951,3194.6244568000548,3223.9174591999035,None,3223.9174591999035,None,2.3277777777777784,10.252211000071838,3223.9174591999035,None,3.3000000000000007,2.938166700070724,3223.9174591999035,None,1.3555555555555556,5.615737700136378,3223.9174591999035,None,space,10.958995199995115,3223.9174591999035,None,A,weigede,22,f,2021_Dec_25_0817,untitled_groupA_k,2021.1.4,59.914681457745814,
64,picture\p25.tif,RR_right_01_42\RRY25.mp4,picture\p25.tif,0,61,61,63,,,,,,,3234.9118661000393,3235.915874700062,3235.8992528999224,None,3238.7600577999838,3239.766494799871,3269.05682529998,None,3269.05682529998,None,2.216666666666667,1.98751030000858,3269.05682529998,None,2.855555555555556,9.935688499826938,3269.05682529998,None,5.8694444444444445,6.656481699785218,3269.05682529998,None,space,13.190054799895734,3269.05682529998,None,A,weigede,22,f,2021_Dec_25_0817,untitled_groupA_k,2021.1.4,59.914681457745814,
21,picture\p21.tif,RR_left_01_42\RRZ21.mp4,picture\p21.tif,0,62,62,20,,,,,,,3282.2875753000844,3283.290754100075,3283.273740099976,None,3286.747960400069,3287.7575427999254,3317.0477996000554,None,3317.0477996000554,None,1.9944444444444445,3.037141599925235,3317.0477996000554,None,6.383333333333334,1.7208612998947501,3317.0477996000554,None,4.036111111111111,4.738547900225967,3317.0477996000554,None,space,5.426455300068483,3317.0477996000554,None,A,weigede,22,f,2021_Dec_25_0817,untitled_groupA_k,2021.1.4,59.914681457745814,
81,picture\p42.tif,BB_right_01_42\BBY42.mp4,picture\p42.tif,0,63,63,80,,,,,,,3322.509050599998,3323.5168025998864,3323.5003682000097,None,3326.397167699877,3327.3979458000977,3356.7064666999504,None,3356.7064666999504,None,4.091666666666667,2.9028691998682916,3356.7064666999504,None,4.188888888888888,5.637247000122443,3356.7064666999504,None,4.188888888888888,6.974956300109625,3356.7064666999504,None,space,7.380409799981862,3356.7064666999504,None,A,weigede,22,f,2021_Dec_25_0817,untitled_groupA_k,2021.1.4,59.914681457745814,
79,picture\p40.tif,BB_right_01_42\BBY40.mp4,picture\p40.tif,0,64,64,78,,,,,,,3364.116964600049,3365.1252639000304,3365.1088874000125,None,3368.518921199953,3369.5245159000624,3398.834471500013,None,3398.834471500013,None,4.0777777777777775,2.454546600114554,3398.834471500013,None,4.105555555555556,3.821064099902287,3398.834471500013,None,4.119444444444445,5.823203700128943,3398.834471500013,None,space,6.623634800082073,3398.834471500013,None,A,weigede,22,f,2021_Dec_25_0817,untitled_groupA_k,2021.1.4,59.914681457745814,
18,picture\p18.tif,RR_left_01_42\RRZ18.mp4,picture\p18.tif,0,65,65,17,,,,,,,3405.4935655998997,3406.5003211998846,3406.484136899933,None,3409.382288800087,3410.3831118999515,3439.690389299998,None,3439.690389299998,None,4.063888888888889,6.102024500025436,3439.690389299998,None,5.911111111111111,3.320646099979058,3439.690389299998,None,2.452777777777778,1.6568778997752815,3439.690389299998,None,space,7.272513899952173,3439.690389299998,None,A,weigede,22,f,2021_Dec_25_0817,untitled_groupA_k,2021.1.4,59.914681457745814,
60,picture\p21.tif,RR_right_01_42\RRY21.mp4,picture\p21.tif,0,66,66,59,,,,,,,3447.001765999943,3448.0089527000673,3447.9929907999467,None,3451.0139397000894,3452.0247541000135,3481.316651500063,None,3481.316651500063,None,2.0083333333333333,3.8852824999485165,3481.316651500063,None,6.244444444444445,2.239177400013432,3481.316651500063,None,4.022222222222222,6.322564899921417,3481.316651500063,None,space,6.698241600068286,3481.316651500063,None,A,weigede,22,f,2021_Dec_25_0817,untitled_groupA_k,2021.1.4,59.914681457745814,
80,picture\p41.tif,BB_right_01_42\BBY41.mp4,picture\p41.tif,0,67,67,79,,,,,,,3488.0426004000474,3489.050824600039,3489.035157999955,None,3492.024358100025,3493.0334608999547,3522.3262112000957,None,3522.3262112000957,None,4.0777777777777775,4.439039599848911,3522.3262112000957,None,4.050000000000001,2.938268099911511,3522.3262112000957,None,4.0777777777777775,1.95194480009377,3522.3262112000957,None,space,4.808513599913567,3522.3262112000957,None,A,weigede,22,f,2021_Dec_25_0817,untitled_groupA_k,2021.1.4,59.914681457745814,
24,picture\p24.tif,RR_left_01_42\RRZ24.mp4,picture\p24.tif,0,68,68,23,,,,,,,3527.169096000027,3528.1764368999284,3528.1615500999615,None,3531.0889582999516,3532.0922928999644,3561.3825795000885,None,3561.3825795000885,None,4.022222222222222,7.851917900145054,3561.3825795000885,None,6.022222222222222,4.536916599841788,3561.3825795000885,None,2.1194444444444445,6.388447899837047,3561.3825795000885,None,space,8.194182599894702,3561.3825795000885,None,A,weigede,22,f,2021_Dec_25_0817,untitled_groupA_k,2021.1.4,59.914681457745814,
74,picture\p35.tif,BB_right_01_42\BBY35.mp4,picture\p35.tif,0,69,69,73,,,,,,,3569.610853899969,3570.617461899994,3570.617461899994,None,3573.5441608000547,3574.5503863000777,3603.841452999972,None,3603.841452999972,None,4.147222222222222,2.25339990016073,3603.841452999972,None,4.105555555555556,7.323742900043726,3603.841452999972,None,4.0777777777777775,5.988876400049776,3603.841452999972,None,space,7.876465999986976,3603.841452999972,None,A,weigede,22,f,2021_Dec_25_0817,untitled_groupA_k,2021.1.4,59.914681457745814,
61,picture\p22.tif,RR_right_01_42\RRY22.mp4,picture\p22.tif,0,70,70,60,,,,,,,3611.751811400056,3612.759916299954,3612.743569199927,None,3615.6860187998973,3616.692558999872,3645.985300099943,None,3645.985300099943,None,5.841666666666667,2.403391700005159,3645.985300099943,None,4.272222222222223,8.68836409994401,3645.985300099943,None,1.369444444444445,4.288971100002527,3645.985300099943,None,space,9.18490709993057,3645.985300099943,None,A,weigede,22,f,2021_Dec_25_0817,untitled_groupA_k,2021.1.4,59.914681457745814,
30,picture\p30.tif,BB_left_01_42\BBZ30.mp4,picture\p30.tif,0,71,71,29,,,,,,,3655.209316799883,3656.217958699912,3656.1850018000696,None,3659.138956299983,3660.1506391998846,3689.427446400048,None,3689.427446400048,None,4.230555555555555,2.700715000042692,3689.427446400048,None,4.105555555555556,3.867474799975753,3689.427446400048,None,4.119444444444445,5.152738099917769,3689.427446400048,None,space,6.020709600066766,3689.427446400048,None,A,weigede,22,f,2021_Dec_25_0817,untitled_groupA_k,2021.1.4,59.914681457745814,
44,picture\p05.tif,RB_right_01_42\RBY05.mp4,picture\p05.tif,0,72,72,43,,,,,,,3695.488933000015,3696.4959036000073,3696.4770784000866,None,3699.9397799998987,3700.94270340004,3730.2348801000044,None,3730.2348801000044,None,1.7861111111111119,2.3038057000376284,3730.2348801000044,None,4.188888888888888,5.106784800067544,3730.2348801000044,None,4.258333333333334,3.9572556000202894,3730.2348801000044,None,space,5.436835100175813,3730.2348801000044,None,A,weigede,22,f,2021_Dec_25_0817,untitled_groupA_k,2021.1.4,59.914681457745814,
43,picture\p04.tif,RB_right_01_42\RBY04.mp4,picture\p04.tif,0,73,73,42,,,,,,,3735.7106435000896,3736.7188555998728,3736.702656999929,None,3739.598593499977,3740.599937699968,3769.924305099994,None,3769.924305099994,None,4.3694444444444445,4.072265600087121,3769.924305099994,None,1.6055555555555558,2.2541228998452425,3769.924305099994,None,4.411111111111111,5.676971900044009,3769.924305099994,None,space,6.281405500136316,3769.924305099994,None,A,weigede,22,f,2021_Dec_25_0817,untitled_groupA_k,2021.1.4,59.914681457745814,
53,picture\p14.tif,RB_right_01_42\RBY14.mp4,picture\p14.tif,0,74,74,52,,,,,,,3776.2371237000916,3777.24409809988,3777.228164500091,None,3780.135152099887,3781.1435060000513,3810.434205800062,None,3810.434205800062,None,3.9527777777777784,7.133797799935564,3810.434205800062,None,1.8972222222222221,3.7207166000735015,3810.434205800062,None,4.091666666666667,5.4456353997811675,3810.434205800062,None,space,8.635359300067648,3810.434205800062,None,A,weigede,22,f,2021_Dec_25_0817,untitled_groupA_k,2021.1.4,59.914681457745814,
72,picture\p33.tif,BB_right_01_42\BBY33.mp4,picture\p33.tif,0,75,75,71,,,,,,,3819.0953921000473,3820.102459900081,3820.086164300097,None,3822.990132499952,3824.0015859999694,3853.277754300041,None,3853.277754300041,None,3.9944444444444445,5.200943300034851,3853.277754300041,None,3.938888888888889,6.68748200009577,3853.277754300041,None,4.063888888888889,8.940177699783817,3853.277754300041,None,space,9.816066000144929,3853.277754300041,None,A,weigede,22,f,2021_Dec_25_0817,untitled_groupA_k,2021.1.4,59.914681457745814,
76,picture\p37.tif,BB_right_01_42\BBY37.mp4,picture\p37.tif,0,76,76,75,,,,,,,3863.118657300016,3864.126074699918,3864.1110328000505,None,3867.0047383999918,3868.00981660001,3897.303264999995,None,3897.303264999995,None,4.216666666666667,6.53468000004068,3897.303264999995,None,4.230555555555555,8.286451700143516,3897.303264999995,None,4.355555555555556,9.905338500160724,3897.303264999995,None,space,11.249495700001717,3897.303264999995,None,A,weigede,22,f,2021_Dec_25_0817,untitled_groupA_k,2021.1.4,59.914681457745814,
23,picture\p23.tif,RR_left_01_42\RRZ23.mp4,picture\p23.tif,0,77,77,22,,,,,,,3908.5964621000458,3909.6015880000778,3909.5851396999788,None,3912.5062188000884,3913.5174962000456,3942.8081441998947,None,3942.8081441998947,None,2.1055555555555556,3.655700800009072,3942.8081441998947,None,4.341666666666667,6.422810800140724,3942.8081441998947,None,6.230555555555556,5.0890881000086665,3942.8081441998947,None,space,6.751821700017899,3942.8081441998947,None,A,weigede,22,f,2021_Dec_25_0817,untitled_groupA_k,2021.1.4,59.914681457745814,
70,picture\p31.tif,RR_right_01_42\RRY31.mp4,picture\p31.tif,0,78,78,69,,,,,,,3949.602149500046,3950.610144099919,3950.5938281000126,None,3953.5223336000927,3954.5261498999316,3983.8187613000628,None,3983.8187613000628,None,6.258333333333333,6.149731500074267,3983.8187613000628,None,4.063888888888889,9.036727899918333,3983.8187613000628,None,1.9388888888888896,7.671545000048354,3983.8187613000628,None,space,9.592019099975005,3983.8187613000628,None,A,weigede,22,f,2021_Dec_25_0817,untitled_groupA_k,2021.1.4,59.914681457745814,
16,picture\p16.tif,RR_left_01_42\RRZ16.mp4,picture\p16.tif,0,79,79,15,,,,,,,3993.443814500002,3994.4514848000836,3994.4371380000375,None,3997.4274182000663,3998.433439400047,4027.7244271999225,None,4027.7244271999225,None,1.9944444444444445,4.454237499972805,4027.7244271999225,None,3.772222222222222,5.804243200225756,4027.7244271999225,None,6.911111111111111,1.9907726000528783,4027.7244271999225,None,space,9.378402600064874,4027.7244271999225,None,A,weigede,22,f,2021_Dec_25_0817,untitled_groupA_k,2021.1.4,59.914681457745814,
68,picture\p29.tif,RR_right_01_42\RRY29.mp4,picture\p29.tif,0,80,80,67,,,,,,,4037.135256299982,4038.142895200057,4038.126604199875,None,4041.5178549999837,4042.5251851000357,4071.8170113000087,None,4071.8170113000087,None,4.105555555555556,5.354505700059235,4071.8170113000087,None,6.383333333333334,2.2536794000770897,4071.8170113000087,None,1.4250000000000005,3.875753999920562,4071.8170113000087,None,space,5.505982999922708,4071.8170113000087,None,A,weigede,22,f,2021_Dec_25_0817,untitled_groupA_k,2021.1.4,59.914681457745814,
34,picture\p34.tif,BB_left_01_42\BBZ34.mp4,picture\p34.tif,0,81,81,33,,,,,,,4077.3609511998948,4078.3683422999457,4078.3520635000896,None,4081.343851600075,4082.3507672999986,4111.646716499934,None,4111.646716499934,None,4.161111111111111,1.3355516002047807,4111.646716499934,None,4.119444444444445,4.138817899860442,4111.646716499934,None,4.272222222222223,5.469113999977708,4111.646716499934,None,space,5.798666400136426,4111.646716499934,None,A,weigede,22,f,2021_Dec_25_0817,untitled_groupA_k,2021.1.4,59.914681457745814,
39,picture\p39.tif,BB_left_01_42\BBZ39.mp4,picture\p39.tif,0,82,82,38,,,,,,,4117.485641899984,4118.492354999995,4118.475983399898,None,4121.363423099974,4122.37643980002,4151.653428199934,None,4151.653428199934,None,4.147222222222222,3.8992288999725133,4151.653428199934,None,4.300000000000001,5.65082829981111,4151.653428199934,None,4.272222222222223,6.835064699873328,4151.653428199934,None,space,7.073860600125045,4151.653428199934,None,A,weigede,22,f,2021_Dec_25_0817,untitled_groupA_k,2021.1.4,59.914681457745814,
83,picture\p02.tif,BB_right_01_42\BBY02.mp4,picture\p02.tif,0,83,83,82,,,,,,,4158.762291299878,4159.768930699909,4159.752746399958,None,4162.686085500056,4163.7016598999035,4192.9919457000215,None,4192.9919457000215,None,4.147222222222222,2.1706373000051826,4192.9919457000215,None,4.272222222222223,3.606688200030476,4192.9919457000215,None,4.188888888888888,5.425758499884978,4192.9919457000215,None,space,5.8702225999441,4192.9919457000215,None,A,weigede,22,f,2021_Dec_25_0817,untitled_groupA_k,2021.1.4,59.914681457745814,
