Numb,picture_show,Video_1,picture_judge,trials.thisRepN,trials.thisTrialN,trials.thisN,trials.thisIndex,image_intr.started,image_intr.stopped,key_resp_intr.keys,key_resp_intr.rt,key_resp_intr.started,key_resp_intr.stopped,image_show_text.started,image_show_text.stopped,image_show.started,image_show.stopped,image_video_text.started,image_video_text.stopped,image_judge.started,image_judge.stopped,image_judge_text.started,image_judge_text.stopped,slider_left.response,slider_left.rt,slider_left.started,slider_left.stopped,slider_mid.response,slider_mid.rt,slider_mid.started,slider_mid.stopped,slider_right.response,slider_right.rt,slider_right.started,slider_right.stopped,key_resp_next.keys,key_resp_next.rt,key_resp_next.started,key_resp_next.stopped,group,participant,age,gender(m/f),date,expName,psychopyVersion,frameRate,
,,,,,,,,42.40513279999868,None,space,39.75609860000259,42.40513279999868,None,,,,,,,,,,,,,,,,,,,,,,,,,,,A,yurun,22,f,2021_Dec_27_1022,untitled_groupA_k,2021.1.4,59.93953299835353,
61,picture\p22.tif,RR_right_01_42\RRY22.mp4,picture\p22.tif,0,0,0,60,,,,,,,82.27527510000073,83.27526009999565,83.25851939999848,None,86.81298949999473,87.84227319999627,117.12528609999572,None,117.12528609999572,None,5.008333333333334,12.26564540000254,117.12528609999572,None,4.0777777777777775,127.16032899999846,117.12528609999572,None,2.9527777777777784,25.08448309999949,117.12528609999572,None,space,128.30008420000377,117.12528609999572,None,A,yurun,22,f,2021_Dec_27_1022,untitled_groupA_k,2021.1.4,59.93953299835353,
42,picture\p42.tif,BB_left_01_42\BBZ42.mp4,picture\p42.tif,0,1,1,41,,,,,,,245.46471329999622,246.4758886999989,246.4601913000006,None,249.36778439999762,250.37488389999635,279.664549299996,None,279.664549299996,None,4.050000000000001,8.901352300003055,279.664549299996,None,5.022222222222222,18.73462329999893,279.664549299996,None,6.022222222222222,27.470300100001623,279.664549299996,None,space,30.517625400003453,279.664549299996,None,A,yurun,22,f,2021_Dec_27_1022,untitled_groupA_k,2021.1.4,59.93953299835353,
77,picture\p38.tif,BB_right_01_42\BBY38.mp4,picture\p38.tif,0,2,2,76,,,,,,,310.23070789999474,311.2461989999938,311.22996159999457,None,314.13629019999644,315.144028799994,344.43618479999714,None,344.43618479999714,None,3.022222222222222,20.084725799999433,344.43618479999714,None,4.036111111111111,12.404193300004408,344.43618479999714,None,3.022222222222222,9.018829699998605,344.43618479999714,None,space,21.274060300005658,344.43618479999714,None,A,yurun,22,f,2021_Dec_27_1022,untitled_groupA_k,2021.1.4,59.93953299835353,
78,picture\p39.tif,BB_right_01_42\BBY39.mp4,picture\p39.tif,0,3,3,77,,,,,,,365.7565818000003,366.76860449999367,366.75225659999705,None,369.6990177999978,370.7012783999962,399.9918142999959,None,399.9918142999959,None,3.0500000000000007,11.769032500000321,399.9918142999959,None,3.0500000000000007,10.355188100002124,399.9918142999959,None,4.091666666666667,9.0522381999981,399.9918142999959,None,space,12.767651599999226,399.9918142999959,None,A,yurun,22,f,2021_Dec_27_1022,untitled_groupA_k,2021.1.4,59.93953299835353,
12,picture\p12.tif,BR_left_01_42\BRZ12.mp4,picture\p12.tif,0,4,4,11,,,,,,,412.7998912999974,413.8086672999998,413.7931438999949,None,417.15766909999365,418.15868999999657,447.4519717000003,None,447.4519717000003,None,3.9944444444444445,19.915364300002693,447.4519717000003,None,1.4111111111111114,9.982772199997271,447.4519717000003,None,2.063888888888889,23.733529899996938,447.4519717000003,None,space,28.37709310000355,447.4519717000003,None,A,yurun,22,f,2021_Dec_27_1022,untitled_groupA_k,2021.1.4,59.93953299835353,
70,picture\p31.tif,RR_right_01_42\RRY31.mp4,picture\p31.tif,0,5,5,69,,,,,,,475.8885086999944,476.89695959999517,476.8640513999999,None,479.76697669999703,480.77965449999465,510.07578189999913,None,510.07578189999913,None,5.036111111111111,11.582138799996756,510.07578189999913,None,2.966666666666667,15.898662299994612,510.07578189999913,None,2.0361111111111114,5.732292399996368,510.07578189999913,None,space,16.883120300000883,510.07578189999913,None,A,yurun,22,f,2021_Dec_27_1022,untitled_groupA_k,2021.1.4,59.93953299835353,
1,picture\p01.tif,BR_left_01_42\BRZ01.mp4,picture\p01.tif,0,6,6,0,,,,,,,527.0067324999982,528.0203048999974,528.0039837000004,None,530.8991179000004,531.9023084999935,561.1944980999979,None,561.1944980999979,None,3.6194444444444445,14.190203199999814,561.1944980999979,None,5.022222222222222,9.237427599997318,561.1944980999979,None,1.2583333333333337,4.456556199998886,561.1944980999979,None,space,23.697573800003738,561.1944980999979,None,A,yurun,22,f,2021_Dec_27_1022,untitled_groupA_k,2021.1.4,59.93953299835353,
81,picture\p42.tif,BB_right_01_42\BBY42.mp4,picture\p42.tif,0,7,7,80,,,,,,,584.9215411999976,585.9256113999945,585.9092967999968,None,588.7928061999992,589.8084791999936,619.0986047999977,None,619.0986047999977,None,4.383333333333334,25.700035300003947,619.0986047999977,None,3.480555555555556,16.81836420000036,619.0986047999977,None,5.091666666666667,11.070513099999516,619.0986047999977,None,space,26.527501099997608,619.0986047999977,None,A,yurun,22,f,2021_Dec_27_1022,untitled_groupA_k,2021.1.4,59.93953299835353,
32,picture\p32.tif,BB_left_01_42\BBZ32.mp4,picture\p32.tif,0,8,8,31,,,,,,,645.6691466999982,646.6833841999978,646.6640628999958,None,649.5946696999963,650.5965173999939,679.8878560999947,None,679.8878560999947,None,3.0916666666666672,10.336412800003018,679.8878560999947,None,3.0500000000000007,12.58552690000215,679.8878560999947,None,1.5638888888888893,4.403755600003933,679.8878560999947,None,space,13.949783500000194,679.8878560999947,None,A,yurun,22,f,2021_Dec_27_1022,untitled_groupA_k,2021.1.4,59.93953299835353,
8,picture\p08.tif,BR_left_01_42\BRZ08.mp4,picture\p08.tif,0,9,9,7,,,,,,,693.8760085999966,694.8874100999965,694.8712343000007,None,697.8123730999941,698.8201862999995,728.1110116999989,None,728.1110116999989,None,1.619444444444445,6.019052999996347,728.1110116999989,None,3.591666666666667,8.104047699998773,728.1110116999989,None,2.147222222222222,12.75377209999715,728.1110116999989,None,space,13.420409799997287,728.1110116999989,None,A,yurun,22,f,2021_Dec_27_1022,untitled_groupA_k,2021.1.4,59.93953299835353,
65,picture\p26.tif,RR_right_01_42\RRY26.mp4,picture\p26.tif,0,10,10,64,,,,,,,741.5852897999939,742.5949540999936,742.5786112999995,None,745.9655027999979,746.9764636999971,776.268951099999,None,776.268951099999,None,5.341666666666667,5.685851300004288,776.268951099999,None,3.980555555555555,26.248960400000215,776.268951099999,None,3.8694444444444445,18.036110799999733,776.268951099999,None,space,27.246371400004136,776.268951099999,None,A,yurun,22,f,2021_Dec_27_1022,untitled_groupA_k,2021.1.4,59.93953299835353,
68,picture\p29.tif,RR_right_01_42\RRY29.mp4,picture\p29.tif,0,11,11,67,,,,,,,803.5576786999954,804.5660212999937,804.5498252999969,None,807.4832313999941,808.4985382999948,837.8032045999935,None,837.8032045999935,None,4.3694444444444445,14.771081700004288,837.8032045999935,None,4.9944444444444445,4.027502599994477,837.8032045999935,None,3.105555555555556,6.094234900003357,837.8032045999935,None,space,15.830989899994165,837.8032045999935,None,A,yurun,22,f,2021_Dec_27_1022,untitled_groupA_k,2021.1.4,59.93953299835353,
49,picture\p10.tif,RB_right_01_42\RBY10.mp4,picture\p10.tif,0,12,12,48,,,,,,,853.668205199996,854.6729139999952,854.6566011999967,None,857.5278821999964,858.5387975999984,887.8295469999939,None,887.8295469999939,None,2.0361111111111114,19.801378500000283,887.8295469999939,None,2.9250000000000003,26.450203400003375,887.8295469999939,None,4.980555555555556,8.538597099999606,887.8295469999939,None,space,27.757649599996512,887.8295469999939,None,A,yurun,22,f,2021_Dec_27_1022,untitled_groupA_k,2021.1.4,59.93953299835353,
59,picture\p20.tif,RR_right_01_42\RRY20.mp4,picture\p20.tif,0,13,13,58,,,,,,,915.6328804000004,916.6439746999968,916.6279710999952,None,919.5346064999976,920.5418097999936,949.8508071999968,None,949.8508071999968,None,5.661111111111111,14.73691780000081,949.8508071999968,None,5.022222222222222,4.036974900001951,949.8508071999968,None,1.980555555555556,7.136841699997603,949.8508071999968,None,space,15.365280999998504,949.8508071999968,None,A,yurun,22,f,2021_Dec_27_1022,untitled_groupA_k,2021.1.4,59.93953299835353,
6,picture\p06.tif,BR_left_01_42\BRZ06.mp4,picture\p06.tif,0,14,14,5,,,,,,,965.2557276999942,966.2674216999949,966.2515856999962,None,969.1805772000007,970.1836737999984,999.4743638999935,None,999.4743638999935,None,2.5361111111111114,4.036971800000174,999.4743638999935,None,2.063888888888889,5.903694000000542,999.4743638999935,None,3.5638888888888896,9.90630709999823,999.4743638999935,None,space,10.317494900002202,999.4743638999935,None,A,yurun,22,f,2021_Dec_27_1022,untitled_groupA_k,2021.1.4,59.93953299835353,
51,picture\p12.tif,RB_right_01_42\RBY12.mp4,picture\p12.tif,0,15,15,50,,,,,,,1009.8197402000005,1010.8255919000003,1010.8092659999966,None,1013.7021582999951,1014.7082238000003,1044.0001059999995,None,1044.0001059999995,None,3.0916666666666672,9.870559099996171,1044.0001059999995,None,1.869444444444445,4.519342799998412,1044.0001059999995,None,2.147222222222222,6.988015299997642,1044.0001059999995,None,space,10.583508000003349,1044.0001059999995,None,A,yurun,22,f,2021_Dec_27_1022,untitled_groupA_k,2021.1.4,59.93953299835353,
75,picture\p36.tif,BB_right_01_42\BBY36.mp4,picture\p36.tif,0,16,16,74,,,,,,,1054.6224883999967,1055.6334512999965,1055.6171443999992,None,1058.9801100999975,1059.9826638999948,1089.2939097999988,None,1089.2939097999988,None,1.9666666666666668,5.514266999998654,1089.2939097999988,None,5.966666666666667,3.6474401999948896,1089.2939097999988,None,3.0500000000000007,8.020247599997674,1089.2939097999988,None,space,8.466461799995159,1089.2939097999988,None,A,yurun,22,f,2021_Dec_27_1022,untitled_groupA_k,2021.1.4,59.93953299835353,
9,picture\p09.tif,BR_left_01_42\BRZ09.mp4,picture\p09.tif,0,17,17,8,,,,,,,1097.8098182999966,1098.8250293999954,1098.8087031999967,None,1101.7539494999946,1102.757413499996,1132.0670473999999,None,1132.0670473999999,None,1.5361111111111119,9.662260099998093,1132.0670473999999,None,5.0777777777777775,13.989818100002594,1132.0670473999999,None,3.0500000000000007,7.751966999996512,1132.0670473999999,None,space,15.025722900005348,1132.0670473999999,None,A,yurun,22,f,2021_Dec_27_1022,untitled_groupA_k,2021.1.4,59.93953299835353,
11,picture\p11.tif,BR_left_01_42\BRZ11.mp4,picture\p11.tif,0,18,18,10,,,,,,,1147.1303909999988,1148.1319860999938,1148.115737799999,None,1150.9841562999936,1151.9979250999968,1181.2912050999948,None,1181.2912050999948,None,4.716666666666667,12.28447430000233,1181.2912050999948,None,3.744444444444445,6.516221500001848,1181.2912050999948,None,2.313888888888889,3.085624599996663,1181.2912050999948,None,space,12.767134499998065,1181.2912050999948,None,A,yurun,22,f,2021_Dec_27_1022,untitled_groupA_k,2021.1.4,59.93953299835353,
69,picture\p30.tif,RR_right_01_42\RRY30.mp4,picture\p30.tif,0,19,19,68,,,,,,,1194.0874339999937,1195.0894621999978,1195.0729862999942,None,1197.9474881999995,1198.9554789999966,1228.2456375999973,None,1228.2456375999973,None,3.3277777777777775,4.220636899997771,1228.2456375999973,None,5.216666666666667,5.803079999997863,1228.2456375999973,None,1.952777777777778,8.920389699997031,1228.2456375999973,None,space,11.529485699997167,1228.2456375999973,None,A,yurun,22,f,2021_Dec_27_1022,untitled_groupA_k,2021.1.4,59.93953299835353,
7,picture\p07.tif,BR_left_01_42\BRZ07.mp4,picture\p07.tif,0,20,20,6,,,,,,,1239.818133199995,1240.8305021999986,1240.8141849999956,None,1243.745153099997,1244.7461765999979,1274.038208399994,None,1274.038208399994,None,1.9944444444444445,8.834774099996139,1274.038208399994,None,2.675,5.970801399998891,1274.038208399994,None,3.5361111111111114,11.271602200002235,1274.038208399994,None,space,11.98320270000113,1274.038208399994,None,A,yurun,22,f,2021_Dec_27_1022,untitled_groupA_k,2021.1.4,59.93953299835353,
50,picture\p11.tif,RB_right_01_42\RBY11.mp4,picture\p11.tif,0,21,21,49,,,,,,,1286.0491497999974,1287.0547229000003,1287.0384775999992,None,1289.9769248999946,1290.9870817999981,1320.2775922,None,1320.2775922,None,4.022222222222222,12.417633800003387,1320.2775922,None,3.272222222222222,3.3194718999948236,1320.2775922,None,2.2027777777777775,5.2418726999967475,1320.2775922,None,space,12.943164700001944,1320.2775922,None,A,yurun,22,f,2021_Dec_27_1022,untitled_groupA_k,2021.1.4,59.93953299835353,
35,picture\p35.tif,BB_left_01_42\BBZ35.mp4,picture\p35.tif,0,22,22,34,,,,,,,1333.2618712999974,1334.262122,1334.2459049999961,None,1337.1473396000001,1338.1614857999957,1367.453190799999,None,1367.453190799999,None,5.105555555555556,2.453810799997882,1367.453190799999,None,2.4388888888888896,5.453909700001532,1367.453190799999,None,3.480555555555556,10.359595500005526,1367.453190799999,None,space,10.745864200005599,1367.453190799999,None,A,yurun,22,f,2021_Dec_27_1022,untitled_groupA_k,2021.1.4,59.93953299835353,
16,picture\p16.tif,RR_left_01_42\RRZ16.mp4,picture\p16.tif,0,23,23,15,,,,,,,1378.2362560999973,1379.2364849000005,1379.221530799994,None,1382.6224686999994,1383.6358024999936,1412.9263557999948,None,1412.9263557999948,None,3.3000000000000007,9.308047999998962,1412.9263557999948,None,3.3000000000000007,5.004459700001462,1412.9263557999948,None,4.9944444444444445,2.920757300002151,1412.9263557999948,None,space,9.929425300004368,1412.9263557999948,None,A,yurun,22,f,2021_Dec_27_1022,untitled_groupA_k,2021.1.4,59.93953299835353,
26,picture\p26.tif,RR_left_01_42\RRZ26.mp4,picture\p26.tif,0,24,24,25,,,,,,,1422.8901146999997,1423.894626399997,1423.8787531999988,None,1426.7962876999954,1427.8106019999977,1457.1006993999981,None,1457.1006993999981,None,5.036111111111111,3.3353875999964657,1457.1006993999981,None,2.5083333333333333,5.203756599999906,1457.1006993999981,None,3.591666666666667,8.506992199996603,1457.1006993999981,None,space,8.892686799998046,1457.1006993999981,None,A,yurun,22,f,2021_Dec_27_1022,untitled_groupA_k,2021.1.4,59.93953299835353,
41,picture\p41.tif,BB_left_01_42\BBZ41.mp4,picture\p41.tif,0,25,25,40,,,,,,,1466.0410201999985,1467.052681999994,1467.0364064999958,None,1469.9618177999946,1470.9687086999984,1500.2608370999951,None,1500.2608370999951,None,2.3833333333333337,7.12047000000166,1500.2608370999951,None,5.438888888888889,3.788925000000745,1500.2608370999951,None,3.3138888888888887,8.958090599997377,1500.2608370999951,None,space,10.65905510000448,1500.2608370999951,None,A,yurun,22,f,2021_Dec_27_1022,untitled_groupA_k,2021.1.4,59.93953299835353,
46,picture\p07.tif,RB_right_01_42\RBY07.mp4,picture\p07.tif,0,26,26,45,,,,,,,1510.9560141999973,1511.960644699997,1511.944325599994,None,1514.9126851999972,1515.9263494999977,1545.2197816999978,None,1545.2197816999978,None,2.2583333333333337,3.717929799997364,1545.2197816999978,None,2.938888888888889,6.335316299999249,1545.2197816999978,None,3.3000000000000007,13.870734700001776,1545.2197816999978,None,space,15.6522432999991,1545.2197816999978,None,A,yurun,22,f,2021_Dec_27_1022,untitled_groupA_k,2021.1.4,59.93953299835353,
67,picture\p28.tif,RR_right_01_42\RRY28.mp4,picture\p28.tif,0,27,27,66,,,,,,,1560.9149561999948,1561.9173808999985,1561.9011188000004,None,1564.791638499999,1565.799960599994,1595.0906082000001,None,1595.0906082000001,None,4.508333333333334,3.352049099994474,1595.0906082000001,None,2.5222222222222226,6.471060900003067,1595.0906082000001,None,3.827777777777778,15.022435599996243,1595.0906082000001,None,space,15.473938299997826,1595.0906082000001,None,A,yurun,22,f,2021_Dec_27_1022,untitled_groupA_k,2021.1.4,59.93953299835353,
76,picture\p37.tif,BB_right_01_42\BBY37.mp4,picture\p37.tif,0,28,28,75,,,,,,,1610.6084833999994,1611.6077765999944,1611.6077765999944,None,1615.0286228999976,1616.0401615999945,1645.3318972999987,None,1645.3318972999987,None,3.397222222222223,14.966890000003332,1645.3318972999987,None,4.036111111111111,17.266352599996026,1645.3318972999987,None,4.9944444444444445,19.786294999998063,1645.3318972999987,None,space,20.17641040000308,1645.3318972999987,None,A,yurun,22,f,2021_Dec_27_1022,untitled_groupA_k,2021.1.4,59.93953299835353,
13,picture\p13.tif,BR_left_01_42\BRZ13.mp4,picture\p13.tif,0,29,29,12,,,,,,,1665.553129,1666.5635197999945,1666.5472759999975,None,1669.4629795999936,1670.4788530000005,1699.7697715999966,None,1699.7697715999966,None,2.0361111111111114,4.019322899999679,1699.7697715999966,None,1.55,14.071387799995136,1699.7697715999966,None,2.8277777777777784,7.22342860000208,1699.7697715999966,None,space,14.948389099998167,1699.7697715999966,None,A,yurun,22,f,2021_Dec_27_1022,untitled_groupA_k,2021.1.4,59.93953299835353,
53,picture\p14.tif,RB_right_01_42\RBY14.mp4,picture\p14.tif,0,30,30,52,,,,,,,1714.755889299995,1715.7695797999986,1715.7550797999938,None,1719.0976656999992,1720.1031527999949,1749.3933589999942,None,1749.3933589999942,None,5.091666666666667,9.955128699999477,1749.3933589999942,None,2.063888888888889,3.937339099997189,1749.3933589999942,None,2.8416666666666672,7.620801800003392,1749.3933589999942,None,space,10.297917800002324,1749.3933589999942,None,A,yurun,22,f,2021_Dec_27_1022,untitled_groupA_k,2021.1.4,59.93953299835353,
84,picture\p03.tif,BB_right_01_42\BBY03.mp4,picture\p03.tif,0,31,31,83,,,,,,,1759.732937599998,1760.7449458999981,1760.7298042999973,None,1763.6456053999937,1764.6607999999978,1793.951412399998,None,1793.951412399998,None,4.133333333333334,2.987815899999987,1793.951412399998,None,2.0361111111111114,5.287229599998682,1793.951412399998,None,2.758333333333333,7.224998099998629,1793.951412399998,None,space,7.649667800003954,1793.951412399998,None,A,yurun,22,f,2021_Dec_27_1022,untitled_groupA_k,2021.1.4,59.93953299835353,
22,picture\p22.tif,RR_left_01_42\RRZ22.mp4,picture\p22.tif,0,32,32,21,,,,,,,1801.6287128999975,1802.6366558999944,1802.6200408000004,None,1805.5616917999942,1806.5686389999973,1835.8438967999973,None,1835.8438967999973,None,5.563888888888889,5.402957799997239,1835.8438967999973,None,4.036111111111111,10.187609100001282,1835.8438967999973,None,2.313888888888889,12.258358999999473,1835.8438967999973,None,space,12.7350929000022,1835.8438967999973,None,A,yurun,22,f,2021_Dec_27_1022,untitled_groupA_k,2021.1.4,59.93953299835353,
38,picture\p38.tif,BB_left_01_42\BBZ38.mp4,picture\p38.tif,0,33,33,37,,,,,,,1848.6230141999986,1849.6276851999937,1849.6112971999974,None,1852.5412352999992,1853.5435734999992,1882.8332502999983,None,1882.8332502999983,None,4.397222222222222,7.72008979999373,1882.8332502999983,None,4.105555555555556,13.236485099994752,1882.8332502999983,None,5.050000000000001,17.506692300004943,1882.8332502999983,None,space,18.10363480000524,1882.8332502999983,None,A,yurun,22,f,2021_Dec_27_1022,untitled_groupA_k,2021.1.4,59.93953299835353,
55,picture\p16.tif,RB_right_01_42\RBY16.mp4,picture\p16.tif,0,34,34,54,,,,,,,1900.9781634999963,1901.9827586999963,1901.9682103999949,None,1904.8846191999983,1905.899816899997,1935.1903282999992,None,1935.1903282999992,None,2.05,4.435992500002612,1935.1903282999992,None,1.5361111111111119,9.653529600000184,1935.1903282999992,None,2.661111111111111,14.857145399997535,1935.1903282999992,None,space,15.314414299995406,1935.1903282999992,None,A,yurun,22,f,2021_Dec_27_1022,untitled_groupA_k,2021.1.4,59.93953299835353,
2,picture\p02.tif,BR_left_01_42\BRZ02.mp4,picture\p02.tif,0,35,35,1,,,,,,,1950.5428147999992,1951.5576784000004,1951.5414230999959,None,1954.5730822999976,1955.5735404000006,1984.8653658999974,None,1984.8653658999974,None,3.6472222222222226,13.135150299996894,1984.8653658999974,None,2.480555555555556,11.152921299995796,1984.8653658999974,None,1.9388888888888896,6.874519999997574,1984.8653658999974,None,space,13.774877899995772,1984.8653658999974,None,A,yurun,22,f,2021_Dec_27_1022,untitled_groupA_k,2021.1.4,59.93953299835353,
79,picture\p40.tif,BB_right_01_42\BBY40.mp4,picture\p40.tif,0,36,36,78,,,,,,,1998.687944899997,1999.6981998999981,1999.6818819999971,None,2002.6150065999973,2003.614175499999,2032.9213796999975,None,2032.9213796999975,None,4.188888888888888,7.402184400001715,2032.9213796999975,None,2.2444444444444454,10.454473699996015,2032.9213796999975,None,4.9944444444444445,9.090700099994137,2032.9213796999975,None,space,10.71792209999694,2032.9213796999975,None,A,yurun,22,f,2021_Dec_27_1022,untitled_groupA_k,2021.1.4,59.93953299835353,
57,picture\p18.tif,RR_right_01_42\RRY18.mp4,picture\p18.tif,0,37,37,56,,,,,,,2043.6735884999944,2044.6727575999976,2044.6727575999976,None,2048.0621239999964,2049.0719271999988,2078.364756799994,None,2078.364756799994,None,5.06388888888889,14.447613500000443,2078.364756799994,None,4.0777777777777775,16.11718720000499,2078.364756799994,None,2.369444444444445,11.30633079999825,2078.364756799994,None,space,16.62245940000139,2078.364756799994,None,A,yurun,22,f,2021_Dec_27_1022,untitled_groupA_k,2021.1.4,59.93953299835353,
43,picture\p04.tif,RB_right_01_42\RBY04.mp4,picture\p04.tif,0,38,38,42,,,,,,,2095.035503399995,2096.045869099995,2096.0300793999995,None,2098.929878799994,2099.9448702999944,2129.2362499999945,None,2129.2362499999945,None,2.966666666666667,5.752900200001022,2129.2362499999945,None,2.1194444444444445,3.6362233999971068,2129.2362499999945,None,3.605555555555556,10.605966700000863,2129.2362499999945,None,space,11.00481349999609,2129.2362499999945,None,A,yurun,22,f,2021_Dec_27_1022,untitled_groupA_k,2021.1.4,59.93953299835353,
27,picture\p27.tif,RR_left_01_42\RRZ27.mp4,picture\p27.tif,0,39,39,26,,,,,,,2140.2932382,2141.303757499998,2141.2874891999963,None,2144.3512446999957,2145.353012499996,2174.6426603,None,2174.6426603,None,4.438888888888889,11.552771200003917,2174.6426603,None,3.6194444444444445,13.520929499994963,2174.6426603,None,2.994444444444445,16.539401899994118,2174.6426603,None,space,17.176162000003387,2174.6426603,None,A,yurun,22,f,2021_Dec_27_1022,untitled_groupA_k,2021.1.4,59.93953299835353,
64,picture\p25.tif,RR_right_01_42\RRY25.mp4,picture\p25.tif,0,40,40,63,,,,,,,2191.8649628999992,2192.876954399995,2192.860535,None,2195.7671826000005,2196.7761552999946,2226.067078699998,None,2226.067078699998,None,3.2027777777777784,11.20136790000106,2226.067078699998,None,2.05,12.722832599996764,2226.067078699998,None,5.036111111111111,5.421489600004861,2226.067078699998,None,space,13.253756500002055,2226.067078699998,None,A,yurun,22,f,2021_Dec_27_1022,untitled_groupA_k,2021.1.4,59.93953299835353,
52,picture\p13.tif,RB_right_01_42\RBY13.mp4,picture\p13.tif,0,41,41,51,,,,,,,2239.3616725999964,2240.3690752999973,2240.351380799999,None,2243.2866859999995,2244.300134499994,2273.5927464999986,None,2273.5927464999986,None,5.008333333333334,5.537261299999955,2273.5927464999986,None,2.0777777777777784,8.573235800002294,2273.5927464999986,None,3.411111111111112,7.1234803999977885,2273.5927464999986,None,space,9.100509100004274,2273.5927464999986,None,A,yurun,22,f,2021_Dec_27_1022,untitled_groupA_k,2021.1.4,59.93953299835353,
39,picture\p39.tif,BB_left_01_42\BBZ39.mp4,picture\p39.tif,0,42,42,38,,,,,,,2282.717524599997,2283.7257471999983,2283.709087199997,None,2286.6248395000002,2287.6402591000005,2316.9306266999993,None,2316.9306266999993,None,4.036111111111111,9.153694400003587,2316.9306266999993,None,4.841666666666667,10.671013899998798,2316.9306266999993,None,2.9805555555555556,12.355598599999212,2316.9306266999993,None,space,13.263898099998187,2316.9306266999993,None,A,yurun,22,f,2021_Dec_27_1022,untitled_groupA_k,2021.1.4,59.93953299835353,
30,picture\p30.tif,BB_left_01_42\BBZ30.mp4,picture\p30.tif,0,43,43,29,,,,,,,2330.228744,2331.232927899997,2331.2172176999957,None,2334.107758399994,2335.1156185999935,2364.4089655999996,None,2364.4089655999996,None,4.022222222222222,5.599337599996943,2364.4089655999996,None,5.050000000000001,3.6682784000004176,2364.4089655999996,None,2.0777777777777784,7.388214999999036,2364.4089655999996,None,space,7.706787999995868,2364.4089655999996,None,A,yurun,22,f,2021_Dec_27_1022,untitled_groupA_k,2021.1.4,59.93953299835353,
48,picture\p09.tif,RB_right_01_42\RBY09.mp4,picture\p09.tif,0,44,44,47,,,,,,,2372.151072099994,2373.1579817999955,2373.1424034999945,None,2376.5352944999977,2377.540822799994,2406.8310975999993,None,2406.8310975999993,None,1.7861111111111119,15.766289099999995,2406.8310975999993,None,3.022222222222222,9.969252199996845,2406.8310975999993,None,2.563888888888889,5.8566299000012805,2406.8310975999993,None,space,16.231745999997656,2406.8310975999993,None,A,yurun,22,f,2021_Dec_27_1022,untitled_groupA_k,2021.1.4,59.93953299835353,
25,picture\p25.tif,RR_left_01_42\RRZ25.mp4,picture\p25.tif,0,45,45,24,,,,,,,2423.0921103,2424.098217299994,2424.0818753999993,None,2426.965720699998,2427.9642547999974,2457.2730943999995,None,2457.2730943999995,None,3.577777777777778,5.121238599997014,2457.2730943999995,None,3.0500000000000007,6.3891463999971165,2457.2730943999995,None,5.050000000000001,2.921156600001268,2457.2730943999995,None,space,6.7174174999963725,2457.2730943999995,None,A,yurun,22,f,2021_Dec_27_1022,untitled_groupA_k,2021.1.4,59.93953299835353,
74,picture\p35.tif,BB_right_01_42\BBY35.mp4,picture\p35.tif,0,46,46,73,,,,,,,2464.0154072000005,2465.024992599996,2465.0078412999937,None,2467.9555743999954,2468.9564723000003,2498.2493101,None,2498.2493101,None,5.730555555555556,3.004124999999476,2498.2493101,None,3.466666666666667,6.036629200003517,2498.2493101,None,2.8416666666666672,7.440814800000226,2498.2493101,None,space,11.257935300003737,2498.2493101,None,A,yurun,22,f,2021_Dec_27_1022,untitled_groupA_k,2021.1.4,59.93953299835353,
66,picture\p27.tif,RR_right_01_42\RRY27.mp4,picture\p27.tif,0,47,47,65,,,,,,,2509.541934699999,2510.5480332000006,2510.5317978999956,None,2513.450276699994,2514.462529699995,2543.756609199998,None,2543.756609199998,None,2.716666666666667,10.686440199999197,2543.756609199998,None,4.411111111111111,9.25338069999998,2543.756609199998,None,3.897222222222222,6.702568900000188,2543.756609199998,None,space,124.67573700000503,2543.756609199998,None,A,yurun,22,f,2021_Dec_27_1022,untitled_groupA_k,2021.1.4,59.93953299835353,
33,picture\p33.tif,BB_left_01_42\BBZ33.mp4,picture\p33.tif,0,48,48,32,,,,,,,2668.473763899994,2669.4834257999973,2669.467214299999,None,2672.371780499998,2673.382907399995,2702.673278399998,None,2702.673278399998,None,3.980555555555555,7.519832600002701,2702.673278399998,None,5.06388888888889,4.171562799994717,2702.673278399998,None,2.8277777777777784,10.703709100002015,2702.673278399998,None,space,11.490535100005218,2702.673278399998,None,A,yurun,22,f,2021_Dec_27_1022,untitled_groupA_k,2021.1.4,59.93953299835353,
17,picture\p17.tif,RR_left_01_42\RRZ17.mp4,picture\p17.tif,0,49,49,16,,,,,,,2714.2031467999986,2715.207792699999,2715.1914689999976,None,2718.563733199997,2719.5736887999956,2748.8640842999957,None,2748.8640842999957,None,2.494444444444445,10.185628900006122,2748.8640842999957,None,1.813888888888889,11.854411399996025,2748.8640842999957,None,3.411111111111112,5.924255199999607,2748.8640842999957,None,space,12.458375099995465,2748.8640842999957,None,A,yurun,22,f,2021_Dec_27_1022,untitled_groupA_k,2021.1.4,59.93953299835353,
18,picture\p18.tif,RR_left_01_42\RRZ18.mp4,picture\p18.tif,0,50,50,17,,,,,,,2761.359959399997,2762.3652086999937,2762.3488881999947,None,2765.245419299994,2766.2477681999953,2795.5412307000006,None,2795.5412307000006,None,4.772222222222222,6.852136199995584,2795.5412307000006,None,3.105555555555556,4.536060400001588,2795.5412307000006,None,1.9250000000000003,8.971003799997561,2795.5412307000006,None,space,9.496731599996565,2795.5412307000006,None,A,yurun,22,f,2021_Dec_27_1022,untitled_groupA_k,2021.1.4,59.93953299835353,
40,picture\p40.tif,BB_left_01_42\BBZ40.mp4,picture\p40.tif,0,51,51,39,,,,,,,2805.0645716,2806.0733282,2806.0571296999988,None,2808.910903799995,2809.922584199994,2839.2176710999993,None,2839.2176710999993,None,3.5083333333333337,4.3653162000045995,2839.2176710999993,None,2.9527777777777784,12.816493099999207,2839.2176710999993,None,4.175,9.383967900001153,2839.2176710999993,None,space,13.453912600001786,2839.2176710999993,None,A,yurun,22,f,2021_Dec_27_1022,untitled_groupA_k,2021.1.4,59.93953299835353,
28,picture\p28.tif,RR_left_01_42\RRZ28.mp4,picture\p28.tif,0,52,52,27,,,,,,,2852.707982199994,2853.7139857,2853.697598299994,None,2856.6362907999937,2857.646329199997,2886.9365944999954,None,2886.9365944999954,None,4.2444444444444445,3.724601999994775,2886.9365944999954,None,2.063888888888889,6.804823400001624,2886.9365944999954,None,3.0638888888888887,8.456596399999398,2886.9365944999954,None,space,9.085600000005797,2886.9365944999954,None,A,yurun,22,f,2021_Dec_27_1022,untitled_groupA_k,2021.1.4,59.93953299835353,
14,picture\p14.tif,BR_left_01_42\BRZ14.mp4,picture\p14.tif,0,53,53,13,,,,,,,2896.0481105,2897.055428199994,2897.039055699999,None,2899.957306999997,2900.971469199998,2930.261067899999,None,2930.261067899999,None,5.0777777777777775,7.889956899998651,2930.261067899999,None,2.758333333333333,3.554797699995106,2930.261067899999,None,2.313888888888889,5.7086238999982015,2930.261067899999,None,space,8.30594349999592,2930.261067899999,None,A,yurun,22,f,2021_Dec_27_1022,untitled_groupA_k,2021.1.4,59.93953299835353,
44,picture\p05.tif,RB_right_01_42\RBY05.mp4,picture\p05.tif,0,54,54,43,,,,,,,2938.6066408999977,2939.6137157999983,2939.5975034000003,None,2942.548547999999,2943.562830499999,2972.8539206999994,None,2972.8539206999994,None,2.216666666666667,3.4707230999993044,2972.8539206999994,None,4.675000000000001,8.418913699999393,2972.8539206999994,None,3.5638888888888896,9.940799700001662,2972.8539206999994,None,space,10.499127499999304,2972.8539206999994,None,A,yurun,22,f,2021_Dec_27_1022,untitled_groupA_k,2021.1.4,59.93953299835353,
56,picture\p17.tif,RB_right_01_42\RBY17.mp4,picture\p17.tif,0,55,55,55,,,,,,,2983.3820825000003,2984.388238599997,2984.3722177999953,None,2987.288752399996,2988.304064199998,3017.5965668999997,None,3017.5965668999997,None,2.758333333333333,11.870038099994417,3017.5965668999997,None,2.3833333333333337,2.6545158000008087,3017.5965668999997,None,3.2027777777777784,13.872305299999425,3017.5965668999997,None,space,14.31807189999381,3017.5965668999997,None,A,yurun,22,f,2021_Dec_27_1022,untitled_groupA_k,2021.1.4,59.93953299835353,
3,picture\p03.tif,BR_left_01_42\BRZ03.mp4,picture\p03.tif,0,56,56,2,,,,,,,3031.9567282999997,3032.962109299995,3032.945879799998,None,3036.2287335999936,3037.2279168999958,3066.5370542999954,None,3066.5370542999954,None,3.355555555555556,10.1659284999987,3066.5370542999954,None,2.6055555555555556,3.2025825000018813,3066.5370542999954,None,2.1333333333333337,7.604406699996616,3066.5370542999954,None,space,10.624368900003901,3066.5370542999954,None,A,yurun,22,f,2021_Dec_27_1022,untitled_groupA_k,2021.1.4,59.93953299835353,
34,picture\p34.tif,BB_left_01_42\BBZ34.mp4,picture\p34.tif,0,57,57,33,,,,,,,3077.215336699999,3078.219948699996,3078.203445399995,None,3081.1464965999985,3082.1525384999986,3111.4427947000004,None,3111.4427947000004,None,5.0777777777777775,6.8525856000051135,3111.4427947000004,None,2.1888888888888896,5.436409200003254,3111.4427947000004,None,2.8694444444444445,3.6873309000002337,3111.4427947000004,None,space,7.168221100000665,3111.4427947000004,None,A,yurun,22,f,2021_Dec_27_1022,untitled_groupA_k,2021.1.4,59.93953299835353,
36,picture\p36.tif,BB_left_01_42\BBZ36.mp4,picture\p36.tif,0,58,58,35,,,,,,,3118.6379027999938,3119.6451211999956,3119.628801599996,None,3122.5753996999993,3123.577789499999,3152.8681488,None,3152.8681488,None,2.675,9.47047449999809,3152.8681488,None,2.4111111111111114,7.4371841000029235,3152.8681488,None,3.105555555555556,14.173727100001997,3152.8681488,None,space,16.948725499998545,3152.8681488,None,A,yurun,22,f,2021_Dec_27_1022,untitled_groupA_k,2021.1.4,59.93953299835353,
82,picture\p01.tif,BB_right_01_42\BBY01.mp4,picture\p01.tif,0,59,59,81,,,,,,,3169.8461979999993,3170.851731499999,3170.835308099995,None,3173.756198999996,3174.7674090999935,3204.0607827999993,None,3204.0607827999993,None,3.7583333333333337,8.969201300002169,3204.0607827999993,None,2.7861111111111114,4.52028319999954,3204.0607827999993,None,2.3555555555555556,6.571406600000046,3204.0607827999993,None,space,9.483677800002624,3204.0607827999993,None,A,yurun,22,f,2021_Dec_27_1022,untitled_groupA_k,2021.1.4,59.93953299835353,
19,picture\p19.tif,RR_left_01_42\RRZ19.mp4,picture\p19.tif,0,60,60,18,,,,,,,3213.5955149999936,3214.6086221000005,3214.5922423999946,None,3217.486531499999,3218.492426099998,3247.7840087000004,None,3247.7840087000004,None,1.9388888888888896,8.634635700000217,3247.7840087000004,None,2.966666666666667,14.652620000000752,3247.7840087000004,None,2.3416666666666672,11.020593300003384,3247.7840087000004,None,space,15.086194600000454,3247.7840087000004,None,A,yurun,22,f,2021_Dec_27_1022,untitled_groupA_k,2021.1.4,59.93953299835353,
31,picture\p31.tif,BB_left_01_42\BBZ31.mp4,picture\p31.tif,0,61,61,30,,,,,,,3262.911360799997,3263.915425399995,3263.898656599995,None,3266.788918899998,3267.7978854999965,3297.088830199995,None,3297.088830199995,None,3.1333333333333337,5.086532000001171,3297.088830199995,None,4.397222222222222,10.369760100002168,3297.088830199995,None,2.1333333333333337,8.889365100003488,3297.088830199995,None,space,10.814495599996008,3297.088830199995,None,A,yurun,22,f,2021_Dec_27_1022,untitled_groupA_k,2021.1.4,59.93953299835353,
15,picture\p15.tif,RR_left_01_42\RRZ15.mp4,picture\p15.tif,0,62,62,14,,,,,,,3307.9365892999995,3308.9413579999964,3308.9251955,None,3311.8591540999987,3312.8739235999965,3342.165338699997,None,3342.165338699997,None,4.438888888888889,4.583788600000844,3342.165338699997,None,2.6194444444444445,8.36856540000008,3342.165338699997,None,2.0222222222222226,9.706558800004132,3342.165338699997,None,space,10.042863800001214,3342.165338699997,None,A,yurun,22,f,2021_Dec_27_1022,untitled_groupA_k,2021.1.4,59.93953299835353,
80,picture\p41.tif,BB_right_01_42\BBY41.mp4,picture\p41.tif,0,63,63,79,,,,,,,3352.242583399995,3353.2490297999975,3353.233021699998,None,3356.572842099995,3357.5818928999943,3386.8712042999978,None,3386.8712042999978,None,2.397222222222223,7.8690176000018255,3386.8712042999978,None,3.216666666666667,6.18563439999707,3386.8712042999978,None,4.105555555555556,10.17235570000048,3386.8712042999978,None,space,10.577485000001616,3386.8712042999978,None,A,yurun,22,f,2021_Dec_27_1022,untitled_groupA_k,2021.1.4,59.93953299835353,
60,picture\p21.tif,RR_right_01_42\RRY21.mp4,picture\p21.tif,0,64,64,59,,,,,,,3397.498679899996,3398.5069918999943,3398.4740447000004,None,3401.3654941999994,3402.3731521999944,3431.662344199998,None,3431.662344199998,None,3.9527777777777784,10.951812799998152,3431.662344199998,None,4.911111111111111,17.151374100001703,3431.662344199998,None,3.591666666666667,15.504435199996806,3431.662344199998,None,space,17.550173900002846,3431.662344199998,None,A,yurun,22,f,2021_Dec_27_1022,untitled_groupA_k,2021.1.4,59.93953299835353,
62,picture\p23.tif,RR_right_01_42\RRY23.mp4,picture\p23.tif,0,65,65,61,,,,,,,3449.2553607999944,3450.2634035999945,3450.2305326999995,None,3453.6912177999984,3454.696127999996,3484.0085406,None,3484.0085406,None,3.022222222222222,12.597091199997521,3484.0085406,None,4.425000000000001,22.112100700003793,3484.0085406,None,3.772222222222222,23.983763800002635,3484.0085406,None,space,24.441612099995837,3484.0085406,None,A,yurun,22,f,2021_Dec_27_1022,untitled_groupA_k,2021.1.4,59.93953299835353,
45,picture\p06.tif,RB_right_01_42\RBY06.mp4,picture\p06.tif,0,66,66,44,,,,,,,3508.480781399994,3509.4852243999994,3509.469027399995,None,3512.3572232000006,3513.366451499998,3542.661140299999,None,3542.661140299999,None,3.0361111111111114,8.851150299997244,3542.661140299999,None,2.480555555555556,10.950129500000912,3542.661140299999,None,4.341666666666667,13.486713500002224,3542.661140299999,None,space,13.873046599997906,3542.661140299999,None,A,yurun,22,f,2021_Dec_27_1022,untitled_groupA_k,2021.1.4,59.93953299835353,
83,picture\p02.tif,BB_right_01_42\BBY02.mp4,picture\p02.tif,0,67,67,82,,,,,,,3556.5715655999957,3557.575787599999,3557.559581399997,None,3560.482899099996,3561.4916522999993,3590.782932299997,None,3590.782932299997,None,3.8000000000000003,5.5528207999959704,3590.782932299997,None,2.8833333333333337,7.7705117000004975,3590.782932299997,None,2.1750000000000007,11.590579200004868,3590.782932299997,None,space,12.499088999997184,3590.782932299997,None,A,yurun,22,f,2021_Dec_27_1022,untitled_groupA_k,2021.1.4,59.93953299835353,
71,picture\p32.tif,BB_right_01_42\BBY32.mp4,picture\p32.tif,0,68,68,70,,,,,,,3603.310453399994,3604.3166767999937,3604.3024204999965,None,3607.1870839999974,3608.1993621,3637.490156199994,None,3637.490156199994,None,4.841666666666667,3.8858771000013803,3637.490156199994,None,2.7027777777777784,7.520338599999377,3637.490156199994,None,1.7166666666666672,10.22293460000219,3637.490156199994,None,space,10.83820299999934,3637.490156199994,None,A,yurun,22,f,2021_Dec_27_1022,untitled_groupA_k,2021.1.4,59.93953299835353,
58,picture\p19.tif,RR_right_01_42\RRY19.mp4,picture\p19.tif,0,69,69,57,,,,,,,3648.369424699995,3649.3747278999945,3649.358587499999,None,3652.247755999997,3653.257095599998,3682.550229099994,None,3682.550229099994,None,2.577777777777778,12.3509825000001,3682.550229099994,None,3.9111111111111114,10.251594499997736,3682.550229099994,None,3.3277777777777775,6.217209500005993,3682.550229099994,None,space,14.229993499997363,3682.550229099994,None,A,yurun,22,f,2021_Dec_27_1022,untitled_groupA_k,2021.1.4,59.93953299835353,
24,picture\p24.tif,RR_left_01_42\RRZ24.mp4,picture\p24.tif,0,70,70,23,,,,,,,3696.8216651999974,3697.831633599999,3697.8155581999963,None,3701.145318199997,3702.1475446999975,3731.4406371000005,None,3731.4406371000005,None,3.3833333333333337,24.94684249999409,3731.4406371000005,None,5.147222222222222,16.667953399999533,3731.4406371000005,None,4.425000000000001,20.186275300002308,3731.4406371000005,None,space,25.4292271000013,3731.4406371000005,None,A,yurun,22,f,2021_Dec_27_1022,untitled_groupA_k,2021.1.4,59.93953299835353,
5,picture\p05.tif,BR_left_01_42\BRZ05.mp4,picture\p05.tif,0,71,71,4,,,,,,,3756.8985089999987,3757.902074599995,3757.8851327999946,None,3760.866499699994,3761.8691066999963,3791.160774199998,None,3791.160774199998,None,3.0361111111111114,7.184324599998945,3791.160774199998,None,4.5777777777777775,10.936657700003707,3791.160774199998,None,2.758333333333333,8.870019199996023,3791.160774199998,None,space,11.287503599996853,3791.160774199998,None,A,yurun,22,f,2021_Dec_27_1022,untitled_groupA_k,2021.1.4,59.93953299835353,
37,picture\p37.tif,BB_left_01_42\BBZ37.mp4,picture\p37.tif,0,72,72,36,,,,,,,3802.4882138999965,3803.4942575999958,3803.4779656999963,None,3806.453022099995,3807.460210199999,3836.7823000999997,None,3836.7823000999997,None,2.3,8.63983559999906,3836.7823000999997,None,3.0916666666666672,7.0401192999997875,3836.7823000999997,None,4.327777777777778,11.571230699999433,3836.7823000999997,None,space,12.01791239999875,3836.7823000999997,None,A,yurun,22,f,2021_Dec_27_1022,untitled_groupA_k,2021.1.4,59.93953299835353,
54,picture\p15.tif,RB_right_01_42\RBY15.mp4,picture\p15.tif,0,73,73,53,,,,,,,3848.8306222999963,3849.8351774999974,3849.8188133000003,None,3852.7598395999958,3853.7675998999985,3883.0586036999957,None,3883.0586036999957,None,5.425000000000001,7.717236999997112,3883.0586036999957,None,2.938888888888889,3.736754800003837,3883.0586036999957,None,2.2722222222222226,5.738508200003707,3883.0586036999957,None,space,8.226427699999476,3883.0586036999957,None,A,yurun,22,f,2021_Dec_27_1022,untitled_groupA_k,2021.1.4,59.93953299835353,
47,picture\p08.tif,RB_right_01_42\RBY08.mp4,picture\p08.tif,0,74,74,46,,,,,,,3891.3199150999935,3892.326823399999,3892.3104767999976,None,3895.1876496999976,3896.192731199997,3925.4866681999993,None,3925.4866681999993,None,2.480555555555556,32.2281307000012,3925.4866681999993,None,3.0500000000000007,24.94502819999616,3925.4866681999993,None,2.5500000000000007,34.73057539999718,3925.4866681999993,None,space,35.18565220000164,3925.4866681999993,None,A,yurun,22,f,2021_Dec_27_1022,untitled_groupA_k,2021.1.4,59.93953299835353,
10,picture\p10.tif,BR_left_01_42\BRZ10.mp4,picture\p10.tif,0,75,75,9,,,,,,,3960.708044299994,3961.713171699994,3961.6975487999953,None,3964.6147963999974,3965.6291331999964,3994.9197602999993,None,3994.9197602999993,None,2.1611111111111114,12.770824200000789,3994.9197602999993,None,3.744444444444445,10.251992500001506,3994.9197602999993,None,3.0361111111111114,8.720436899995548,3994.9197602999993,None,space,13.166062199998123,3994.9197602999993,None,A,yurun,22,f,2021_Dec_27_1022,untitled_groupA_k,2021.1.4,59.93953299835353,
23,picture\p23.tif,RR_left_01_42\RRZ23.mp4,picture\p23.tif,0,76,76,22,,,,,,,4008.1151534999954,4009.1205850999977,4009.1041463,None,4012.453678699996,4013.4530589999995,4042.7600565999965,None,4042.7600565999965,None,3.411111111111112,19.619880899997952,4042.7600565999965,None,4.0777777777777775,17.564849700000195,4042.7600565999965,None,5.133333333333333,15.018264699996507,4042.7600565999965,None,space,20.782546299997193,4042.7600565999965,None,A,yurun,22,f,2021_Dec_27_1022,untitled_groupA_k,2021.1.4,59.93953299835353,
72,picture\p33.tif,BB_right_01_42\BBY33.mp4,picture\p33.tif,0,77,77,71,,,,,,,4063.571056099994,4064.5763052999973,4064.5600610999973,None,4067.4997335000007,4068.5089095000003,4097.8009724,None,4097.8009724,None,3.897222222222222,8.320257100000163,4097.8009724,None,4.536111111111111,5.884512299999187,4097.8009724,None,3.397222222222223,10.02361579999706,4097.8009724,None,space,10.398613999997906,4097.8009724,None,A,yurun,22,f,2021_Dec_27_1022,untitled_groupA_k,2021.1.4,59.93953299835353,
73,picture\p34.tif,BB_right_01_42\BBY34.mp4,picture\p34.tif,0,78,78,72,,,,,,,4108.2294215,4109.234304699996,4109.217980699999,None,4112.2159618000005,4113.216873400001,4142.513568199996,None,4142.513568199996,None,4.869444444444445,4.200815000003786,4142.513568199996,None,3.688888888888889,5.868209700005536,4142.513568199996,None,3.2027777777777784,9.3724887999997,4142.513568199996,None,space,9.646343600004911,4142.513568199996,None,A,yurun,22,f,2021_Dec_27_1022,untitled_groupA_k,2021.1.4,59.93953299835353,
63,picture\p24.tif,RR_right_01_42\RRY24.mp4,picture\p24.tif,0,79,79,62,,,,,,,4152.1832125,4153.192253299996,4153.176043499996,None,4156.084230599998,4157.089922299994,4186.370613399995,None,4186.370613399995,None,3.341666666666667,11.665597800005344,4186.370613399995,None,4.3694444444444445,4.549040799996874,4186.370613399995,None,3.9527777777777784,7.067697599995881,4186.370613399995,None,space,12.19143630000326,4186.370613399995,None,A,yurun,22,f,2021_Dec_27_1022,untitled_groupA_k,2021.1.4,59.93953299835353,
20,picture\p20.tif,RR_left_01_42\RRZ20.mp4,picture\p20.tif,0,80,80,19,,,,,,,4198.5951818999965,4199.599820299998,4199.583592099996,None,4202.511854899996,4203.515668199994,4232.807678799996,None,4232.807678799996,None,5.438888888888889,15.970736699993722,4232.807678799996,None,4.272222222222223,18.083991600004083,4232.807678799996,None,4.036111111111111,26.37035350000224,4232.807678799996,None,space,26.82157119999465,4232.807678799996,None,A,yurun,22,f,2021_Dec_27_1022,untitled_groupA_k,2021.1.4,59.93953299835353,
29,picture\p29.tif,BB_left_01_42\BBZ29.mp4,picture\p29.tif,0,81,81,28,,,,,,,4259.665913799996,4260.671198199998,4260.655369199994,None,4263.570029099996,4264.570505099997,4293.862443399994,None,4293.862443399994,None,3.4527777777777784,9.350795799997286,4293.862443399994,None,2.716666666666667,8.119559500002651,4293.862443399994,None,4.383333333333334,5.686604099995748,4293.862443399994,None,space,9.680707300001814,4293.862443399994,None,A,yurun,22,f,2021_Dec_27_1022,untitled_groupA_k,2021.1.4,59.93953299835353,
21,picture\p21.tif,RR_left_01_42\RRZ21.mp4,picture\p21.tif,0,82,82,20,,,,,,,4303.570287999995,4304.579519799998,4304.5466514999935,None,4307.578260199996,4308.578866899996,4337.868695999998,None,4337.868695999998,None,4.063888888888889,9.768802000005962,4337.868695999998,None,5.133333333333333,4.053015999998024,4337.868695999998,None,4.536111111111111,12.644029999995837,4337.868695999998,None,space,13.063393600001291,4337.868695999998,None,A,yurun,22,f,2021_Dec_27_1022,untitled_groupA_k,2021.1.4,59.93953299835353,
4,picture\p04.tif,BR_left_01_42\BRZ04.mp4,picture\p04.tif,0,83,83,3,,,,,,,4350.964488199999,4351.969914499998,4351.953640199994,None,4355.313885099997,4356.3190954999955,4385.612820399998,None,4385.612820399998,None,3.7861111111111114,14.781373100006022,4385.612820399998,None,4.494444444444445,10.649810199996864,4385.612820399998,None,3.3138888888888887,12.386620900004345,4385.612820399998,None,space,15.445747999998275,4385.612820399998,None,A,yurun,22,f,2021_Dec_27_1022,untitled_groupA_k,2021.1.4,59.93953299835353,
