A1C1,A1C0,A0C1,A0C0,A1,C1,Total,MI,C0GvA1,C1GvA1,C1GvA0,dltP,dltPp,Image_practice,Image,trials_2.thisRepN,trials_2.thisTrialN,trials_2.thisN,trials_2.thisIndex,trials.thisRepN,trials.thisTrialN,trials.thisN,trials.thisIndex,image.started,image.stopped,key_resp.keys,key_resp.rt,key_resp.started,key_resp.stopped,betweenTrial.started,betweenTrial.stopped,ISI.started,ISI.stopped,image_card.started,image_card.stopped,textbox.text,textbox.started,textbox.stopped,key_resp_3.keys,key_resp_3.rt,key_resp_3.started,key_resp_3.stopped,text_2.started,text_2.stopped,key_resp_2.keys,key_resp_2.rt,key_resp_2.started,key_resp_2.stopped,image_endPractice.started,image_endPractice.stopped,polygon_2.started,polygon_2.stopped,ISI_2.started,ISI_2.stopped,Cards.started,Cards.stopped,TextNote.started,TextNote.stopped,Estimation.text,Estimation.started,Estimation.stopped,key_resp_4.keys,key_resp_4.rt,key_resp_4.started,key_resp_4.stopped,text.started,text.stopped,participant,gender,session,date,expName,psychopyVersion,frameRate,
,,,,,,,,,,,,,,,,,,,,,,,1014.6258289429243,None,space,260.05761540916865,1014.6258289429243,None,,,,,,,,,,,,,,,,,,,,,,,,,,,,,,,,,,,,,,,DONGPING,F,002,2023_Apr_18_1549,untitled,2021.1.4,59.94649251529464,
0,0,0,9,0,0,9,1.0,None,None,0.0,None,None,practice_stimuli/P_00_00_00_09.png,,0,0,0,0,,,,,,,,,,,None,None,None,None,None,None,0,1276.1221280331083,None,return,2.0632422939670505,1276.1221280331083,None,1276.1221280331083,None,,,,,,,,,,,,,,,,,,,,,,,,DONGPING,F,002,2023_Apr_18_1549,untitled,2021.1.4,59.94649251529464,
18,0,36,0,18,54,54,1.0,0.0,1.0,1.0,0.0,None,practice_stimuli/P_18_00_36_00.png,,0,1,1,1,,,,,,,,,,,1278.2071872345696,None,1278.2071872345696,None,1278.8562905795843,None,50,1278.8562905795843,None,return,5.350078592062346,1278.8562905795843,None,1278.8562905795843,None,,,,,,,,,,,,,,,,,,,,,,,,DONGPING,F,002,2023_Apr_18_1549,untitled,2021.1.4,59.94649251529464,
9,18,18,0,27,27,45,0.6,0.67,0.33,1.0,-0.67,#NAME?,practice_stimuli/P_09_18_18_00.png,,0,2,2,2,,,,,,,,,,,1284.229082648817,None,1284.229082648817,None,1284.7768918273941,None,20,1284.7768918273941,None,return,3.2054162819549674,1284.7768918273941,None,1284.7768918273941,None,,,,,,,,,,,,,,,,,,,,,,,,DONGPING,F,002,2023_Apr_18_1549,untitled,2021.1.4,59.94649251529464,
36,18,18,36,54,54,108,0.83,0.33,0.67,0.33,0.33,0.5,practice_stimuli/P_36_18_18_36.png,,0,3,3,3,,,,,,,,,,,1288.0126890774845,None,1288.0126890774845,None,1288.5306884528545,None,10,1288.5306884528545,None,return,6.9371121241129,1288.5306884528545,None,1288.5306884528545,None,,,,,,,,,,,,,,,,,,,,,,,,DONGPING,F,002,2023_Apr_18_1549,untitled,2021.1.4,59.94649251529464,
,,,,,,,,,,,,,,,,,,,,,,,,,,,,,,,,,,,,,,,,,,,,space,53.0928399014374,1295.4902011649683,None,,,,,,,,,,,,,,,,,,,,DONGPING,F,002,2023_Apr_18_1549,untitled,2021.1.4,59.94649251529464,
18,0,9,36,18,27,63,1.0,0.0,1.0,0.2,0.8,1.0,,stimuli/P_18_00_09_36.png,,,,,0,0,0,135,,,,,,,,,,,,,,,,,,,,,,,,,,1295.4902011649683,None,1355.5399767096678,None,1355.5399767096678,None,1356.1252751291177,None,1356.1252751291177,None,10,1356.1252751291177,None,return,4.882625606507645,1356.1252751291177,None,,,DONGPING,F,002,2023_Apr_18_1549,untitled,2021.1.4,59.94649251529464,
9,0,18,0,9,27,27,1.0,0.0,1.0,1.0,0.0,None,,stimuli/P_09_00_18_00.png,,,,,0,1,1,72,,,,,,,,,,,,,,,,,,,,,,,,,,,,1361.040776283684,None,1361.040776283684,None,1361.5605619716807,None,1361.5605619716807,None,50,1361.5605619716807,None,return,3.9451203798380448,1361.5605619716807,None,,,DONGPING,F,002,2023_Apr_18_1549,untitled,2021.1.4,59.94649251529464,
0,18,9,36,18,9,63,0.71,1.0,0.0,0.2,-0.2,-0.25,,stimuli/P_00_18_09_36.png,,,,,0,2,2,39,,,,,,,,,,,,,,,,,,,,,,,,,,,,1365.5287138378335,None,1365.5287138378335,None,1366.0488619083626,None,1366.0488619083626,None,0,1366.0488619083626,None,return,2.4169202491175383,1366.0488619083626,None,,,DONGPING,F,002,2023_Apr_18_1549,untitled,2021.1.4,59.94649251529464,
0,9,36,36,9,36,81,0.89,1.0,0.0,0.5,-0.5,-1.0,,stimuli/P_00_09_36_36.png,,,,,0,3,3,31,,,,,,,,,,,,,,,,,,,,,,,,,,,,1368.487936985257,None,1368.487936985257,None,1368.9024855345633,None,1368.9024855345633,None,0,1368.9024855345633,None,return,1.780310852540424,1368.9024855345633,None,,,DONGPING,F,002,2023_Apr_18_1549,untitled,2021.1.4,59.94649251529464,
0,36,18,9,36,18,63,0.43,1.0,0.0,0.67,-0.67,-2.0,,stimuli/P_00_36_18_09.png,,,,,0,4,4,57,,,,,,,,,,,,,,,,,,,,,,,,,,,,1370.7034209024714,None,1370.7034209024714,None,1371.2089451027423,None,1371.2089451027423,None,0,1371.2089451027423,None,return,1.910047212135396,1371.2089451027423,None,,,DONGPING,F,002,2023_Apr_18_1549,untitled,2021.1.4,59.94649251529464,
18,36,0,36,54,18,90,0.6,0.67,0.33,0.0,0.33,0.33,,stimuli/P_18_36_00_36.png,,,,,0,5,5,179,,,,,,,,,,,,,,,,,,,,,,,,,,,,1373.1480011218518,None,1373.1480011218518,None,1373.6108284679067,None,1373.6108284679067,None,20,1373.6108284679067,None,return,3.6461485336039914,1373.6108284679067,None,,,DONGPING,F,002,2023_Apr_18_1549,untitled,2021.1.4,59.94649251529464,
36,18,18,9,54,54,81,0.78,0.33,0.67,0.67,0.0,0.0,,stimuli/P_36_18_18_09.png,,,,,0,6,6,233,,,,,,,,,,,,,,,,,,,,,,,,,,,,1377.294135148768,None,1377.294135148768,None,1377.8107390384976,None,1377.8107390384976,None,30,1377.8107390384976,None,return,3.479104408848798,1377.8107390384976,None,,,DONGPING,F,002,2023_Apr_18_1549,untitled,2021.1.4,59.94649251529464,
18,36,18,18,54,36,90,0.6,0.67,0.33,0.5,-0.17,-0.33,,stimuli/P_18_36_18_18.png,,,,,0,7,7,186,,,,,,,,,,,,,,,,,,,,,,,,,,,,1381.3116307725868,None,1381.3116307725868,None,1381.82931043212,None,1381.82931043212,None,40,1381.82931043212,None,return,4.36234157141007,1381.82931043212,None,,,DONGPING,F,002,2023_Apr_18_1549,untitled,2021.1.4,59.94649251529464,
18,18,18,36,36,36,90,0.8,0.5,0.5,0.33,0.17,0.25,,stimuli/P_18_18_18_36.png,,,,,0,8,8,171,,,,,,,,,,,,,,,,,,,,,,,,,,,,1386.2195605784655,None,1386.2195605784655,None,1386.6297855685261,None,1386.6297855685261,None,20,1386.6297855685261,None,return,3.334414223136264,1386.6297855685261,None,,,DONGPING,F,002,2023_Apr_18_1549,untitled,2021.1.4,59.94649251529464,
18,18,9,9,36,27,54,0.67,0.5,0.5,0.5,0.0,0.0,,stimuli/P_18_18_09_09.png,,,,,0,9,9,165,,,,,,,,,,,,,,,,,,,,,,,,,,,,1390.0032409627602,None,1390.0032409627602,None,1390.5004144359118,None,1390.5004144359118,None,40,1390.5004144359118,None,return,3.0577633204084123,1390.5004144359118,None,,,DONGPING,F,002,2023_Apr_18_1549,untitled,2021.1.4,59.94649251529464,
9,18,18,36,27,27,81,0.78,0.67,0.33,0.33,0.0,0.0,,stimuli/P_09_18_18_36.png,,,,,0,10,10,107,,,,,,,,,,,,,,,,,,,,,,,,,,,,1393.5886525912065,None,1393.5886525912065,None,1394.1044139557634,None,1394.1044139557634,None,20,1394.1044139557634,None,return,2.1907440560898976,1394.1044139557634,None,,,DONGPING,F,002,2023_Apr_18_1549,untitled,2021.1.4,59.94649251529464,
18,18,0,0,36,18,36,0.5,0.5,0.5,None,None,None,,stimuli/P_18_18_00_00.png,,,,,0,11,11,160,,,,,,,,,,,,,,,,,,,,,,,,,,,,1396.3193847347575,None,1396.3193847347575,None,1396.8303076951997,None,1396.8303076951997,None,50,1396.8303076951997,None,return,2.7469534551783,1396.8303076951997,None,,,DONGPING,F,002,2023_Apr_18_1549,untitled,2021.1.4,59.94649251529464,
36,9,9,9,45,45,63,0.86,0.2,0.8,0.5,0.3,0.6,,stimuli/P_36_09_09_09.png,,,,,0,12,12,213,,,,,,,,,,,,,,,,,,,,,,,,,,,,1399.6132416966284,None,1399.6132416966284,None,1400.0195754833694,None,1400.0195754833694,None,60,1400.0195754833694,None,return,3.008641998487292,1400.0195754833694,None,,,DONGPING,F,002,2023_Apr_18_1549,untitled,2021.1.4,59.94649251529464,
0,36,36,36,36,36,108,0.67,1.0,0.0,0.5,-0.5,-1.0,,stimuli/P_00_36_36_36.png,,,,,0,13,13,63,,,,,,,,,,,,,,,,,,,,,,,,,,,,1403.0499735181947,None,1403.0499735181947,None,1403.47236932753,None,1403.47236932753,None,0,1403.47236932753,None,return,2.06408652580285,1403.47236932753,None,,,DONGPING,F,002,2023_Apr_18_1549,untitled,2021.1.4,59.94649251529464,
18,18,18,9,36,36,63,0.71,0.5,0.5,0.67,-0.17,-0.5,,stimuli/P_18_18_18_09.png,,,,,0,14,14,169,,,,,,,,,,,,,,,,,,,,,,,,,,,,1405.556269701352,None,1405.556269701352,None,1406.0752868198033,None,1406.0752868198033,None,30,1406.0752868198033,None,return,2.3554415122052887,1406.0752868198033,None,,,DONGPING,F,002,2023_Apr_18_1549,untitled,2021.1.4,59.94649251529464,
0,36,0,0,36,0,36,0.0,1.0,0.0,None,None,None,,stimuli/P_00_36_00_00.png,,,,,0,15,15,48,,,,,,,,,,,,,,,,,,,,,,,,,,,,1408.4558317134215,None,1408.4558317134215,None,1408.9711396731436,None,1408.9711396731436,None,0,1408.9711396731436,None,return,2.1474003746698145,1408.9711396731436,None,,,DONGPING,F,002,2023_Apr_18_1549,untitled,2021.1.4,59.94649251529464,
9,36,9,18,45,18,72,0.5,0.8,0.2,0.33,-0.13,-0.2,,stimuli/P_09_36_09_18.png,,,,,0,16,16,118,,,,,,,,,,,,,,,,,,,,,,,,,,,,1411.1380927756109,None,1411.1380927756109,None,1411.649200625092,None,1411.649200625092,None,20,1411.649200625092,None,return,4.092109447490657,1411.649200625092,None,,,DONGPING,F,002,2023_Apr_18_1549,untitled,2021.1.4,59.94649251529464,
9,9,0,18,18,9,36,0.75,0.5,0.5,0.0,0.5,0.5,,stimuli/P_09_09_00_18.png,,,,,0,17,17,82,,,,,,,,,,,,,,,,,,,,,,,,,,,,1415.7767314005905,None,1415.7767314005905,None,1416.295314456438,None,1416.295314456438,None,30,1416.295314456438,None,return,3.224009862271487,1416.295314456438,None,,,DONGPING,F,002,2023_Apr_18_1549,untitled,2021.1.4,59.94649251529464,
18,18,0,36,36,18,72,0.75,0.5,0.5,0.0,0.5,0.5,,stimuli/P_18_18_00_36.png,,,,,0,18,18,163,,,,,,,,,,,,,,,,,,,,,,,,,,,,1419.555596136328,None,1419.555596136328,None,1420.0701451976347,None,1420.0701451976347,None,20,1420.0701451976347,None,return,4.409674874026678,1420.0701451976347,None,,,DONGPING,F,002,2023_Apr_18_1549,untitled,2021.1.4,59.94649251529464,
18,18,36,36,36,54,108,0.83,0.5,0.5,0.5,0.0,0.0,,stimuli/P_18_18_36_36.png,,,,,0,19,19,175,,,,,,,,,,,,,,,,,,,,,,,,,,,,1424.5087583363638,None,1424.5087583363638,None,1425.0225109525345,None,1425.0225109525345,None,20,1425.0225109525345,None,return,3.4322916399978567,1425.0225109525345,None,,,DONGPING,F,002,2023_Apr_18_1549,untitled,2021.1.4,59.94649251529464,
9,0,9,36,9,18,54,1.0,0.0,1.0,0.2,0.8,1.0,,stimuli/P_09_00_09_36.png,,,,,0,20,20,71,,,,,,,,,,,,,,,,,,,,,,,,,,,,1428.4706945172074,None,1428.4706945172074,None,1428.9912305702892,None,1428.9912305702892,None,10,1428.9912305702892,None,return,2.412239427329041,1428.9912305702892,None,,,DONGPING,F,002,2023_Apr_18_1549,untitled,2021.1.4,59.94649251529464,
9,0,0,36,9,9,45,1.0,0.0,1.0,0.0,1.0,1.0,,stimuli/P_09_00_00_36.png,,,,,0,21,21,67,,,,,,,,,,,,,,,,,,,,,,,,,,,,1431.4236655704153,None,1431.4236655704153,None,1431.9273789958097,None,1431.9273789958097,None,50,1431.9273789958097,None,return,3.711896216365858,1431.9273789958097,None,,,DONGPING,F,002,2023_Apr_18_1549,untitled,2021.1.4,59.94649251529464,
0,18,0,9,18,0,27,0.33,1.0,0.0,0.0,0.0,0.0,,stimuli/P_00_18_00_09.png,,,,,0,22,22,33,,,,,,,,,,,,,,,,,,,,,,,,,,,,1435.670169318546,None,1435.670169318546,None,1436.06819106263,None,1436.06819106263,None,0,1436.06819106263,None,return,2.832387554750312,1436.06819106263,None,,,DONGPING,F,002,2023_Apr_18_1549,untitled,2021.1.4,59.94649251529464,
36,18,18,36,54,54,108,0.83,0.33,0.67,0.33,0.33,0.5,,stimuli/P_36_18_18_36.png,,,,,0,23,23,235,,,,,,,,,,,,,,,,,,,,,,,,,,,,1438.9244594555348,None,1438.9244594555348,None,1439.3394011073979,None,1439.3394011073979,None,20,1439.3394011073979,None,return,4.040846257077646,1439.3394011073979,None,,,DONGPING,F,002,2023_Apr_18_1549,untitled,2021.1.4,59.94649251529464,
36,9,18,36,45,54,99,0.91,0.2,0.8,0.33,0.47,0.7,,stimuli/P_36_09_18_36.png,,,,,0,24,24,219,,,,,,,,,,,,,,,,,,,,,,,,,,,,1443.4121290627954,None,1443.4121290627954,None,1443.929396846419,None,1443.929396846419,None,20,1443.929396846419,None,return,3.347320616390789,1443.929396846419,None,,,DONGPING,F,002,2023_Apr_18_1549,untitled,2021.1.4,59.94649251529464,
36,18,0,18,54,36,72,0.75,0.33,0.67,0.0,0.67,0.67,,stimuli/P_36_18_00_18.png,,,,,0,25,25,226,,,,,,,,,,,,,,,,,,,,,,,,,,,,1447.3081554273958,None,1447.3081554273958,None,1447.8257452024118,None,1447.8257452024118,None,40,1447.8257452024118,None,return,3.101191197463777,1447.8257452024118,None,,,DONGPING,F,002,2023_Apr_18_1549,untitled,2021.1.4,59.94649251529464,
18,9,36,18,27,54,81,0.89,0.33,0.67,0.67,0.0,0.0,,stimuli/P_18_09_36_18.png,,,,,0,26,26,158,,,,,,,,,,,,,,,,,,,,,,,,,,,,1450.9449810019432,None,1450.9449810019432,None,1451.3525248163787,None,1451.3525248163787,None,20,1451.3525248163787,None,return,1.7363783705950482,1451.3525248163787,None,,,DONGPING,F,002,2023_Apr_18_1549,untitled,2021.1.4,59.94649251529464,
9,0,18,18,9,27,45,1.0,0.0,1.0,0.5,0.5,1.0,,stimuli/P_09_00_18_18.png,,,,,0,27,27,74,,,,,,,,,,,,,,,,,,,,,,,,,,,,1453.130118653251,None,1453.130118653251,None,1453.6513026713365,None,1453.6513026713365,None,10,1453.6513026713365,None,return,2.9376542756945128,1453.6513026713365,None,,,DONGPING,F,002,2023_Apr_18_1549,untitled,2021.1.4,59.94649251529464,
0,0,36,18,0,36,54,1.0,None,None,0.67,None,None,,stimuli/P_00_00_36_18.png,,,,,0,28,28,14,,,,,,,,,,,,,,,,,,,,,,,,,,,,1456.6301269021496,None,1456.6301269021496,None,1457.0441128198581,None,1457.0441128198581,None,0,1457.0441128198581,None,return,1.4044553140265634,1457.0441128198581,None,,,DONGPING,F,002,2023_Apr_18_1549,untitled,2021.1.4,59.94649251529464,
18,36,36,0,54,54,90,0.6,0.67,0.33,1.0,-0.67,#NAME?,,stimuli/P_18_36_36_00.png,,,,,0,29,29,188,,,,,,,,,,,,,,,,,,,,,,,,,,,,1458.4705653793208,None,1458.4705653793208,None,1458.9943708396313,None,1458.9943708396313,None,20,1458.9943708396313,None,return,2.0827563372877194,1458.9943708396313,None,,,DONGPING,F,002,2023_Apr_18_1549,untitled,2021.1.4,59.94649251529464,
18,36,0,18,54,18,72,0.5,0.67,0.33,0.0,0.33,0.33,,stimuli/P_18_36_00_18.png,,,,,0,30,30,178,,,,,,,,,,,,,,,,,,,,,,,,,,,,1461.0968357804086,None,1461.0968357804086,None,1461.615698160953,None,1461.615698160953,None,20,1461.615698160953,None,return,4.911622466810513,1461.615698160953,None,,,DONGPING,F,002,2023_Apr_18_1549,untitled,2021.1.4,59.94649251529464,
36,9,36,18,45,72,99,0.91,0.2,0.8,0.67,0.13,0.4,,stimuli/P_36_09_36_18.png,,,,,0,31,31,222,,,,,,,,,,,,,,,,,,,,,,,,,,,,1466.5508481856086,None,1466.5508481856086,None,1467.0582366363524,None,1467.0582366363524,None,40,1467.0582366363524,None,return,4.010926089322311,1467.0582366363524,None,,,DONGPING,F,002,2023_Apr_18_1549,untitled,2021.1.4,59.94649251529464,
0,18,9,18,18,9,45,0.6,1.0,0.0,0.33,-0.33,-0.5,,stimuli/P_00_18_09_18.png,,,,,0,32,32,38,,,,,,,,,,,,,,,,,,,,,,,,,,,,1471.10288591891,None,1471.10288591891,None,1471.615161698268,None,1471.615161698268,None,0,1471.615161698268,None,return,1.7936672372743487,1471.615161698268,None,,,DONGPING,F,002,2023_Apr_18_1549,untitled,2021.1.4,59.94649251529464,
18,9,36,36,27,54,99,0.91,0.33,0.67,0.5,0.17,0.33,,stimuli/P_18_09_36_36.png,,,,,0,33,33,159,,,,,,,,,,,,,,,,,,,,,,,,,,,,1473.4315190882335,None,1473.4315190882335,None,1473.8338336715387,None,1473.8338336715387,None,30,1473.8338336715387,None,return,3.180142233715742,1473.8338336715387,None,,,DONGPING,F,002,2023_Apr_18_1549,untitled,2021.1.4,59.94649251529464,
0,18,18,0,18,18,36,0.5,1.0,0.0,1.0,-1.0,#NAME?,,stimuli/P_00_18_18_00.png,,,,,0,34,34,40,,,,,,,,,,,,,,,,,,,,,,,,,,,,1477.047445942706,None,1477.047445942706,None,1477.5542512818502,None,1477.5542512818502,None,0,1477.5542512818502,None,return,1.7581935714406427,1477.5542512818502,None,,,DONGPING,F,002,2023_Apr_18_1549,untitled,2021.1.4,59.94649251529464,
36,0,9,0,36,45,45,1.0,0.0,1.0,1.0,0.0,None,,stimuli/P_36_00_09_00.png,,,,,0,35,35,196,,,,,,,,,,,,,,,,,,,,,,,,,,,,1479.3471840829297,None,1479.3471840829297,None,1479.8702329203807,None,1479.8702329203807,None,50,1479.8702329203807,None,return,3.575283690908691,1479.8702329203807,None,,,DONGPING,F,002,2023_Apr_18_1549,untitled,2021.1.4,59.94649251529464,
0,9,0,36,9,0,45,0.8,1.0,0.0,0.0,0.0,0.0,,stimuli/P_00_09_00_36.png,,,,,0,36,36,19,,,,,,,,,,,,,,,,,,,,,,,,,,,,1483.4738000843063,None,1483.4738000843063,None,1483.9995522840618,None,1483.9995522840618,None,0,1483.9995522840618,None,return,1.4979039271129295,1483.9995522840618,None,,,DONGPING,F,002,2023_Apr_18_1549,untitled,2021.1.4,59.94649251529464,
9,36,0,18,45,9,63,0.43,0.8,0.2,0.0,0.2,0.2,,stimuli/P_09_36_00_18.png,,,,,0,37,37,114,,,,,,,,,,,,,,,,,,,,,,,,,,,,1485.5264280403208,None,1485.5264280403208,None,1485.9272424623487,None,1485.9272424623487,None,30,1485.9272424623487,None,return,2.916234452961362,1485.9272424623487,None,,,DONGPING,F,002,2023_Apr_18_1549,untitled,2021.1.4,59.94649251529464,
18,36,9,0,54,27,63,0.43,0.67,0.33,1.0,-0.67,#NAME?,,stimuli/P_18_36_09_00.png,,,,,0,38,38,180,,,,,,,,,,,,,,,,,,,,,,,,,,,,1488.8681980030815,None,1488.8681980030815,None,1489.3793638792704,None,1489.3793638792704,None,40,1489.3793638792704,None,return,3.2511601076548686,1489.3793638792704,None,,,DONGPING,F,002,2023_Apr_18_1549,untitled,2021.1.4,59.94649251529464,
18,18,36,0,36,54,72,0.75,0.5,0.5,1.0,-0.5,#NAME?,,stimuli/P_18_18_36_00.png,,,,,0,39,39,172,,,,,,,,,,,,,,,,,,,,,,,,,,,,1492.6657410836488,None,1492.6657410836488,None,1493.186541670293,None,1493.186541670293,None,20,1493.186541670293,None,return,3.281197466625599,1493.186541670293,None,,,DONGPING,F,002,2023_Apr_18_1549,untitled,2021.1.4,59.94649251529464,
0,18,36,36,18,36,90,0.8,1.0,0.0,0.5,-0.5,-1.0,,stimuli/P_00_18_36_36.png,,,,,0,40,40,47,,,,,,,,,,,,,,,,,,,,,,,,,,,,1496.494696528811,None,1496.494696528811,None,1496.8951576705294,None,1496.8951576705294,None,0,1496.8951576705294,None,return,1.4655255883553764,1496.8951576705294,None,,,DONGPING,F,002,2023_Apr_18_1549,untitled,2021.1.4,59.94649251529464,
9,0,9,18,9,18,36,1.0,0.0,1.0,0.33,0.67,1.0,,stimuli/P_09_00_09_18.png,,,,,0,41,41,70,,,,,,,,,,,,,,,,,,,,,,,,,,,,1498.3954617419076,None,1498.3954617419076,None,1498.9162549329776,None,1498.9162549329776,None,30,1498.9162549329776,None,return,2.223822128769825,1498.9162549329776,None,,,DONGPING,F,002,2023_Apr_18_1549,untitled,2021.1.4,59.94649251529464,
18,18,9,36,36,27,81,0.78,0.5,0.5,0.2,0.3,0.37,,stimuli/P_18_18_09_36.png,,,,,0,42,42,167,,,,,,,,,,,,,,,,,,,,,,,,,,,,1501.159780545233,None,1501.159780545233,None,1501.5611166388117,None,1501.5611166388117,None,20,1501.5611166388117,None,return,2.567007488294621,1501.5611166388117,None,,,DONGPING,F,002,2023_Apr_18_1549,untitled,2021.1.4,59.94649251529464,
0,0,9,9,0,9,18,1.0,None,None,0.5,None,None,,stimuli/P_00_00_09_09.png,,,,,0,43,43,5,,,,,,,,,,,,,,,,,,,,,,,,,,,,1504.1631864859228,None,1504.1631864859228,None,1504.6845753041707,None,1504.6845753041707,None,0,1504.6845753041707,None,return,2.324625912573538,1504.6845753041707,None,,,DONGPING,F,002,2023_Apr_18_1549,untitled,2021.1.4,59.94649251529464,
36,0,18,36,36,54,90,1.0,0.0,1.0,0.33,0.67,1.0,,stimuli/P_36_00_18_36.png,,,,,0,44,44,203,,,,,,,,,,,,,,,,,,,,,,,,,,,,1507.0475904406048,None,1507.0475904406048,None,1507.4586579558236,None,1507.4586579558236,None,30,1507.4586579558236,None,return,3.644523785551428,1507.4586579558236,None,,,DONGPING,F,002,2023_Apr_18_1549,untitled,2021.1.4,59.94649251529464,
9,18,36,9,27,45,72,0.75,0.67,0.33,0.8,-0.47,-2.33,,stimuli/P_09_18_36_09.png,,,,,0,45,45,109,,,,,,,,,,,,,,,,,,,,,,,,,,,,1511.1272230063332,None,1511.1272230063332,None,1511.5331597082986,None,1511.5331597082986,None,25,1511.5331597082986,None,return,5.149078598318738,1511.5331597082986,None,,,DONGPING,F,002,2023_Apr_18_1549,untitled,2021.1.4,59.94649251529464,
18,18,18,0,36,36,54,0.67,0.5,0.5,1.0,-0.5,#NAME?,,stimuli/P_18_18_18_00.png,,,,,0,46,46,168,,,,,,,,,,,,,,,,,,,,,,,,,,,,1516.7170742474555,None,1516.7170742474555,None,1517.221207513212,None,1517.221207513212,None,25,1517.221207513212,None,return,4.494932617904851,1517.221207513212,None,,,DONGPING,F,002,2023_Apr_18_1549,untitled,2021.1.4,59.94649251529464,
9,0,18,9,9,27,36,1.0,0.0,1.0,0.67,0.33,1.0,,stimuli/P_09_00_18_09.png,,,,,0,47,47,73,,,,,,,,,,,,,,,,,,,,,,,,,,,,1521.7537824032188,None,1521.7537824032188,None,1522.2874359074922,None,1522.2874359074922,None,25,1522.2874359074922,None,return,2.6132678655412747,1522.2874359074922,None,,,DONGPING,F,002,2023_Apr_18_1549,untitled,2021.1.4,59.94649251529464,
36,18,0,0,54,36,54,0.67,0.33,0.67,None,None,None,,stimuli/P_36_18_00_00.png,,,,,0,48,48,224,,,,,,,,,,,,,,,,,,,,,,,,,,,,1524.9216787242767,None,1524.9216787242767,None,1525.43535852262,None,1525.43535852262,None,50,1525.43535852262,None,return,2.4885331813275116,1525.43535852262,None,,,DONGPING,F,002,2023_Apr_18_1549,untitled,2021.1.4,59.94649251529464,
9,36,9,9,45,18,63,0.43,0.8,0.2,0.5,-0.3,-0.6,,stimuli/P_09_36_09_09.png,,,,,0,49,49,117,,,,,,,,,,,,,,,,,,,,,,,,,,,,1527.9542675520788,None,1527.9542675520788,None,1528.4718180737254,None,1528.4718180737254,None,25,1528.4718180737254,None,return,3.180689505301416,1528.4718180737254,None,,,DONGPING,F,002,2023_Apr_18_1549,untitled,2021.1.4,59.94649251529464,
18,9,0,18,27,18,45,0.8,0.33,0.67,0.0,0.67,0.67,,stimuli/P_18_09_00_18.png,,,,,0,50,50,146,,,,,,,,,,,,,,,,,,,,,,,,,,,,1531.671065888193,None,1531.671065888193,None,1532.0756218956376,None,1532.0756218956376,None,25,1532.0756218956376,None,return,2.6793762241723016,1532.0756218956376,None,,,DONGPING,F,002,2023_Apr_18_1549,untitled,2021.1.4,59.94649251529464,
36,36,36,9,72,72,117,0.69,0.5,0.5,0.8,-0.3,-1.5,,stimuli/P_36_36_36_09.png,,,,,0,51,51,253,,,,,,,,,,,,,,,,,,,,,,,,,,,,1534.7739023137256,None,1534.7739023137256,None,1535.2832181616832,None,1535.2832181616832,None,50,1535.2832181616832,None,return,2.5766450431692647,1535.2832181616832,None,,,DONGPING,F,002,2023_Apr_18_1549,untitled,2021.1.4,59.94649251529464,
9,9,9,0,18,18,27,0.67,0.5,0.5,1.0,-0.5,#NAME?,,stimuli/P_09_09_09_00.png,,,,,0,52,52,84,,,,,,,,,,,,,,,,,,,,,,,,,,,,1537.8818223347043,None,1537.8818223347043,None,1538.4026644502737,None,1538.4026644502737,None,25,1538.4026644502737,None,return,4.803688792482717,1538.4026644502737,None,,,DONGPING,F,002,2023_Apr_18_1549,untitled,2021.1.4,59.94649251529464,
18,18,9,0,36,27,45,0.6,0.5,0.5,1.0,-0.5,#NAME?,,stimuli/P_18_18_09_00.png,,,,,0,53,53,164,,,,,,,,,,,,,,,,,,,,,,,,,,,,1543.222946039139,None,1543.222946039139,None,1543.7727855838893,None,1543.7727855838893,None,30,1543.7727855838893,None,return,2.980331787650357,1543.7727855838893,None,,,DONGPING,F,002,2023_Apr_18_1549,untitled,2021.1.4,59.94649251529464,
36,36,18,18,72,54,108,0.67,0.5,0.5,0.5,0.0,0.0,,stimuli/P_36_36_18_18.png,,,,,0,54,54,250,,,,,,,,,,,,,,,,,,,,,,,,,,,,1546.7722388811962,None,1546.7722388811962,None,1547.3015853240213,None,1547.3015853240213,None,50,1547.3015853240213,None,return,3.3949793237115955,1547.3015853240213,None,,,DONGPING,F,002,2023_Apr_18_1549,untitled,2021.1.4,59.94649251529464,
0,0,36,0,0,36,36,1.0,None,None,1.0,None,None,,stimuli/P_00_00_36_00.png,,,,,0,55,55,12,,,,,,,,,,,,,,,,,,,,,,,,,,,,1550.7127267948526,None,1550.7127267948526,None,1551.2289011731045,None,1551.2289011731045,None,0,1551.2289011731045,None,return,1.4034341575897997,1551.2289011731045,None,,,DONGPING,F,002,2023_Apr_18_1549,untitled,2021.1.4,59.94649251529464,
36,18,36,0,54,72,90,0.8,0.33,0.67,1.0,-0.33,#NAME?,,stimuli/P_36_18_36_00.png,,,,,0,56,56,236,,,,,,,,,,,,,,,,,,,,,,,,,,,,1552.6605767059082,None,1552.6605767059082,None,1553.1819882797427,None,1553.1819882797427,None,30,1553.1819882797427,None,return,2.8165667412540643,1553.1819882797427,None,,,DONGPING,F,002,2023_Apr_18_1549,untitled,2021.1.4,59.94649251529464,
9,36,0,9,45,9,54,0.33,0.8,0.2,0.0,0.2,0.2,,stimuli/P_09_36_00_09.png,,,,,0,57,57,113,,,,,,,,,,,,,,,,,,,,,,,,,,,,1556.029135669305,None,1556.029135669305,None,1556.4347031620564,None,1556.4347031620564,None,40,1556.4347031620564,None,return,4.336579984999844,1556.4347031620564,None,,,DONGPING,F,002,2023_Apr_18_1549,untitled,2021.1.4,59.94649251529464,
0,36,36,18,36,36,90,0.6,1.0,0.0,0.67,-0.67,-2.0,,stimuli/P_00_36_36_18.png,,,,,0,58,58,62,,,,,,,,,,,,,,,,,,,,,,,,,,,,1560.8050677803258,None,1560.8050677803258,None,1561.317897089044,None,1561.317897089044,None,0,1561.317897089044,None,return,2.930758767572115,1561.317897089044,None,,,DONGPING,F,002,2023_Apr_18_1549,untitled,2021.1.4,59.94649251529464,
0,18,9,0,18,9,27,0.33,1.0,0.0,1.0,-1.0,#NAME?,,stimuli/P_00_18_09_00.png,,,,,0,59,59,36,,,,,,,,,,,,,,,,,,,,,,,,,,,,1564.2661708226806,None,1564.2661708226806,None,1564.7704281063197,None,1564.7704281063197,None,0,1564.7704281063197,None,return,1.5037043231568532,1564.7704281063197,None,,,DONGPING,F,002,2023_Apr_18_1549,untitled,2021.1.4,59.94649251529464,
18,18,0,9,36,18,45,0.6,0.5,0.5,0.0,0.5,0.5,,stimuli/P_18_18_00_09.png,,,,,0,60,60,161,,,,,,,,,,,,,,,,,,,,,,,,,,,,1566.2981566277595,None,1566.2981566277595,None,1566.8103959981963,None,1566.8103959981963,None,40,1566.8103959981963,None,return,4.96052988631709,1566.8103959981963,None,,,DONGPING,F,002,2023_Apr_18_1549,untitled,2021.1.4,59.94649251529464,
18,36,18,36,54,36,108,0.67,0.67,0.33,0.33,0.0,0.0,,stimuli/P_18_36_18_36.png,,,,,0,61,61,187,,,,,,,,,,,,,,,,,,,,,,,,,,,,1571.8074849912664,None,1571.8074849912664,None,1572.2171080963744,None,1572.2171080963744,None,25,1572.2171080963744,None,return,3.642434823763324,1572.2171080963744,None,,,DONGPING,F,002,2023_Apr_18_1549,untitled,2021.1.4,59.94649251529464,
9,0,0,0,9,9,9,1.0,0.0,1.0,None,None,None,,stimuli/P_09_00_00_00.png,,,,,0,62,62,64,,,,,,,,,,,,,,,,,,,,,,,,,,,,1575.8963836271287,None,1575.8963836271287,None,1576.4117228757823,None,1576.4117228757823,None,100,1576.4117228757823,None,return,1.9923154423304368,1576.4117228757823,None,,,DONGPING,F,002,2023_Apr_18_1549,untitled,2021.1.4,59.94649251529464,
9,0,36,36,9,45,81,1.0,0.0,1.0,0.5,0.5,1.0,,stimuli/P_09_00_36_36.png,,,,,0,63,63,79,,,,,,,,,,,,,,,,,,,,,,,,,,,,1578.424746460223,None,1578.424746460223,None,1578.934865011077,None,1578.934865011077,None,30,1578.934865011077,None,return,3.3531130479823332,1578.934865011077,None,,,DONGPING,F,002,2023_Apr_18_1549,untitled,2021.1.4,59.94649251529464,
9,36,18,18,45,27,81,0.56,0.8,0.2,0.5,-0.3,-0.6,,stimuli/P_09_36_18_18.png,,,,,0,64,64,122,,,,,,,,,,,,,,,,,,,,,,,,,,,,1582.308415409847,None,1582.308415409847,None,1582.8286283337657,None,1582.8286283337657,None,25,1582.8286283337657,None,return,4.338671791236266,1582.8286283337657,None,,,DONGPING,F,002,2023_Apr_18_1549,untitled,2021.1.4,59.94649251529464,
18,0,0,36,18,18,54,1.0,0.0,1.0,0.0,1.0,1.0,,stimuli/P_18_00_00_36.png,,,,,0,65,65,131,,,,,,,,,,,,,,,,,,,,,,,,,,,,1587.197956435586,None,1587.197956435586,None,1587.5936360621272,None,1587.5936360621272,None,50,1587.5936360621272,None,return,2.1863732790370705,1587.5936360621272,None,,,DONGPING,F,002,2023_Apr_18_1549,untitled,2021.1.4,59.94649251529464,
9,18,0,0,27,9,27,0.33,0.67,0.33,None,None,None,,stimuli/P_09_18_00_00.png,,,,,0,66,66,96,,,,,,,,,,,,,,,,,,,,,,,,,,,,1589.8126448178955,None,1589.8126448178955,None,1590.3330653864396,None,1590.3330653864396,None,50,1590.3330653864396,None,return,2.3341599295818014,1590.3330653864396,None,,,DONGPING,F,002,2023_Apr_18_1549,untitled,2021.1.4,59.94649251529464,
0,9,9,18,9,9,36,0.75,1.0,0.0,0.33,-0.33,-0.5,,stimuli/P_00_09_09_18.png,,,,,0,67,67,22,,,,,,,,,,,,,,,,,,,,,,,,,,,,1592.6856396961812,None,1592.6856396961812,None,1593.0830117686128,None,1593.0830117686128,None,0,1593.0830117686128,None,return,2.4102101989265066,1593.0830117686128,None,,,DONGPING,F,002,2023_Apr_18_1549,untitled,2021.1.4,59.94649251529464,
0,36,9,0,36,9,45,0.2,1.0,0.0,1.0,-1.0,#NAME?,,stimuli/P_00_36_09_00.png,,,,,0,68,68,52,,,,,,,,,,,,,,,,,,,,,,,,,,,,1595.5188754649862,None,1595.5188754649862,None,1596.019781421317,None,1596.019781421317,None,0,1596.019781421317,None,return,1.1079587054555304,1596.019781421317,None,,,DONGPING,F,002,2023_Apr_18_1549,untitled,2021.1.4,59.94649251529464,
36,0,36,9,36,72,81,1.0,0.0,1.0,0.8,0.2,1.0,,stimuli/P_36_00_36_09.png,,,,,0,69,69,205,,,,,,,,,,,,,,,,,,,,,,,,,,,,1597.1611857019889,None,1597.1611857019889,None,1597.6745799178607,None,1597.6745799178607,None,40,1597.6745799178607,None,return,6.0364595511200605,1597.6745799178607,None,,,DONGPING,F,002,2023_Apr_18_1549,untitled,2021.1.4,59.94649251529464,
18,36,9,18,54,27,81,0.56,0.67,0.33,0.33,0.0,0.0,,stimuli/P_18_36_09_18.png,,,,,0,70,70,182,,,,,,,,,,,,,,,,,,,,,,,,,,,,1603.744147692778,None,1603.744147692778,None,1604.1481962508988,None,1604.1481962508988,None,25,1604.1481962508988,None,return,2.260031368554337,1604.1481962508988,None,,,DONGPING,F,002,2023_Apr_18_1549,untitled,2021.1.4,59.94649251529464,
36,0,9,18,36,45,63,1.0,0.0,1.0,0.33,0.67,1.0,,stimuli/P_36_00_09_18.png,,,,,0,71,71,198,,,,,,,,,,,,,,,,,,,,,,,,,,,,1606.431246021326,None,1606.431246021326,None,1606.9431759159488,None,1606.9431759159488,None,40,1606.9431759159488,None,return,4.215996486542281,1606.9431759159488,None,,,DONGPING,F,002,2023_Apr_18_1549,untitled,2021.1.4,59.94649251529464,
18,9,9,9,27,27,45,0.8,0.33,0.67,0.5,0.17,0.33,,stimuli/P_18_09_09_09.png,,,,,0,72,72,149,,,,,,,,,,,,,,,,,,,,,,,,,,,,1611.196282194156,None,1611.196282194156,None,1611.7141040760325,None,1611.7141040760325,None,25,1611.7141040760325,None,return,4.118387585476739,1611.7141040760325,None,,,DONGPING,F,002,2023_Apr_18_1549,untitled,2021.1.4,59.94649251529464,
18,18,36,18,36,54,90,0.8,0.5,0.5,0.67,-0.17,-0.5,,stimuli/P_18_18_36_18.png,,,,,0,73,73,174,,,,,,,,,,,,,,,,,,,,,,,,,,,,1615.8561932995071,None,1615.8561932995071,None,1616.3663317614846,None,1616.3663317614846,None,25,1616.3663317614846,None,return,1.4905328274762724,1616.3663317614846,None,,,DONGPING,F,002,2023_Apr_18_1549,untitled,2021.1.4,59.94649251529464,
18,0,36,36,18,54,90,1.0,0.0,1.0,0.5,0.5,1.0,,stimuli/P_18_00_36_36.png,,,,,0,74,74,143,,,,,,,,,,,,,,,,,,,,,,,,,,,,1617.8822802906507,None,1617.8822802906507,None,1618.3953337417915,None,1618.3953337417915,None,40,1618.3953337417915,None,return,2.5173258103313856,1618.3953337417915,None,,,DONGPING,F,002,2023_Apr_18_1549,untitled,2021.1.4,59.94649251529464,
9,0,0,18,9,9,27,1.0,0.0,1.0,0.0,1.0,1.0,,stimuli/P_09_00_00_18.png,,,,,0,75,75,66,,,,,,,,,,,,,,,,,,,,,,,,,,,,1620.9465192788048,None,1620.9465192788048,None,1621.458907129374,None,1621.458907129374,None,50,1621.458907129374,None,return,2.9510903049231274,1621.458907129374,None,,,DONGPING,F,002,2023_Apr_18_1549,untitled,2021.1.4,59.94649251529464,
0,18,36,0,18,36,54,0.67,1.0,0.0,1.0,-1.0,#NAME?,,stimuli/P_00_18_36_00.png,,,,,0,76,76,44,,,,,,,,,,,,,,,,,,,,,,,,,,,,1624.4283452544041,None,1624.4283452544041,None,1624.831739020854,None,1624.831739020854,None,0,1624.831739020854,None,return,2.835350330613437,1624.831739020854,None,,,DONGPING,F,002,2023_Apr_18_1549,untitled,2021.1.4,59.94649251529464,
18,9,18,18,27,36,63,0.86,0.33,0.67,0.5,0.17,0.33,,stimuli/P_18_09_18_18.png,,,,,0,77,77,154,,,,,,,,,,,,,,,,,,,,,,,,,,,,1627.6994932902307,None,1627.6994932902307,None,1628.2214874067722,None,1628.2214874067722,None,25,1628.2214874067722,None,return,1.8744108439423144,1628.2214874067722,None,,,DONGPING,F,002,2023_Apr_18_1549,untitled,2021.1.4,59.94649251529464,
9,18,9,0,27,18,36,0.5,0.67,0.33,1.0,-0.67,#NAME?,,stimuli/P_09_18_09_00.png,,,,,0,78,78,100,,,,,,,,,,,,,,,,,,,,,,,,,,,,1630.1298728930415,None,1630.1298728930415,None,1630.528655811111,None,1630.528655811111,None,30,1630.528655811111,None,return,2.5077741577406414,1630.528655811111,None,,,DONGPING,F,002,2023_Apr_18_1549,untitled,2021.1.4,59.94649251529464,
0,36,0,18,36,0,54,0.33,1.0,0.0,0.0,0.0,0.0,,stimuli/P_00_36_00_18.png,,,,,0,79,79,50,,,,,,,,,,,,,,,,,,,,,,,,,,,,1633.0534585345013,None,1633.0534585345013,None,1633.4469928792096,None,1633.4469928792096,None,0,1633.4469928792096,None,return,1.3501468587928684,1633.4469928792096,None,,,DONGPING,F,002,2023_Apr_18_1549,untitled,2021.1.4,59.94649251529464,
36,0,0,0,36,36,36,1.0,0.0,1.0,None,None,None,,stimuli/P_36_00_00_00.png,,,,,0,80,80,192,,,,,,,,,,,,,,,,,,,,,,,,,,,,1634.820964825005,None,1634.820964825005,None,1635.2173254121153,None,1635.2173254121153,None,100,1635.2173254121153,None,return,1.8008636878512334,1635.2173254121153,None,,,DONGPING,F,002,2023_Apr_18_1549,untitled,2021.1.4,59.94649251529464,
9,36,36,0,45,45,81,0.56,0.8,0.2,1.0,-0.8,#NAME?,,stimuli/P_09_36_36_00.png,,,,,0,81,81,124,,,,,,,,,,,,,,,,,,,,,,,,,,,,1637.042110329261,None,1637.042110329261,None,1637.4511560116516,None,1637.4511560116516,None,30,1637.4511560116516,None,return,3.3799191153084394,1637.4511560116516,None,,,DONGPING,F,002,2023_Apr_18_1549,untitled,2021.1.4,59.94649251529464,
0,0,9,18,0,9,27,1.0,None,None,0.33,None,None,,stimuli/P_00_00_09_18.png,,,,,0,82,82,6,,,,,,,,,,,,,,,,,,,,,,,,,,,,1640.8475382165634,None,1640.8475382165634,None,1641.3557316457736,None,1641.3557316457736,None,0,1641.3557316457736,None,return,1.5106720802141353,1641.3557316457736,None,,,DONGPING,F,002,2023_Apr_18_1549,untitled,2021.1.4,59.94649251529464,
0,36,9,18,36,9,63,0.43,1.0,0.0,0.33,-0.33,-0.5,,stimuli/P_00_36_09_18.png,,,,,0,83,83,54,,,,,,,,,,,,,,,,,,,,,,,,,,,,1642.9001468303468,None,1642.9001468303468,None,1643.4198318249255,None,1643.4198318249255,None,0,1643.4198318249255,None,return,1.6586413442564663,1643.4198318249255,None,,,DONGPING,F,002,2023_Apr_18_1549,untitled,2021.1.4,59.94649251529464,
36,0,0,9,36,36,45,1.0,0.0,1.0,0.0,1.0,1.0,,stimuli/P_36_00_00_09.png,,,,,0,84,84,193,,,,,,,,,,,,,,,,,,,,,,,,,,,,1645.1000869831769,None,1645.1000869831769,None,1645.6166880284582,None,1645.6166880284582,None,50,1645.6166880284582,None,return,1.8750878222926985,1645.6166880284582,None,,,DONGPING,F,002,2023_Apr_18_1549,untitled,2021.1.4,59.94649251529464,
0,36,9,36,36,9,81,0.56,1.0,0.0,0.2,-0.2,-0.25,,stimuli/P_00_36_09_36.png,,,,,0,85,85,55,,,,,,,,,,,,,,,,,,,,,,,,,,,,1647.52232691682,None,1647.52232691682,None,1648.0426991297718,None,1648.0426991297718,None,0,1648.0426991297718,None,return,1.2018806345004123,1648.0426991297718,None,,,DONGPING,F,002,2023_Apr_18_1549,untitled,2021.1.4,59.94649251529464,
0,36,18,0,36,18,54,0.33,1.0,0.0,1.0,-1.0,#NAME?,,stimuli/P_00_36_18_00.png,,,,,0,86,86,56,,,,,,,,,,,,,,,,,,,,,,,,,,,,1649.2709540445503,None,1649.2709540445503,None,1649.7799951189227,None,1649.7799951189227,None,0,1649.7799951189227,None,return,1.1716088931134436,1649.7799951189227,None,,,DONGPING,F,002,2023_Apr_18_1549,untitled,2021.1.4,59.94649251529464,
36,36,0,9,72,36,81,0.56,0.5,0.5,0.0,0.5,0.5,,stimuli/P_36_36_00_09.png,,,,,0,87,87,241,,,,,,,,,,,,,,,,,,,,,,,,,,,,1650.9871277401253,None,1650.9871277401253,None,1651.3830832780077,None,1651.3830832780077,None,40,1651.3830832780077,None,return,2.688664480985608,1651.3830832780077,None,,,DONGPING,F,002,2023_Apr_18_1549,untitled,2021.1.4,59.94649251529464,
36,0,18,18,36,54,72,1.0,0.0,1.0,0.5,0.5,1.0,,stimuli/P_36_00_18_18.png,,,,,0,88,88,202,,,,,,,,,,,,,,,,,,,,,,,,,,,,1654.1024177229556,None,1654.1024177229556,None,1654.4972263798554,None,1654.4972263798554,None,100,1654.4972263798554,None,return,5.70708853227552,1654.4972263798554,None,,,DONGPING,F,002,2023_Apr_18_1549,untitled,2021.1.4,59.94649251529464,
18,9,36,9,27,54,72,0.88,0.33,0.67,0.8,-0.13,-0.67,,stimuli/P_18_09_36_09.png,,,,,0,89,89,157,,,,,,,,,,,,,,,,,,,,,,,,,,,,1660.2190667824907,None,1660.2190667824907,None,1660.620276582631,None,1660.620276582631,None,25,1660.620276582631,None,return,4.337899239457329,1660.620276582631,None,,,DONGPING,F,002,2023_Apr_18_1549,untitled,2021.1.4,59.94649251529464,
9,0,36,18,9,45,63,1.0,0.0,1.0,0.67,0.33,1.0,,stimuli/P_09_00_36_18.png,,,,,0,90,90,78,,,,,,,,,,,,,,,,,,,,,,,,,,,,1664.9774554829783,None,1664.9774554829783,None,1665.3781424737826,None,1665.3781424737826,None,30,1665.3781424737826,None,return,3.094690498575801,1665.3781424737826,None,,,DONGPING,F,002,2023_Apr_18_1549,untitled,2021.1.4,59.94649251529464,
0,0,18,9,0,18,27,1.0,None,None,0.67,None,None,,stimuli/P_00_00_18_09.png,,,,,0,91,91,9,,,,,,,,,,,,,,,,,,,,,,,,,,,,1668.5085546739574,None,1668.5085546739574,None,1668.905416452617,None,1668.905416452617,None,0,1668.905416452617,None,return,1.2606406490813242,1668.905416452617,None,,,DONGPING,F,002,2023_Apr_18_1549,untitled,2021.1.4,59.94649251529464,
9,9,36,36,18,45,90,0.9,0.5,0.5,0.5,0.0,0.0,,stimuli/P_09_09_36_36.png,,,,,0,92,92,95,,,,,,,,,,,,,,,,,,,,,,,,,,,,1670.1985970050155,None,1670.1985970050155,None,1670.6966960611753,None,1670.6966960611753,None,50,1670.6966960611753,None,return,2.5627448002196616,1670.6966960611753,None,,,DONGPING,F,002,2023_Apr_18_1549,untitled,2021.1.4,59.94649251529464,
36,9,36,9,45,72,90,0.9,0.2,0.8,0.8,0.0,0.0,,stimuli/P_36_09_36_09.png,,,,,0,93,93,221,,,,,,,,,,,,,,,,,,,,,,,,,,,,1673.2985502992087,None,1673.2985502992087,None,1673.8199266018928,None,1673.8199266018928,None,50,1673.8199266018928,None,return,2.9630563240352785,1673.8199266018928,None,,,DONGPING,F,002,2023_Apr_18_1549,untitled,2021.1.4,59.94649251529464,
0,18,18,36,18,18,72,0.75,1.0,0.0,0.33,-0.33,-0.5,,stimuli/P_00_18_18_36.png,,,,,0,94,94,43,,,,,,,,,,,,,,,,,,,,,,,,,,,,1676.8145164639427,None,1676.8145164639427,None,1677.3263257540239,None,1677.3263257540239,None,0,1677.3263257540239,None,return,1.615195831633173,1677.3263257540239,None,,,DONGPING,F,002,2023_Apr_18_1549,untitled,2021.1.4,59.94649251529464,
9,0,9,0,9,18,18,1.0,0.0,1.0,1.0,0.0,None,,stimuli/P_09_00_09_00.png,,,,,0,95,95,68,,,,,,,,,,,,,,,,,,,,,,,,,,,,1678.9740984667878,None,1678.9740984667878,None,1679.368555550056,None,1679.368555550056,None,50,1679.368555550056,None,return,2.4560353758279234,1679.368555550056,None,,,DONGPING,F,002,2023_Apr_18_1549,untitled,2021.1.4,59.94649251529464,
0,9,36,0,9,36,45,0.8,1.0,0.0,1.0,-1.0,#NAME?,,stimuli/P_00_09_36_00.png,,,,,0,96,96,28,,,,,,,,,,,,,,,,,,,,,,,,,,,,1681.8595395067969,None,1681.8595395067969,None,1682.364866871343,None,1682.364866871343,None,0,1682.364866871343,None,return,2.795232251941343,1682.364866871343,None,,,DONGPING,F,002,2023_Apr_18_1549,untitled,2021.1.4,59.94649251529464,
0,18,0,36,18,0,54,0.67,1.0,0.0,0.0,0.0,0.0,,stimuli/P_00_18_00_36.png,,,,,0,97,97,35,,,,,,,,,,,,,,,,,,,,,,,,,,,,1685.1854152693268,None,1685.1854152693268,None,1685.5786424137768,None,1685.5786424137768,None,0,1685.5786424137768,None,return,1.6967853768146597,1685.5786424137768,None,,,DONGPING,F,002,2023_Apr_18_1549,untitled,2021.1.4,59.94649251529464,
36,9,18,9,45,54,72,0.88,0.2,0.8,0.67,0.13,0.4,,stimuli/P_36_09_18_09.png,,,,,0,98,98,217,,,,,,,,,,,,,,,,,,,,,,,,,,,,1687.307183764351,None,1687.307183764351,None,1687.7043880144047,None,1687.7043880144047,None,50,1687.7043880144047,None,return,2.165180443174904,1687.7043880144047,None,,,DONGPING,F,002,2023_Apr_18_1549,untitled,2021.1.4,59.94649251529464,
0,9,36,18,9,36,63,0.86,1.0,0.0,0.67,-0.67,-2.0,,stimuli/P_00_09_36_18.png,,,,,0,99,99,30,,,,,,,,,,,,,,,,,,,,,,,,,,,,1689.9042581938556,None,1689.9042581938556,None,1690.406174497708,None,1690.406174497708,None,0,1690.406174497708,None,return,1.519799341331236,1690.406174497708,None,,,DONGPING,F,002,2023_Apr_18_1549,untitled,2021.1.4,59.94649251529464,
9,36,18,36,45,27,99,0.64,0.8,0.2,0.33,-0.13,-0.2,,stimuli/P_09_36_18_36.png,,,,,0,100,100,123,,,,,,,,,,,,,,,,,,,,,,,,,,,,1691.9576979550038,None,1691.9576979550038,None,1692.4753070722654,None,1692.4753070722654,None,50,1692.4753070722654,None,return,2.4460098383715376,1692.4753070722654,None,,,DONGPING,F,002,2023_Apr_18_1549,untitled,2021.1.4,59.94649251529464,
9,18,18,18,27,27,63,0.71,0.67,0.33,0.5,-0.17,-0.33,,stimuli/P_09_18_18_18.png,,,,,0,101,101,106,,,,,,,,,,,,,,,,,,,,,,,,,,,,1694.9553467352234,None,1694.9553467352234,None,1695.4635452844377,None,1695.4635452844377,None,50,1695.4635452844377,None,return,1.930928865505848,1695.4635452844377,None,,,DONGPING,F,002,2023_Apr_18_1549,untitled,2021.1.4,59.94649251529464,
0,9,9,9,9,9,27,0.67,1.0,0.0,0.5,-0.5,-1.0,,stimuli/P_00_09_09_09.png,,,,,0,102,102,21,,,,,,,,,,,,,,,,,,,,,,,,,,,,1697.4338458457642,None,1697.4338458457642,None,1697.8340424539347,None,1697.8340424539347,None,0,1697.8340424539347,None,return,1.2103326239302987,1697.8340424539347,None,,,DONGPING,F,002,2023_Apr_18_1549,untitled,2021.1.4,59.94649251529464,
0,0,18,0,0,18,18,1.0,None,None,1.0,None,None,,stimuli/P_00_00_18_00.png,,,,,0,103,103,8,,,,,,,,,,,,,,,,,,,,,,,,,,,,1699.0688100142725,None,1699.0688100142725,None,1699.5829563018924,None,1699.5829563018924,None,0,1699.5829563018924,None,return,1.2556867604143918,1699.5829563018924,None,,,DONGPING,F,002,2023_Apr_18_1549,untitled,2021.1.4,59.94649251529464,
9,36,36,36,45,45,117,0.69,0.8,0.2,0.5,-0.3,-0.6,,stimuli/P_09_36_36_36.png,,,,,0,104,104,127,,,,,,,,,,,,,,,,,,,,,,,,,,,,1700.8639193861018,None,1700.8639193861018,None,1701.3750249600125,None,1701.3750249600125,None,50,1701.3750249600125,None,return,1.5617293326795334,1701.3750249600125,None,,,DONGPING,F,002,2023_Apr_18_1549,untitled,2021.1.4,59.94649251529464,
9,9,9,36,18,18,63,0.86,0.5,0.5,0.2,0.3,0.37,,stimuli/P_09_09_09_36.png,,,,,0,105,105,87,,,,,,,,,,,,,,,,,,,,,,,,,,,,1702.952849879759,None,1702.952849879759,None,1703.4671491986373,None,1703.4671491986373,None,50,1703.4671491986373,None,return,1.6138811282871757,1703.4671491986373,None,,,DONGPING,F,002,2023_Apr_18_1549,untitled,2021.1.4,59.94649251529464,
18,0,9,0,18,27,27,1.0,0.0,1.0,1.0,0.0,None,,stimuli/P_18_00_09_00.png,,,,,0,106,106,132,,,,,,,,,,,,,,,,,,,,,,,,,,,,1705.0976629455545,None,1705.0976629455545,None,1705.494420617455,None,1705.494420617455,None,100,1705.494420617455,None,return,4.4570150033105165,1705.494420617455,None,,,DONGPING,F,002,2023_Apr_18_1549,untitled,2021.1.4,59.94649251529464,
36,0,18,0,36,54,54,1.0,0.0,1.0,1.0,0.0,None,,stimuli/P_36_00_18_00.png,,,,,0,107,107,200,,,,,,,,,,,,,,,,,,,,,,,,,,,,1709.9858443256962,None,1709.9858443256962,None,1710.4969789129682,None,1710.4969789129682,None,100,1710.4969789129682,None,return,1.7294663647044217,1710.4969789129682,None,,,DONGPING,F,002,2023_Apr_18_1549,untitled,2021.1.4,59.94649251529464,
18,9,18,9,27,36,54,0.83,0.33,0.67,0.67,0.0,0.0,,stimuli/P_18_09_18_09.png,,,,,0,108,108,153,,,,,,,,,,,,,,,,,,,,,,,,,,,,1712.2648430348781,None,1712.2648430348781,None,1712.781604506963,None,1712.781604506963,None,50,1712.781604506963,None,return,2.815094455552753,1712.781604506963,None,,,DONGPING,F,002,2023_Apr_18_1549,untitled,2021.1.4,59.94649251529464,
36,9,0,18,45,36,63,0.86,0.2,0.8,0.0,0.8,0.8,,stimuli/P_36_09_00_18.png,,,,,0,109,109,210,,,,,,,,,,,,,,,,,,,,,,,,,,,,1715.6309455339651,None,1715.6309455339651,None,1716.1388084384525,None,1716.1388084384525,None,50,1716.1388084384525,None,return,1.6918132836872246,1716.1388084384525,None,,,DONGPING,F,002,2023_Apr_18_1549,untitled,2021.1.4,59.94649251529464,
0,0,18,36,0,18,54,1.0,None,None,0.33,None,None,,stimuli/P_00_00_18_36.png,,,,,0,110,110,11,,,,,,,,,,,,,,,,,,,,,,,,,,,,1717.871910575137,None,1717.871910575137,None,1718.3900220217038,None,1718.3900220217038,None,0,1718.3900220217038,None,return,1.2368161309714196,1718.3900220217038,None,,,DONGPING,F,002,2023_Apr_18_1549,untitled,2021.1.4,59.94649251529464,
36,18,18,0,54,54,72,0.75,0.33,0.67,1.0,-0.33,#NAME?,,stimuli/P_36_18_18_00.png,,,,,0,111,111,232,,,,,,,,,,,,,,,,,,,,,,,,,,,,1719.6639194998716,None,1719.6639194998716,None,1720.1713796306867,None,1720.1713796306867,None,50,1720.1713796306867,None,return,1.5794576322368812,1720.1713796306867,None,,,DONGPING,F,002,2023_Apr_18_1549,untitled,2021.1.4,59.94649251529464,
9,18,9,18,27,18,54,0.67,0.67,0.33,0.33,0.0,0.0,,stimuli/P_09_18_09_18.png,,,,,0,112,112,102,,,,,,,,,,,,,,,,,,,,,,,,,,,,1721.7837634421448,None,1721.7837634421448,None,1722.293511646014,None,1722.293511646014,None,50,1722.293511646014,None,return,1.258699029640411,1722.293511646014,None,,,DONGPING,F,002,2023_Apr_18_1549,untitled,2021.1.4,59.94649251529464,
9,36,9,0,45,18,54,0.33,0.8,0.2,1.0,-0.8,#NAME?,,stimuli/P_09_36_09_00.png,,,,,0,113,113,116,,,,,,,,,,,,,,,,,,,,,,,,,,,,1723.5828743818274,None,1723.5828743818274,None,1724.0923148165457,None,1724.0923148165457,None,50,1724.0923148165457,None,return,1.2462551434728084,1724.0923148165457,None,,,DONGPING,F,002,2023_Apr_18_1549,untitled,2021.1.4,59.94649251529464,
0,9,0,9,9,0,18,0.5,1.0,0.0,0.0,0.0,0.0,,stimuli/P_00_09_00_09.png,,,,,0,114,114,17,,,,,,,,,,,,,,,,,,,,,,,,,,,,1725.3689406881604,None,1725.3689406881604,None,1725.7638301273546,None,1725.7638301273546,None,0,1725.7638301273546,None,return,1.3580032210447825,1725.7638301273546,None,,,DONGPING,F,002,2023_Apr_18_1549,untitled,2021.1.4,59.94649251529464,
0,36,0,36,36,0,72,0.5,1.0,0.0,0.0,0.0,0.0,,stimuli/P_00_36_00_36.png,,,,,0,115,115,51,,,,,,,,,,,,,,,,,,,,,,,,,,,,1727.1521386542736,None,1727.1521386542736,None,1727.5459898703557,None,1727.5459898703557,None,0,1727.5459898703557,None,return,0.949686285952339,1727.5459898703557,None,,,DONGPING,F,002,2023_Apr_18_1549,untitled,2021.1.4,59.94649251529464,
18,36,18,9,54,36,81,0.56,0.67,0.33,0.67,-0.33,-1.0,,stimuli/P_18_36_18_09.png,,,,,0,116,116,185,,,,,,,,,,,,,,,,,,,,,,,,,,,,1728.5311771288252,None,1728.5311771288252,None,1729.069793624003,None,1729.069793624003,None,50,1729.069793624003,None,return,1.2577341932774289,1729.069793624003,None,,,DONGPING,F,002,2023_Apr_18_1549,untitled,2021.1.4,59.94649251529464,
9,9,9,18,18,18,45,0.8,0.5,0.5,0.33,0.17,0.25,,stimuli/P_09_09_09_18.png,,,,,0,117,117,86,,,,,,,,,,,,,,,,,,,,,,,,,,,,1730.3434328263975,None,1730.3434328263975,None,1730.8443820183165,None,1730.8443820183165,None,50,1730.8443820183165,None,return,1.6420599256671267,1730.8443820183165,None,,,DONGPING,F,002,2023_Apr_18_1549,untitled,2021.1.4,59.94649251529464,
18,36,9,36,54,27,99,0.64,0.67,0.33,0.2,0.13,0.17,,stimuli/P_18_36_09_36.png,,,,,0,118,118,183,,,,,,,,,,,,,,,,,,,,,,,,,,,,1732.523631380158,None,1732.523631380158,None,1732.9243633132282,None,1732.9243633132282,None,50,1732.9243633132282,None,return,1.2239626444497844,1732.9243633132282,None,,,DONGPING,F,002,2023_Apr_18_1549,untitled,2021.1.4,59.94649251529464,
9,9,36,9,18,45,63,0.86,0.5,0.5,0.8,-0.3,-1.5,,stimuli/P_09_09_36_09.png,,,,,0,119,119,93,,,,,,,,,,,,,,,,,,,,,,,,,,,,1734.1859841586993,None,1734.1859841586993,None,1734.7027780574717,None,1734.7027780574717,None,50,1734.7027780574717,None,return,1.4861614815308712,1734.7027780574717,None,,,DONGPING,F,002,2023_Apr_18_1549,untitled,2021.1.4,59.94649251529464,
0,18,36,18,18,36,72,0.75,1.0,0.0,0.67,-0.67,-2.0,,stimuli/P_00_18_36_18.png,,,,,0,120,120,46,,,,,,,,,,,,,,,,,,,,,,,,,,,,1736.2256363169872,None,1736.2256363169872,None,1736.7344333378278,None,1736.7344333378278,None,0,1736.7344333378278,None,return,1.4315486704872455,1736.7344333378278,None,,,DONGPING,F,002,2023_Apr_18_1549,untitled,2021.1.4,59.94649251529464,
36,18,18,18,54,54,90,0.8,0.33,0.67,0.5,0.17,0.33,,stimuli/P_36_18_18_18.png,,,,,0,121,121,234,,,,,,,,,,,,,,,,,,,,,,,,,,,,1738.2017856299644,None,1738.2017856299644,None,1738.5967404914409,None,1738.5967404914409,None,50,1738.5967404914409,None,return,1.2517198947898578,1738.5967404914409,None,,,DONGPING,F,002,2023_Apr_18_1549,untitled,2021.1.4,59.94649251529464,
18,0,0,0,18,18,18,1.0,0.0,1.0,None,None,None,,stimuli/P_18_00_00_00.png,,,,,0,122,122,128,,,,,,,,,,,,,,,,,,,,,,,,,,,,1739.8686093100987,None,1739.8686093100987,None,1740.264150127623,None,1740.264150127623,None,100,1740.264150127623,None,return,2.041716088933754,1740.264150127623,None,,,DONGPING,F,002,2023_Apr_18_1549,untitled,2021.1.4,59.94649251529464,
9,0,18,36,9,27,63,1.0,0.0,1.0,0.33,0.67,1.0,,stimuli/P_09_00_18_36.png,,,,,0,123,123,75,,,,,,,,,,,,,,,,,,,,,,,,,,,,1742.3307602466957,None,1742.3307602466957,None,1742.737889340773,None,1742.737889340773,None,100,1742.737889340773,None,return,1.7862790709623368,1742.737889340773,None,,,DONGPING,F,002,2023_Apr_18_1549,untitled,2021.1.4,59.94649251529464,
18,0,18,36,18,36,72,1.0,0.0,1.0,0.33,0.67,1.0,,stimuli/P_18_00_18_36.png,,,,,0,124,124,139,,,,,,,,,,,,,,,,,,,,,,,,,,,,1744.5535100189882,None,1744.5535100189882,None,1745.0625573511497,None,1745.0625573511497,None,100,1745.0625573511497,None,return,1.6920141016307753,1745.0625573511497,None,,,DONGPING,F,002,2023_Apr_18_1549,untitled,2021.1.4,59.94649251529464,
0,0,9,36,0,9,45,1.0,None,None,0.2,None,None,,stimuli/P_00_00_09_36.png,,,,,0,125,125,7,,,,,,,,,,,,,,,,,,,,,,,,,,,,1746.786686395746,None,1746.786686395746,None,1747.2898906651535,None,1747.2898906651535,None,0,1747.2898906651535,None,return,1.07024532216019,1747.2898906651535,None,,,DONGPING,F,002,2023_Apr_18_1549,untitled,2021.1.4,59.94649251529464,
0,36,9,9,36,9,54,0.33,1.0,0.0,0.5,-0.5,-1.0,,stimuli/P_00_36_09_09.png,,,,,0,126,126,53,,,,,,,,,,,,,,,,,,,,,,,,,,,,1748.3964265782852,None,1748.3964265782852,None,1748.9086665176146,None,1748.9086665176146,None,0,1748.9086665176146,None,return,1.6282643583399476,1748.9086665176146,None,,,DONGPING,F,002,2023_Apr_18_1549,untitled,2021.1.4,59.94649251529464,
9,0,36,0,9,45,45,1.0,0.0,1.0,1.0,0.0,None,,stimuli/P_09_00_36_00.png,,,,,0,127,127,76,,,,,,,,,,,,,,,,,,,,,,,,,,,,1750.5645891395543,None,1750.5645891395543,None,1750.9699654854776,None,1750.9699654854776,None,100,1750.9699654854776,None,return,1.7451534892024938,1750.9699654854776,None,,,DONGPING,F,002,2023_Apr_18_1549,untitled,2021.1.4,59.94649251529464,
36,36,36,0,72,72,108,0.67,0.5,0.5,1.0,-0.5,#NAME?,,stimuli/P_36_36_36_00.png,,,,,0,128,128,252,,,,,,,,,,,,,,,,,,,,,,,,,,,,1752.7520182772714,None,1752.7520182772714,None,1753.3185137651308,None,1753.3185137651308,None,100,1753.3185137651308,None,return,2.0906474017974688,1753.3185137651308,None,,,DONGPING,F,002,2023_Apr_18_1549,untitled,2021.1.4,59.94649251529464,
0,9,18,9,9,18,36,0.75,1.0,0.0,0.67,-0.67,-2.0,,stimuli/P_00_09_18_09.png,,,,,0,129,129,25,,,,,,,,,,,,,,,,,,,,,,,,,,,,1755.4457549759245,None,1755.4457549759245,None,1755.845979459671,None,1755.845979459671,None,0,1755.845979459671,None,return,1.6646419893804705,1755.845979459671,None,,,DONGPING,F,002,2023_Apr_18_1549,untitled,2021.1.4,59.94649251529464,
9,18,9,9,27,18,45,0.6,0.67,0.33,0.5,-0.17,-0.33,,stimuli/P_09_18_09_09.png,,,,,0,130,130,101,,,,,,,,,,,,,,,,,,,,,,,,,,,,1757.5304916171299,None,1757.5304916171299,None,1758.0445332291129,None,1758.0445332291129,None,50,1758.0445332291129,None,return,2.253818527708063,1758.0445332291129,None,,,DONGPING,F,002,2023_Apr_18_1549,untitled,2021.1.4,59.94649251529464,
36,0,9,36,36,45,81,1.0,0.0,1.0,0.2,0.8,1.0,,stimuli/P_36_00_09_36.png,,,,,0,131,131,199,,,,,,,,,,,,,,,,,,,,,,,,,,,,1760.3288794984255,None,1760.3288794984255,None,1760.7231539681961,None,1760.7231539681961,None,100,1760.7231539681961,None,return,1.89242643264879,1760.7231539681961,None,,,DONGPING,F,002,2023_Apr_18_1549,untitled,2021.1.4,59.94649251529464,
9,9,9,9,18,18,36,0.75,0.5,0.5,0.5,0.0,0.0,,stimuli/P_09_09_09_09.png,,,,,0,132,132,85,,,,,,,,,,,,,,,,,,,,,,,,,,,,1762.6304011068278,None,1762.6304011068278,None,1763.0347420740873,None,1763.0347420740873,None,50,1763.0347420740873,None,return,1.657809627999086,1763.0347420740873,None,,,DONGPING,F,002,2023_Apr_18_1549,untitled,2021.1.4,59.94649251529464,
0,0,0,9,0,0,9,1.0,None,None,0.0,None,None,,stimuli/P_00_00_00_09.png,,,,,0,133,133,1,,,,,,,,,,,,,,,,,,,,,,,,,,,,1764.7273409939953,None,1764.7273409939953,None,1765.1513393646892,None,1765.1513393646892,None,0,1765.1513393646892,None,return,1.5299187455239007,1765.1513393646892,None,,,DONGPING,F,002,2023_Apr_18_1549,untitled,2021.1.4,59.94649251529464,
18,9,9,18,27,27,54,0.83,0.33,0.67,0.33,0.33,0.5,,stimuli/P_18_09_09_18.png,,,,,0,134,134,150,,,,,,,,,,,,,,,,,,,,,,,,,,,,1766.7095381699182,None,1766.7095381699182,None,1767.207349368051,None,1767.207349368051,None,50,1767.207349368051,None,return,1.6541653226740891,1767.207349368051,None,,,DONGPING,F,002,2023_Apr_18_1549,untitled,2021.1.4,59.94649251529464,
36,18,36,36,54,72,126,0.86,0.33,0.67,0.5,0.17,0.33,,stimuli/P_36_18_36_36.png,,,,,0,135,135,239,,,,,,,,,,,,,,,,,,,,,,,,,,,,1768.8864673164499,None,1768.8864673164499,None,1769.2840481712774,None,1769.2840481712774,None,50,1769.2840481712774,None,return,1.4357021317991894,1769.2840481712774,None,,,DONGPING,F,002,2023_Apr_18_1549,untitled,2021.1.4,59.94649251529464,
9,18,9,36,27,18,72,0.75,0.67,0.33,0.2,0.13,0.17,,stimuli/P_09_18_09_36.png,,,,,0,136,136,103,,,,,,,,,,,,,,,,,,,,,,,,,,,,1770.7433961899224,None,1770.7433961899224,None,1771.254355559271,None,1771.254355559271,None,50,1771.254355559271,None,return,1.2619809524330776,1771.254355559271,None,,,DONGPING,F,002,2023_Apr_18_1549,untitled,2021.1.4,59.94649251529464,
36,9,36,36,45,72,117,0.92,0.2,0.8,0.5,0.3,0.6,,stimuli/P_36_09_36_36.png,,,,,0,137,137,223,,,,,,,,,,,,,,,,,,,,,,,,,,,,1772.5357083326962,None,1772.5357083326962,None,1773.034030393479,None,1773.034030393479,None,50,1773.034030393479,None,return,1.4172194849088555,1773.034030393479,None,,,DONGPING,F,002,2023_Apr_18_1549,untitled,2021.1.4,59.94649251529464,
18,36,36,36,54,54,126,0.71,0.67,0.33,0.5,-0.17,-0.33,,stimuli/P_18_36_36_36.png,,,,,0,138,138,191,,,,,,,,,,,,,,,,,,,,,,,,,,,,1774.4734775240358,None,1774.4734775240358,None,1774.8748102042737,None,1774.8748102042737,None,50,1774.8748102042737,None,return,0.930577860766789,1774.8748102042737,None,,,DONGPING,F,002,2023_Apr_18_1549,untitled,2021.1.4,59.94649251529464,
36,36,9,18,72,45,99,0.64,0.5,0.5,0.33,0.17,0.25,,stimuli/P_36_36_09_18.png,,,,,0,139,139,246,,,,,,,,,,,,,,,,,,,,,,,,,,,,1775.8375331591378,None,1775.8375331591378,None,1776.3517573846038,None,1776.3517573846038,None,50,1776.3517573846038,None,return,2.227112016029423,1776.3517573846038,None,,,DONGPING,F,002,2023_Apr_18_1549,untitled,2021.1.4,59.94649251529464,
18,0,0,9,18,18,27,1.0,0.0,1.0,0.0,1.0,1.0,,stimuli/P_18_00_00_09.png,,,,,0,140,140,129,,,,,,,,,,,,,,,,,,,,,,,,,,,,1778.5995246360399,None,1778.5995246360399,None,1779.1157274587458,None,1779.1157274587458,None,100,1779.1157274587458,None,return,2.7506819561385782,1779.1157274587458,None,,,DONGPING,F,002,2023_Apr_18_1549,untitled,2021.1.4,59.94649251529464,
36,9,0,9,45,36,54,0.83,0.2,0.8,0.0,0.8,0.8,,stimuli/P_36_09_00_09.png,,,,,0,141,141,209,,,,,,,,,,,,,,,,,,,,,,,,,,,,1781.8905240665772,None,1781.8905240665772,None,1782.296832822176,None,1782.296832822176,None,50,1782.296832822176,None,return,2.312955147062894,1782.296832822176,None,,,DONGPING,F,002,2023_Apr_18_1549,untitled,2021.1.4,59.94649251529464,
36,9,0,36,45,36,81,0.89,0.2,0.8,0.0,0.8,0.8,,stimuli/P_36_09_00_36.png,,,,,0,142,142,211,,,,,,,,,,,,,,,,,,,,,,,,,,,,1784.630461409106,None,1784.630461409106,None,1785.1430153753754,None,1785.1430153753754,None,50,1785.1430153753754,None,return,1.2951113629387692,1785.1430153753754,None,,,DONGPING,F,002,2023_Apr_18_1549,untitled,2021.1.4,59.94649251529464,
18,9,18,36,27,36,81,0.89,0.33,0.67,0.33,0.33,0.5,,stimuli/P_18_09_18_36.png,,,,,0,143,143,155,,,,,,,,,,,,,,,,,,,,,,,,,,,,1786.472446127591,None,1786.472446127591,None,1786.976041792892,None,1786.976041792892,None,50,1786.976041792892,None,return,0.9697276897204574,1786.976041792892,None,,,DONGPING,F,002,2023_Apr_18_1549,untitled,2021.1.4,59.94649251529464,
9,18,18,9,27,27,54,0.67,0.67,0.33,0.67,-0.33,-1.0,,stimuli/P_09_18_18_09.png,,,,,0,144,144,105,,,,,,,,,,,,,,,,,,,,,,,,,,,,1787.9839715418784,None,1787.9839715418784,None,1788.4758253304753,None,1788.4758253304753,None,50,1788.4758253304753,None,return,1.0531809164822334,1788.4758253304753,None,,,DONGPING,F,002,2023_Apr_18_1549,untitled,2021.1.4,59.94649251529464,
36,9,9,18,45,45,72,0.88,0.2,0.8,0.33,0.47,0.7,,stimuli/P_36_09_09_18.png,,,,,0,145,145,214,,,,,,,,,,,,,,,,,,,,,,,,,,,,1789.561178647753,None,1789.561178647753,None,1790.0733087914414,None,1790.0733087914414,None,50,1790.0733087914414,None,return,0.9157929948123638,1790.0733087914414,None,,,DONGPING,F,002,2023_Apr_18_1549,untitled,2021.1.4,59.94649251529464,
18,18,9,18,36,27,63,0.71,0.5,0.5,0.33,0.17,0.25,,stimuli/P_18_18_09_18.png,,,,,0,146,146,166,,,,,,,,,,,,,,,,,,,,,,,,,,,,1791.01867094927,None,1791.01867094927,None,1791.4155748257326,None,1791.4155748257326,None,50,1791.4155748257326,None,return,0.8560527838417329,1791.4155748257326,None,,,DONGPING,F,002,2023_Apr_18_1549,untitled,2021.1.4,59.94649251529464,
9,18,36,18,27,45,81,0.78,0.67,0.33,0.67,-0.33,-1.0,,stimuli/P_09_18_36_18.png,,,,,0,147,147,110,,,,,,,,,,,,,,,,,,,,,,,,,,,,1792.2935764994036,None,1792.2935764994036,None,1792.826520029732,None,1792.826520029732,None,50,1792.826520029732,None,return,0.8791036124021048,1792.826520029732,None,,,DONGPING,F,002,2023_Apr_18_1549,untitled,2021.1.4,59.94649251529464,
18,36,36,9,54,54,99,0.64,0.67,0.33,0.8,-0.47,-2.33,,stimuli/P_18_36_36_09.png,,,,,0,148,148,189,,,,,,,,,,,,,,,,,,,,,,,,,,,,1793.7332187590073,None,1793.7332187590073,None,1794.2377365939756,None,1794.2377365939756,None,50,1794.2377365939756,None,return,0.9570494211220648,1794.2377365939756,None,,,DONGPING,F,002,2023_Apr_18_1549,untitled,2021.1.4,59.94649251529464,
36,36,9,9,72,45,90,0.6,0.5,0.5,0.5,0.0,0.0,,stimuli/P_36_36_09_09.png,,,,,0,149,149,245,,,,,,,,,,,,,,,,,,,,,,,,,,,,1795.2129108305671,None,1795.2129108305671,None,1795.729481155824,None,1795.729481155824,None,50,1795.729481155824,None,return,1.0114511742140166,1795.729481155824,None,,,DONGPING,F,002,2023_Apr_18_1549,untitled,2021.1.4,59.94649251529464,
36,18,9,0,54,45,63,0.71,0.33,0.67,1.0,-0.33,#NAME?,,stimuli/P_36_18_09_00.png,,,,,0,150,150,228,,,,,,,,,,,,,,,,,,,,,,,,,,,,1796.7627276197454,None,1796.7627276197454,None,1797.2130820662715,None,1797.2130820662715,None,50,1797.2130820662715,None,return,0.8600298894452862,1797.2130820662715,None,,,DONGPING,F,002,2023_Apr_18_1549,untitled,2021.1.4,59.94649251529464,
18,36,0,0,54,18,54,0.33,0.67,0.33,None,None,None,,stimuli/P_18_36_00_00.png,,,,,0,151,151,176,,,,,,,,,,,,,,,,,,,,,,,,,,,,1798.100423765689,None,1798.100423765689,None,1798.6103909919766,None,1798.6103909919766,None,50,1798.6103909919766,None,return,1.726878486922942,1798.6103909919766,None,,,DONGPING,F,002,2023_Apr_18_1549,untitled,2021.1.4,59.94649251529464,
18,0,18,0,18,36,36,1.0,0.0,1.0,1.0,0.0,None,,stimuli/P_18_00_18_00.png,,,,,0,152,152,136,,,,,,,,,,,,,,,,,,,,,,,,,,,,1800.370666129631,None,1800.370666129631,None,1800.7755088573176,None,1800.7755088573176,None,100,1800.7755088573176,None,return,2.055953114409931,1800.7755088573176,None,,,DONGPING,F,002,2023_Apr_18_1549,untitled,2021.1.4,59.94649251529464,
18,0,36,0,18,54,54,1.0,0.0,1.0,1.0,0.0,None,,stimuli/P_18_00_36_00.png,,,,,0,153,153,140,,,,,,,,,,,,,,,,,,,,,,,,,,,,1802.8739597146632,None,1802.8739597146632,None,1803.3877453264286,None,1803.3877453264286,None,100,1803.3877453264286,None,return,1.9511187493917532,1803.3877453264286,None,,,DONGPING,F,002,2023_Apr_18_1549,untitled,2021.1.4,59.94649251529464,
36,0,0,18,36,36,54,1.0,0.0,1.0,0.0,1.0,1.0,,stimuli/P_36_00_00_18.png,,,,,0,154,154,194,,,,,,,,,,,,,,,,,,,,,,,,,,,,1805.3633166478103,None,1805.3633166478103,None,1805.8748705065518,None,1805.8748705065518,None,100,1805.8748705065518,None,return,1.3819637037231587,1805.8748705065518,None,,,DONGPING,F,002,2023_Apr_18_1549,untitled,2021.1.4,59.94649251529464,
9,18,0,18,27,9,45,0.6,0.67,0.33,0.0,0.33,0.33,,stimuli/P_09_18_00_18.png,,,,,0,155,155,98,,,,,,,,,,,,,,,,,,,,,,,,,,,,1807.2762538179522,None,1807.2762538179522,None,1807.6740770196484,None,1807.6740770196484,None,50,1807.6740770196484,None,return,1.524771434473223,1807.6740770196484,None,,,DONGPING,F,002,2023_Apr_18_1549,untitled,2021.1.4,59.94649251529464,
0,9,36,9,9,36,54,0.83,1.0,0.0,0.8,-0.8,-4.0,,stimuli/P_00_09_36_09.png,,,,,0,156,156,29,,,,,,,,,,,,,,,,,,,,,,,,,,,,1809.22716321607,None,1809.22716321607,None,1809.6259745786083,None,1809.6259745786083,None,0,1809.6259745786083,None,return,1.3198483796004439,1809.6259745786083,None,,,DONGPING,F,002,2023_Apr_18_1549,untitled,2021.1.4,59.94649251529464,
36,0,0,36,36,36,72,1.0,0.0,1.0,0.0,1.0,1.0,,stimuli/P_36_00_00_36.png,,,,,0,157,157,195,,,,,,,,,,,,,,,,,,,,,,,,,,,,1810.9824634161487,None,1810.9824634161487,None,1811.505106066572,None,1811.505106066572,None,100,1811.505106066572,None,return,2.1331320602621417,1811.505106066572,None,,,DONGPING,F,002,2023_Apr_18_1549,untitled,2021.1.4,59.94649251529464,
9,9,0,36,18,9,54,0.83,0.5,0.5,0.0,0.5,0.5,,stimuli/P_09_09_00_36.png,,,,,0,158,158,83,,,,,,,,,,,,,,,,,,,,,,,,,,,,1813.6720022801019,None,1813.6720022801019,None,1814.076654429853,None,1814.076654429853,None,50,1814.076654429853,None,return,1.6239931369200349,1814.076654429853,None,,,DONGPING,F,002,2023_Apr_18_1549,untitled,2021.1.4,59.94649251529464,
0,9,18,18,9,18,45,0.8,1.0,0.0,0.5,-0.5,-1.0,,stimuli/P_00_09_18_18.png,,,,,0,159,159,26,,,,,,,,,,,,,,,,,,,,,,,,,,,,1815.7413163303718,None,1815.7413163303718,None,1816.1458928178326,None,1816.1458928178326,None,0,1816.1458928178326,None,return,1.0918426383723272,1816.1458928178326,None,,,DONGPING,F,002,2023_Apr_18_1549,untitled,2021.1.4,59.94649251529464,
36,0,36,0,36,72,72,1.0,0.0,1.0,1.0,0.0,None,,stimuli/P_36_00_36_00.png,,,,,0,160,160,204,,,,,,,,,,,,,,,,,,,,,,,,,,,,1817.2719808898692,None,1817.2719808898692,None,1817.784533149461,None,1817.784533149461,None,100,1817.784533149461,None,return,1.7885381306696218,1817.784533149461,None,,,DONGPING,F,002,2023_Apr_18_1549,untitled,2021.1.4,59.94649251529464,
36,0,9,9,36,45,54,1.0,0.0,1.0,0.5,0.5,1.0,,stimuli/P_36_00_09_09.png,,,,,0,161,161,197,,,,,,,,,,,,,,,,,,,,,,,,,,,,1819.5957460728096,None,1819.5957460728096,None,1819.9987820078532,None,1819.9987820078532,None,100,1819.9987820078532,None,return,1.8414533758186735,1819.9987820078532,None,,,DONGPING,F,002,2023_Apr_18_1549,untitled,2021.1.4,59.94649251529464,
36,18,36,18,54,72,108,0.83,0.33,0.67,0.67,0.0,0.0,,stimuli/P_36_18_36_18.png,,,,,0,162,162,238,,,,,,,,,,,,,,,,,,,,,,,,,,,,1821.8611409303994,None,1821.8611409303994,None,1822.3732574207388,None,1822.3732574207388,None,50,1822.3732574207388,None,return,1.5166203875123756,1822.3732574207388,None,,,DONGPING,F,002,2023_Apr_18_1549,untitled,2021.1.4,59.94649251529464,
9,36,36,9,45,45,90,0.6,0.8,0.2,0.8,-0.6,-3.0,,stimuli/P_09_36_36_09.png,,,,,0,163,163,125,,,,,,,,,,,,,,,,,,,,,,,,,,,,1823.9227988674538,None,1823.9227988674538,None,1824.4176182763622,None,1824.4176182763622,None,50,1824.4176182763622,None,return,1.0115951032348676,1824.4176182763622,None,,,DONGPING,F,002,2023_Apr_18_1549,untitled,2021.1.4,59.94649251529464,
0,36,36,9,36,36,81,0.56,1.0,0.0,0.8,-0.8,-4.0,,stimuli/P_00_36_36_09.png,,,,,0,164,164,61,,,,,,,,,,,,,,,,,,,,,,,,,,,,1825.4612526602723,None,1825.4612526602723,None,1825.9796400181804,None,1825.9796400181804,None,0,1825.9796400181804,None,return,1.137108028109651,1825.9796400181804,None,,,DONGPING,F,002,2023_Apr_18_1549,untitled,2021.1.4,59.94649251529464,
9,18,0,36,27,9,63,0.71,0.67,0.33,0.0,0.33,0.33,,stimuli/P_09_18_00_36.png,,,,,0,165,165,99,,,,,,,,,,,,,,,,,,,,,,,,,,,,1827.1471984189411,None,1827.1471984189411,None,1827.5453310964513,None,1827.5453310964513,None,50,1827.5453310964513,None,return,1.3028459828783525,1827.5453310964513,None,,,DONGPING,F,002,2023_Apr_18_1549,untitled,2021.1.4,59.94649251529464,
36,0,36,18,36,72,90,1.0,0.0,1.0,0.67,0.33,1.0,,stimuli/P_36_00_36_18.png,,,,,0,166,166,206,,,,,,,,,,,,,,,,,,,,,,,,,,,,1828.872660940222,None,1828.872660940222,None,1829.3960698846495,None,1829.3960698846495,None,100,1829.3960698846495,None,return,2.322716719834716,1829.3960698846495,None,,,DONGPING,F,002,2023_Apr_18_1549,untitled,2021.1.4,59.94649251529464,
9,18,0,9,27,9,36,0.5,0.67,0.33,0.0,0.33,0.33,,stimuli/P_09_18_00_09.png,,,,,0,167,167,97,,,,,,,,,,,,,,,,,,,,,,,,,,,,1831.7414147482195,None,1831.7414147482195,None,1832.248741758929,None,1832.248741758929,None,50,1832.248741758929,None,return,1.7612416807096452,1832.248741758929,None,,,DONGPING,F,002,2023_Apr_18_1549,untitled,2021.1.4,59.94649251529464,
36,18,0,9,54,36,63,0.71,0.33,0.67,0.0,0.67,0.67,,stimuli/P_36_18_00_09.png,,,,,0,168,168,225,,,,,,,,,,,,,,,,,,,,,,,,,,,,1834.0385325839889,None,1834.0385325839889,None,1834.434794184359,None,1834.434794184359,None,50,1834.434794184359,None,return,1.047965907593607,1834.434794184359,None,,,DONGPING,F,002,2023_Apr_18_1549,untitled,2021.1.4,59.94649251529464,
36,36,9,0,72,45,81,0.56,0.5,0.5,1.0,-0.5,#NAME?,,stimuli/P_36_36_09_00.png,,,,,0,169,169,244,,,,,,,,,,,,,,,,,,,,,,,,,,,,1835.510547493439,None,1835.510547493439,None,1835.9063932356803,None,1835.9063932356803,None,50,1835.9063932356803,None,return,0.933918948052451,1835.9063932356803,None,,,DONGPING,F,002,2023_Apr_18_1549,untitled,2021.1.4,59.94649251529464,
9,9,0,0,18,9,18,0.5,0.5,0.5,None,None,None,,stimuli/P_09_09_00_00.png,,,,,0,170,170,80,,,,,,,,,,,,,,,,,,,,,,,,,,,,1836.8692908395751,None,1836.8692908395751,None,1837.266765880966,None,1837.266765880966,None,50,1837.266765880966,None,return,0.8586167682369705,1837.266765880966,None,,,DONGPING,F,002,2023_Apr_18_1549,untitled,2021.1.4,59.94649251529464,
9,0,0,9,9,9,18,1.0,0.0,1.0,0.0,1.0,1.0,,stimuli/P_09_00_00_09.png,,,,,0,171,171,65,,,,,,,,,,,,,,,,,,,,,,,,,,,,1838.1454479463282,None,1838.1454479463282,None,1838.5782180223032,None,1838.5782180223032,None,100,1838.5782180223032,None,return,1.9160467194742523,1838.5782180223032,None,,,DONGPING,F,002,2023_Apr_18_1549,untitled,2021.1.4,59.94649251529464,
36,36,0,36,72,36,108,0.67,0.5,0.5,0.0,0.5,0.5,,stimuli/P_36_36_00_36.png,,,,,0,172,172,243,,,,,,,,,,,,,,,,,,,,,,,,,,,,1840.5253226882778,None,1840.5253226882778,None,1841.0127510864404,None,1841.0127510864404,None,50,1841.0127510864404,None,return,1.4144825581461191,1841.0127510864404,None,,,DONGPING,F,002,2023_Apr_18_1549,untitled,2021.1.4,59.94649251529464,
0,0,0,36,0,0,36,1.0,None,None,0.0,None,None,,stimuli/P_00_00_00_36.png,,,,,0,173,173,3,,,,,,,,,,,,,,,,,,,,,,,,,,,,1842.4636983156815,None,1842.4636983156815,None,1842.9798425428016,None,1842.9798425428016,None,0,1842.9798425428016,None,return,1.1543385494878748,1842.9798425428016,None,,,DONGPING,F,002,2023_Apr_18_1549,untitled,2021.1.4,59.94649251529464,
9,0,9,9,9,18,27,1.0,0.0,1.0,0.5,0.5,1.0,,stimuli/P_09_00_09_09.png,,,,,0,174,174,69,,,,,,,,,,,,,,,,,,,,,,,,,,,,1844.1628172767087,None,1844.1628172767087,None,1844.6642796068481,None,1844.6642796068481,None,100,1844.6642796068481,None,return,3.2279801412078086,1844.6642796068481,None,,,DONGPING,F,002,2023_Apr_18_1549,untitled,2021.1.4,59.94649251529464,
36,18,9,36,54,45,99,0.82,0.33,0.67,0.2,0.47,0.58,,stimuli/P_36_18_09_36.png,,,,,0,175,175,231,,,,,,,,,,,,,,,,,,,,,,,,,,,,1847.9273152801907,None,1847.9273152801907,None,1848.323287884763,None,1848.323287884763,None,50,1848.323287884763,None,return,2.509502443674137,1848.323287884763,None,,,DONGPING,F,002,2023_Apr_18_1549,untitled,2021.1.4,59.94649251529464,
0,18,9,9,18,9,36,0.5,1.0,0.0,0.5,-0.5,-1.0,,stimuli/P_00_18_09_09.png,,,,,0,176,176,37,,,,,,,,,,,,,,,,,,,,,,,,,,,,1850.8628874207789,None,1850.8628874207789,None,1851.3858679914993,None,1851.3858679914993,None,0,1851.3858679914993,None,return,2.515508208787651,1851.3858679914993,None,,,DONGPING,F,002,2023_Apr_18_1549,untitled,2021.1.4,59.94649251529464,
0,18,36,9,18,36,63,0.71,1.0,0.0,0.8,-0.8,-4.0,,stimuli/P_00_18_36_09.png,,,,,0,177,177,45,,,,,,,,,,,,,,,,,,,,,,,,,,,,1853.9424784575822,None,1853.9424784575822,None,1854.3424344255473,None,1854.3424344255473,None,0,1854.3424344255473,None,return,1.1195725820434745,1854.3424344255473,None,,,DONGPING,F,002,2023_Apr_18_1549,untitled,2021.1.4,59.94649251529464,
9,36,18,0,45,27,63,0.43,0.8,0.2,1.0,-0.8,#NAME?,,stimuli/P_09_36_18_00.png,,,,,0,178,178,120,,,,,,,,,,,,,,,,,,,,,,,,,,,,1855.49278790495,None,1855.49278790495,None,1855.8989356648672,None,1855.8989356648672,None,50,1855.8989356648672,None,return,1.7711176002485445,1855.8989356648672,None,,,DONGPING,F,002,2023_Apr_18_1549,untitled,2021.1.4,59.94649251529464,
36,18,9,18,54,45,81,0.78,0.33,0.67,0.33,0.33,0.5,,stimuli/P_36_18_09_18.png,,,,,0,179,179,230,,,,,,,,,,,,,,,,,,,,,,,,,,,,1857.7062084604113,None,1857.7062084604113,None,1858.2171581586445,None,1858.2171581586445,None,50,1858.2171581586445,None,return,1.1153440273046726,1858.2171581586445,None,,,DONGPING,F,002,2023_Apr_18_1549,untitled,2021.1.4,59.94649251529464,
9,9,18,36,18,27,72,0.88,0.5,0.5,0.33,0.17,0.25,,stimuli/P_09_09_18_36.png,,,,,0,180,180,91,,,,,,,,,,,,,,,,,,,,,,,,,,,,1859.3610183347337,None,1859.3610183347337,None,1859.7599622484995,None,1859.7599622484995,None,50,1859.7599622484995,None,return,1.1434932424454018,1859.7599622484995,None,,,DONGPING,F,002,2023_Apr_18_1549,untitled,2021.1.4,59.94649251529464,
0,18,0,0,18,0,18,0.0,1.0,0.0,None,None,None,,stimuli/P_00_18_00_00.png,,,,,0,181,181,32,,,,,,,,,,,,,,,,,,,,,,,,,,,,1860.942017088295,None,1860.942017088295,None,1861.3389488403482,None,1861.3389488403482,None,0,1861.3389488403482,None,return,1.9860633481002878,1861.3389488403482,None,,,DONGPING,F,002,2023_Apr_18_1549,untitled,2021.1.4,59.94649251529464,
36,36,18,36,72,54,126,0.71,0.5,0.5,0.33,0.17,0.25,,stimuli/P_36_36_18_36.png,,,,,0,182,182,251,,,,,,,,,,,,,,,,,,,,,,,,,,,,1863.343988062421,None,1863.343988062421,None,1863.8612052148965,None,1863.8612052148965,None,50,1863.8612052148965,None,return,1.7989590462238993,1863.8612052148965,None,,,DONGPING,F,002,2023_Apr_18_1549,untitled,2021.1.4,59.94649251529464,
9,9,36,18,18,45,72,0.88,0.5,0.5,0.67,-0.17,-0.5,,stimuli/P_09_09_36_18.png,,,,,0,183,183,94,,,,,,,,,,,,,,,,,,,,,,,,,,,,1865.691338261051,None,1865.691338261051,None,1866.210957264455,None,1866.210957264455,None,50,1866.210957264455,None,return,1.3696751243405743,1866.210957264455,None,,,DONGPING,F,002,2023_Apr_18_1549,untitled,2021.1.4,59.94649251529464,
0,0,9,0,0,9,9,1.0,None,None,1.0,None,None,,stimuli/P_00_00_09_00.png,,,,,0,184,184,4,,,,,,,,,,,,,,,,,,,,,,,,,,,,1867.6007358015195,None,1867.6007358015195,None,1868.12008685802,None,1868.12008685802,None,0,1868.12008685802,None,return,1.4391359480650863,1868.12008685802,None,,,DONGPING,F,002,2023_Apr_18_1549,untitled,2021.1.4,59.94649251529464,
36,18,9,9,54,45,72,0.75,0.33,0.67,0.5,0.17,0.33,,stimuli/P_36_18_09_09.png,,,,,0,185,185,229,,,,,,,,,,,,,,,,,,,,,,,,,,,,1869.5776605107094,None,1869.5776605107094,None,1870.108209585669,None,1870.108209585669,None,50,1870.108209585669,None,return,1.4417596658604452,1870.108209585669,None,,,DONGPING,F,002,2023_Apr_18_1549,untitled,2021.1.4,59.94649251529464,
18,36,36,18,54,54,108,0.67,0.67,0.33,0.67,-0.33,-1.0,,stimuli/P_18_36_36_18.png,,,,,0,186,186,190,,,,,,,,,,,,,,,,,,,,,,,,,,,,1871.5802523706952,None,1871.5802523706952,None,1872.0627718224569,None,1872.0627718224569,None,50,1872.0627718224569,None,return,2.193625480780611,1872.0627718224569,None,,,DONGPING,F,002,2023_Apr_18_1549,untitled,2021.1.4,59.94649251529464,
0,9,9,36,9,9,54,0.83,1.0,0.0,0.2,-0.2,-0.25,,stimuli/P_00_09_09_36.png,,,,,0,187,187,23,,,,,,,,,,,,,,,,,,,,,,,,,,,,1874.2924500984373,None,1874.2924500984373,None,1874.6924413375527,None,1874.6924413375527,None,0,1874.6924413375527,None,return,4.569359276967589,1874.6924413375527,None,,,DONGPING,F,002,2023_Apr_18_1549,untitled,2021.1.4,59.94649251529464,
9,36,18,9,45,27,72,0.5,0.8,0.2,0.67,-0.47,-1.4,,stimuli/P_09_36_18_09.png,,,,,0,188,188,121,,,,,,,,,,,,,,,,,,,,,,,,,,,,1879.2829416814347,None,1879.2829416814347,None,1879.8030277430225,None,1879.8030277430225,None,50,1879.8030277430225,None,return,1.4780314834642923,1879.8030277430225,None,,,DONGPING,F,002,2023_Apr_18_1549,untitled,2021.1.4,59.94649251529464,
9,9,36,0,18,45,54,0.83,0.5,0.5,1.0,-0.5,#NAME?,,stimuli/P_09_09_36_00.png,,,,,0,189,189,92,,,,,,,,,,,,,,,,,,,,,,,,,,,,1881.303975797171,None,1881.303975797171,None,1881.805237878245,None,1881.805237878245,None,50,1881.805237878245,None,return,1.0887427601846866,1881.805237878245,None,,,DONGPING,F,002,2023_Apr_18_1549,untitled,2021.1.4,59.94649251529464,
9,36,36,18,45,45,99,0.64,0.8,0.2,0.67,-0.47,-1.4,,stimuli/P_09_36_36_18.png,,,,,0,190,190,126,,,,,,,,,,,,,,,,,,,,,,,,,,,,1882.9303770428087,None,1882.9303770428087,None,1883.3308268067485,None,1883.3308268067485,None,50,1883.3308268067485,None,return,1.2026008484390331,1883.3308268067485,None,,,DONGPING,F,002,2023_Apr_18_1549,untitled,2021.1.4,59.94649251529464,
36,9,9,36,45,45,90,0.9,0.2,0.8,0.2,0.6,0.75,,stimuli/P_36_09_09_36.png,,,,,0,191,191,215,,,,,,,,,,,,,,,,,,,,,,,,,,,,1884.5505933231761,None,1884.5505933231761,None,1885.0485217125097,None,1885.0485217125097,None,50,1885.0485217125097,None,return,1.0510367724345997,1885.0485217125097,None,,,DONGPING,F,002,2023_Apr_18_1549,untitled,2021.1.4,59.94649251529464,
18,0,9,18,18,27,45,1.0,0.0,1.0,0.33,0.67,1.0,,stimuli/P_18_00_09_18.png,,,,,0,192,192,134,,,,,,,,,,,,,,,,,,,,,,,,,,,,1886.1330336424144,None,1886.1330336424144,None,1886.638023655556,None,1886.638023655556,None,100,1886.638023655556,None,return,2.6739330906420946,1886.638023655556,None,,,DONGPING,F,002,2023_Apr_18_1549,untitled,2021.1.4,59.94649251529464,
36,18,0,36,54,36,90,0.8,0.33,0.67,0.0,0.67,0.67,,stimuli/P_36_18_00_36.png,,,,,0,193,193,227,,,,,,,,,,,,,,,,,,,,,,,,,,,,1889.3357994687685,None,1889.3357994687685,None,1889.8415899092652,None,1889.8415899092652,None,50,1889.8415899092652,None,return,2.300751901086187,1889.8415899092652,None,,,DONGPING,F,002,2023_Apr_18_1549,untitled,2021.1.4,59.94649251529464,
36,0,18,9,36,54,63,1.0,0.0,1.0,0.67,0.33,1.0,,stimuli/P_36_00_18_09.png,,,,,0,194,194,201,,,,,,,,,,,,,,,,,,,,,,,,,,,,1892.1783718499792,None,1892.1783718499792,None,1892.5805299887143,None,1892.5805299887143,None,100,1892.5805299887143,None,return,1.912384778566775,1892.5805299887143,None,,,DONGPING,F,002,2023_Apr_18_1549,untitled,2021.1.4,59.94649251529464,
36,36,36,36,72,72,144,0.75,0.5,0.5,0.5,0.0,0.0,,stimuli/P_36_36_36_36.png,,,,,0,195,195,255,,,,,,,,,,,,,,,,,,,,,,,,,,,,1894.5218518941983,None,1894.5218518941983,None,1895.0290935714875,None,1895.0290935714875,None,50,1895.0290935714875,None,return,1.6983191025647102,1895.0290935714875,None,,,DONGPING,F,002,2023_Apr_18_1549,untitled,2021.1.4,59.94649251529464,
0,36,18,36,36,18,90,0.6,1.0,0.0,0.33,-0.33,-0.5,,stimuli/P_00_36_18_36.png,,,,,0,196,196,59,,,,,,,,,,,,,,,,,,,,,,,,,,,,1896.7548012840998,None,1896.7548012840998,None,1897.2859346084442,None,1897.2859346084442,None,0,1897.2859346084442,None,return,1.561316887877183,1897.2859346084442,None,,,DONGPING,F,002,2023_Apr_18_1549,untitled,2021.1.4,59.94649251529464,
18,18,18,18,36,36,72,0.75,0.5,0.5,0.5,0.0,0.0,,stimuli/P_18_18_18_18.png,,,,,0,197,197,170,,,,,,,,,,,,,,,,,,,,,,,,,,,,1898.8761897610093,None,1898.8761897610093,None,1899.2759767688258,None,1899.2759767688258,None,50,1899.2759767688258,None,return,1.6096252668794477,1899.2759767688258,None,,,DONGPING,F,002,2023_Apr_18_1549,untitled,2021.1.4,59.94649251529464,
36,9,9,0,45,45,54,0.83,0.2,0.8,1.0,-0.2,#NAME?,,stimuli/P_36_09_09_00.png,,,,,0,198,198,212,,,,,,,,,,,,,,,,,,,,,,,,,,,,1900.9202309008106,None,1900.9202309008106,None,1901.424595704535,None,1901.424595704535,None,50,1901.424595704535,None,return,1.2552726089488715,1901.424595704535,None,,,DONGPING,F,002,2023_Apr_18_1549,untitled,2021.1.4,59.94649251529464,
36,9,18,18,45,54,81,0.89,0.2,0.8,0.5,0.3,0.6,,stimuli/P_36_09_18_18.png,,,,,0,199,199,218,,,,,,,,,,,,,,,,,,,,,,,,,,,,1902.6987087917805,None,1902.6987087917805,None,1903.218260666239,None,1903.218260666239,None,50,1903.218260666239,None,return,0.9319500219426118,1903.218260666239,None,,,DONGPING,F,002,2023_Apr_18_1549,untitled,2021.1.4,59.94649251529464,
18,9,9,0,27,27,36,0.75,0.33,0.67,1.0,-0.33,#NAME?,,stimuli/P_18_09_09_00.png,,,,,0,200,200,148,,,,,,,,,,,,,,,,,,,,,,,,,,,,1904.186335163453,None,1904.186335163453,None,1904.6951037398248,None,1904.6951037398248,None,50,1904.6951037398248,None,return,1.7308897259208607,1904.6951037398248,None,,,DONGPING,F,002,2023_Apr_18_1549,untitled,2021.1.4,59.94649251529464,
0,9,9,0,9,9,18,0.5,1.0,0.0,1.0,-1.0,#NAME?,,stimuli/P_00_09_09_00.png,,,,,0,201,201,20,,,,,,,,,,,,,,,,,,,,,,,,,,,,1906.4608112021087,None,1906.4608112021087,None,1906.9738851332659,None,1906.9738851332659,None,0,1906.9738851332659,None,return,1.0978182523540454,1906.9738851332659,None,,,DONGPING,F,002,2023_Apr_18_1549,untitled,2021.1.4,59.94649251529464,
18,36,18,0,54,36,72,0.5,0.67,0.33,1.0,-0.67,#NAME?,,stimuli/P_18_36_18_00.png,,,,,0,202,202,184,,,,,,,,,,,,,,,,,,,,,,,,,,,,1908.108817728411,None,1908.108817728411,None,1908.5130801889318,None,1908.5130801889318,None,50,1908.5130801889318,None,return,1.016639445311739,1908.5130801889318,None,,,DONGPING,F,002,2023_Apr_18_1549,untitled,2021.1.4,59.94649251529464,
0,0,36,36,0,36,72,1.0,None,None,0.5,None,None,,stimuli/P_00_00_36_36.png,,,,,0,203,203,15,,,,,,,,,,,,,,,,,,,,,,,,,,,,1909.557848369368,None,1909.557848369368,None,1910.0643504904583,None,1910.0643504904583,None,0,1910.0643504904583,None,return,1.0440445531421574,1910.0643504904583,None,,,DONGPING,F,002,2023_Apr_18_1549,untitled,2021.1.4,59.94649251529464,
0,9,0,0,9,0,9,0.0,1.0,0.0,None,None,None,,stimuli/P_00_09_00_00.png,,,,,0,204,204,16,,,,,,,,,,,,,,,,,,,,,,,,,,,,1911.1410589648149,None,1911.1410589648149,None,1911.5313733956573,None,1911.5313733956573,None,0,1911.5313733956573,None,return,1.2418900553020649,1911.5313733956573,None,,,DONGPING,F,002,2023_Apr_18_1549,untitled,2021.1.4,59.94649251529464,
0,36,0,9,36,0,45,0.2,1.0,0.0,0.0,0.0,0.0,,stimuli/P_00_36_00_09.png,,,,,0,205,205,49,,,,,,,,,,,,,,,,,,,,,,,,,,,,1912.7929350766353,None,1912.7929350766353,None,1913.2995043266856,None,1913.2995043266856,None,0,1913.2995043266856,None,return,1.3132395917346003,1913.2995043266856,None,,,DONGPING,F,002,2023_Apr_18_1549,untitled,2021.1.4,59.94649251529464,
18,0,18,18,18,36,54,1.0,0.0,1.0,0.5,0.5,1.0,,stimuli/P_18_00_18_18.png,,,,,0,206,206,138,,,,,,,,,,,,,,,,,,,,,,,,,,,,1914.6425787527696,None,1914.6425787527696,None,1915.1695131046436,None,1915.1695131046436,None,100,1915.1695131046436,None,return,2.7798227454477455,1915.1695131046436,None,,,DONGPING,F,002,2023_Apr_18_1549,untitled,2021.1.4,59.94649251529464,
0,9,0,18,9,0,27,0.67,1.0,0.0,0.0,0.0,0.0,,stimuli/P_00_09_00_18.png,,,,,0,207,207,18,,,,,,,,,,,,,,,,,,,,,,,,,,,,1917.9674919544777,None,1917.9674919544777,None,1918.4883420344995,None,1918.4883420344995,None,0,1918.4883420344995,None,return,1.1967304790014168,1918.4883420344995,None,,,DONGPING,F,002,2023_Apr_18_1549,untitled,2021.1.4,59.94649251529464,
9,36,0,36,45,9,81,0.56,0.8,0.2,0.0,0.2,0.2,,stimuli/P_09_36_00_36.png,,,,,0,208,208,115,,,,,,,,,,,,,,,,,,,,,,,,,,,,1919.7075681060087,None,1919.7075681060087,None,1920.2036572760117,None,1920.2036572760117,None,50,1920.2036572760117,None,return,2.39909694500966,1920.2036572760117,None,,,DONGPING,F,002,2023_Apr_18_1549,untitled,2021.1.4,59.94649251529464,
0,9,18,0,9,18,27,0.67,1.0,0.0,1.0,-1.0,#NAME?,,stimuli/P_00_09_18_00.png,,,,,0,209,209,24,,,,,,,,,,,,,,,,,,,,,,,,,,,,1922.6397490970267,None,1922.6397490970267,None,1923.1473787568684,None,1923.1473787568684,None,0,1923.1473787568684,None,return,2.21566653069749,1923.1473787568684,None,,,DONGPING,F,002,2023_Apr_18_1549,untitled,2021.1.4,59.94649251529464,
9,36,0,0,45,9,45,0.2,0.8,0.2,None,None,None,,stimuli/P_09_36_00_00.png,,,,,0,210,210,112,,,,,,,,,,,,,,,,,,,,,,,,,,,,1925.3965841606405,None,1925.3965841606405,None,1925.905881235245,None,1925.905881235245,None,50,1925.905881235245,None,return,2.1784475122694857,1925.905881235245,None,,,DONGPING,F,002,2023_Apr_18_1549,untitled,2021.1.4,59.94649251529464,
36,36,0,0,72,36,72,0.5,0.5,0.5,None,None,None,,stimuli/P_36_36_00_00.png,,,,,0,211,211,240,,,,,,,,,,,,,,,,,,,,,,,,,,,,1928.1138250926888,None,1928.1138250926888,None,1928.5113684008102,None,1928.5113684008102,None,50,1928.5113684008102,None,return,1.00026055132912,1928.5113684008102,None,,,DONGPING,F,002,2023_Apr_18_1549,untitled,2021.1.4,59.94649251529464,
36,0,36,36,36,72,108,1.0,0.0,1.0,0.5,0.5,1.0,,stimuli/P_36_00_36_36.png,,,,,0,212,212,207,,,,,,,,,,,,,,,,,,,,,,,,,,,,1929.5511946392362,None,1929.5511946392362,None,1930.0668524659268,None,1930.0668524659268,None,100,1930.0668524659268,None,return,1.835298561680247,1930.0668524659268,None,,,DONGPING,F,002,2023_Apr_18_1549,untitled,2021.1.4,59.94649251529464,
0,18,18,9,18,18,45,0.6,1.0,0.0,0.67,-0.67,-2.0,,stimuli/P_00_18_18_09.png,,,,,0,213,213,41,,,,,,,,,,,,,,,,,,,,,,,,,,,,1931.9245459267258,None,1931.9245459267258,None,1932.321354798667,None,1932.321354798667,None,0,1932.321354798667,None,return,1.2724081257911166,1932.321354798667,None,,,DONGPING,F,002,2023_Apr_18_1549,untitled,2021.1.4,59.94649251529464,
36,9,18,0,45,54,63,0.86,0.2,0.8,1.0,-0.2,#NAME?,,stimuli/P_36_09_18_00.png,,,,,0,214,214,216,,,,,,,,,,,,,,,,,,,,,,,,,,,,1933.6183343943121,None,1933.6183343943121,None,1934.1244166750548,None,1934.1244166750548,None,50,1934.1244166750548,None,return,1.5629444803780643,1934.1244166750548,None,,,DONGPING,F,002,2023_Apr_18_1549,untitled,2021.1.4,59.94649251529464,
18,9,0,0,27,18,27,0.67,0.33,0.67,None,None,None,,stimuli/P_18_09_00_00.png,,,,,0,215,215,144,,,,,,,,,,,,,,,,,,,,,,,,,,,,1935.7230612392304,None,1935.7230612392304,None,1936.2436075323203,None,1936.2436075323203,None,50,1936.2436075323203,None,return,1.053199120957288,1936.2436075323203,None,,,DONGPING,F,002,2023_Apr_18_1549,untitled,2021.1.4,59.94649251529464,
18,9,36,0,27,54,63,0.86,0.33,0.67,1.0,-0.33,#NAME?,,stimuli/P_18_09_36_00.png,,,,,0,216,216,156,,,,,,,,,,,,,,,,,,,,,,,,,,,,1937.3306697932858,None,1937.3306697932858,None,1937.7245079249114,None,1937.7245079249114,None,50,1937.7245079249114,None,return,0.993003798474092,1937.7245079249114,None,,,DONGPING,F,002,2023_Apr_18_1549,untitled,2021.1.4,59.94649251529464,
0,9,18,36,9,18,63,0.86,1.0,0.0,0.33,-0.33,-0.5,,stimuli/P_00_09_18_36.png,,,,,0,217,217,27,,,,,,,,,,,,,,,,,,,,,,,,,,,,1938.7325082161842,None,1938.7325082161842,None,1939.2500098133314,None,1939.2500098133314,None,0,1939.2500098133314,None,return,1.8548859917209484,1939.2500098133314,None,,,DONGPING,F,002,2023_Apr_18_1549,untitled,2021.1.4,59.94649251529464,
0,36,36,0,36,36,72,0.5,1.0,0.0,1.0,-1.0,#NAME?,,stimuli/P_00_36_36_00.png,,,,,0,218,218,60,,,,,,,,,,,,,,,,,,,,,,,,,,,,1941.1228692959558,None,1941.1228692959558,None,1941.5315514580288,None,1941.5315514580288,None,0,1941.5315514580288,None,return,1.3051994782144902,1941.5315514580288,None,,,DONGPING,F,002,2023_Apr_18_1549,untitled,2021.1.4,59.94649251529464,
36,36,18,0,72,54,90,0.6,0.5,0.5,1.0,-0.5,#NAME?,,stimuli/P_36_36_18_00.png,,,,,0,219,219,248,,,,,,,,,,,,,,,,,,,,,,,,,,,,1942.8586292838008,None,1942.8586292838008,None,1943.2580925935763,None,1943.2580925935763,None,50,1943.2580925935763,None,return,1.493199780859868,1943.2580925935763,None,,,DONGPING,F,002,2023_Apr_18_1549,untitled,2021.1.4,59.94649251529464,
0,36,18,18,36,18,72,0.5,1.0,0.0,0.5,-0.5,-1.0,,stimuli/P_00_36_18_18.png,,,,,0,220,220,58,,,,,,,,,,,,,,,,,,,,,,,,,,,,1944.7715926228702,None,1944.7715926228702,None,1945.2818386049476,None,1945.2818386049476,None,0,1945.2818386049476,None,return,1.6455546131037408,1945.2818386049476,None,,,DONGPING,F,002,2023_Apr_18_1549,untitled,2021.1.4,59.94649251529464,
0,0,0,0,0,0,0,None,None,None,None,None,None,,stimuli/P_00_00_00_00.png,,,,,0,221,221,0,,,,,,,,,,,,,,,,,,,,,,,,,,,,1946.9472730572306,None,1946.9472730572306,None,1947.4601876993547,None,1947.4601876993547,None,,1947.4601876993547,None,None,,1947.4601876993547,None,,,DONGPING,F,002,2023_Apr_18_1549,untitled,2021.1.4,59.94649251529464,
18,36,9,9,54,27,72,0.5,0.67,0.33,0.5,-0.17,-0.33,,stimuli/P_18_36_09_09.png,,,,,0,222,222,181,,,,,,,,,,,,,,,,,,,,,,,,,,,,1955.4787898130016,None,1955.4787898130016,None,1955.9086767576227,None,1955.9086767576227,None,50,1955.9086767576227,None,return,5.225613561400678,1955.9086767576227,None,,,DONGPING,F,002,2023_Apr_18_1549,untitled,2021.1.4,59.94649251529464,
0,18,0,18,18,0,36,0.5,1.0,0.0,0.0,0.0,0.0,,stimuli/P_00_18_00_18.png,,,,,0,223,223,34,,,,,,,,,,,,,,,,,,,,,,,,,,,,1961.1725020494196,None,1961.1725020494196,None,1961.5851544904435,None,1961.5851544904435,None,0,1961.5851544904435,None,return,1.2595955993019743,1961.5851544904435,None,,,DONGPING,F,002,2023_Apr_18_1549,untitled,2021.1.4,59.94649251529464,
18,0,36,9,18,54,63,1.0,0.0,1.0,0.8,0.2,1.0,,stimuli/P_18_00_36_09.png,,,,,0,224,224,141,,,,,,,,,,,,,,,,,,,,,,,,,,,,1962.87455932406,None,1962.87455932406,None,1963.282958179232,None,1963.282958179232,None,100,1963.282958179232,None,return,1.8970372810290428,1963.282958179232,None,,,DONGPING,F,002,2023_Apr_18_1549,untitled,2021.1.4,59.94649251529464,
18,18,36,9,36,54,81,0.78,0.5,0.5,0.8,-0.3,-1.5,,stimuli/P_18_18_36_09.png,,,,,0,225,225,173,,,,,,,,,,,,,,,,,,,,,,,,,,,,1965.2016832298832,None,1965.2016832298832,None,1965.598706573117,None,1965.598706573117,None,50,1965.598706573117,None,return,1.6756147276319098,1965.598706573117,None,,,DONGPING,F,002,2023_Apr_18_1549,untitled,2021.1.4,59.94649251529464,
9,0,36,9,9,45,54,1.0,0.0,1.0,0.8,0.2,1.0,,stimuli/P_09_00_36_09.png,,,,,0,226,226,77,,,,,,,,,,,,,,,,,,,,,,,,,,,,1967.3136634143302,None,1967.3136634143302,None,1967.8443478849513,None,1967.8443478849513,None,100,1967.8443478849513,None,return,2.2437378079921473,1967.8443478849513,None,,,DONGPING,F,002,2023_Apr_18_1549,untitled,2021.1.4,59.94649251529464,
18,0,36,18,18,54,72,1.0,0.0,1.0,0.67,0.33,1.0,,stimuli/P_18_00_36_18.png,,,,,0,227,227,142,,,,,,,,,,,,,,,,,,,,,,,,,,,,1970.1074637716956,None,1970.1074637716956,None,1970.5052784400614,None,1970.5052784400614,None,100,1970.5052784400614,None,return,4.2774769301177,1970.5052784400614,None,,,DONGPING,F,002,2023_Apr_18_1549,untitled,2021.1.4,59.94649251529464,
36,36,9,36,72,45,117,0.69,0.5,0.5,0.2,0.3,0.37,,stimuli/P_36_36_09_36.png,,,,,0,228,228,247,,,,,,,,,,,,,,,,,,,,,,,,,,,,1974.8023917247046,None,1974.8023917247046,None,1975.314848979775,None,1975.314848979775,None,50,1975.314848979775,None,return,1.5098602750804275,1975.314848979775,None,,,DONGPING,F,002,2023_Apr_18_1549,untitled,2021.1.4,59.94649251529464,
36,36,36,18,72,72,126,0.71,0.5,0.5,0.67,-0.17,-0.5,,stimuli/P_36_36_36_18.png,,,,,0,229,229,254,,,,,,,,,,,,,,,,,,,,,,,,,,,,1976.8536423995538,None,1976.8536423995538,None,1977.376803877094,None,1977.376803877094,None,50,1977.376803877094,None,return,1.0357171504729195,1977.376803877094,None,,,DONGPING,F,002,2023_Apr_18_1549,untitled,2021.1.4,59.94649251529464,
9,18,36,0,27,45,63,0.71,0.67,0.33,1.0,-0.67,#NAME?,,stimuli/P_09_18_36_00.png,,,,,0,230,230,108,,,,,,,,,,,,,,,,,,,,,,,,,,,,1978.4465986388677,None,1978.4465986388677,None,1978.94875558294,None,1978.94875558294,None,50,1978.94875558294,None,return,1.057689364781254,1978.94875558294,None,,,DONGPING,F,002,2023_Apr_18_1549,untitled,2021.1.4,59.94649251529464,
9,36,9,36,45,18,90,0.6,0.8,0.2,0.2,0.0,0.0,,stimuli/P_09_36_09_36.png,,,,,0,231,231,119,,,,,,,,,,,,,,,,,,,,,,,,,,,,1980.037223000647,None,1980.037223000647,None,1980.5673283419019,None,1980.5673283419019,None,50,1980.5673283419019,None,return,1.4956158540444449,1980.5673283419019,None,,,DONGPING,F,002,2023_Apr_18_1549,untitled,2021.1.4,59.94649251529464,
9,18,36,36,27,45,99,0.82,0.67,0.33,0.5,-0.17,-0.33,,stimuli/P_09_18_36_36.png,,,,,0,232,232,111,,,,,,,,,,,,,,,,,,,,,,,,,,,,1982.0832666310453,None,1982.0832666310453,None,1982.4917166862579,None,1982.4917166862579,None,50,1982.4917166862579,None,return,1.737843260736554,1982.4917166862579,None,,,DONGPING,F,002,2023_Apr_18_1549,untitled,2021.1.4,59.94649251529464,
18,0,9,9,18,27,36,1.0,0.0,1.0,0.5,0.5,1.0,,stimuli/P_18_00_09_09.png,,,,,0,233,233,133,,,,,,,,,,,,,,,,,,,,,,,,,,,,1984.2510895653686,None,1984.2510895653686,None,1984.7652199240983,None,1984.7652199240983,None,100,1984.7652199240983,None,return,2.854026968765538,1984.7652199240983,None,,,DONGPING,F,002,2023_Apr_18_1549,untitled,2021.1.4,59.94649251529464,
36,36,0,18,72,36,90,0.6,0.5,0.5,0.0,0.5,0.5,,stimuli/P_36_36_00_18.png,,,,,0,234,234,242,,,,,,,,,,,,,,,,,,,,,,,,,,,,1987.6379445799248,None,1987.6379445799248,None,1988.1562443288858,None,1988.1562443288858,None,50,1988.1562443288858,None,return,2.3328913063014625,1988.1562443288858,None,,,DONGPING,F,002,2023_Apr_18_1549,untitled,2021.1.4,59.94649251529464,
18,9,0,36,27,18,63,0.86,0.33,0.67,0.0,0.67,0.67,,stimuli/P_18_09_00_36.png,,,,,0,235,235,147,,,,,,,,,,,,,,,,,,,,,,,,,,,,1990.5234931400482,None,1990.5234931400482,None,1990.9166235732991,None,1990.9166235732991,None,50,1990.9166235732991,None,return,1.1273498686641688,1990.9166235732991,None,,,DONGPING,F,002,2023_Apr_18_1549,untitled,2021.1.4,59.94649251529464,
18,9,18,0,27,36,45,0.8,0.33,0.67,1.0,-0.33,#NAME?,,stimuli/P_18_09_18_00.png,,,,,0,236,236,152,,,,,,,,,,,,,,,,,,,,,,,,,,,,1992.076989505702,None,1992.076989505702,None,1992.4748576496495,None,1992.4748576496495,None,50,1992.4748576496495,None,return,1.229306791225099,1992.4748576496495,None,,,DONGPING,F,002,2023_Apr_18_1549,untitled,2021.1.4,59.94649251529464,
36,36,18,9,72,54,99,0.64,0.5,0.5,0.67,-0.17,-0.5,,stimuli/P_36_36_18_09.png,,,,,0,237,237,249,,,,,,,,,,,,,,,,,,,,,,,,,,,,1993.729107964391,None,1993.729107964391,None,1994.2458409920073,None,1994.2458409920073,None,50,1994.2458409920073,None,return,1.043422757051303,1994.2458409920073,None,,,DONGPING,F,002,2023_Apr_18_1549,untitled,2021.1.4,59.94649251529464,
36,9,36,0,45,72,81,0.89,0.2,0.8,1.0,-0.2,#NAME?,,stimuli/P_36_09_36_00.png,,,,,0,238,238,220,,,,,,,,,,,,,,,,,,,,,,,,,,,,1995.3239278852998,None,1995.3239278852998,None,1995.7286653684569,None,1995.7286653684569,None,50,1995.7286653684569,None,return,1.1785169167706044,1995.7286653684569,None,,,DONGPING,F,002,2023_Apr_18_1549,untitled,2021.1.4,59.94649251529464,
9,9,0,9,18,9,27,0.67,0.5,0.5,0.0,0.5,0.5,,stimuli/P_09_09_00_09.png,,,,,0,239,239,81,,,,,,,,,,,,,,,,,,,,,,,,,,,,1996.9420529283234,None,1996.9420529283234,None,1997.452637399576,None,1997.452637399576,None,50,1997.452637399576,None,return,1.1537787623383338,1997.452637399576,None,,,DONGPING,F,002,2023_Apr_18_1549,untitled,2021.1.4,59.94649251529464,
0,0,36,9,0,36,45,1.0,None,None,0.8,None,None,,stimuli/P_00_00_36_09.png,,,,,0,240,240,13,,,,,,,,,,,,,,,,,,,,,,,,,,,,1998.7839102155995,None,1998.7839102155995,None,1999.220165876759,None,1999.220165876759,None,0,1999.220165876759,None,return,1.1608551772660576,1999.220165876759,None,,,DONGPING,F,002,2023_Apr_18_1549,untitled,2021.1.4,59.94649251529464,
18,0,0,18,18,18,36,1.0,0.0,1.0,0.0,1.0,1.0,,stimuli/P_18_00_00_18.png,,,,,0,241,241,130,,,,,,,,,,,,,,,,,,,,,,,,,,,,2000.415273883249,None,2000.415273883249,None,2000.8227511376317,None,2000.8227511376317,None,100,2000.8227511376317,None,return,1.9407524472189834,2000.8227511376317,None,,,DONGPING,F,002,2023_Apr_18_1549,untitled,2021.1.4,59.94649251529464,
18,9,0,9,27,18,36,0.75,0.33,0.67,0.0,0.67,0.67,,stimuli/P_18_09_00_09.png,,,,,0,242,242,145,,,,,,,,,,,,,,,,,,,,,,,,,,,,2002.7988219438848,None,2002.7988219438848,None,2003.207813581772,None,2003.207813581772,None,50,2003.207813581772,None,return,1.6619312315160641,2003.207813581772,None,,,DONGPING,F,002,2023_Apr_18_1549,untitled,2021.1.4,59.94649251529464,
0,0,18,18,0,18,36,1.0,None,None,0.5,None,None,,stimuli/P_00_00_18_18.png,,,,,0,243,243,10,,,,,,,,,,,,,,,,,,,,,,,,,,,,2004.896504800563,None,2004.896504800563,None,2005.2876970277139,None,2005.2876970277139,None,0,2005.2876970277139,None,return,1.7826654856471578,2005.2876970277139,None,,,DONGPING,F,002,2023_Apr_18_1549,untitled,2021.1.4,59.94649251529464,
9,9,18,18,18,27,54,0.83,0.5,0.5,0.5,0.0,0.0,,stimuli/P_09_09_18_18.png,,,,,0,244,244,90,,,,,,,,,,,,,,,,,,,,,,,,,,,,2007.0971941807074,None,2007.0971941807074,None,2007.6030551634904,None,2007.6030551634904,None,10,2007.6030551634904,None,return,1.4815523398137884,2007.6030551634904,None,,,DONGPING,F,002,2023_Apr_18_1549,untitled,2021.1.4,59.94649251529464,
36,9,0,0,45,36,45,0.8,0.2,0.8,None,None,None,,stimuli/P_36_09_00_00.png,,,,,0,245,245,208,,,,,,,,,,,,,,,,,,,,,,,,,,,,2009.1197034265933,None,2009.1197034265933,None,2009.630731062658,None,2009.630731062658,None,50,2009.630731062658,None,return,1.4429054090578575,2009.630731062658,None,,,DONGPING,F,002,2023_Apr_18_1549,untitled,2021.1.4,59.94649251529464,
36,18,36,9,54,72,99,0.82,0.33,0.67,0.8,-0.13,-0.67,,stimuli/P_36_18_36_09.png,,,,,0,246,246,237,,,,,,,,,,,,,,,,,,,,,,,,,,,,2011.1039491731499,None,2011.1039491731499,None,2011.5034619762882,None,2011.5034619762882,None,50,2011.5034619762882,None,return,1.004034563433379,2011.5034619762882,None,,,DONGPING,F,002,2023_Apr_18_1549,untitled,2021.1.4,59.94649251529464,
9,9,18,0,18,27,36,0.75,0.5,0.5,1.0,-0.5,#NAME?,,stimuli/P_09_09_18_00.png,,,,,0,247,247,88,,,,,,,,,,,,,,,,,,,,,,,,,,,,2012.5398299362132,None,2012.5398299362132,None,2013.047404413781,None,2013.047404413781,None,50,2013.047404413781,None,return,0.9769303980865516,2013.047404413781,None,,,DONGPING,F,002,2023_Apr_18_1549,untitled,2021.1.4,59.94649251529464,
18,18,0,18,36,18,54,0.67,0.5,0.5,0.0,0.5,0.5,,stimuli/P_18_18_00_18.png,,,,,0,248,248,162,,,,,,,,,,,,,,,,,,,,,,,,,,,,2014.0568627685134,None,2014.0568627685134,None,2014.5758218602568,None,2014.5758218602568,None,50,2014.5758218602568,None,return,0.9408542784221936,2014.5758218602568,None,,,DONGPING,F,002,2023_Apr_18_1549,untitled,2021.1.4,59.94649251529464,
9,9,18,9,18,27,45,0.8,0.5,0.5,0.67,-0.17,-0.5,,stimuli/P_09_09_18_09.png,,,,,0,249,249,89,,,,,,,,,,,,,,,,,,,,,,,,,,,,2015.549831580298,None,2015.549831580298,None,2016.053861308188,None,2016.053861308188,None,50,2016.053861308188,None,return,0.8736690122022992,2016.053861308188,None,,,DONGPING,F,002,2023_Apr_18_1549,untitled,2021.1.4,59.94649251529464,
0,18,18,18,18,18,54,0.67,1.0,0.0,0.5,-0.5,-1.0,,stimuli/P_00_18_18_18.png,,,,,0,250,250,42,,,,,,,,,,,,,,,,,,,,,,,,,,,,2016.9622058344103,None,2016.9622058344103,None,2017.4711302864744,None,2017.4711302864744,None,0,2017.4711302864744,None,return,2.27077313773043,2017.4711302864744,None,,,DONGPING,F,002,2023_Apr_18_1549,untitled,2021.1.4,59.94649251529464,
18,9,9,36,27,27,72,0.88,0.33,0.67,0.2,0.47,0.58,,stimuli/P_18_09_09_36.png,,,,,0,251,251,151,,,,,,,,,,,,,,,,,,,,,,,,,,,,2019.7607609691768,None,2019.7607609691768,None,2020.2609302137716,None,2020.2609302137716,None,50,2020.2609302137716,None,return,1.3018822842714144,2020.2609302137716,None,,,DONGPING,F,002,2023_Apr_18_1549,untitled,2021.1.4,59.94649251529464,
9,18,18,0,27,27,45,0.6,0.67,0.33,1.0,-0.67,#NAME?,,stimuli/P_09_18_18_00.png,,,,,0,252,252,104,,,,,,,,,,,,,,,,,,,,,,,,,,,,2021.5997533295595,None,2021.5997533295595,None,2022.112234477987,None,2022.112234477987,None,50,2022.112234477987,None,return,1.2726982593740104,2022.112234477987,None,,,DONGPING,F,002,2023_Apr_18_1549,untitled,2021.1.4,59.94649251529464,
18,0,18,9,18,36,45,1.0,0.0,1.0,0.67,0.33,1.0,,stimuli/P_18_00_18_09.png,,,,,0,253,253,137,,,,,,,,,,,,,,,,,,,,,,,,,,,,2023.4181615657144,None,2023.4181615657144,None,2023.8178222800925,None,2023.8178222800925,None,100,2023.8178222800925,None,return,2.054816473435494,2023.8178222800925,None,,,DONGPING,F,002,2023_Apr_18_1549,untitled,2021.1.4,59.94649251529464,
0,0,0,18,0,0,18,1.0,None,None,0.0,None,None,,stimuli/P_00_00_00_18.png,,,,,0,254,254,2,,,,,,,,,,,,,,,,,,,,,,,,,,,,2025.8944772788382,None,2025.8944772788382,None,2026.400579470719,None,2026.400579470719,None,0,2026.400579470719,None,return,1.3215396877203602,2026.400579470719,None,,,DONGPING,F,002,2023_Apr_18_1549,untitled,2021.1.4,59.94649251529464,
18,36,0,9,54,18,63,0.43,0.67,0.33,0.0,0.33,0.33,,stimuli/P_18_36_00_09.png,,,,,0,255,255,177,,,,,,,,,,,,,,,,,,,,,,,,,,,,2027.7430156029295,None,2027.7430156029295,None,2028.2727784727613,None,2028.2727784727613,None,50,2028.2727784727613,None,return,1.3573489982663887,2028.2727784727613,None,,,DONGPING,F,002,2023_Apr_18_1549,untitled,2021.1.4,59.94649251529464,
,,,,,,,,,,,,,,,,,,,,,,,,,,,,,,,,,,,,,,,,,,,,,,,,,,,,,,,,,,,,,,,,,2029.6619278181752,None,,,,,,,,
