A1C1,A1C0,A0C1,A0C0,A1,C1,Total,MI,C0GvA1,C1GvA1,C1GvA0,dltP,dltPp,Image_practice,Image,trials_2.thisRepN,trials_2.thisTrialN,trials_2.thisN,trials_2.thisIndex,trials.thisRepN,trials.thisTrialN,trials.thisN,trials.thisIndex,image.started,image.stopped,key_resp.keys,key_resp.rt,key_resp.started,key_resp.stopped,betweenTrial.started,betweenTrial.stopped,ISI.started,ISI.stopped,image_card.started,image_card.stopped,textbox.text,textbox.started,textbox.stopped,key_resp_3.keys,key_resp_3.rt,key_resp_3.started,key_resp_3.stopped,text_2.started,text_2.stopped,key_resp_2.keys,key_resp_2.rt,key_resp_2.started,key_resp_2.stopped,image_endPractice.started,image_endPractice.stopped,polygon_2.started,polygon_2.stopped,ISI_2.started,ISI_2.stopped,Cards.started,Cards.stopped,TextNote.started,TextNote.stopped,Estimation.text,Estimation.started,Estimation.stopped,key_resp_4.keys,key_resp_4.rt,key_resp_4.started,key_resp_4.stopped,text.started,text.stopped,participant,gender,session,date,expName,psychopyVersion,frameRate,
,,,,,,,,,,,,,,,,,,,,,,,266.92817639999976,None,space,85.75626890000058,266.92817639999976,None,,,,,,,,,,,,,,,,,,,,,,,,,,,,,,,,,,,,,,,HUODA,M,001,2023_Apr_19_1031,untitled,2021.1.4,60.18349949021448,
0,0,0,9,0,0,9,1.0,None,None,0.0,None,None,practice_stimuli/P_00_00_00_09.png,,0,0,0,0,,,,,,,,,,,None,None,None,None,None,None,0,355.0411884999994,None,return,2.5407928000004176,355.0411884999994,None,355.0411884999994,None,,,,,,,,,,,,,,,,,,,,,,,,HUODA,M,001,2023_Apr_19_1031,untitled,2021.1.4,60.18349949021448,
18,0,36,0,18,54,54,1.0,0.0,1.0,1.0,0.0,None,practice_stimuli/P_18_00_36_00.png,,0,1,1,1,,,,,,,,,,,357.62011540000003,None,357.62011540000003,None,358.00707449999936,None,,358.00707449999936,None,None,,358.00707449999936,None,358.00707449999936,None,,,,,,,,,,,,,,,,,,,,,,,,HUODA,M,001,2023_Apr_19_1031,untitled,2021.1.4,60.18349949021448,
9,18,18,0,27,27,45,0.6,0.67,0.33,1.0,-0.67,#NAME?,practice_stimuli/P_09_18_18_00.png,,0,2,2,2,,,,,,,,,,,366.00860250000005,None,366.00860250000005,None,366.3573495999999,None,8,366.3573495999999,None,return,3.7213895000004413,366.3573495999999,None,366.3573495999999,None,,,,,,,,,,,,,,,,,,,,,,,,HUODA,M,001,2023_Apr_19_1031,untitled,2021.1.4,60.18349949021448,
36,18,18,36,54,54,108,0.83,0.33,0.67,0.33,0.33,0.5,practice_stimuli/P_36_18_18_36.png,,0,3,3,3,,,,,,,,,,,370.0978989999994,None,370.0978989999994,None,370.4327529000002,None,50,370.4327529000002,None,return,5.453053000000182,370.4327529000002,None,370.4327529000002,None,,,,,,,,,,,,,,,,,,,,,,,,HUODA,M,001,2023_Apr_19_1031,untitled,2021.1.4,60.18349949021448,
,,,,,,,,,,,,,,,,,,,,,,,,,,,,,,,,,,,,,,,,,,,,space,26.565179700000044,375.91763420000007,None,,,,,,,,,,,,,,,,,,,,HUODA,M,001,2023_Apr_19_1031,untitled,2021.1.4,60.18349949021448,
0,0,36,0,0,36,36,1.0,None,None,1.0,None,None,,stimuli/P_00_00_36_00.png,,,,,0,0,0,12,,,,,,,,,,,,,,,,,,,,,,,,,,375.91763420000007,None,408.5991650999995,None,408.5991650999995,None,408.9653502000001,None,408.9653502000001,None,0,408.9653502000001,None,return,1.7075611000000208,408.9653502000001,None,,,HUODA,M,001,2023_Apr_19_1031,untitled,2021.1.4,60.18349949021448,
9,18,0,18,27,9,45,0.6,0.67,0.33,0.0,0.33,0.33,,stimuli/P_09_18_00_18.png,,,,,0,1,1,98,,,,,,,,,,,,,,,,,,,,,,,,,,,,410.6953222000002,None,410.6953222000002,None,411.03457609999987,None,411.03457609999987,None,33,411.03457609999987,None,return,3.2018330000000788,411.03457609999987,None,,,HUODA,M,001,2023_Apr_19_1031,untitled,2021.1.4,60.18349949021448,
36,9,0,18,45,36,63,0.86,0.2,0.8,0.0,0.8,0.8,,stimuli/P_36_09_00_18.png,,,,,0,2,2,210,,,,,,,,,,,,,,,,,,,,,,,,,,,,414.2599363999998,None,414.2599363999998,None,414.5973598999999,None,414.5973598999999,None,66,414.5973598999999,None,return,3.3564725000005637,414.5973598999999,None,,,HUODA,M,001,2023_Apr_19_1031,untitled,2021.1.4,60.18349949021448,
9,0,18,9,9,27,36,1.0,0.0,1.0,0.67,0.33,1.0,,stimuli/P_09_00_18_09.png,,,,,0,3,3,73,,,,,,,,,,,,,,,,,,,,,,,,,,,,417.9664315,None,417.9664315,None,418.3067108999994,None,418.3067108999994,None,25,418.3067108999994,None,return,3.4893852999994124,418.3067108999994,None,,,HUODA,M,001,2023_Apr_19_1031,untitled,2021.1.4,60.18349949021448,
9,36,36,18,45,45,99,0.64,0.8,0.2,0.67,-0.47,-1.4,,stimuli/P_09_36_36_18.png,,,,,0,4,4,126,,,,,,,,,,,,,,,,,,,,,,,,,,,,421.82669799999985,None,421.82669799999985,None,422.1673326,None,422.1673326,None,10,422.1673326,None,return,2.8601760000001377,422.1673326,None,,,HUODA,M,001,2023_Apr_19_1031,untitled,2021.1.4,60.18349949021448,
0,0,18,0,0,18,18,1.0,None,None,1.0,None,None,,stimuli/P_00_00_18_00.png,,,,,0,5,5,8,,,,,,,,,,,,,,,,,,,,,,,,,,,,425.0494147999998,None,425.0494147999998,None,425.3865326999994,None,425.3865326999994,None,0,425.3865326999994,None,return,1.166547100000571,425.3865326999994,None,,,HUODA,M,001,2023_Apr_19_1031,untitled,2021.1.4,60.18349949021448,
9,18,18,36,27,27,81,0.78,0.67,0.33,0.33,0.0,0.0,,stimuli/P_09_18_18_36.png,,,,,0,6,6,107,,,,,,,,,,,,,,,,,,,,,,,,,,,,426.5744364000002,None,426.5744364000002,None,426.9180348,None,426.9180348,None,25,426.9180348,None,return,3.76303900000039,426.9180348,None,,,HUODA,M,001,2023_Apr_19_1031,untitled,2021.1.4,60.18349949021448,
18,36,0,9,54,18,63,0.43,0.67,0.33,0.0,0.33,0.33,,stimuli/P_18_36_00_09.png,,,,,0,7,7,177,,,,,,,,,,,,,,,,,,,,,,,,,,,,430.69955579999987,None,430.69955579999987,None,431.0416344999994,None,431.0416344999994,None,47,431.0416344999994,None,return,4.9227803000003405,431.0416344999994,None,,,HUODA,M,001,2023_Apr_19_1031,untitled,2021.1.4,60.18349949021448,
36,18,0,9,54,36,63,0.71,0.33,0.67,0.0,0.67,0.67,,stimuli/P_36_18_00_09.png,,,,,0,8,8,225,,,,,,,,,,,,,,,,,,,,,,,,,,,,435.98928609999984,None,435.98928609999984,None,436.3283501999995,None,436.3283501999995,None,66,436.3283501999995,None,return,3.477498299999752,436.3283501999995,None,,,HUODA,M,001,2023_Apr_19_1031,untitled,2021.1.4,60.18349949021448,
9,36,18,0,45,27,63,0.43,0.8,0.2,1.0,-0.8,#NAME?,,stimuli/P_09_36_18_00.png,,,,,0,9,9,120,,,,,,,,,,,,,,,,,,,,,,,,,,,,439.8283004999994,None,439.8283004999994,None,440.1726695999996,None,440.1726695999996,None,17,440.1726695999996,None,return,5.008742300000449,440.1726695999996,None,,,HUODA,M,001,2023_Apr_19_1031,untitled,2021.1.4,60.18349949021448,
18,18,36,9,36,54,81,0.78,0.5,0.5,0.8,-0.3,-1.5,,stimuli/P_18_18_36_09.png,,,,,0,10,10,173,,,,,,,,,,,,,,,,,,,,,,,,,,,,445.19619760000023,None,445.19619760000023,None,445.5416755999995,None,445.5416755999995,None,45,445.5416755999995,None,return,4.537629999999808,445.5416755999995,None,,,HUODA,M,001,2023_Apr_19_1031,untitled,2021.1.4,60.18349949021448,
0,0,0,9,0,0,9,1.0,None,None,0.0,None,None,,stimuli/P_00_00_00_09.png,,,,,0,11,11,1,,,,,,,,,,,,,,,,,,,,,,,,,,,,450.09225909999986,None,450.09225909999986,None,450.42805959999987,None,450.42805959999987,None,0,450.42805959999987,None,return,1.1172959999994418,450.42805959999987,None,,,HUODA,M,001,2023_Apr_19_1031,untitled,2021.1.4,60.18349949021448,
36,9,0,0,45,36,45,0.8,0.2,0.8,None,None,None,,stimuli/P_36_09_00_00.png,,,,,0,12,12,208,,,,,,,,,,,,,,,,,,,,,,,,,,,,451.5735070999999,None,451.5735070999999,None,451.91016369999943,None,451.91016369999943,None,75,451.91016369999943,None,return,2.0832649000003585,451.91016369999943,None,,,HUODA,M,001,2023_Apr_19_1031,untitled,2021.1.4,60.18349949021448,
36,9,9,0,45,45,54,0.83,0.2,0.8,1.0,-0.2,#NAME?,,stimuli/P_36_09_09_00.png,,,,,0,13,13,212,,,,,,,,,,,,,,,,,,,,,,,,,,,,454.0255367999998,None,454.0255367999998,None,454.36178389999986,None,454.36178389999986,None,75,454.36178389999986,None,return,3.8342493000000104,454.36178389999986,None,,,HUODA,M,001,2023_Apr_19_1031,untitled,2021.1.4,60.18349949021448,
0,0,18,9,0,18,27,1.0,None,None,0.67,None,None,,stimuli/P_00_00_18_09.png,,,,,0,14,14,9,,,,,,,,,,,,,,,,,,,,,,,,,,,,458.2235939000002,None,458.2235939000002,None,458.5599308999999,None,458.5599308999999,None,0,458.5599308999999,None,return,1.5988944000000629,458.5599308999999,None,,,HUODA,M,001,2023_Apr_19_1031,untitled,2021.1.4,60.18349949021448,
18,36,18,36,54,36,108,0.67,0.67,0.33,0.33,0.0,0.0,,stimuli/P_18_36_18_36.png,,,,,0,15,15,187,,,,,,,,,,,,,,,,,,,,,,,,,,,,460.1841666999999,None,460.1841666999999,None,460.52471999999943,None,460.52471999999943,None,20,460.52471999999943,None,return,5.786433099999158,460.52471999999943,None,,,HUODA,M,001,2023_Apr_19_1031,untitled,2021.1.4,60.18349949021448,
18,0,9,18,18,27,45,1.0,0.0,1.0,0.33,0.67,1.0,,stimuli/P_18_00_09_18.png,,,,,0,16,16,134,,,,,,,,,,,,,,,,,,,,,,,,,,,,466.3223495000002,None,466.3223495000002,None,466.6554895999998,None,466.6554895999998,None,33,466.6554895999998,None,return,3.3247855999998137,466.6554895999998,None,,,HUODA,M,001,2023_Apr_19_1031,untitled,2021.1.4,60.18349949021448,
0,0,9,18,0,9,27,1.0,None,None,0.33,None,None,,stimuli/P_00_00_09_18.png,,,,,0,17,17,6,,,,,,,,,,,,,,,,,,,,,,,,,,,,469.9990835999997,None,469.9990835999997,None,470.33764509999946,None,470.33764509999946,None,0,470.33764509999946,None,return,1.9519105999997919,470.33764509999946,None,,,HUODA,M,001,2023_Apr_19_1031,untitled,2021.1.4,60.18349949021448,
9,18,18,9,27,27,54,0.67,0.67,0.33,0.67,-0.33,-1.0,,stimuli/P_09_18_18_09.png,,,,,0,18,18,105,,,,,,,,,,,,,,,,,,,,,,,,,,,,472.30513789999986,None,472.30513789999986,None,472.6424354999999,None,472.6424354999999,None,25,472.6424354999999,None,return,4.1075070000006235,472.6424354999999,None,,,HUODA,M,001,2023_Apr_19_1031,untitled,2021.1.4,60.18349949021448,
36,36,36,0,72,72,108,0.67,0.5,0.5,1.0,-0.5,#NAME?,,stimuli/P_36_36_36_00.png,,,,,0,19,19,252,,,,,,,,,,,,,,,,,,,,,,,,,,,,476.7690260999998,None,476.7690260999998,None,477.1073071999999,None,477.1073071999999,None,33,477.1073071999999,None,return,2.220728600000257,477.1073071999999,None,,,HUODA,M,001,2023_Apr_19_1031,untitled,2021.1.4,60.18349949021448,
18,0,36,36,18,54,90,1.0,0.0,1.0,0.5,0.5,1.0,,stimuli/P_18_00_36_36.png,,,,,0,20,20,143,,,,,,,,,,,,,,,,,,,,,,,,,,,,479.34792709999965,None,479.34792709999965,None,479.6913638999995,None,479.6913638999995,None,20,479.6913638999995,None,return,3.1885701000001063,479.6913638999995,None,,,HUODA,M,001,2023_Apr_19_1031,untitled,2021.1.4,60.18349949021448,
18,9,9,36,27,27,72,0.88,0.33,0.67,0.2,0.47,0.58,,stimuli/P_18_09_09_36.png,,,,,0,21,21,151,,,,,,,,,,,,,,,,,,,,,,,,,,,,482.89715009999964,None,482.89715009999964,None,483.2364447,None,483.2364447,None,25,483.2364447,None,return,5.360956799999258,483.2364447,None,,,HUODA,M,001,2023_Apr_19_1031,untitled,2021.1.4,60.18349949021448,
36,36,18,9,72,54,99,0.64,0.5,0.5,0.67,-0.17,-0.5,,stimuli/P_36_36_18_09.png,,,,,0,22,22,249,,,,,,,,,,,,,,,,,,,,,,,,,,,,488.61369209999975,None,488.61369209999975,None,488.9541860999998,None,488.9541860999998,None,40,488.9541860999998,None,return,5.776956099999552,488.9541860999998,None,,,HUODA,M,001,2023_Apr_19_1031,untitled,2021.1.4,60.18349949021448,
0,36,0,18,36,0,54,0.33,1.0,0.0,0.0,0.0,0.0,,stimuli/P_00_36_00_18.png,,,,,0,23,23,50,,,,,,,,,,,,,,,,,,,,,,,,,,,,494.7515592999998,None,494.7515592999998,None,495.0869950999995,None,495.0869950999995,None,0,495.0869950999995,None,return,1.38589839999986,495.0869950999995,None,,,HUODA,M,001,2023_Apr_19_1031,untitled,2021.1.4,60.18349949021448,
9,0,0,0,9,9,9,1.0,0.0,1.0,None,None,None,,stimuli/P_09_00_00_00.png,,,,,0,24,24,64,,,,,,,,,,,,,,,,,,,,,,,,,,,,496.4863882999998,None,496.4863882999998,None,496.8345838999994,None,496.8345838999994,None,100,496.8345838999994,None,return,1.8048416999999972,496.8345838999994,None,,,HUODA,M,001,2023_Apr_19_1031,untitled,2021.1.4,60.18349949021448,
9,18,0,9,27,9,36,0.5,0.67,0.33,0.0,0.33,0.33,,stimuli/P_09_18_00_09.png,,,,,0,25,25,97,,,,,,,,,,,,,,,,,,,,,,,,,,,,498.66076220000014,None,498.66076220000014,None,499.01146439999957,None,499.01146439999957,None,25,499.01146439999957,None,return,5.371544700000413,499.01146439999957,None,,,HUODA,M,001,2023_Apr_19_1031,untitled,2021.1.4,60.18349949021448,
18,0,0,36,18,18,54,1.0,0.0,1.0,0.0,1.0,1.0,,stimuli/P_18_00_00_36.png,,,,,0,26,26,131,,,,,,,,,,,,,,,,,,,,,,,,,,,,504.4042422000002,None,504.4042422000002,None,504.7462590999994,None,504.7462590999994,None,33,504.7462590999994,None,return,2.2746257999997397,504.7462590999994,None,,,HUODA,M,001,2023_Apr_19_1031,untitled,2021.1.4,60.18349949021448,
9,36,0,18,45,9,63,0.43,0.8,0.2,0.0,0.2,0.2,,stimuli/P_09_36_00_18.png,,,,,0,27,27,114,,,,,,,,,,,,,,,,,,,,,,,,,,,,507.0419101999996,None,507.0419101999996,None,507.3825724999997,None,507.3825724999997,None,17,507.3825724999997,None,return,4.051298499999575,507.3825724999997,None,,,HUODA,M,001,2023_Apr_19_1031,untitled,2021.1.4,60.18349949021448,
0,0,0,36,0,0,36,1.0,None,None,0.0,None,None,,stimuli/P_00_00_00_36.png,,,,,0,28,28,3,,,,,,,,,,,,,,,,,,,,,,,,,,,,511.45924749999995,None,511.45924749999995,None,511.7982866000002,None,511.7982866000002,None,0,511.7982866000002,None,return,1.0154448000002958,511.7982866000002,None,,,HUODA,M,001,2023_Apr_19_1031,untitled,2021.1.4,60.18349949021448,
0,9,36,18,9,36,63,0.86,1.0,0.0,0.67,-0.67,-2.0,,stimuli/P_00_09_36_18.png,,,,,0,29,29,30,,,,,,,,,,,,,,,,,,,,,,,,,,,,512.8439014999994,None,512.8439014999994,None,513.1950840999998,None,513.1950840999998,None,0,513.1950840999998,None,return,1.6250807999995232,513.1950840999998,None,,,HUODA,M,001,2023_Apr_19_1031,untitled,2021.1.4,60.18349949021448,
36,0,9,18,36,45,63,1.0,0.0,1.0,0.33,0.67,1.0,,stimuli/P_36_00_09_18.png,,,,,0,30,30,198,,,,,,,,,,,,,,,,,,,,,,,,,,,,514.8471063999996,None,514.8471063999996,None,515.1847053000001,None,515.1847053000001,None,66,515.1847053000001,None,return,2.931760700000268,515.1847053000001,None,,,HUODA,M,001,2023_Apr_19_1031,untitled,2021.1.4,60.18349949021448,
18,0,18,0,18,36,36,1.0,0.0,1.0,1.0,0.0,None,,stimuli/P_18_00_18_00.png,,,,,0,31,31,136,,,,,,,,,,,,,,,,,,,,,,,,,,,,518.1409975999995,None,518.1409975999995,None,518.4831456000002,None,518.4831456000002,None,50,518.4831456000002,None,return,1.4360642999999982,518.4831456000002,None,,,HUODA,M,001,2023_Apr_19_1031,untitled,2021.1.4,60.18349949021448,
36,9,0,36,45,36,81,0.89,0.2,0.8,0.0,0.8,0.8,,stimuli/P_36_09_00_36.png,,,,,0,32,32,211,,,,,,,,,,,,,,,,,,,,,,,,,,,,519.9519239000001,None,519.9519239000001,None,520.2901345,None,520.2901345,None,40,520.2901345,None,return,3.8539928000000145,520.2901345,None,,,HUODA,M,001,2023_Apr_19_1031,untitled,2021.1.4,60.18349949021448,
18,36,18,18,54,36,90,0.6,0.67,0.33,0.5,-0.17,-0.33,,stimuli/P_18_36_18_18.png,,,,,0,33,33,186,,,,,,,,,,,,,,,,,,,,,,,,,,,,524.1611867000001,None,524.1611867000001,None,524.5039327999993,None,524.5039327999993,None,25,524.5039327999993,None,return,4.560353599999871,524.5039327999993,None,,,HUODA,M,001,2023_Apr_19_1031,untitled,2021.1.4,60.18349949021448,
0,36,9,0,36,9,45,0.2,1.0,0.0,1.0,-1.0,#NAME?,,stimuli/P_00_36_09_00.png,,,,,0,34,34,52,,,,,,,,,,,,,,,,,,,,,,,,,,,,529.0840200000002,None,529.0840200000002,None,529.4242616000001,None,529.4242616000001,None,0,529.4242616000001,None,return,3.04230490000009,529.4242616000001,None,,,HUODA,M,001,2023_Apr_19_1031,untitled,2021.1.4,60.18349949021448,
36,36,36,36,72,72,144,0.75,0.5,0.5,0.5,0.0,0.0,,stimuli/P_36_36_36_36.png,,,,,0,35,35,255,,,,,,,,,,,,,,,,,,,,,,,,,,,,532.4948202999994,None,532.4948202999994,None,532.8359743999999,None,532.8359743999999,None,25,532.8359743999999,None,return,2.321959500000048,532.8359743999999,None,,,HUODA,M,001,2023_Apr_19_1031,untitled,2021.1.4,60.18349949021448,
36,18,9,0,54,45,63,0.71,0.33,0.67,1.0,-0.33,#NAME?,,stimuli/P_36_18_09_00.png,,,,,0,36,36,228,,,,,,,,,,,,,,,,,,,,,,,,,,,,535.1796929000002,None,535.1796929000002,None,535.5218969999996,None,535.5218969999996,None,60,535.5218969999996,None,return,4.4790696000000025,535.5218969999996,None,,,HUODA,M,001,2023_Apr_19_1031,untitled,2021.1.4,60.18349949021448,
18,0,9,0,18,27,27,1.0,0.0,1.0,1.0,0.0,None,,stimuli/P_18_00_09_00.png,,,,,0,37,37,132,,,,,,,,,,,,,,,,,,,,,,,,,,,,540.0283105999997,None,540.0283105999997,None,540.3663195999998,None,540.3663195999998,None,66,540.3663195999998,None,return,3.6654891999996835,540.3663195999998,None,,,HUODA,M,001,2023_Apr_19_1031,untitled,2021.1.4,60.18349949021448,
9,0,36,18,9,45,63,1.0,0.0,1.0,0.67,0.33,1.0,,stimuli/P_09_00_36_18.png,,,,,0,38,38,78,,,,,,,,,,,,,,,,,,,,,,,,,,,,544.0547479999996,None,544.0547479999996,None,544.3996824999995,None,544.3996824999995,None,15,544.3996824999995,None,return,3.7128450000000157,544.3996824999995,None,,,HUODA,M,001,2023_Apr_19_1031,untitled,2021.1.4,60.18349949021448,
18,9,18,0,27,36,45,0.8,0.33,0.67,1.0,-0.33,#NAME?,,stimuli/P_18_09_18_00.png,,,,,0,39,39,152,,,,,,,,,,,,,,,,,,,,,,,,,,,,548.1405178999994,None,548.1405178999994,None,548.4765419999994,None,548.4765419999994,None,40,548.4765419999994,None,return,4.877712900000006,548.4765419999994,None,,,HUODA,M,001,2023_Apr_19_1031,untitled,2021.1.4,60.18349949021448,
36,36,9,9,72,45,90,0.6,0.5,0.5,0.5,0.0,0.0,,stimuli/P_36_36_09_09.png,,,,,0,40,40,245,,,,,,,,,,,,,,,,,,,,,,,,,,,,553.3876334999995,None,553.3876334999995,None,553.7355870000001,None,553.7355870000001,None,40,553.7355870000001,None,return,5.957726900000125,553.7355870000001,None,,,HUODA,M,001,2023_Apr_19_1031,untitled,2021.1.4,60.18349949021448,
9,9,0,18,18,9,36,0.75,0.5,0.5,0.0,0.5,0.5,,stimuli/P_09_09_00_18.png,,,,,0,41,41,82,,,,,,,,,,,,,,,,,,,,,,,,,,,,559.7301743999997,None,559.7301743999997,None,560.0654678000001,None,560.0654678000001,None,20,560.0654678000001,None,return,5.293420299999525,560.0654678000001,None,,,HUODA,M,001,2023_Apr_19_1031,untitled,2021.1.4,60.18349949021448,
0,36,0,0,36,0,36,0.0,1.0,0.0,None,None,None,,stimuli/P_00_36_00_00.png,,,,,0,42,42,48,,,,,,,,,,,,,,,,,,,,,,,,,,,,565.3829109999997,None,565.3829109999997,None,565.7158027999994,None,565.7158027999994,None,0,565.7158027999994,None,return,0.9736073000003671,565.7158027999994,None,,,HUODA,M,001,2023_Apr_19_1031,untitled,2021.1.4,60.18349949021448,
36,0,36,9,36,72,81,1.0,0.0,1.0,0.8,0.2,1.0,,stimuli/P_36_00_36_09.png,,,,,0,43,43,205,,,,,,,,,,,,,,,,,,,,,,,,,,,,566.7058655000001,None,566.7058655000001,None,567.0552315999994,None,567.0552315999994,None,33,567.0552315999994,None,return,5.0225733000006585,567.0552315999994,None,,,HUODA,M,001,2023_Apr_19_1031,untitled,2021.1.4,60.18349949021448,
36,36,18,36,72,54,126,0.71,0.5,0.5,0.33,0.17,0.25,,stimuli/P_36_36_18_36.png,,,,,0,44,44,251,,,,,,,,,,,,,,,,,,,,,,,,,,,,572.1035811000002,None,572.1035811000002,None,572.4500566999995,None,572.4500566999995,None,33,572.4500566999995,None,return,7.5977789999997185,572.4500566999995,None,,,HUODA,M,001,2023_Apr_19_1031,untitled,2021.1.4,60.18349949021448,
0,36,18,36,36,18,90,0.6,1.0,0.0,0.33,-0.33,-0.5,,stimuli/P_00_36_18_36.png,,,,,0,45,45,59,,,,,,,,,,,,,,,,,,,,,,,,,,,,580.0622831000001,None,580.0622831000001,None,580.4014287999998,None,580.4014287999998,None,0,580.4014287999998,None,return,1.714873300000363,580.4014287999998,None,,,HUODA,M,001,2023_Apr_19_1031,untitled,2021.1.4,60.18349949021448,
18,36,36,0,54,54,90,0.6,0.67,0.33,1.0,-0.67,#NAME?,,stimuli/P_18_36_36_00.png,,,,,0,46,46,188,,,,,,,,,,,,,,,,,,,,,,,,,,,,582.1365592000002,None,582.1365592000002,None,582.4677261999996,None,582.4677261999996,None,20,582.4677261999996,None,return,4.928695399999924,582.4677261999996,None,,,HUODA,M,001,2023_Apr_19_1031,untitled,2021.1.4,60.18349949021448,
18,36,36,9,54,54,99,0.64,0.67,0.33,0.8,-0.47,-2.33,,stimuli/P_18_36_36_09.png,,,,,0,47,47,189,,,,,,,,,,,,,,,,,,,,,,,,,,,,587.4259573999998,None,587.4259573999998,None,587.7697430999997,None,587.7697430999997,None,20,587.7697430999997,None,return,6.518016799999714,587.7697430999997,None,,,HUODA,M,001,2023_Apr_19_1031,untitled,2021.1.4,60.18349949021448,
18,0,18,18,18,36,54,1.0,0.0,1.0,0.5,0.5,1.0,,stimuli/P_18_00_18_18.png,,,,,0,48,48,138,,,,,,,,,,,,,,,,,,,,,,,,,,,,594.3145169999998,None,594.3145169999998,None,594.6476862999998,None,594.6476862999998,None,33,594.6476862999998,None,return,2.7989346000003934,594.6476862999998,None,,,HUODA,M,001,2023_Apr_19_1031,untitled,2021.1.4,60.18349949021448,
0,18,18,18,18,18,54,0.67,1.0,0.0,0.5,-0.5,-1.0,,stimuli/P_00_18_18_18.png,,,,,0,49,49,42,,,,,,,,,,,,,,,,,,,,,,,,,,,,597.4740560999999,None,597.4740560999999,None,597.8142612000001,None,597.8142612000001,None,0,597.8142612000001,None,return,1.4256512000001749,597.8142612000001,None,,,HUODA,M,001,2023_Apr_19_1031,untitled,2021.1.4,60.18349949021448,
0,9,18,0,9,18,27,0.67,1.0,0.0,1.0,-1.0,#NAME?,,stimuli/P_00_09_18_00.png,,,,,0,50,50,24,,,,,,,,,,,,,,,,,,,,,,,,,,,,599.2641696000001,None,599.2641696000001,None,599.6025804999999,None,599.6025804999999,None,0,599.6025804999999,None,return,1.4446920000000318,599.6025804999999,None,,,HUODA,M,001,2023_Apr_19_1031,untitled,2021.1.4,60.18349949021448,
18,36,36,36,54,54,126,0.71,0.67,0.33,0.5,-0.17,-0.33,,stimuli/P_18_36_36_36.png,,,,,0,51,51,191,,,,,,,,,,,,,,,,,,,,,,,,,,,,601.0770151999996,None,601.0770151999996,None,601.4130668999996,None,601.4130668999996,None,20,601.4130668999996,None,return,7.648618799999895,601.4130668999996,None,,,HUODA,M,001,2023_Apr_19_1031,untitled,2021.1.4,60.18349949021448,
18,36,18,0,54,36,72,0.5,0.67,0.33,1.0,-0.67,#NAME?,,stimuli/P_18_36_18_00.png,,,,,0,52,52,184,,,,,,,,,,,,,,,,,,,,,,,,,,,,609.0890694999998,None,609.0890694999998,None,609.4304425999999,None,609.4304425999999,None,25,609.4304425999999,None,return,5.5063361999991685,609.4304425999999,None,,,HUODA,M,001,2023_Apr_19_1031,untitled,2021.1.4,60.18349949021448,
9,0,9,36,9,18,54,1.0,0.0,1.0,0.2,0.8,1.0,,stimuli/P_09_00_09_36.png,,,,,0,53,53,71,,,,,,,,,,,,,,,,,,,,,,,,,,,,614.9684588999999,None,614.9684588999999,None,615.3139842,None,615.3139842,None,30,615.3139842,None,return,7.639256800000112,615.3139842,None,,,HUODA,M,001,2023_Apr_19_1031,untitled,2021.1.4,60.18349949021448,
9,9,9,36,18,18,63,0.86,0.5,0.5,0.2,0.3,0.37,,stimuli/P_09_09_09_36.png,,,,,0,54,54,87,,,,,,,,,,,,,,,,,,,,,,,,,,,,622.9691814999996,None,622.9691814999996,None,623.3091364000002,None,623.3091364000002,None,,623.3091364000002,None,None,,623.3091364000002,None,,,HUODA,M,001,2023_Apr_19_1031,untitled,2021.1.4,60.18349949021448,
9,0,36,9,9,45,54,1.0,0.0,1.0,0.8,0.2,1.0,,stimuli/P_09_00_36_09.png,,,,,0,55,55,77,,,,,,,,,,,,,,,,,,,,,,,,,,,,631.3198167999999,None,631.3198167999999,None,631.6643575999997,None,631.6643575999997,None,10,631.6643575999997,None,return,4.040426700000353,631.6643575999997,None,,,HUODA,M,001,2023_Apr_19_1031,untitled,2021.1.4,60.18349949021448,
36,0,0,9,36,36,45,1.0,0.0,1.0,0.0,1.0,1.0,,stimuli/P_36_00_00_09.png,,,,,0,56,56,193,,,,,,,,,,,,,,,,,,,,,,,,,,,,635.7261756999997,None,635.7261756999997,None,636.0583583999996,None,636.0583583999996,None,75,636.0583583999996,None,return,3.4983690999997634,636.0583583999996,None,,,HUODA,M,001,2023_Apr_19_1031,untitled,2021.1.4,60.18349949021448,
36,9,0,9,45,36,54,0.83,0.2,0.8,0.0,0.8,0.8,,stimuli/P_36_09_00_09.png,,,,,0,57,57,209,,,,,,,,,,,,,,,,,,,,,,,,,,,,639.5829223999999,None,639.5829223999999,None,639.9219807999998,None,639.9219807999998,None,75,639.9219807999998,None,return,2.255662000000484,639.9219807999998,None,,,HUODA,M,001,2023_Apr_19_1031,untitled,2021.1.4,60.18349949021448,
18,9,0,36,27,18,63,0.86,0.33,0.67,0.0,0.67,0.67,,stimuli/P_18_09_00_36.png,,,,,0,58,58,147,,,,,,,,,,,,,,,,,,,,,,,,,,,,642.2044507,None,642.2044507,None,642.5440104999998,None,642.5440104999998,None,40,642.5440104999998,None,return,5.777617300000202,642.5440104999998,None,,,HUODA,M,001,2023_Apr_19_1031,untitled,2021.1.4,60.18349949021448,
0,9,9,9,9,9,27,0.67,1.0,0.0,0.5,-0.5,-1.0,,stimuli/P_00_09_09_09.png,,,,,0,59,59,21,,,,,,,,,,,,,,,,,,,,,,,,,,,,648.3476353999995,None,648.3476353999995,None,648.6842471999998,None,648.6842471999998,None,0,648.6842471999998,None,return,1.3789778999998816,648.6842471999998,None,,,HUODA,M,001,2023_Apr_19_1031,untitled,2021.1.4,60.18349949021448,
0,0,9,9,0,9,18,1.0,None,None,0.5,None,None,,stimuli/P_00_00_09_09.png,,,,,0,60,60,5,,,,,,,,,,,,,,,,,,,,,,,,,,,,650.0815456,None,650.0815456,None,650.4278943999998,None,650.4278943999998,None,0,650.4278943999998,None,return,0.8546275999997306,650.4278943999998,None,,,HUODA,M,001,2023_Apr_19_1031,untitled,2021.1.4,60.18349949021448,
36,36,9,36,72,45,117,0.69,0.5,0.5,0.2,0.3,0.37,,stimuli/P_36_36_09_36.png,,,,,0,61,61,247,,,,,,,,,,,,,,,,,,,,,,,,,,,,651.3011643999998,None,651.3011643999998,None,651.6679045000001,None,651.6679045000001,None,33,651.6679045000001,None,return,7.3100209000003815,651.6679045000001,None,,,HUODA,M,001,2023_Apr_19_1031,untitled,2021.1.4,60.18349949021448,
0,9,0,36,9,0,45,0.8,1.0,0.0,0.0,0.0,0.0,,stimuli/P_00_09_00_36.png,,,,,0,62,62,19,,,,,,,,,,,,,,,,,,,,,,,,,,,,659.0090183000002,None,659.0090183000002,None,659.3469504999994,None,659.3469504999994,None,0,659.3469504999994,None,return,2.49127849999968,659.3469504999994,None,,,HUODA,M,001,2023_Apr_19_1031,untitled,2021.1.4,60.18349949021448,
36,9,18,18,45,54,81,0.89,0.2,0.8,0.5,0.3,0.6,,stimuli/P_36_09_18_18.png,,,,,0,63,63,218,,,,,,,,,,,,,,,,,,,,,,,,,,,,661.8507755,None,661.8507755,None,662.1890143999999,None,662.1890143999999,None,50,662.1890143999999,None,return,2.555192900000293,662.1890143999999,None,,,HUODA,M,001,2023_Apr_19_1031,untitled,2021.1.4,60.18349949021448,
9,18,9,9,27,18,45,0.6,0.67,0.33,0.5,-0.17,-0.33,,stimuli/P_09_18_09_09.png,,,,,0,64,64,101,,,,,,,,,,,,,,,,,,,,,,,,,,,,664.7604719000001,None,664.7604719000001,None,665.0992461999995,None,665.0992461999995,None,30,665.0992461999995,None,return,6.382402799999909,665.0992461999995,None,,,HUODA,M,001,2023_Apr_19_1031,untitled,2021.1.4,60.18349949021448,
18,9,0,18,27,18,45,0.8,0.33,0.67,0.0,0.67,0.67,,stimuli/P_18_09_00_18.png,,,,,0,65,65,146,,,,,,,,,,,,,,,,,,,,,,,,,,,,671.5109861999999,None,671.5109861999999,None,671.8538813999994,None,671.8538813999994,None,40,671.8538813999994,None,return,3.2578034999996817,671.8538813999994,None,,,HUODA,M,001,2023_Apr_19_1031,untitled,2021.1.4,60.18349949021448,
18,0,36,9,18,54,63,1.0,0.0,1.0,0.8,0.2,1.0,,stimuli/P_18_00_36_09.png,,,,,0,66,66,141,,,,,,,,,,,,,,,,,,,,,,,,,,,,675.1348756999996,None,675.1348756999996,None,675.4795084999996,None,675.4795084999996,None,25,675.4795084999996,None,return,5.285869899999852,675.4795084999996,None,,,HUODA,M,001,2023_Apr_19_1031,untitled,2021.1.4,60.18349949021448,
0,36,9,9,36,9,54,0.33,1.0,0.0,0.5,-0.5,-1.0,,stimuli/P_00_36_09_09.png,,,,,0,67,67,53,,,,,,,,,,,,,,,,,,,,,,,,,,,,680.7987603000001,None,680.7987603000001,None,681.1414089,None,681.1414089,None,0,681.1414089,None,return,3.359948500000428,681.1414089,None,,,HUODA,M,001,2023_Apr_19_1031,untitled,2021.1.4,60.18349949021448,
18,9,9,9,27,27,45,0.8,0.33,0.67,0.5,0.17,0.33,,stimuli/P_18_09_09_09.png,,,,,0,68,68,149,,,,,,,,,,,,,,,,,,,,,,,,,,,,684.5168226999995,None,684.5168226999995,None,684.8576161000001,None,684.8576161000001,None,30,684.8576161000001,None,return,4.335883800000374,684.8576161000001,None,,,HUODA,M,001,2023_Apr_19_1031,untitled,2021.1.4,60.18349949021448,
18,0,9,36,18,27,63,1.0,0.0,1.0,0.2,0.8,1.0,,stimuli/P_18_00_09_36.png,,,,,0,69,69,135,,,,,,,,,,,,,,,,,,,,,,,,,,,,689.2152040999999,None,689.2152040999999,None,689.5589718000001,None,689.5589718000001,None,30,689.5589718000001,None,return,5.1565896000001885,689.5589718000001,None,,,HUODA,M,001,2023_Apr_19_1031,untitled,2021.1.4,60.18349949021448,
9,9,0,36,18,9,54,0.83,0.5,0.5,0.0,0.5,0.5,,stimuli/P_09_09_00_36.png,,,,,0,70,70,83,,,,,,,,,,,,,,,,,,,,,,,,,,,,694.7383066000002,None,694.7383066000002,None,695.07683,None,695.07683,None,16,695.07683,None,return,5.598262999999861,695.07683,None,,,HUODA,M,001,2023_Apr_19_1031,untitled,2021.1.4,60.18349949021448,
9,9,0,9,18,9,27,0.67,0.5,0.5,0.0,0.5,0.5,,stimuli/P_09_09_00_09.png,,,,,0,71,71,81,,,,,,,,,,,,,,,,,,,,,,,,,,,,700.7060356000002,None,700.7060356000002,None,701.0500408999997,None,701.0500408999997,None,33,701.0500408999997,None,return,2.590353500000674,701.0500408999997,None,,,HUODA,M,001,2023_Apr_19_1031,untitled,2021.1.4,60.18349949021448,
36,36,9,18,72,45,99,0.64,0.5,0.5,0.33,0.17,0.25,,stimuli/P_36_36_09_18.png,,,,,0,72,72,246,,,,,,,,,,,,,,,,,,,,,,,,,,,,703.6735284999995,None,703.6735284999995,None,704.0170497999998,None,704.0170497999998,None,33,704.0170497999998,None,return,6.203703899999709,704.0170497999998,None,,,HUODA,M,001,2023_Apr_19_1031,untitled,2021.1.4,60.18349949021448,
18,0,18,9,18,36,45,1.0,0.0,1.0,0.67,0.33,1.0,,stimuli/P_18_00_18_09.png,,,,,0,73,73,137,,,,,,,,,,,,,,,,,,,,,,,,,,,,710.2534808,None,710.2534808,None,710.5952928999995,None,710.5952928999995,None,40,710.5952928999995,None,return,3.5194148000000496,710.5952928999995,None,,,HUODA,M,001,2023_Apr_19_1031,untitled,2021.1.4,60.18349949021448,
18,36,36,18,54,54,108,0.67,0.67,0.33,0.67,-0.33,-1.0,,stimuli/P_18_36_36_18.png,,,,,0,74,74,190,,,,,,,,,,,,,,,,,,,,,,,,,,,,714.1417350000002,None,714.1417350000002,None,714.4802121000002,None,714.4802121000002,None,16,714.4802121000002,None,return,6.105504300000575,714.4802121000002,None,,,HUODA,M,001,2023_Apr_19_1031,untitled,2021.1.4,60.18349949021448,
18,18,9,9,36,27,54,0.67,0.5,0.5,0.5,0.0,0.0,,stimuli/P_18_18_09_09.png,,,,,0,75,75,165,,,,,,,,,,,,,,,,,,,,,,,,,,,,720.6135834999995,None,720.6135834999995,None,720.9571870999998,None,720.9571870999998,None,30,720.9571870999998,None,return,3.7305826000001616,720.9571870999998,None,,,HUODA,M,001,2023_Apr_19_1031,untitled,2021.1.4,60.18349949021448,
36,18,18,0,54,54,72,0.75,0.33,0.67,1.0,-0.33,#NAME?,,stimuli/P_36_18_18_00.png,,,,,0,76,76,232,,,,,,,,,,,,,,,,,,,,,,,,,,,,724.7157729,None,724.7157729,None,725.0568360999996,None,725.0568360999996,None,50,725.0568360999996,None,return,2.581626000000142,725.0568360999996,None,,,HUODA,M,001,2023_Apr_19_1031,untitled,2021.1.4,60.18349949021448,
9,0,9,18,9,18,36,1.0,0.0,1.0,0.33,0.67,1.0,,stimuli/P_09_00_09_18.png,,,,,0,77,77,70,,,,,,,,,,,,,,,,,,,,,,,,,,,,727.6638106999999,None,727.6638106999999,None,728.0046662999994,None,728.0046662999994,None,28,728.0046662999994,None,return,4.78031159999955,728.0046662999994,None,,,HUODA,M,001,2023_Apr_19_1031,untitled,2021.1.4,60.18349949021448,
0,36,18,18,36,18,72,0.5,1.0,0.0,0.5,-0.5,-1.0,,stimuli/P_00_36_18_18.png,,,,,0,78,78,58,,,,,,,,,,,,,,,,,,,,,,,,,,,,732.8025977999996,None,732.8025977999996,None,733.1413624999996,None,733.1413624999996,None,0,733.1413624999996,None,return,1.7012545999996291,733.1413624999996,None,,,HUODA,M,001,2023_Apr_19_1031,untitled,2021.1.4,60.18349949021448,
0,18,18,9,18,18,45,0.6,1.0,0.0,0.67,-0.67,-2.0,,stimuli/P_00_18_18_09.png,,,,,0,79,79,41,,,,,,,,,,,,,,,,,,,,,,,,,,,,734.8593172999999,None,734.8593172999999,None,735.1981420000002,None,735.1981420000002,None,0,735.1981420000002,None,return,1.4386587999997573,735.1981420000002,None,,,HUODA,M,001,2023_Apr_19_1031,untitled,2021.1.4,60.18349949021448,
0,9,9,0,9,9,18,0.5,1.0,0.0,1.0,-1.0,#NAME?,,stimuli/P_00_09_09_00.png,,,,,0,80,80,20,,,,,,,,,,,,,,,,,,,,,,,,,,,,736.6672154999997,None,736.6672154999997,None,737.0076512999995,None,737.0076512999995,None,0,737.0076512999995,None,return,1.2486173999996026,737.0076512999995,None,,,HUODA,M,001,2023_Apr_19_1031,untitled,2021.1.4,60.18349949021448,
0,36,0,9,36,0,45,0.2,1.0,0.0,0.0,0.0,0.0,,stimuli/P_00_36_00_09.png,,,,,0,81,81,49,,,,,,,,,,,,,,,,,,,,,,,,,,,,738.2797903000001,None,738.2797903000001,None,738.6173773,None,738.6173773,None,0,738.6173773,None,return,0.98797470000045,738.6173773,None,,,HUODA,M,001,2023_Apr_19_1031,untitled,2021.1.4,60.18349949021448,
9,9,18,36,18,27,72,0.88,0.5,0.5,0.33,0.17,0.25,,stimuli/P_09_09_18_36.png,,,,,0,82,82,91,,,,,,,,,,,,,,,,,,,,,,,,,,,,739.6178720999997,None,739.6178720999997,None,739.9704940000001,None,739.9704940000001,None,9,739.9704940000001,None,return,3.799726400000509,739.9704940000001,None,,,HUODA,M,001,2023_Apr_19_1031,untitled,2021.1.4,60.18349949021448,
36,36,0,0,72,36,72,0.5,0.5,0.5,None,None,None,,stimuli/P_36_36_00_00.png,,,,,0,83,83,240,,,,,,,,,,,,,,,,,,,,,,,,,,,,743.7838523,None,743.7838523,None,744.1209559999998,None,744.1209559999998,None,50,744.1209559999998,None,return,1.8347881999998208,744.1209559999998,None,,,HUODA,M,001,2023_Apr_19_1031,untitled,2021.1.4,60.18349949021448,
18,18,18,0,36,36,54,0.67,0.5,0.5,1.0,-0.5,#NAME?,,stimuli/P_18_18_18_00.png,,,,,0,84,84,168,,,,,,,,,,,,,,,,,,,,,,,,,,,,745.9732293999996,None,745.9732293999996,None,746.3138099999996,None,746.3138099999996,None,33,746.3138099999996,None,return,1.3720290999999634,746.3138099999996,None,,,HUODA,M,001,2023_Apr_19_1031,untitled,2021.1.4,60.18349949021448,
9,0,9,0,9,18,18,1.0,0.0,1.0,1.0,0.0,None,,stimuli/P_09_00_09_00.png,,,,,0,85,85,68,,,,,,,,,,,,,,,,,,,,,,,,,,,,747.7081803000001,None,747.7081803000001,None,748.057777,None,748.057777,None,50,748.057777,None,return,1.6608169999999518,748.057777,None,,,HUODA,M,001,2023_Apr_19_1031,untitled,2021.1.4,60.18349949021448,
9,36,0,36,45,9,81,0.56,0.8,0.2,0.0,0.2,0.2,,stimuli/P_09_36_00_36.png,,,,,0,86,86,115,,,,,,,,,,,,,,,,,,,,,,,,,,,,749.7330932999994,None,749.7330932999994,None,750.0759361999999,None,750.0759361999999,None,5,750.0759361999999,None,return,3.9506584000000657,750.0759361999999,None,,,HUODA,M,001,2023_Apr_19_1031,untitled,2021.1.4,60.18349949021448,
18,9,36,0,27,54,63,0.86,0.33,0.67,1.0,-0.33,#NAME?,,stimuli/P_18_09_36_00.png,,,,,0,87,87,156,,,,,,,,,,,,,,,,,,,,,,,,,,,,754.0562598999995,None,754.0562598999995,None,754.4004451999999,None,754.4004451999999,None,25,754.4004451999999,None,return,2.390858300000218,754.4004451999999,None,,,HUODA,M,001,2023_Apr_19_1031,untitled,2021.1.4,60.18349949021448,
36,9,18,9,45,54,72,0.88,0.2,0.8,0.67,0.13,0.4,,stimuli/P_36_09_18_09.png,,,,,0,88,88,217,,,,,,,,,,,,,,,,,,,,,,,,,,,,756.8198790999995,None,756.8198790999995,None,757.1666396,None,757.1666396,None,50,757.1666396,None,return,3.571828099999948,757.1666396,None,,,HUODA,M,001,2023_Apr_19_1031,untitled,2021.1.4,60.18349949021448,
18,9,0,0,27,18,27,0.67,0.33,0.67,None,None,None,,stimuli/P_18_09_00_00.png,,,,,0,89,89,144,,,,,,,,,,,,,,,,,,,,,,,,,,,,760.7595855999998,None,760.7595855999998,None,761.1002761999998,None,761.1002761999998,None,66,761.1002761999998,None,return,2.1376573999996253,761.1002761999998,None,,,HUODA,M,001,2023_Apr_19_1031,untitled,2021.1.4,60.18349949021448,
36,18,9,18,54,45,81,0.78,0.33,0.67,0.33,0.33,0.5,,stimuli/P_36_18_09_18.png,,,,,0,90,90,230,,,,,,,,,,,,,,,,,,,,,,,,,,,,763.2684478000001,None,763.2684478000001,None,763.6123987999999,None,763.6123987999999,None,48,763.6123987999999,None,return,4.3039412999996784,763.6123987999999,None,,,HUODA,M,001,2023_Apr_19_1031,untitled,2021.1.4,60.18349949021448,
0,18,0,0,18,0,18,0.0,1.0,0.0,None,None,None,,stimuli/P_00_18_00_00.png,,,,,0,91,91,32,,,,,,,,,,,,,,,,,,,,,,,,,,,,767.9572005999999,None,767.9572005999999,None,768.2936511999997,None,768.2936511999997,None,0,768.2936511999997,None,return,1.0085214999999152,768.2936511999997,None,,,HUODA,M,001,2023_Apr_19_1031,untitled,2021.1.4,60.18349949021448,
36,36,36,18,72,72,126,0.71,0.5,0.5,0.67,-0.17,-0.5,,stimuli/P_36_36_36_18.png,,,,,0,92,92,254,,,,,,,,,,,,,,,,,,,,,,,,,,,,769.3339286999999,None,769.3339286999999,None,769.6756398999996,None,769.6756398999996,None,30,769.6756398999996,None,return,4.507980999999745,769.6756398999996,None,,,HUODA,M,001,2023_Apr_19_1031,untitled,2021.1.4,60.18349949021448,
0,0,36,36,0,36,72,1.0,None,None,0.5,None,None,,stimuli/P_00_00_36_36.png,,,,,0,93,93,15,,,,,,,,,,,,,,,,,,,,,,,,,,,,774.2069422999994,None,774.2069422999994,None,774.5453251999998,None,774.5453251999998,None,0,774.5453251999998,None,return,1.0262330999994447,774.5453251999998,None,,,HUODA,M,001,2023_Apr_19_1031,untitled,2021.1.4,60.18349949021448,
36,9,9,18,45,45,72,0.88,0.2,0.8,0.33,0.47,0.7,,stimuli/P_36_09_09_18.png,,,,,0,94,94,214,,,,,,,,,,,,,,,,,,,,,,,,,,,,775.5908751999996,None,775.5908751999996,None,775.9314033,None,775.9314033,None,50,775.9314033,None,return,3.0598995000000286,775.9314033,None,,,HUODA,M,001,2023_Apr_19_1031,untitled,2021.1.4,60.18349949021448,
0,18,0,9,18,0,27,0.33,1.0,0.0,0.0,0.0,0.0,,stimuli/P_00_18_00_09.png,,,,,0,95,95,33,,,,,,,,,,,,,,,,,,,,,,,,,,,,779.0134401999994,None,779.0134401999994,None,779.3372399999998,None,779.3372399999998,None,0,779.3372399999998,None,return,1.1835409000004802,779.3372399999998,None,,,HUODA,M,001,2023_Apr_19_1031,untitled,2021.1.4,60.18349949021448,
9,9,18,9,18,27,45,0.8,0.5,0.5,0.67,-0.17,-0.5,,stimuli/P_09_09_18_09.png,,,,,0,96,96,89,,,,,,,,,,,,,,,,,,,,,,,,,,,,780.5451234000002,None,780.5451234000002,None,780.8882687999994,None,780.8882687999994,None,20,780.8882687999994,None,return,3.35530160000053,780.8882687999994,None,,,HUODA,M,001,2023_Apr_19_1031,untitled,2021.1.4,60.18349949021448,
18,0,0,9,18,18,27,1.0,0.0,1.0,0.0,1.0,1.0,,stimuli/P_18_00_00_09.png,,,,,0,97,97,129,,,,,,,,,,,,,,,,,,,,,,,,,,,,784.2662659999996,None,784.2662659999996,None,784.5900315999997,None,784.5900315999997,None,66,784.5900315999997,None,return,2.7598394999995435,784.5900315999997,None,,,HUODA,M,001,2023_Apr_19_1031,untitled,2021.1.4,60.18349949021448,
18,36,9,0,54,27,63,0.43,0.67,0.33,1.0,-0.67,#NAME?,,stimuli/P_18_36_09_00.png,,,,,0,98,98,180,,,,,,,,,,,,,,,,,,,,,,,,,,,,787.3632552999998,None,787.3632552999998,None,787.7027061999997,None,787.7027061999997,None,25,787.7027061999997,None,return,4.55879079999977,787.7027061999997,None,,,HUODA,M,001,2023_Apr_19_1031,untitled,2021.1.4,60.18349949021448,
0,9,36,0,9,36,45,0.8,1.0,0.0,1.0,-1.0,#NAME?,,stimuli/P_00_09_36_00.png,,,,,0,99,99,28,,,,,,,,,,,,,,,,,,,,,,,,,,,,792.2781939999995,None,792.2781939999995,None,792.6134987999994,None,792.6134987999994,None,0,792.6134987999994,None,return,1.1909396000000925,792.6134987999994,None,,,HUODA,M,001,2023_Apr_19_1031,untitled,2021.1.4,60.18349949021448,
9,18,0,0,27,9,27,0.33,0.67,0.33,None,None,None,,stimuli/P_09_18_00_00.png,,,,,0,100,100,96,,,,,,,,,,,,,,,,,,,,,,,,,,,,793.8249623000002,None,793.8249623000002,None,794.1560153999999,None,794.1560153999999,None,33,794.1560153999999,None,return,2.3518216000002212,794.1560153999999,None,,,HUODA,M,001,2023_Apr_19_1031,untitled,2021.1.4,60.18349949021448,
36,9,9,9,45,45,63,0.86,0.2,0.8,0.5,0.3,0.6,,stimuli/P_36_09_09_09.png,,,,,0,101,101,213,,,,,,,,,,,,,,,,,,,,,,,,,,,,796.5271459999994,None,796.5271459999994,None,796.8719802999994,None,796.8719802999994,None,55,796.8719802999994,None,return,4.697775300000103,796.8719802999994,None,,,HUODA,M,001,2023_Apr_19_1031,untitled,2021.1.4,60.18349949021448,
18,18,9,18,36,27,63,0.71,0.5,0.5,0.33,0.17,0.25,,stimuli/P_18_18_09_18.png,,,,,0,102,102,166,,,,,,,,,,,,,,,,,,,,,,,,,,,,801.5841898999997,None,801.5841898999997,None,801.9215272000001,None,801.9215272000001,None,30,801.9215272000001,None,return,4.460102699999879,801.9215272000001,None,,,HUODA,M,001,2023_Apr_19_1031,untitled,2021.1.4,60.18349949021448,
18,36,0,0,54,18,54,0.33,0.67,0.33,None,None,None,,stimuli/P_18_36_00_00.png,,,,,0,103,103,176,,,,,,,,,,,,,,,,,,,,,,,,,,,,806.4068692999999,None,806.4068692999999,None,806.7412978000002,None,806.7412978000002,None,40,806.7412978000002,None,return,4.220780000000559,806.7412978000002,None,,,HUODA,M,001,2023_Apr_19_1031,untitled,2021.1.4,60.18349949021448,
36,18,0,36,54,36,90,0.8,0.33,0.67,0.0,0.67,0.67,,stimuli/P_36_18_00_36.png,,,,,0,104,104,227,,,,,,,,,,,,,,,,,,,,,,,,,,,,810.9954163999992,None,810.9954163999992,None,811.3218711999998,None,811.3218711999998,None,40,811.3218711999998,None,return,4.536208200001056,811.3218711999998,None,,,HUODA,M,001,2023_Apr_19_1031,untitled,2021.1.4,60.18349949021448,
0,0,9,0,0,9,9,1.0,None,None,1.0,None,None,,stimuli/P_00_00_09_00.png,,,,,0,105,105,4,,,,,,,,,,,,,,,,,,,,,,,,,,,,815.8931484999994,None,815.8931484999994,None,816.2317621000002,None,816.2317621000002,None,0,816.2317621000002,None,return,0.9558567000003677,816.2317621000002,None,,,HUODA,M,001,2023_Apr_19_1031,untitled,2021.1.4,60.18349949021448,
0,18,9,36,18,9,63,0.71,1.0,0.0,0.2,-0.2,-0.25,,stimuli/P_00_18_09_36.png,,,,,0,106,106,39,,,,,,,,,,,,,,,,,,,,,,,,,,,,817.2152069999993,None,817.2152069999993,None,817.5540089999995,None,817.5540089999995,None,0,817.5540089999995,None,return,0.962450600000011,817.5540089999995,None,,,HUODA,M,001,2023_Apr_19_1031,untitled,2021.1.4,60.18349949021448,
9,36,18,18,45,27,81,0.56,0.8,0.2,0.5,-0.3,-0.6,,stimuli/P_09_36_18_18.png,,,,,0,107,107,122,,,,,,,,,,,,,,,,,,,,,,,,,,,,818.5353130999993,None,818.5353130999993,None,818.888754399999,None,818.888754399999,None,20,818.888754399999,None,return,2.571282099999735,818.888754399999,None,,,HUODA,M,001,2023_Apr_19_1031,untitled,2021.1.4,60.18349949021448,
9,9,36,9,18,45,63,0.86,0.5,0.5,0.8,-0.3,-1.5,,stimuli/P_09_09_36_09.png,,,,,0,108,108,93,,,,,,,,,,,,,,,,,,,,,,,,,,,,821.4711989000007,None,821.4711989000007,None,821.8072983000002,None,821.8072983000002,None,20,821.8072983000002,None,return,2.5447156999998697,821.8072983000002,None,,,HUODA,M,001,2023_Apr_19_1031,untitled,2021.1.4,60.18349949021448,
18,36,9,9,54,27,72,0.5,0.67,0.33,0.5,-0.17,-0.33,,stimuli/P_18_36_09_09.png,,,,,0,109,109,181,,,,,,,,,,,,,,,,,,,,,,,,,,,,824.3690019000005,None,824.3690019000005,None,824.6953672999989,None,824.6953672999989,None,20,824.6953672999989,None,return,5.692510000000766,824.6953672999989,None,,,HUODA,M,001,2023_Apr_19_1031,untitled,2021.1.4,60.18349949021448,
0,36,0,36,36,0,72,0.5,1.0,0.0,0.0,0.0,0.0,,stimuli/P_00_36_00_36.png,,,,,0,110,110,51,,,,,,,,,,,,,,,,,,,,,,,,,,,,830.4126041,None,830.4126041,None,830.7578806999991,None,830.7578806999991,None,0,830.7578806999991,None,return,0.7707623000005697,830.7578806999991,None,,,HUODA,M,001,2023_Apr_19_1031,untitled,2021.1.4,60.18349949021448,
18,18,36,36,36,54,108,0.83,0.5,0.5,0.5,0.0,0.0,,stimuli/P_18_18_36_36.png,,,,,0,111,111,175,,,,,,,,,,,,,,,,,,,,,,,,,,,,831.5532256999995,None,831.5532256999995,None,831.8804086,None,831.8804086,None,20,831.8804086,None,return,3.3923532999997406,831.8804086,None,,,HUODA,M,001,2023_Apr_19_1031,untitled,2021.1.4,60.18349949021448,
36,36,0,36,72,36,108,0.67,0.5,0.5,0.0,0.5,0.5,,stimuli/P_36_36_00_36.png,,,,,0,112,112,243,,,,,,,,,,,,,,,,,,,,,,,,,,,,835.3061130000006,None,835.3061130000006,None,835.6463593999997,None,835.6463593999997,None,33,835.6463593999997,None,return,1.7843253000010009,835.6463593999997,None,,,HUODA,M,001,2023_Apr_19_1031,untitled,2021.1.4,60.18349949021448,
36,0,36,36,36,72,108,1.0,0.0,1.0,0.5,0.5,1.0,,stimuli/P_36_00_36_36.png,,,,,0,113,113,207,,,,,,,,,,,,,,,,,,,,,,,,,,,,837.4460734999993,None,837.4460734999993,None,837.7736733000002,None,837.7736733000002,None,33,837.7736733000002,None,return,0.9769907999998395,837.7736733000002,None,,,HUODA,M,001,2023_Apr_19_1031,untitled,2021.1.4,60.18349949021448,
9,0,9,9,9,18,27,1.0,0.0,1.0,0.5,0.5,1.0,,stimuli/P_09_00_09_09.png,,,,,0,114,114,69,,,,,,,,,,,,,,,,,,,,,,,,,,,,838.7789100999998,None,838.7789100999998,None,839.1179157999995,None,839.1179157999995,None,33,839.1179157999995,None,return,1.244364799998948,839.1179157999995,None,,,HUODA,M,001,2023_Apr_19_1031,untitled,2021.1.4,60.18349949021448,
36,0,9,0,36,45,45,1.0,0.0,1.0,1.0,0.0,None,,stimuli/P_36_00_09_00.png,,,,,0,115,115,196,,,,,,,,,,,,,,,,,,,,,,,,,,,,840.3764434000004,None,840.3764434000004,None,840.7038491000003,None,840.7038491000003,None,75,840.7038491000003,None,return,2.27496229999997,840.7038491000003,None,,,HUODA,M,001,2023_Apr_19_1031,untitled,2021.1.4,60.18349949021448,
36,18,0,0,54,36,54,0.67,0.33,0.67,None,None,None,,stimuli/P_36_18_00_00.png,,,,,0,116,116,224,,,,,,,,,,,,,,,,,,,,,,,,,,,,842.9940313000006,None,842.9940313000006,None,843.3301095999996,None,843.3301095999996,None,70,843.3301095999996,None,return,3.262232599998242,843.3301095999996,None,,,HUODA,M,001,2023_Apr_19_1031,untitled,2021.1.4,60.18349949021448,
36,9,36,18,45,72,99,0.91,0.2,0.8,0.67,0.13,0.4,,stimuli/P_36_09_36_18.png,,,,,0,117,117,222,,,,,,,,,,,,,,,,,,,,,,,,,,,,846.615338399999,None,846.615338399999,None,846.9549401000004,None,846.9549401000004,None,40,846.9549401000004,None,return,4.576228599999013,846.9549401000004,None,,,HUODA,M,001,2023_Apr_19_1031,untitled,2021.1.4,60.18349949021448,
9,0,0,36,9,9,45,1.0,0.0,1.0,0.0,1.0,1.0,,stimuli/P_09_00_00_36.png,,,,,0,118,118,67,,,,,,,,,,,,,,,,,,,,,,,,,,,,851.5445536999996,None,851.5445536999996,None,851.8692573999997,None,851.8692573999997,None,25,851.8692573999997,None,return,2.2160566999991715,851.8692573999997,None,,,HUODA,M,001,2023_Apr_19_1031,untitled,2021.1.4,60.18349949021448,
36,18,36,18,54,72,108,0.83,0.33,0.67,0.67,0.0,0.0,,stimuli/P_36_18_36_18.png,,,,,0,119,119,238,,,,,,,,,,,,,,,,,,,,,,,,,,,,854.1089152999994,None,854.1089152999994,None,854.4481517999993,None,854.4481517999993,None,40,854.4481517999993,None,return,4.919130299998869,854.4481517999993,None,,,HUODA,M,001,2023_Apr_19_1031,untitled,2021.1.4,60.18349949021448,
18,0,36,0,18,54,54,1.0,0.0,1.0,1.0,0.0,None,,stimuli/P_18_00_36_00.png,,,,,0,120,120,140,,,,,,,,,,,,,,,,,,,,,,,,,,,,859.3938120999992,None,859.3938120999992,None,859.7256770000004,None,859.7256770000004,None,40,859.7256770000004,None,return,2.41035120000015,859.7256770000004,None,,,HUODA,M,001,2023_Apr_19_1031,untitled,2021.1.4,60.18349949021448,
9,0,18,36,9,27,63,1.0,0.0,1.0,0.33,0.67,1.0,,stimuli/P_09_00_18_36.png,,,,,0,121,121,75,,,,,,,,,,,,,,,,,,,,,,,,,,,,862.1581396999991,None,862.1581396999991,None,862.4949610999993,None,862.4949610999993,None,20,862.4949610999993,None,return,5.066142800000307,862.4949610999993,None,,,HUODA,M,001,2023_Apr_19_1031,untitled,2021.1.4,60.18349949021448,
18,9,9,18,27,27,54,0.83,0.33,0.67,0.33,0.33,0.5,,stimuli/P_18_09_09_18.png,,,,,0,122,122,150,,,,,,,,,,,,,,,,,,,,,,,,,,,,867.5757823000004,None,867.5757823000004,None,867.9044948999999,None,867.9044948999999,None,30,867.9044948999999,None,return,5.717569800001002,867.9044948999999,None,,,HUODA,M,001,2023_Apr_19_1031,untitled,2021.1.4,60.18349949021448,
18,9,0,9,27,18,36,0.75,0.33,0.67,0.0,0.67,0.67,,stimuli/P_18_09_00_09.png,,,,,0,123,123,145,,,,,,,,,,,,,,,,,,,,,,,,,,,,873.6371674999991,None,873.6371674999991,None,873.9747418999996,None,873.9747418999996,None,40,873.9747418999996,None,return,5.222175000000789,873.9747418999996,None,,,HUODA,M,001,2023_Apr_19_1031,untitled,2021.1.4,60.18349949021448,
18,9,9,0,27,27,36,0.75,0.33,0.67,1.0,-0.33,#NAME?,,stimuli/P_18_09_09_00.png,,,,,0,124,124,148,,,,,,,,,,,,,,,,,,,,,,,,,,,,879.2196227000004,None,879.2196227000004,None,879.5446111000001,None,879.5446111000001,None,40,879.5446111000001,None,return,2.9730947999996715,879.5446111000001,None,,,HUODA,M,001,2023_Apr_19_1031,untitled,2021.1.4,60.18349949021448,
0,9,18,36,9,18,63,0.86,1.0,0.0,0.33,-0.33,-0.5,,stimuli/P_00_09_18_36.png,,,,,0,125,125,27,,,,,,,,,,,,,,,,,,,,,,,,,,,,882.5464824999999,None,882.5464824999999,None,882.8820904999993,None,882.8820904999993,None,0,882.8820904999993,None,return,0.9311483000001317,882.8820904999993,None,,,HUODA,M,001,2023_Apr_19_1031,untitled,2021.1.4,60.18349949021448,
9,36,9,0,45,18,54,0.33,0.8,0.2,1.0,-0.8,#NAME?,,stimuli/P_09_36_09_00.png,,,,,0,126,126,116,,,,,,,,,,,,,,,,,,,,,,,,,,,,883.8497246999996,None,883.8497246999996,None,884.1947067000001,None,884.1947067000001,None,17,884.1947067000001,None,return,4.068525699998645,884.1947067000001,None,,,HUODA,M,001,2023_Apr_19_1031,untitled,2021.1.4,60.18349949021448,
9,36,36,36,45,45,117,0.69,0.8,0.2,0.5,-0.3,-0.6,,stimuli/P_09_36_36_36.png,,,,,0,127,127,127,,,,,,,,,,,,,,,,,,,,,,,,,,,,888.2833518000007,None,888.2833518000007,None,888.6130988999994,None,888.6130988999994,None,17,888.6130988999994,None,return,3.4819527999989077,888.6130988999994,None,,,HUODA,M,001,2023_Apr_19_1031,untitled,2021.1.4,60.18349949021448,
18,18,9,0,36,27,45,0.6,0.5,0.5,1.0,-0.5,#NAME?,,stimuli/P_18_18_09_00.png,,,,,0,128,128,164,,,,,,,,,,,,,,,,,,,,,,,,,,,,892.1252850000001,None,892.1252850000001,None,892.4634148999994,None,892.4634148999994,None,40,892.4634148999994,None,return,2.8549290999999357,892.4634148999994,None,,,HUODA,M,001,2023_Apr_19_1031,untitled,2021.1.4,60.18349949021448,
36,18,9,9,54,45,72,0.75,0.33,0.67,0.5,0.17,0.33,,stimuli/P_36_18_09_09.png,,,,,0,129,129,229,,,,,,,,,,,,,,,,,,,,,,,,,,,,895.3377887000006,None,895.3377887000006,None,895.6647813,None,895.6647813,None,47,895.6647813,None,return,4.494733499999711,895.6647813,None,,,HUODA,M,001,2023_Apr_19_1031,untitled,2021.1.4,60.18349949021448,
9,18,9,18,27,18,54,0.67,0.67,0.33,0.33,0.0,0.0,,stimuli/P_09_18_09_18.png,,,,,0,130,130,102,,,,,,,,,,,,,,,,,,,,,,,,,,,,900.1719914999994,None,900.1719914999994,None,900.5096441999995,None,900.5096441999995,None,42,900.5096441999995,None,return,4.7522833999992145,900.5096441999995,None,,,HUODA,M,001,2023_Apr_19_1031,untitled,2021.1.4,60.18349949021448,
9,18,36,9,27,45,72,0.75,0.67,0.33,0.8,-0.47,-2.33,,stimuli/P_09_18_36_09.png,,,,,0,131,131,109,,,,,,,,,,,,,,,,,,,,,,,,,,,,905.2880107000001,None,905.2880107000001,None,905.6132741999991,None,905.6132741999991,None,25,905.6132741999991,None,return,6.091762599999129,905.6132741999991,None,,,HUODA,M,001,2023_Apr_19_1031,untitled,2021.1.4,60.18349949021448,
9,36,9,18,45,18,72,0.5,0.8,0.2,0.33,-0.13,-0.2,,stimuli/P_09_36_09_18.png,,,,,0,132,132,118,,,,,,,,,,,,,,,,,,,,,,,,,,,,911.7335915999993,None,911.7335915999993,None,912.0708651000004,None,912.0708651000004,None,17,912.0708651000004,None,return,4.760445600000821,912.0708651000004,None,,,HUODA,M,001,2023_Apr_19_1031,untitled,2021.1.4,60.18349949021448,
9,0,36,36,9,45,81,1.0,0.0,1.0,0.5,0.5,1.0,,stimuli/P_09_00_36_36.png,,,,,0,133,133,79,,,,,,,,,,,,,,,,,,,,,,,,,,,,916.8614053000001,None,916.8614053000001,None,917.1908378999997,None,917.1908378999997,None,20,917.1908378999997,None,return,1.8461575000001176,917.1908378999997,None,,,HUODA,M,001,2023_Apr_19_1031,untitled,2021.1.4,60.18349949021448,
18,18,36,18,36,54,90,0.8,0.5,0.5,0.67,-0.17,-0.5,,stimuli/P_18_18_36_18.png,,,,,0,134,134,174,,,,,,,,,,,,,,,,,,,,,,,,,,,,919.0507306999989,None,919.0507306999989,None,919.3924241999994,None,919.3924241999994,None,17,919.3924241999994,None,return,3.599639500000194,919.3924241999994,None,,,HUODA,M,001,2023_Apr_19_1031,untitled,2021.1.4,60.18349949021448,
36,18,9,36,54,45,99,0.82,0.33,0.67,0.2,0.47,0.58,,stimuli/P_36_18_09_36.png,,,,,0,135,135,231,,,,,,,,,,,,,,,,,,,,,,,,,,,,923.017448999999,None,923.017448999999,None,923.3550326999994,None,923.3550326999994,None,42,923.3550326999994,None,return,3.042382699999507,923.3550326999994,None,,,HUODA,M,001,2023_Apr_19_1031,untitled,2021.1.4,60.18349949021448,
0,18,0,36,18,0,54,0.67,1.0,0.0,0.0,0.0,0.0,,stimuli/P_00_18_00_36.png,,,,,0,136,136,35,,,,,,,,,,,,,,,,,,,,,,,,,,,,926.4262613999999,None,926.4262613999999,None,926.7492130999999,None,926.7492130999999,None,0,926.7492130999999,None,return,1.6632625000002008,926.7492130999999,None,,,HUODA,M,001,2023_Apr_19_1031,untitled,2021.1.4,60.18349949021448,
0,0,18,18,0,18,36,1.0,None,None,0.5,None,None,,stimuli/P_00_00_18_18.png,,,,,0,137,137,10,,,,,,,,,,,,,,,,,,,,,,,,,,,,928.4310616999992,None,928.4310616999992,None,928.7663558000004,None,928.7663558000004,None,0,928.7663558000004,None,return,0.7249587999995128,928.7663558000004,None,,,HUODA,M,001,2023_Apr_19_1031,untitled,2021.1.4,60.18349949021448,
9,36,9,9,45,18,63,0.43,0.8,0.2,0.5,-0.3,-0.6,,stimuli/P_09_36_09_09.png,,,,,0,138,138,117,,,,,,,,,,,,,,,,,,,,,,,,,,,,929.5097478000007,None,929.5097478000007,None,929.8475923000005,None,929.8475923000005,None,17,929.8475923000005,None,return,5.414585499998793,929.8475923000005,None,,,HUODA,M,001,2023_Apr_19_1031,untitled,2021.1.4,60.18349949021448,
0,9,9,18,9,9,36,0.75,1.0,0.0,0.33,-0.33,-0.5,,stimuli/P_00_09_09_18.png,,,,,0,139,139,22,,,,,,,,,,,,,,,,,,,,,,,,,,,,935.275899799999,None,935.275899799999,None,935.6126060000006,None,935.6126060000006,None,0,935.6126060000006,None,return,1.2536909999998898,935.6126060000006,None,,,HUODA,M,001,2023_Apr_19_1031,untitled,2021.1.4,60.18349949021448,
9,0,18,0,9,27,27,1.0,0.0,1.0,1.0,0.0,None,,stimuli/P_09_00_18_00.png,,,,,0,140,140,72,,,,,,,,,,,,,,,,,,,,,,,,,,,,936.8820219999998,None,936.8820219999998,None,937.2076883999998,None,937.2076883999998,None,33,937.2076883999998,None,return,5.3697152999993705,937.2076883999998,None,,,HUODA,M,001,2023_Apr_19_1031,untitled,2021.1.4,60.18349949021448,
36,9,36,0,45,72,81,0.89,0.2,0.8,1.0,-0.2,#NAME?,,stimuli/P_36_09_36_00.png,,,,,0,141,141,220,,,,,,,,,,,,,,,,,,,,,,,,,,,,942.5956955000001,None,942.5956955000001,None,942.932127099999,None,942.932127099999,None,42,942.932127099999,None,return,3.9962407999992138,942.932127099999,None,,,HUODA,M,001,2023_Apr_19_1031,untitled,2021.1.4,60.18349949021448,
36,9,18,0,45,54,63,0.86,0.2,0.8,1.0,-0.2,#NAME?,,stimuli/P_36_09_18_00.png,,,,,0,142,142,216,,,,,,,,,,,,,,,,,,,,,,,,,,,,946.9453367000006,None,946.9453367000006,None,947.2709580999999,None,947.2709580999999,None,66,947.2709580999999,None,return,5.643034500000795,947.2709580999999,None,,,HUODA,M,001,2023_Apr_19_1031,untitled,2021.1.4,60.18349949021448,
18,36,18,9,54,36,81,0.56,0.67,0.33,0.67,-0.33,-1.0,,stimuli/P_18_36_18_09.png,,,,,0,143,143,185,,,,,,,,,,,,,,,,,,,,,,,,,,,,952.9292334999991,None,952.9292334999991,None,953.2642747999998,None,953.2642747999998,None,42,953.2642747999998,None,return,5.545733299999483,953.2642747999998,None,,,HUODA,M,001,2023_Apr_19_1031,untitled,2021.1.4,60.18349949021448,
18,9,36,18,27,54,81,0.89,0.33,0.67,0.67,0.0,0.0,,stimuli/P_18_09_36_18.png,,,,,0,144,144,158,,,,,,,,,,,,,,,,,,,,,,,,,,,,958.8399898999996,None,958.8399898999996,None,959.1772017000003,None,959.1772017000003,None,33,959.1772017000003,None,return,5.47645459999876,959.1772017000003,None,,,HUODA,M,001,2023_Apr_19_1031,untitled,2021.1.4,60.18349949021448,
0,0,9,36,0,9,45,1.0,None,None,0.2,None,None,,stimuli/P_00_00_09_36.png,,,,,0,145,145,7,,,,,,,,,,,,,,,,,,,,,,,,,,,,964.6837971000004,None,964.6837971000004,None,965.0083489999997,None,965.0083489999997,None,0,965.0083489999997,None,return,1.0186914000005345,965.0083489999997,None,,,HUODA,M,001,2023_Apr_19_1031,untitled,2021.1.4,60.18349949021448,
9,36,9,36,45,18,90,0.6,0.8,0.2,0.2,0.0,0.0,,stimuli/P_09_36_09_36.png,,,,,0,146,146,119,,,,,,,,,,,,,,,,,,,,,,,,,,,,966.0612247999998,None,966.0612247999998,None,966.4064703000004,None,966.4064703000004,None,25,966.4064703000004,None,return,5.428644100000383,966.4064703000004,None,,,HUODA,M,001,2023_Apr_19_1031,untitled,2021.1.4,60.18349949021448,
36,9,36,9,45,72,90,0.9,0.2,0.8,0.8,0.0,0.0,,stimuli/P_36_09_36_09.png,,,,,0,147,147,221,,,,,,,,,,,,,,,,,,,,,,,,,,,,971.8594082999989,None,971.8594082999989,None,972.1874860999997,None,972.1874860999997,None,42,972.1874860999997,None,return,4.935042000000976,972.1874860999997,None,,,HUODA,M,001,2023_Apr_19_1031,untitled,2021.1.4,60.18349949021448,
9,36,36,9,45,45,90,0.6,0.8,0.2,0.8,-0.6,-3.0,,stimuli/P_09_36_36_09.png,,,,,0,148,148,125,,,,,,,,,,,,,,,,,,,,,,,,,,,,977.1432568,None,977.1432568,None,977.4834740000006,None,977.4834740000006,None,10,977.4834740000006,None,return,4.021403799999462,977.4834740000006,None,,,HUODA,M,001,2023_Apr_19_1031,untitled,2021.1.4,60.18349949021448,
9,18,9,36,27,18,72,0.75,0.67,0.33,0.2,0.13,0.17,,stimuli/P_09_18_09_36.png,,,,,0,149,149,103,,,,,,,,,,,,,,,,,,,,,,,,,,,,981.5346649999992,None,981.5346649999992,None,981.8612904999991,None,981.8612904999991,None,16,981.8612904999991,None,return,7.089842699999281,981.8612904999991,None,,,HUODA,M,001,2023_Apr_19_1031,untitled,2021.1.4,60.18349949021448,
18,0,18,36,18,36,72,1.0,0.0,1.0,0.33,0.67,1.0,,stimuli/P_18_00_18_36.png,,,,,0,150,150,139,,,,,,,,,,,,,,,,,,,,,,,,,,,,988.9803623999996,None,988.9803623999996,None,989.3186721000002,None,989.3186721000002,None,25,989.3186721000002,None,return,4.05979219999972,989.3186721000002,None,,,HUODA,M,001,2023_Apr_19_1031,untitled,2021.1.4,60.18349949021448,
0,0,18,36,0,18,54,1.0,None,None,0.33,None,None,,stimuli/P_00_00_18_36.png,,,,,0,151,151,11,,,,,,,,,,,,,,,,,,,,,,,,,,,,993.3888031999995,None,993.3888031999995,None,993.7130488000003,None,993.7130488000003,None,0,993.7130488000003,None,return,0.9660704999987502,993.7130488000003,None,,,HUODA,M,001,2023_Apr_19_1031,untitled,2021.1.4,60.18349949021448,
9,18,9,0,27,18,36,0.5,0.67,0.33,1.0,-0.67,#NAME?,,stimuli/P_09_18_09_00.png,,,,,0,152,152,100,,,,,,,,,,,,,,,,,,,,,,,,,,,,994.7033892999989,None,994.7033892999989,None,995.0423757999997,None,995.0423757999997,None,30,995.0423757999997,None,return,4.298962400000164,995.0423757999997,None,,,HUODA,M,001,2023_Apr_19_1031,untitled,2021.1.4,60.18349949021448,
18,18,18,36,36,36,90,0.8,0.5,0.5,0.33,0.17,0.25,,stimuli/P_18_18_18_36.png,,,,,0,153,153,171,,,,,,,,,,,,,,,,,,,,,,,,,,,,999.3567435999994,None,999.3567435999994,None,999.7003906999998,None,999.7003906999998,None,20,999.7003906999998,None,return,5.539722400000755,999.7003906999998,None,,,HUODA,M,001,2023_Apr_19_1031,untitled,2021.1.4,60.18349949021448,
36,0,9,36,36,45,81,1.0,0.0,1.0,0.2,0.8,1.0,,stimuli/P_36_00_09_36.png,,,,,0,154,154,199,,,,,,,,,,,,,,,,,,,,,,,,,,,,1005.2577483000005,None,1005.2577483000005,None,1005.5846617999996,None,1005.5846617999996,None,42,1005.5846617999996,None,return,3.32400989999951,1005.5846617999996,None,,,HUODA,M,001,2023_Apr_19_1031,untitled,2021.1.4,60.18349949021448,
0,9,0,18,9,0,27,0.67,1.0,0.0,0.0,0.0,0.0,,stimuli/P_00_09_00_18.png,,,,,0,155,155,18,,,,,,,,,,,,,,,,,,,,,,,,,,,,1008.9396149000004,None,1008.9396149000004,None,1009.2755414000003,None,1009.2755414000003,None,0,1009.2755414000003,None,return,0.9884063999998034,1009.2755414000003,None,,,HUODA,M,001,2023_Apr_19_1031,untitled,2021.1.4,60.18349949021448,
0,18,9,0,18,9,27,0.33,1.0,0.0,1.0,-1.0,#NAME?,,stimuli/P_00_18_09_00.png,,,,,0,156,156,36,,,,,,,,,,,,,,,,,,,,,,,,,,,,1010.2778263,None,1010.2778263,None,1010.604482499999,None,1010.604482499999,None,0,1010.604482499999,None,return,1.0327321999993728,1010.604482499999,None,,,HUODA,M,001,2023_Apr_19_1031,untitled,2021.1.4,60.18349949021448,
18,18,36,0,36,54,72,0.75,0.5,0.5,1.0,-0.5,#NAME?,,stimuli/P_18_18_36_00.png,,,,,0,157,157,172,,,,,,,,,,,,,,,,,,,,,,,,,,,,1011.6511135000001,None,1011.6511135000001,None,1011.9882512000004,None,1011.9882512000004,None,25,1011.9882512000004,None,return,6.265287099999114,1011.9882512000004,None,,,HUODA,M,001,2023_Apr_19_1031,untitled,2021.1.4,60.18349949021448,
36,0,18,36,36,54,90,1.0,0.0,1.0,0.33,0.67,1.0,,stimuli/P_36_00_18_36.png,,,,,0,158,158,203,,,,,,,,,,,,,,,,,,,,,,,,,,,,1018.2763061999995,None,1018.2763061999995,None,1018.6060851000002,None,1018.6060851000002,None,40,1018.6060851000002,None,return,4.631426699999793,1018.6060851000002,None,,,HUODA,M,001,2023_Apr_19_1031,untitled,2021.1.4,60.18349949021448,
0,18,9,18,18,9,45,0.6,1.0,0.0,0.33,-0.33,-0.5,,stimuli/P_00_18_09_18.png,,,,,0,159,159,38,,,,,,,,,,,,,,,,,,,,,,,,,,,,1023.2598130999995,None,1023.2598130999995,None,1023.5950040999996,None,1023.5950040999996,None,0,1023.5950040999996,None,return,1.9284808000011253,1023.5950040999996,None,,,HUODA,M,001,2023_Apr_19_1031,untitled,2021.1.4,60.18349949021448,
36,18,18,36,54,54,108,0.83,0.33,0.67,0.33,0.33,0.5,,stimuli/P_36_18_18_36.png,,,,,0,160,160,235,,,,,,,,,,,,,,,,,,,,,,,,,,,,1025.5405393,None,1025.5405393,None,1025.8695678999993,None,1025.8695678999993,None,42,1025.8695678999993,None,return,4.882028900001387,1025.8695678999993,None,,,HUODA,M,001,2023_Apr_19_1031,untitled,2021.1.4,60.18349949021448,
0,18,9,9,18,9,36,0.5,1.0,0.0,0.5,-0.5,-1.0,,stimuli/P_00_18_09_09.png,,,,,0,161,161,37,,,,,,,,,,,,,,,,,,,,,,,,,,,,1030.774144699999,None,1030.774144699999,None,1031.1135307000004,None,1031.1135307000004,None,0,1031.1135307000004,None,return,1.0140678000007028,1031.1135307000004,None,,,HUODA,M,001,2023_Apr_19_1031,untitled,2021.1.4,60.18349949021448,
18,36,9,18,54,27,81,0.56,0.67,0.33,0.33,0.0,0.0,,stimuli/P_18_36_09_18.png,,,,,0,162,162,182,,,,,,,,,,,,,,,,,,,,,,,,,,,,1032.1598486000003,None,1032.1598486000003,None,1032.505373099999,None,1032.505373099999,None,20,1032.505373099999,None,return,4.680755000001227,1032.505373099999,None,,,HUODA,M,001,2023_Apr_19_1031,untitled,2021.1.4,60.18349949021448,
0,18,36,9,18,36,63,0.71,1.0,0.0,0.8,-0.8,-4.0,,stimuli/P_00_18_36_09.png,,,,,0,163,163,45,,,,,,,,,,,,,,,,,,,,,,,,,,,,1037.2170984000004,None,1037.2170984000004,None,1037.5501096999997,None,1037.5501096999997,None,0,1037.5501096999997,None,return,1.1581127000008564,1037.5501096999997,None,,,HUODA,M,001,2023_Apr_19_1031,untitled,2021.1.4,60.18349949021448,
36,36,9,0,72,45,81,0.56,0.5,0.5,1.0,-0.5,#NAME?,,stimuli/P_36_36_09_00.png,,,,,0,164,164,244,,,,,,,,,,,,,,,,,,,,,,,,,,,,1038.7296628999993,None,1038.7296628999993,None,1039.0751003999994,None,1039.0751003999994,None,40,1039.0751003999994,None,return,4.607087800000954,1039.0751003999994,None,,,HUODA,M,001,2023_Apr_19_1031,untitled,2021.1.4,60.18349949021448,
0,9,18,18,9,18,45,0.8,1.0,0.0,0.5,-0.5,-1.0,,stimuli/P_00_09_18_18.png,,,,,0,165,165,26,,,,,,,,,,,,,,,,,,,,,,,,,,,,1043.7112462000005,None,1043.7112462000005,None,1044.0372705999998,None,1044.0372705999998,None,0,1044.0372705999998,None,return,1.1974102999993192,1044.0372705999998,None,,,HUODA,M,001,2023_Apr_19_1031,untitled,2021.1.4,60.18349949021448,
36,18,0,18,54,36,72,0.75,0.33,0.67,0.0,0.67,0.67,,stimuli/P_36_18_00_18.png,,,,,0,166,166,226,,,,,,,,,,,,,,,,,,,,,,,,,,,,1045.2529439999998,None,1045.2529439999998,None,1045.6029899000005,None,1045.6029899000005,None,50,1045.6029899000005,None,return,4.471563799999785,1045.6029899000005,None,,,HUODA,M,001,2023_Apr_19_1031,untitled,2021.1.4,60.18349949021448,
0,9,36,9,9,36,54,0.83,1.0,0.0,0.8,-0.8,-4.0,,stimuli/P_00_09_36_09.png,,,,,0,167,167,29,,,,,,,,,,,,,,,,,,,,,,,,,,,,1050.0870787000003,None,1050.0870787000003,None,1050.4224897000004,None,1050.4224897000004,None,0,1050.4224897000004,None,return,1.1712109000000055,1050.4224897000004,None,,,HUODA,M,001,2023_Apr_19_1031,untitled,2021.1.4,60.18349949021448,
9,36,18,36,45,27,99,0.64,0.8,0.2,0.33,-0.13,-0.2,,stimuli/P_09_36_18_36.png,,,,,0,168,168,123,,,,,,,,,,,,,,,,,,,,,,,,,,,,1051.6243214999995,None,1051.6243214999995,None,1051.9617135999997,None,1051.9617135999997,None,10,1051.9617135999997,None,return,2.412705000000642,1051.9617135999997,None,,,HUODA,M,001,2023_Apr_19_1031,untitled,2021.1.4,60.18349949021448,
18,0,0,18,18,18,36,1.0,0.0,1.0,0.0,1.0,1.0,,stimuli/P_18_00_00_18.png,,,,,0,169,169,130,,,,,,,,,,,,,,,,,,,,,,,,,,,,1054.387531299999,None,1054.387531299999,None,1054.7227967,None,1054.7227967,None,50,1054.7227967,None,return,1.6113820999999007,1054.7227967,None,,,HUODA,M,001,2023_Apr_19_1031,untitled,2021.1.4,60.18349949021448,
18,18,9,36,36,27,81,0.78,0.5,0.5,0.2,0.3,0.37,,stimuli/P_18_18_09_36.png,,,,,0,170,170,167,,,,,,,,,,,,,,,,,,,,,,,,,,,,1056.3521179,None,1056.3521179,None,1056.689970899999,None,1056.689970899999,None,40,1056.689970899999,None,return,6.221764600000824,1056.689970899999,None,,,HUODA,M,001,2023_Apr_19_1031,untitled,2021.1.4,60.18349949021448,
9,9,0,0,18,9,18,0.5,0.5,0.5,None,None,None,,stimuli/P_09_09_00_00.png,,,,,0,171,171,80,,,,,,,,,,,,,,,,,,,,,,,,,,,,1062.9241925999995,None,1062.9241925999995,None,1063.2515734999997,None,1063.2515734999997,None,50,1063.2515734999997,None,return,1.399296299998241,1063.2515734999997,None,,,HUODA,M,001,2023_Apr_19_1031,untitled,2021.1.4,60.18349949021448,
0,18,36,36,18,36,90,0.8,1.0,0.0,0.5,-0.5,-1.0,,stimuli/P_00_18_36_36.png,,,,,0,172,172,47,,,,,,,,,,,,,,,,,,,,,,,,,,,,1064.6664731,None,1064.6664731,None,1064.9909561999993,None,1064.9909561999993,None,0,1064.9909561999993,None,return,0.9406944000002113,1064.9909561999993,None,,,HUODA,M,001,2023_Apr_19_1031,untitled,2021.1.4,60.18349949021448,
0,18,36,18,18,36,72,0.75,1.0,0.0,0.67,-0.67,-2.0,,stimuli/P_00_18_36_18.png,,,,,0,173,173,46,,,,,,,,,,,,,,,,,,,,,,,,,,,,1065.950358099999,None,1065.950358099999,None,1066.2891464000004,None,1066.2891464000004,None,0,1066.2891464000004,None,return,0.9415090999991662,1066.2891464000004,None,,,HUODA,M,001,2023_Apr_19_1031,untitled,2021.1.4,60.18349949021448,
18,0,0,0,18,18,18,1.0,0.0,1.0,None,None,None,,stimuli/P_18_00_00_00.png,,,,,0,174,174,128,,,,,,,,,,,,,,,,,,,,,,,,,,,,1067.2494201999998,None,1067.2494201999998,None,1067.592086999999,None,1067.592086999999,None,100,1067.592086999999,None,return,1.4212754999989556,1067.592086999999,None,,,HUODA,M,001,2023_Apr_19_1031,untitled,2021.1.4,60.18349949021448,
18,18,18,9,36,36,63,0.71,0.5,0.5,0.67,-0.17,-0.5,,stimuli/P_18_18_18_09.png,,,,,0,175,175,169,,,,,,,,,,,,,,,,,,,,,,,,,,,,1069.0387382999997,None,1069.0387382999997,None,1069.372677199999,None,1069.372677199999,None,27,1069.372677199999,None,return,4.03124360000038,1069.372677199999,None,,,HUODA,M,001,2023_Apr_19_1031,untitled,2021.1.4,60.18349949021448,
9,0,36,0,9,45,45,1.0,0.0,1.0,1.0,0.0,None,,stimuli/P_09_00_36_00.png,,,,,0,176,176,76,,,,,,,,,,,,,,,,,,,,,,,,,,,,1073.4151564000003,None,1073.4151564000003,None,1073.7415805,None,1073.7415805,None,25,1073.7415805,None,return,4.164054199998645,1073.7415805,None,,,HUODA,M,001,2023_Apr_19_1031,untitled,2021.1.4,60.18349949021448,
36,0,36,18,36,72,90,1.0,0.0,1.0,0.67,0.33,1.0,,stimuli/P_36_00_36_18.png,,,,,0,177,177,206,,,,,,,,,,,,,,,,,,,,,,,,,,,,1077.9191181000006,None,1077.9191181000006,None,1078.2558198000006,None,1078.2558198000006,None,40,1078.2558198000006,None,return,4.40408380000008,1078.2558198000006,None,,,HUODA,M,001,2023_Apr_19_1031,untitled,2021.1.4,60.18349949021448,
36,18,36,36,54,72,126,0.86,0.33,0.67,0.5,0.17,0.33,,stimuli/P_36_18_36_36.png,,,,,0,178,178,239,,,,,,,,,,,,,,,,,,,,,,,,,,,,1082.6826201999993,None,1082.6826201999993,None,1083.0126280000004,None,1083.0126280000004,None,30,1083.0126280000004,None,return,3.8105969999996887,1083.0126280000004,None,,,HUODA,M,001,2023_Apr_19_1031,untitled,2021.1.4,60.18349949021448,
0,0,36,18,0,36,54,1.0,None,None,0.67,None,None,,stimuli/P_00_00_36_18.png,,,,,0,179,179,14,,,,,,,,,,,,,,,,,,,,,,,,,,,,1086.8466816,None,1086.8466816,None,1087.182109199999,None,1087.182109199999,None,0,1087.182109199999,None,return,0.9126768000005541,1087.182109199999,None,,,HUODA,M,001,2023_Apr_19_1031,untitled,2021.1.4,60.18349949021448,
9,0,0,18,9,9,27,1.0,0.0,1.0,0.0,1.0,1.0,,stimuli/P_09_00_00_18.png,,,,,0,180,180,66,,,,,,,,,,,,,,,,,,,,,,,,,,,,1088.1240385,None,1088.1240385,None,1088.4516017000005,None,1088.4516017000005,None,33,1088.4516017000005,None,return,6.134060800000952,1088.4516017000005,None,,,HUODA,M,001,2023_Apr_19_1031,untitled,2021.1.4,60.18349949021448,
18,36,0,36,54,18,90,0.6,0.67,0.33,0.0,0.33,0.33,,stimuli/P_18_36_00_36.png,,,,,0,181,181,179,,,,,,,,,,,,,,,,,,,,,,,,,,,,1094.5987619999996,None,1094.5987619999996,None,1094.9264855000001,None,1094.9264855000001,None,20,1094.9264855000001,None,return,5.507086999999956,1094.9264855000001,None,,,HUODA,M,001,2023_Apr_19_1031,untitled,2021.1.4,60.18349949021448,
0,0,0,0,0,0,0,None,None,None,None,None,None,,stimuli/P_00_00_00_00.png,,,,,0,182,182,0,,,,,,,,,,,,,,,,,,,,,,,,,,,,1100.4617376999995,None,1100.4617376999995,None,1100.7983129000004,None,1100.7983129000004,None,0,1100.7983129000004,None,return,1.5151961999999912,1100.7983129000004,None,,,HUODA,M,001,2023_Apr_19_1031,untitled,2021.1.4,60.18349949021448,
18,9,18,18,27,36,63,0.86,0.33,0.67,0.5,0.17,0.33,,stimuli/P_18_09_18_18.png,,,,,0,183,183,154,,,,,,,,,,,,,,,,,,,,,,,,,,,,1102.3414955999997,None,1102.3414955999997,None,1102.6704735999992,None,1102.6704735999992,None,30,1102.6704735999992,None,return,3.33523249999962,1102.6704735999992,None,,,HUODA,M,001,2023_Apr_19_1031,untitled,2021.1.4,60.18349949021448,
9,9,18,18,18,27,54,0.83,0.5,0.5,0.5,0.0,0.0,,stimuli/P_09_09_18_18.png,,,,,0,184,184,90,,,,,,,,,,,,,,,,,,,,,,,,,,,,1106.025683599999,None,1106.025683599999,None,1106.364717999999,None,1106.364717999999,None,20,1106.364717999999,None,return,5.184685500000342,1106.364717999999,None,,,HUODA,M,001,2023_Apr_19_1031,untitled,2021.1.4,60.18349949021448,
0,36,36,0,36,36,72,0.5,1.0,0.0,1.0,-1.0,#NAME?,,stimuli/P_00_36_36_00.png,,,,,0,185,185,60,,,,,,,,,,,,,,,,,,,,,,,,,,,,1111.5772013999995,None,1111.5772013999995,None,1111.902355799999,None,1111.902355799999,None,0,1111.902355799999,None,return,1.180663299999651,1111.902355799999,None,,,HUODA,M,001,2023_Apr_19_1031,untitled,2021.1.4,60.18349949021448,
0,18,36,0,18,36,54,0.67,1.0,0.0,1.0,-1.0,#NAME?,,stimuli/P_00_18_36_00.png,,,,,0,186,186,44,,,,,,,,,,,,,,,,,,,,,,,,,,,,1113.1091622000004,None,1113.1091622000004,None,1113.4429600999993,None,1113.4429600999993,None,0,1113.4429600999993,None,return,0.7943568000009691,1113.4429600999993,None,,,HUODA,M,001,2023_Apr_19_1031,untitled,2021.1.4,60.18349949021448,
36,36,0,18,72,36,90,0.6,0.5,0.5,0.0,0.5,0.5,,stimuli/P_36_36_00_18.png,,,,,0,187,187,242,,,,,,,,,,,,,,,,,,,,,,,,,,,,1114.2559096999994,None,1114.2559096999994,None,1114.5801071999995,None,1114.5801071999995,None,40,1114.5801071999995,None,return,5.144681399999172,1114.5801071999995,None,,,HUODA,M,001,2023_Apr_19_1031,untitled,2021.1.4,60.18349949021448,
9,9,9,9,18,18,36,0.75,0.5,0.5,0.5,0.0,0.0,,stimuli/P_09_09_09_09.png,,,,,0,188,188,85,,,,,,,,,,,,,,,,,,,,,,,,,,,,1119.7410603999997,None,1119.7410603999997,None,1120.0786191999996,None,1120.0786191999996,None,25,1120.0786191999996,None,return,1.8292344999990746,1120.0786191999996,None,,,HUODA,M,001,2023_Apr_19_1031,untitled,2021.1.4,60.18349949021448,
18,36,0,18,54,18,72,0.5,0.67,0.33,0.0,0.33,0.33,,stimuli/P_18_36_00_18.png,,,,,0,189,189,178,,,,,,,,,,,,,,,,,,,,,,,,,,,,1121.929382799999,None,1121.929382799999,None,1122.2552944,None,1122.2552944,None,25,1122.2552944,None,return,4.1561538000005385,1122.2552944,None,,,HUODA,M,001,2023_Apr_19_1031,untitled,2021.1.4,60.18349949021448,
0,18,0,18,18,0,36,0.5,1.0,0.0,0.0,0.0,0.0,,stimuli/P_00_18_00_18.png,,,,,0,190,190,34,,,,,,,,,,,,,,,,,,,,,,,,,,,,1126.4369963999998,None,1126.4369963999998,None,1126.7569838999989,None,1126.7569838999989,None,0,1126.7569838999989,None,return,0.839184499998737,1126.7569838999989,None,,,HUODA,M,001,2023_Apr_19_1031,untitled,2021.1.4,60.18349949021448,
0,36,9,18,36,9,63,0.43,1.0,0.0,0.33,-0.33,-0.5,,stimuli/P_00_36_09_18.png,,,,,0,191,191,54,,,,,,,,,,,,,,,,,,,,,,,,,,,,1127.628799099999,None,1127.628799099999,None,1127.9781963999994,None,1127.9781963999994,None,0,1127.9781963999994,None,return,0.7880320000003849,1127.9781963999994,None,,,HUODA,M,001,2023_Apr_19_1031,untitled,2021.1.4,60.18349949021448,
9,0,18,18,9,27,45,1.0,0.0,1.0,0.5,0.5,1.0,,stimuli/P_09_00_18_18.png,,,,,0,192,192,74,,,,,,,,,,,,,,,,,,,,,,,,,,,,1128.783435899999,None,1128.783435899999,None,1129.1140278000003,None,1129.1140278000003,None,20,1129.1140278000003,None,return,3.0515885000004346,1129.1140278000003,None,,,HUODA,M,001,2023_Apr_19_1031,untitled,2021.1.4,60.18349949021448,
0,18,18,0,18,18,36,0.5,1.0,0.0,1.0,-1.0,#NAME?,,stimuli/P_00_18_18_00.png,,,,,0,193,193,40,,,,,,,,,,,,,,,,,,,,,,,,,,,,1132.1886448999994,None,1132.1886448999994,None,1132.5251547999997,None,1132.5251547999997,None,0,1132.5251547999997,None,return,0.7639914999999746,1132.5251547999997,None,,,HUODA,M,001,2023_Apr_19_1031,untitled,2021.1.4,60.18349949021448,
9,18,18,18,27,27,63,0.71,0.67,0.33,0.5,-0.17,-0.33,,stimuli/P_09_18_18_18.png,,,,,0,194,194,106,,,,,,,,,,,,,,,,,,,,,,,,,,,,1133.3050064,None,1133.3050064,None,1133.6363481999997,None,1133.6363481999997,None,14,1133.6363481999997,None,return,4.516920399999435,1133.6363481999997,None,,,HUODA,M,001,2023_Apr_19_1031,untitled,2021.1.4,60.18349949021448,
36,0,0,18,36,36,54,1.0,0.0,1.0,0.0,1.0,1.0,,stimuli/P_36_00_00_18.png,,,,,0,195,195,194,,,,,,,,,,,,,,,,,,,,,,,,,,,,1138.169483399999,None,1138.169483399999,None,1138.5092442999994,None,1138.5092442999994,None,66,1138.5092442999994,None,return,3.484714400001394,1138.5092442999994,None,,,HUODA,M,001,2023_Apr_19_1031,untitled,2021.1.4,60.18349949021448,
9,9,36,0,18,45,54,0.83,0.5,0.5,1.0,-0.5,#NAME?,,stimuli/P_09_09_36_00.png,,,,,0,196,196,92,,,,,,,,,,,,,,,,,,,,,,,,,,,,1142.0069000000003,None,1142.0069000000003,None,1142.3367438000005,None,1142.3367438000005,None,20,1142.3367438000005,None,return,4.066669400001047,1142.3367438000005,None,,,HUODA,M,001,2023_Apr_19_1031,untitled,2021.1.4,60.18349949021448,
36,0,18,9,36,54,63,1.0,0.0,1.0,0.67,0.33,1.0,,stimuli/P_36_00_18_09.png,,,,,0,197,197,201,,,,,,,,,,,,,,,,,,,,,,,,,,,,1146.4295889000005,None,1146.4295889000005,None,1146.7734624999994,None,1146.7734624999994,None,55,1146.7734624999994,None,return,4.114197099999728,1146.7734624999994,None,,,HUODA,M,001,2023_Apr_19_1031,untitled,2021.1.4,60.18349949021448,
18,0,9,9,18,27,36,1.0,0.0,1.0,0.5,0.5,1.0,,stimuli/P_18_00_09_09.png,,,,,0,198,198,133,,,,,,,,,,,,,,,,,,,,,,,,,,,,1150.9053289000003,None,1150.9053289000003,None,1151.2304788000001,None,1151.2304788000001,None,42,1151.2304788000001,None,return,3.7968581000004633,1151.2304788000001,None,,,HUODA,M,001,2023_Apr_19_1031,untitled,2021.1.4,60.18349949021448,
36,0,18,18,36,54,72,1.0,0.0,1.0,0.5,0.5,1.0,,stimuli/P_36_00_18_18.png,,,,,0,199,199,202,,,,,,,,,,,,,,,,,,,,,,,,,,,,1155.0399694000007,None,1155.0399694000007,None,1155.3667126,None,1155.3667126,None,50,1155.3667126,None,return,3.770584100000633,1155.3667126,None,,,HUODA,M,001,2023_Apr_19_1031,untitled,2021.1.4,60.18349949021448,
9,36,18,9,45,27,72,0.5,0.8,0.2,0.67,-0.47,-1.4,,stimuli/P_09_36_18_09.png,,,,,0,200,200,121,,,,,,,,,,,,,,,,,,,,,,,,,,,,1159.1515617000005,None,1159.1515617000005,None,1159.4866039999997,None,1159.4866039999997,None,20,1159.4866039999997,None,return,4.070738899999924,1159.4866039999997,None,,,HUODA,M,001,2023_Apr_19_1031,untitled,2021.1.4,60.18349949021448,
9,9,18,0,18,27,36,0.75,0.5,0.5,1.0,-0.5,#NAME?,,stimuli/P_09_09_18_00.png,,,,,0,201,201,88,,,,,,,,,,,,,,,,,,,,,,,,,,,,1163.5838994999995,None,1163.5838994999995,None,1163.9100368999989,None,1163.9100368999989,None,25,1163.9100368999989,None,return,3.218571900000825,1163.9100368999989,None,,,HUODA,M,001,2023_Apr_19_1031,untitled,2021.1.4,60.18349949021448,
9,9,36,18,18,45,72,0.88,0.5,0.5,0.67,-0.17,-0.5,,stimuli/P_09_09_36_18.png,,,,,0,202,202,94,,,,,,,,,,,,,,,,,,,,,,,,,,,,1167.1490541000003,None,1167.1490541000003,None,1167.484014399999,None,1167.484014399999,None,25,1167.484014399999,None,return,5.532231700000921,1167.484014399999,None,,,HUODA,M,001,2023_Apr_19_1031,untitled,2021.1.4,60.18349949021448,
18,18,0,9,36,18,45,0.6,0.5,0.5,0.0,0.5,0.5,,stimuli/P_18_18_00_09.png,,,,,0,203,203,161,,,,,,,,,,,,,,,,,,,,,,,,,,,,1173.0344513,None,1173.0344513,None,1173.3621581000007,None,1173.3621581000007,None,40,1173.3621581000007,None,return,6.789718699999867,1173.3621581000007,None,,,HUODA,M,001,2023_Apr_19_1031,untitled,2021.1.4,60.18349949021448,
36,18,36,9,54,72,99,0.82,0.33,0.67,0.8,-0.13,-0.67,,stimuli/P_36_18_36_09.png,,,,,0,204,204,237,,,,,,,,,,,,,,,,,,,,,,,,,,,,1180.1669096999995,None,1180.1669096999995,None,1180.5056989999994,None,1180.5056989999994,None,33,1180.5056989999994,None,return,5.110466800000722,1180.5056989999994,None,,,HUODA,M,001,2023_Apr_19_1031,untitled,2021.1.4,60.18349949021448,
36,36,36,9,72,72,117,0.69,0.5,0.5,0.8,-0.3,-1.5,,stimuli/P_36_36_36_09.png,,,,,0,205,205,253,,,,,,,,,,,,,,,,,,,,,,,,,,,,1185.6312390000003,None,1185.6312390000003,None,1185.9703900999993,None,1185.9703900999993,None,33,1185.9703900999993,None,return,5.417326900000262,1185.9703900999993,None,,,HUODA,M,001,2023_Apr_19_1031,untitled,2021.1.4,60.18349949021448,
18,18,0,36,36,18,72,0.75,0.5,0.5,0.0,0.5,0.5,,stimuli/P_18_18_00_36.png,,,,,0,206,206,163,,,,,,,,,,,,,,,,,,,,,,,,,,,,1191.4159246,None,1191.4159246,None,1191.7550274000005,None,1191.7550274000005,None,25,1191.7550274000005,None,return,5.421455000001515,1191.7550274000005,None,,,HUODA,M,001,2023_Apr_19_1031,untitled,2021.1.4,60.18349949021448,
0,36,36,18,36,36,90,0.6,1.0,0.0,0.67,-0.67,-2.0,,stimuli/P_00_36_36_18.png,,,,,0,207,207,62,,,,,,,,,,,,,,,,,,,,,,,,,,,,1197.196115499999,None,1197.196115499999,None,1197.5195765999997,None,1197.5195765999997,None,0,1197.5195765999997,None,return,1.124726300000475,1197.5195765999997,None,,,HUODA,M,001,2023_Apr_19_1031,untitled,2021.1.4,60.18349949021448,
9,9,9,0,18,18,27,0.67,0.5,0.5,1.0,-0.5,#NAME?,,stimuli/P_09_09_09_00.png,,,,,0,208,208,84,,,,,,,,,,,,,,,,,,,,,,,,,,,,1198.6590486000005,None,1198.6590486000005,None,1198.9866965,None,1198.9866965,None,33,1198.9866965,None,return,1.5594552000002295,1198.9866965,None,,,HUODA,M,001,2023_Apr_19_1031,untitled,2021.1.4,60.18349949021448,
36,0,9,9,36,45,54,1.0,0.0,1.0,0.5,0.5,1.0,,stimuli/P_36_00_09_09.png,,,,,0,209,209,197,,,,,,,,,,,,,,,,,,,,,,,,,,,,1200.5642059000002,None,1200.5642059000002,None,1200.8978497999997,None,1200.8978497999997,None,70,1200.8978497999997,None,return,3.6831813999997394,1200.8978497999997,None,,,HUODA,M,001,2023_Apr_19_1031,untitled,2021.1.4,60.18349949021448,
0,0,36,9,0,36,45,1.0,None,None,0.8,None,None,,stimuli/P_00_00_36_09.png,,,,,0,210,210,13,,,,,,,,,,,,,,,,,,,,,,,,,,,,1204.6047655000002,None,1204.6047655000002,None,1204.9287480000003,None,1204.9287480000003,None,0,1204.9287480000003,None,return,1.2302417999999307,1204.9287480000003,None,,,HUODA,M,001,2023_Apr_19_1031,untitled,2021.1.4,60.18349949021448,
9,9,36,36,18,45,90,0.9,0.5,0.5,0.5,0.0,0.0,,stimuli/P_09_09_36_36.png,,,,,0,211,211,95,,,,,,,,,,,,,,,,,,,,,,,,,,,,1206.1771563000002,None,1206.1771563000002,None,1206.5159703999998,None,1206.5159703999998,None,10,1206.5159703999998,None,return,6.5819572000000335,1206.5159703999998,None,,,HUODA,M,001,2023_Apr_19_1031,untitled,2021.1.4,60.18349949021448,
36,0,18,0,36,54,54,1.0,0.0,1.0,1.0,0.0,None,,stimuli/P_36_00_18_00.png,,,,,0,212,212,200,,,,,,,,,,,,,,,,,,,,,,,,,,,,1213.1266223999992,None,1213.1266223999992,None,1213.4523714000006,None,1213.4523714000006,None,66,1213.4523714000006,None,return,3.0439557999998215,1213.4523714000006,None,,,HUODA,M,001,2023_Apr_19_1031,untitled,2021.1.4,60.18349949021448,
18,9,36,36,27,54,99,0.91,0.33,0.67,0.5,0.17,0.33,,stimuli/P_18_09_36_36.png,,,,,0,213,213,159,,,,,,,,,,,,,,,,,,,,,,,,,,,,1216.5154497000003,None,1216.5154497000003,None,1216.8468649999995,None,1216.8468649999995,None,16,1216.8468649999995,None,return,5.097339300000385,1216.8468649999995,None,,,HUODA,M,001,2023_Apr_19_1031,untitled,2021.1.4,60.18349949021448,
18,9,18,9,27,36,54,0.83,0.33,0.67,0.67,0.0,0.0,,stimuli/P_18_09_18_09.png,,,,,0,214,214,153,,,,,,,,,,,,,,,,,,,,,,,,,,,,1221.9619636000007,None,1221.9619636000007,None,1222.2862805999994,None,1222.2862805999994,None,20,1222.2862805999994,None,return,6.869275600000037,1222.2862805999994,None,,,HUODA,M,001,2023_Apr_19_1031,untitled,2021.1.4,60.18349949021448,
9,9,9,18,18,18,45,0.8,0.5,0.5,0.33,0.17,0.25,,stimuli/P_09_09_09_18.png,,,,,0,215,215,86,,,,,,,,,,,,,,,,,,,,,,,,,,,,1229.1694224999992,None,1229.1694224999992,None,1229.5038122999995,None,1229.5038122999995,None,20,1229.5038122999995,None,return,4.07310729999881,1229.5038122999995,None,,,HUODA,M,001,2023_Apr_19_1031,untitled,2021.1.4,60.18349949021448,
0,18,18,36,18,18,72,0.75,1.0,0.0,0.33,-0.33,-0.5,,stimuli/P_00_18_18_36.png,,,,,0,216,216,43,,,,,,,,,,,,,,,,,,,,,,,,,,,,1233.5895416999992,None,1233.5895416999992,None,1233.9136538000002,None,1233.9136538000002,None,0,1233.9136538000002,None,return,1.2026367999987997,1233.9136538000002,None,,,HUODA,M,001,2023_Apr_19_1031,untitled,2021.1.4,60.18349949021448,
9,18,36,0,27,45,63,0.71,0.67,0.33,1.0,-0.67,#NAME?,,stimuli/P_09_18_36_00.png,,,,,0,217,217,108,,,,,,,,,,,,,,,,,,,,,,,,,,,,1235.1321965000006,None,1235.1321965000006,None,1235.468131399999,None,1235.468131399999,None,10,1235.468131399999,None,return,2.3855492000002414,1235.468131399999,None,,,HUODA,M,001,2023_Apr_19_1031,untitled,2021.1.4,60.18349949021448,
9,0,0,9,9,9,18,1.0,0.0,1.0,0.0,1.0,1.0,,stimuli/P_09_00_00_09.png,,,,,0,218,218,65,,,,,,,,,,,,,,,,,,,,,,,,,,,,1237.8814741999995,None,1237.8814741999995,None,1238.2148285999992,None,1238.2148285999992,None,50,1238.2148285999992,None,return,1.184848000000784,1238.2148285999992,None,,,HUODA,M,001,2023_Apr_19_1031,untitled,2021.1.4,60.18349949021448,
9,18,0,36,27,9,63,0.71,0.67,0.33,0.0,0.33,0.33,,stimuli/P_09_18_00_36.png,,,,,0,219,219,99,,,,,,,,,,,,,,,,,,,,,,,,,,,,1239.4174650000004,None,1239.4174650000004,None,1239.7478879999999,None,1239.7478879999999,None,16,1239.7478879999999,None,return,4.290432300000248,1239.7478879999999,None,,,HUODA,M,001,2023_Apr_19_1031,untitled,2021.1.4,60.18349949021448,
18,0,36,18,18,54,72,1.0,0.0,1.0,0.67,0.33,1.0,,stimuli/P_18_00_36_18.png,,,,,0,220,220,142,,,,,,,,,,,,,,,,,,,,,,,,,,,,1244.063655,None,1244.063655,None,1244.4020347999995,None,1244.4020347999995,None,25,1244.4020347999995,None,return,2.8119956999998976,1244.4020347999995,None,,,HUODA,M,001,2023_Apr_19_1031,untitled,2021.1.4,60.18349949021448,
0,36,36,36,36,36,108,0.67,1.0,0.0,0.5,-0.5,-1.0,,stimuli/P_00_36_36_36.png,,,,,0,221,221,63,,,,,,,,,,,,,,,,,,,,,,,,,,,,1247.2394277000003,None,1247.2394277000003,None,1247.5640672999998,None,1247.5640672999998,None,0,1247.5640672999998,None,return,1.2414284999995289,1247.5640672999998,None,,,HUODA,M,001,2023_Apr_19_1031,untitled,2021.1.4,60.18349949021448,
36,36,18,0,72,54,90,0.6,0.5,0.5,1.0,-0.5,#NAME?,,stimuli/P_36_36_18_00.png,,,,,0,222,222,248,,,,,,,,,,,,,,,,,,,,,,,,,,,,1248.8334964000005,None,1248.8334964000005,None,1249.1677748999991,None,1249.1677748999991,None,40,1249.1677748999991,None,return,3.7656838999992033,1249.1677748999991,None,,,HUODA,M,001,2023_Apr_19_1031,untitled,2021.1.4,60.18349949021448,
36,9,36,36,45,72,117,0.92,0.2,0.8,0.5,0.3,0.6,,stimuli/P_36_09_36_36.png,,,,,0,223,223,223,,,,,,,,,,,,,,,,,,,,,,,,,,,,1252.949641199999,None,1252.949641199999,None,1253.2770481000007,None,1253.2770481000007,None,30,1253.2770481000007,None,return,4.867450499999904,1253.2770481000007,None,,,HUODA,M,001,2023_Apr_19_1031,untitled,2021.1.4,60.18349949021448,
36,18,36,0,54,72,90,0.8,0.33,0.67,1.0,-0.33,#NAME?,,stimuli/P_36_18_36_00.png,,,,,0,224,224,236,,,,,,,,,,,,,,,,,,,,,,,,,,,,1258.1566432,None,1258.1566432,None,1258.489132499999,None,1258.489132499999,None,40,1258.489132499999,None,return,4.78655450000042,1258.489132499999,None,,,HUODA,M,001,2023_Apr_19_1031,untitled,2021.1.4,60.18349949021448,
0,36,36,9,36,36,81,0.56,1.0,0.0,0.8,-0.8,-4.0,,stimuli/P_00_36_36_09.png,,,,,0,225,225,61,,,,,,,,,,,,,,,,,,,,,,,,,,,,1263.3032456,None,1263.3032456,None,1263.6251171000004,None,1263.6251171000004,None,0,1263.6251171000004,None,return,0.8886547999991308,1263.6251171000004,None,,,HUODA,M,001,2023_Apr_19_1031,untitled,2021.1.4,60.18349949021448,
0,9,0,0,9,0,9,0.0,1.0,0.0,None,None,None,,stimuli/P_00_09_00_00.png,,,,,0,226,226,16,,,,,,,,,,,,,,,,,,,,,,,,,,,,1264.548401,None,1264.548401,None,1264.8851787999993,None,1264.8851787999993,None,0,1264.8851787999993,None,return,0.6955622999994375,1264.8851787999993,None,,,HUODA,M,001,2023_Apr_19_1031,untitled,2021.1.4,60.18349949021448,
36,18,18,18,54,54,90,0.8,0.33,0.67,0.5,0.17,0.33,,stimuli/P_36_18_18_18.png,,,,,0,227,227,234,,,,,,,,,,,,,,,,,,,,,,,,,,,,1265.6104684999991,None,1265.6104684999991,None,1265.9525940999993,None,1265.9525940999993,None,40,1265.9525940999993,None,return,3.236700800000108,1265.9525940999993,None,,,HUODA,M,001,2023_Apr_19_1031,untitled,2021.1.4,60.18349949021448,
9,18,36,18,27,45,81,0.78,0.67,0.33,0.67,-0.33,-1.0,,stimuli/P_09_18_36_18.png,,,,,0,228,228,110,,,,,,,,,,,,,,,,,,,,,,,,,,,,1269.218542999999,None,1269.218542999999,None,1269.5431664000007,None,1269.5431664000007,None,16,1269.5431664000007,None,return,4.564330200000768,1269.5431664000007,None,,,HUODA,M,001,2023_Apr_19_1031,untitled,2021.1.4,60.18349949021448,
0,36,18,9,36,18,63,0.43,1.0,0.0,0.67,-0.67,-2.0,,stimuli/P_00_36_18_09.png,,,,,0,229,229,57,,,,,,,,,,,,,,,,,,,,,,,,,,,,1274.1282169999995,None,1274.1282169999995,None,1274.4679340999992,None,1274.4679340999992,None,0,1274.4679340999992,None,return,1.0226100999989285,1274.4679340999992,None,,,HUODA,M,001,2023_Apr_19_1031,untitled,2021.1.4,60.18349949021448,
36,9,9,36,45,45,90,0.9,0.2,0.8,0.2,0.6,0.75,,stimuli/P_36_09_09_36.png,,,,,0,230,230,215,,,,,,,,,,,,,,,,,,,,,,,,,,,,1275.5259922999994,None,1275.5259922999994,None,1275.8560175000002,None,1275.8560175000002,None,40,1275.8560175000002,None,return,5.760792400000355,1275.8560175000002,None,,,HUODA,M,001,2023_Apr_19_1031,untitled,2021.1.4,60.18349949021448,
18,9,36,9,27,54,72,0.88,0.33,0.67,0.8,-0.13,-0.67,,stimuli/P_18_09_36_09.png,,,,,0,231,231,157,,,,,,,,,,,,,,,,,,,,,,,,,,,,1281.6569885999997,None,1281.6569885999997,None,1281.9946244999992,None,1281.9946244999992,None,33,1281.9946244999992,None,return,6.043312600000718,1281.9946244999992,None,,,HUODA,M,001,2023_Apr_19_1031,untitled,2021.1.4,60.18349949021448,
36,9,18,36,45,54,99,0.91,0.2,0.8,0.33,0.47,0.7,,stimuli/P_36_09_18_36.png,,,,,0,232,232,219,,,,,,,,,,,,,,,,,,,,,,,,,,,,1288.0639668000003,None,1288.0639668000003,None,1288.388444799999,None,1288.388444799999,None,30,1288.388444799999,None,return,3.060464199999842,1288.388444799999,None,,,HUODA,M,001,2023_Apr_19_1031,untitled,2021.1.4,60.18349949021448,
18,18,0,0,36,18,36,0.5,0.5,0.5,None,None,None,,stimuli/P_18_18_00_00.png,,,,,0,233,233,160,,,,,,,,,,,,,,,,,,,,,,,,,,,,1291.471568699999,None,1291.471568699999,None,1291.8103269999992,None,1291.8103269999992,None,50,1291.8103269999992,None,return,1.311736399999063,1291.8103269999992,None,,,HUODA,M,001,2023_Apr_19_1031,untitled,2021.1.4,60.18349949021448,
0,9,36,36,9,36,81,0.89,1.0,0.0,0.5,-0.5,-1.0,,stimuli/P_00_09_36_36.png,,,,,0,234,234,31,,,,,,,,,,,,,,,,,,,,,,,,,,,,1293.150613599999,None,1293.150613599999,None,1293.4759780999993,None,1293.4759780999993,None,0,1293.4759780999993,None,return,2.08531320000111,1293.4759780999993,None,,,HUODA,M,001,2023_Apr_19_1031,untitled,2021.1.4,60.18349949021448,
0,36,9,36,36,9,81,0.56,1.0,0.0,0.2,-0.2,-0.25,,stimuli/P_00_36_09_36.png,,,,,0,235,235,55,,,,,,,,,,,,,,,,,,,,,,,,,,,,1295.5759333999995,None,1295.5759333999995,None,1295.9095517999995,None,1295.9095517999995,None,0,1295.9095517999995,None,return,2.532454799998959,1295.9095517999995,None,,,HUODA,M,001,2023_Apr_19_1031,untitled,2021.1.4,60.18349949021448,
36,36,18,18,72,54,108,0.67,0.5,0.5,0.5,0.0,0.0,,stimuli/P_36_36_18_18.png,,,,,0,236,236,250,,,,,,,,,,,,,,,,,,,,,,,,,,,,1298.4758779000003,None,1298.4758779000003,None,1298.8100558999995,None,1298.8100558999995,None,33,1298.8100558999995,None,return,4.907237800000075,1298.8100558999995,None,,,HUODA,M,001,2023_Apr_19_1031,untitled,2021.1.4,60.18349949021448,
0,0,0,18,0,0,18,1.0,None,None,0.0,None,None,,stimuli/P_00_00_00_18.png,,,,,0,237,237,2,,,,,,,,,,,,,,,,,,,,,,,,,,,,1303.7413737999996,None,1303.7413737999996,None,1304.063024699999,None,1304.063024699999,None,0,1304.063024699999,None,return,0.8426682999997865,1304.063024699999,None,,,HUODA,M,001,2023_Apr_19_1031,untitled,2021.1.4,60.18349949021448,
36,36,0,9,72,36,81,0.56,0.5,0.5,0.0,0.5,0.5,,stimuli/P_36_36_00_09.png,,,,,0,238,238,241,,,,,,,,,,,,,,,,,,,,,,,,,,,,1304.9221211999993,None,1304.9221211999993,None,1305.2553437999995,None,1305.2553437999995,None,42,1305.2553437999995,None,return,4.634761200000867,1305.2553437999995,None,,,HUODA,M,001,2023_Apr_19_1031,untitled,2021.1.4,60.18349949021448,
18,18,18,18,36,36,72,0.75,0.5,0.5,0.5,0.0,0.0,,stimuli/P_18_18_18_18.png,,,,,0,239,239,170,,,,,,,,,,,,,,,,,,,,,,,,,,,,1309.9091310999993,None,1309.9091310999993,None,1310.233362699999,None,1310.233362699999,None,25,1310.233362699999,None,return,2.174807700001111,1310.233362699999,None,,,HUODA,M,001,2023_Apr_19_1031,untitled,2021.1.4,60.18349949021448,
0,36,18,0,36,18,54,0.33,1.0,0.0,1.0,-1.0,#NAME?,,stimuli/P_00_36_18_00.png,,,,,0,240,240,56,,,,,,,,,,,,,,,,,,,,,,,,,,,,1312.4215380000005,None,1312.4215380000005,None,1312.755325799999,None,1312.755325799999,None,0,1312.755325799999,None,return,1.1852228999996441,1312.755325799999,None,,,HUODA,M,001,2023_Apr_19_1031,untitled,2021.1.4,60.18349949021448,
36,0,0,0,36,36,36,1.0,0.0,1.0,None,None,None,,stimuli/P_36_00_00_00.png,,,,,0,241,241,192,,,,,,,,,,,,,,,,,,,,,,,,,,,,1313.9554824000006,None,1313.9554824000006,None,1314.2860268999993,None,1314.2860268999993,None,100,1314.2860268999993,None,return,1.330802099999346,1314.2860268999993,None,,,HUODA,M,001,2023_Apr_19_1031,untitled,2021.1.4,60.18349949021448,
36,0,0,36,36,36,72,1.0,0.0,1.0,0.0,1.0,1.0,,stimuli/P_36_00_00_36.png,,,,,0,242,242,195,,,,,,,,,,,,,,,,,,,,,,,,,,,,1315.629753199999,None,1315.629753199999,None,1315.9630830999995,None,1315.9630830999995,None,50,1315.9630830999995,None,return,1.3250462000014522,1315.9630830999995,None,,,HUODA,M,001,2023_Apr_19_1031,untitled,2021.1.4,60.18349949021448,
9,36,36,0,45,45,81,0.56,0.8,0.2,1.0,-0.8,#NAME?,,stimuli/P_09_36_36_00.png,,,,,0,243,243,124,,,,,,,,,,,,,,,,,,,,,,,,,,,,1317.3042193,None,1317.3042193,None,1317.6300205999996,None,1317.6300205999996,None,20,1317.6300205999996,None,return,4.347335299999031,1317.6300205999996,None,,,HUODA,M,001,2023_Apr_19_1031,untitled,2021.1.4,60.18349949021448,
18,18,0,18,36,18,54,0.67,0.5,0.5,0.0,0.5,0.5,,stimuli/P_18_18_00_18.png,,,,,0,244,244,162,,,,,,,,,,,,,,,,,,,,,,,,,,,,1322.0062177,None,1322.0062177,None,1322.3377519000005,None,1322.3377519000005,None,33,1322.3377519000005,None,return,1.7775311000004876,1322.3377519000005,None,,,HUODA,M,001,2023_Apr_19_1031,untitled,2021.1.4,60.18349949021448,
18,9,18,36,27,36,81,0.89,0.33,0.67,0.33,0.33,0.5,,stimuli/P_18_09_18_36.png,,,,,0,245,245,155,,,,,,,,,,,,,,,,,,,,,,,,,,,,1324.1327805,None,1324.1327805,None,1324.4688031999995,None,1324.4688031999995,None,33,1324.4688031999995,None,return,6.336483600000065,1324.4688031999995,None,,,HUODA,M,001,2023_Apr_19_1031,untitled,2021.1.4,60.18349949021448,
0,9,0,9,9,0,18,0.5,1.0,0.0,0.0,0.0,0.0,,stimuli/P_00_09_00_09.png,,,,,0,246,246,17,,,,,,,,,,,,,,,,,,,,,,,,,,,,1330.8300290000006,None,1330.8300290000006,None,1331.1527110999996,None,1331.1527110999996,None,0,1331.1527110999996,None,return,0.919508399998449,1331.1527110999996,None,,,HUODA,M,001,2023_Apr_19_1031,untitled,2021.1.4,60.18349949021448,
9,18,18,0,27,27,45,0.6,0.67,0.33,1.0,-0.67,#NAME?,,stimuli/P_09_18_18_00.png,,,,,0,247,247,104,,,,,,,,,,,,,,,,,,,,,,,,,,,,1332.099205299999,None,1332.099205299999,None,1332.4356819999994,None,1332.4356819999994,None,20,1332.4356819999994,None,return,2.920767400000841,1332.4356819999994,None,,,HUODA,M,001,2023_Apr_19_1031,untitled,2021.1.4,60.18349949021448,
0,9,9,36,9,9,54,0.83,1.0,0.0,0.2,-0.2,-0.25,,stimuli/P_00_09_09_36.png,,,,,0,248,248,23,,,,,,,,,,,,,,,,,,,,,,,,,,,,1335.3680471000007,None,1335.3680471000007,None,1335.6920188000004,None,1335.6920188000004,None,0,1335.6920188000004,None,return,1.2040632999996888,1335.6920188000004,None,,,HUODA,M,001,2023_Apr_19_1031,untitled,2021.1.4,60.18349949021448,
36,0,36,0,36,72,72,1.0,0.0,1.0,1.0,0.0,None,,stimuli/P_36_00_36_00.png,,,,,0,249,249,204,,,,,,,,,,,,,,,,,,,,,,,,,,,,1336.9320257999989,None,1336.9320257999989,None,1337.2727632999995,None,1337.2727632999995,None,50,1337.2727632999995,None,return,1.1994524000001547,1337.2727632999995,None,,,HUODA,M,001,2023_Apr_19_1031,untitled,2021.1.4,60.18349949021448,
9,36,0,9,45,9,54,0.33,0.8,0.2,0.0,0.2,0.2,,stimuli/P_09_36_00_09.png,,,,,0,250,250,113,,,,,,,,,,,,,,,,,,,,,,,,,,,,1338.4952962000007,None,1338.4952962000007,None,1338.817476099999,None,1338.817476099999,None,20,1338.817476099999,None,return,3.8909335999996983,1338.817476099999,None,,,HUODA,M,001,2023_Apr_19_1031,untitled,2021.1.4,60.18349949021448,
18,36,9,36,54,27,99,0.64,0.67,0.33,0.2,0.13,0.17,,stimuli/P_18_36_09_36.png,,,,,0,251,251,183,,,,,,,,,,,,,,,,,,,,,,,,,,,,1342.728434499999,None,1342.728434499999,None,1343.0716377999997,None,1343.0716377999997,None,20,1343.0716377999997,None,return,4.9429989000000205,1343.0716377999997,None,,,HUODA,M,001,2023_Apr_19_1031,untitled,2021.1.4,60.18349949021448,
9,36,0,0,45,9,45,0.2,0.8,0.2,None,None,None,,stimuli/P_09_36_00_00.png,,,,,0,252,252,112,,,,,,,,,,,,,,,,,,,,,,,,,,,,1348.0302252000001,None,1348.0302252000001,None,1348.3584009000006,None,1348.3584009000006,None,20,1348.3584009000006,None,return,3.1437398999987636,1348.3584009000006,None,,,HUODA,M,001,2023_Apr_19_1031,untitled,2021.1.4,60.18349949021448,
36,18,18,9,54,54,81,0.78,0.33,0.67,0.67,0.0,0.0,,stimuli/P_36_18_18_09.png,,,,,0,253,253,233,,,,,,,,,,,,,,,,,,,,,,,,,,,,1351.5195996000002,None,1351.5195996000002,None,1351.8581243999997,None,1351.8581243999997,None,33,1351.8581243999997,None,return,5.537197599998763,1351.8581243999997,None,,,HUODA,M,001,2023_Apr_19_1031,untitled,2021.1.4,60.18349949021448,
9,18,36,36,27,45,99,0.82,0.67,0.33,0.5,-0.17,-0.33,,stimuli/P_09_18_36_36.png,,,,,0,254,254,111,,,,,,,,,,,,,,,,,,,,,,,,,,,,1357.410844599999,None,1357.410844599999,None,1357.7533060999995,None,1357.7533060999995,None,25,1357.7533060999995,None,return,5.00015220000023,1357.7533060999995,None,,,HUODA,M,001,2023_Apr_19_1031,untitled,2021.1.4,60.18349949021448,
0,9,18,9,9,18,36,0.75,1.0,0.0,0.67,-0.67,-2.0,,stimuli/P_00_09_18_09.png,,,,,0,255,255,25,,,,,,,,,,,,,,,,,,,,,,,,,,,,1362.7811712999992,None,1362.7811712999992,None,1363.1056955999993,None,1363.1056955999993,None,0,1363.1056955999993,None,return,1.0773182999982964,1363.1056955999993,None,,,HUODA,M,001,2023_Apr_19_1031,untitled,2021.1.4,60.18349949021448,
,,,,,,,,,,,,,,,,,,,,,,,,,,,,,,,,,,,,,,,,,,,,,,,,,,,,,,,,,,,,,,,,,1364.2116881999991,None,,,,,,,,
