A1C1,A1C0,A0C1,A0C0,A1,C1,Total,MI,C0GvA1,C1GvA1,C1GvA0,dltP,dltPp,Image_practice,Image,trials_2.thisRepN,trials_2.thisTrialN,trials_2.thisN,trials_2.thisIndex,trials.thisRepN,trials.thisTrialN,trials.thisN,trials.thisIndex,image.started,image.stopped,key_resp.keys,key_resp.rt,key_resp.started,key_resp.stopped,betweenTrial.started,betweenTrial.stopped,ISI.started,ISI.stopped,image_card.started,image_card.stopped,textbox.text,textbox.started,textbox.stopped,key_resp_3.keys,key_resp_3.rt,key_resp_3.started,key_resp_3.stopped,text_2.started,text_2.stopped,key_resp_2.keys,key_resp_2.rt,key_resp_2.started,key_resp_2.stopped,image_endPractice.started,image_endPractice.stopped,polygon_2.started,polygon_2.stopped,ISI_2.started,ISI_2.stopped,Cards.started,Cards.stopped,TextNote.started,TextNote.stopped,Estimation.text,Estimation.started,Estimation.stopped,key_resp_4.keys,key_resp_4.rt,key_resp_4.started,key_resp_4.stopped,text.started,text.stopped,participant,gender,session,date,expName,psychopyVersion,frameRate,
,,,,,,,,,,,,,,,,,,,,,,,2770.459914000705,None,space,189.07589579932392,2770.459914000705,None,,,,,,,,,,,,,,,,,,,,,,,,,,,,,,,,,,,,,,,LVYAWEN,F,001,2023_Apr_18_1352,untitled,2021.1.4,60.05295483313384,
0,0,0,9,0,0,9,1.0,None,None,0.0,None,None,practice_stimuli/P_00_00_00_09.png,,0,0,0,0,,,,,,,,,,,2959.6354029998183,None,2959.6354029998183,None,2959.9991245009005,None,0,2959.9991245009005,None,return,5.090108001604676,2959.9991245009005,None,2959.9991245009005,None,,,,,,,,,,,,,,,,,,,,,,,,LVYAWEN,F,001,2023_Apr_18_1352,untitled,2021.1.4,60.05295483313384,
18,0,36,0,18,54,54,1.0,0.0,1.0,1.0,0.0,None,practice_stimuli/P_18_00_36_00.png,,0,1,1,1,,,,,,,,,,,2965.1372779011726,None,2965.1372779011726,None,2965.4695251006633,None,100,2965.4695251006633,None,return,5.486575501039624,2965.4695251006633,None,2965.4695251006633,None,,,,,,,,,,,,,,,,,,,,,,,,LVYAWEN,F,001,2023_Apr_18_1352,untitled,2021.1.4,60.05295483313384,
9,18,18,0,27,27,45,0.6,0.67,0.33,1.0,-0.67,#NAME?,practice_stimuli/P_09_18_18_00.png,,0,2,2,2,,,,,,,,,,,2970.9920258000493,None,2970.9920258000493,None,2971.3236960005015,None,40,2971.3236960005015,None,None,,2971.3236960005015,None,2971.3236960005015,None,,,,,,,,,,,,,,,,,,,,,,,,LVYAWEN,F,001,2023_Apr_18_1352,untitled,2021.1.4,60.05295483313384,
36,18,18,36,54,54,108,0.83,0.33,0.67,0.33,0.33,0.5,practice_stimuli/P_36_18_18_36.png,,0,3,3,3,,,,,,,,,,,2979.318424301222,None,2979.318424301222,None,2979.6471376009285,None,65,2979.6471376009285,None,return,5.53904340043664,2979.6471376009285,None,2979.6471376009285,None,,,,,,,,,,,,,,,,,,,,,,,,LVYAWEN,F,001,2023_Apr_18_1352,untitled,2021.1.4,60.05295483313384,
,,,,,,,,,,,,,,,,,,,,,,,,,,,,,,,,,,,,,,,,,,,,space,41.5851590000093,2985.209956800565,None,,,,,,,,,,,,,,,,,,,,LVYAWEN,F,001,2023_Apr_18_1352,untitled,2021.1.4,60.05295483313384,
0,0,18,36,0,18,54,1.0,None,None,0.33,None,None,,stimuli/P_00_00_18_36.png,,,,,0,0,0,11,,,,,,,,,,,,,,,,,,,,,,,,,,2985.209956800565,None,3033.0378769002855,None,3033.0378769002855,None,3033.410710800439,None,3033.410710800439,None,0,3033.410710800439,None,return,3.8431912008672953,3033.410710800439,None,,,LVYAWEN,F,001,2023_Apr_18_1352,untitled,2021.1.4,60.05295483313384,
0,18,36,9,18,36,63,0.71,1.0,0.0,0.8,-0.8,-4.0,,stimuli/P_00_18_36_09.png,,,,,0,1,1,45,,,,,,,,,,,,,,,,,,,,,,,,,,,,3037.2879614997655,None,3037.2879614997655,None,3037.6196139007807,None,3037.6196139007807,None,0,3037.6196139007807,None,return,2.6121316011995077,3037.6196139007807,None,,,LVYAWEN,F,001,2023_Apr_18_1352,untitled,2021.1.4,60.05295483313384,
36,9,18,36,45,54,99,0.91,0.2,0.8,0.33,0.47,0.7,,stimuli/P_36_09_18_36.png,,,,,0,2,2,219,,,,,,,,,,,,,,,,,,,,,,,,,,,,3040.245417200029,None,3040.245417200029,None,3040.5779526997358,None,3040.5779526997358,None,70,3040.5779526997358,None,return,3.892919600009918,3040.5779526997358,None,,,LVYAWEN,F,001,2023_Apr_18_1352,untitled,2021.1.4,60.05295483313384,
9,0,18,18,9,27,45,1.0,0.0,1.0,0.5,0.5,1.0,,stimuli/P_09_00_18_18.png,,,,,0,3,3,74,,,,,,,,,,,,,,,,,,,,,,,,,,,,3044.4870969001204,None,3044.4870969001204,None,3044.8229775000364,None,3044.8229775000364,None,100,3044.8229775000364,None,return,2.5465837996453047,3044.8229775000364,None,,,LVYAWEN,F,001,2023_Apr_18_1352,untitled,2021.1.4,60.05295483313384,
36,0,9,36,36,45,81,1.0,0.0,1.0,0.2,0.8,1.0,,stimuli/P_36_00_09_36.png,,,,,0,4,4,199,,,,,,,,,,,,,,,,,,,,,,,,,,,,3047.3885142002255,None,3047.3885142002255,None,3047.7232514005154,None,3047.7232514005154,None,100,3047.7232514005154,None,return,2.573284300044179,3047.7232514005154,None,,,LVYAWEN,F,001,2023_Apr_18_1352,untitled,2021.1.4,60.05295483313384,
18,0,36,0,18,54,54,1.0,0.0,1.0,1.0,0.0,None,,stimuli/P_18_00_36_00.png,,,,,0,5,5,140,,,,,,,,,,,,,,,,,,,,,,,,,,,,3050.3085463996977,None,3050.3085463996977,None,3050.63997489959,None,3050.63997489959,None,100,3050.63997489959,None,return,2.447511900216341,3050.63997489959,None,,,LVYAWEN,F,001,2023_Apr_18_1352,untitled,2021.1.4,60.05295483313384,
9,0,9,36,9,18,54,1.0,0.0,1.0,0.2,0.8,1.0,,stimuli/P_09_00_09_36.png,,,,,0,6,6,71,,,,,,,,,,,,,,,,,,,,,,,,,,,,3053.113621400669,None,3053.113621400669,None,3053.4509298000485,None,3053.4509298000485,None,100,3053.4509298000485,None,return,2.79465140029788,3053.4509298000485,None,,,LVYAWEN,F,001,2023_Apr_18_1352,untitled,2021.1.4,60.05295483313384,
18,36,0,18,54,18,72,0.5,0.67,0.33,0.0,0.33,0.33,,stimuli/P_18_36_00_18.png,,,,,0,7,7,178,,,,,,,,,,,,,,,,,,,,,,,,,,,,3056.2715448997915,None,3056.2715448997915,None,3056.6034511011094,None,3056.6034511011094,None,35,3056.6034511011094,None,return,5.1942464001476765,3056.6034511011094,None,,,LVYAWEN,F,001,2023_Apr_18_1352,untitled,2021.1.4,60.05295483313384,
9,18,9,9,27,18,45,0.6,0.67,0.33,0.5,-0.17,-0.33,,stimuli/P_09_18_09_09.png,,,,,0,8,8,101,,,,,,,,,,,,,,,,,,,,,,,,,,,,3061.826193699613,None,3061.826193699613,None,3062.161452099681,None,3062.161452099681,None,40,3062.161452099681,None,None,,3062.161452099681,None,,,LVYAWEN,F,001,2023_Apr_18_1352,untitled,2021.1.4,60.05295483313384,
18,18,36,9,36,54,81,0.78,0.5,0.5,0.8,-0.3,-1.5,,stimuli/P_18_18_36_09.png,,,,,0,9,9,173,,,,,,,,,,,,,,,,,,,,,,,,,,,,3070.1673539001495,None,3070.1673539001495,None,3070.5015788003802,None,3070.5015788003802,None,50,3070.5015788003802,None,return,3.253711799159646,3070.5015788003802,None,,,LVYAWEN,F,001,2023_Apr_18_1352,untitled,2021.1.4,60.05295483313384,
0,36,18,18,36,18,72,0.5,1.0,0.0,0.5,-0.5,-1.0,,stimuli/P_00_36_18_18.png,,,,,0,10,10,58,,,,,,,,,,,,,,,,,,,,,,,,,,,,3073.7693595010787,None,3073.7693595010787,None,3074.10081239976,None,3074.10081239976,None,0,3074.10081239976,None,return,1.8961332999169827,3074.10081239976,None,,,LVYAWEN,F,001,2023_Apr_18_1352,untitled,2021.1.4,60.05295483313384,
36,0,18,0,36,54,54,1.0,0.0,1.0,1.0,0.0,None,,stimuli/P_36_00_18_00.png,,,,,0,11,11,200,,,,,,,,,,,,,,,,,,,,,,,,,,,,3076.016318500042,None,3076.016318500042,None,3076.347356000915,None,3076.347356000915,None,100,3076.347356000915,None,return,1.9822824001312256,3076.347356000915,None,,,LVYAWEN,F,001,2023_Apr_18_1352,untitled,2021.1.4,60.05295483313384,
9,0,0,36,9,9,45,1.0,0.0,1.0,0.0,1.0,1.0,,stimuli/P_09_00_00_36.png,,,,,0,12,12,67,,,,,,,,,,,,,,,,,,,,,,,,,,,,3078.3427339997143,None,3078.3427339997143,None,3078.673430601135,None,3078.673430601135,None,100,3078.673430601135,None,return,1.9430577009916306,3078.673430601135,None,,,LVYAWEN,F,001,2023_Apr_18_1352,untitled,2021.1.4,60.05295483313384,
9,18,9,36,27,18,72,0.75,0.67,0.33,0.2,0.13,0.17,,stimuli/P_09_18_09_36.png,,,,,0,13,13,103,,,,,,,,,,,,,,,,,,,,,,,,,,,,3080.636884700507,None,3080.636884700507,None,3080.9728757999837,None,3080.9728757999837,None,45,3080.9728757999837,None,return,6.695630200207233,3080.9728757999837,None,,,LVYAWEN,F,001,2023_Apr_18_1352,untitled,2021.1.4,60.05295483313384,
9,36,0,0,45,9,45,0.2,0.8,0.2,None,None,None,,stimuli/P_09_36_00_00.png,,,,,0,14,14,112,,,,,,,,,,,,,,,,,,,,,,,,,,,,3087.684592200443,None,3087.684592200443,None,3088.0181358009577,None,3088.0181358009577,None,20,3088.0181358009577,None,return,3.469116199761629,3088.0181358009577,None,,,LVYAWEN,F,001,2023_Apr_18_1352,untitled,2021.1.4,60.05295483313384,
0,9,9,9,9,9,27,0.67,1.0,0.0,0.5,-0.5,-1.0,,stimuli/P_00_09_09_09.png,,,,,0,15,15,21,,,,,,,,,,,,,,,,,,,,,,,,,,,,3091.5272829998285,None,3091.5272829998285,None,3091.8605410996825,None,3091.8605410996825,None,0,3091.8605410996825,None,return,1.7886076010763645,3091.8605410996825,None,,,LVYAWEN,F,001,2023_Apr_18_1352,untitled,2021.1.4,60.05295483313384,
9,36,18,18,45,27,81,0.56,0.8,0.2,0.5,-0.3,-0.6,,stimuli/P_09_36_18_18.png,,,,,0,16,16,122,,,,,,,,,,,,,,,,,,,,,,,,,,,,3093.6700407005847,None,3093.6700407005847,None,3093.9996182005852,None,3093.9996182005852,None,30,3093.9996182005852,None,return,4.951316900551319,3093.9996182005852,None,,,LVYAWEN,F,001,2023_Apr_18_1352,untitled,2021.1.4,60.05295483313384,
9,0,0,18,9,9,27,1.0,0.0,1.0,0.0,1.0,1.0,,stimuli/P_09_00_00_18.png,,,,,0,17,17,66,,,,,,,,,,,,,,,,,,,,,,,,,,,,3098.980570299551,None,3098.980570299551,None,3099.313538501039,None,3099.313538501039,None,100,3099.313538501039,None,return,2.095255399122834,3099.313538501039,None,,,LVYAWEN,F,001,2023_Apr_18_1352,untitled,2021.1.4,60.05295483313384,
36,18,0,9,54,36,63,0.71,0.33,0.67,0.0,0.67,0.67,,stimuli/P_36_18_00_09.png,,,,,0,18,18,225,,,,,,,,,,,,,,,,,,,,,,,,,,,,3101.4438419006765,None,3101.4438419006765,None,3101.781697999686,None,3101.781697999686,None,75,3101.781697999686,None,return,6.438190501183271,3101.781697999686,None,,,LVYAWEN,F,001,2023_Apr_18_1352,untitled,2021.1.4,60.05295483313384,
36,36,18,18,72,54,108,0.67,0.5,0.5,0.5,0.0,0.0,,stimuli/P_36_36_18_18.png,,,,,0,19,19,250,,,,,,,,,,,,,,,,,,,,,,,,,,,,3108.247832801193,None,3108.247832801193,None,3108.581547100097,None,3108.581547100097,None,50,3108.581547100097,None,return,3.3010656014084816,3108.581547100097,None,,,LVYAWEN,F,001,2023_Apr_18_1352,untitled,2021.1.4,60.05295483313384,
0,36,9,0,36,9,45,0.2,1.0,0.0,1.0,-1.0,#NAME?,,stimuli/P_00_36_09_00.png,,,,,0,20,20,52,,,,,,,,,,,,,,,,,,,,,,,,,,,,3111.9079752005637,None,3111.9079752005637,None,3112.2448207009584,None,3112.2448207009584,None,0,3112.2448207009584,None,return,1.8948564007878304,3112.2448207009584,None,,,LVYAWEN,F,001,2023_Apr_18_1352,untitled,2021.1.4,60.05295483313384,
0,0,18,9,0,18,27,1.0,None,None,0.67,None,None,,stimuli/P_00_00_18_09.png,,,,,0,21,21,9,,,,,,,,,,,,,,,,,,,,,,,,,,,,3114.164384400472,None,3114.164384400472,None,3114.499687600881,None,3114.499687600881,None,0,3114.499687600881,None,return,1.6174320988357067,3114.499687600881,None,,,LVYAWEN,F,001,2023_Apr_18_1352,untitled,2021.1.4,60.05295483313384,
18,0,9,9,18,27,36,1.0,0.0,1.0,0.5,0.5,1.0,,stimuli/P_18_00_09_09.png,,,,,0,22,22,133,,,,,,,,,,,,,,,,,,,,,,,,,,,,3116.1444806996733,None,3116.1444806996733,None,3116.475668201223,None,3116.475668201223,None,100,3116.475668201223,None,return,2.129867998883128,3116.475668201223,None,,,LVYAWEN,F,001,2023_Apr_18_1352,untitled,2021.1.4,60.05295483313384,
36,36,18,0,72,54,90,0.6,0.5,0.5,1.0,-0.5,#NAME?,,stimuli/P_36_36_18_00.png,,,,,0,23,23,248,,,,,,,,,,,,,,,,,,,,,,,,,,,,3118.6178617011756,None,3118.6178617011756,None,3118.9577556997538,None,3118.9577556997538,None,50,3118.9577556997538,None,return,3.137584500014782,3118.9577556997538,None,,,LVYAWEN,F,001,2023_Apr_18_1352,untitled,2021.1.4,60.05295483313384,
36,9,0,36,45,36,81,0.89,0.2,0.8,0.0,0.8,0.8,,stimuli/P_36_09_00_36.png,,,,,0,24,24,211,,,,,,,,,,,,,,,,,,,,,,,,,,,,3122.122538100928,None,3122.122538100928,None,3122.4557402003556,None,3122.4557402003556,None,85,3122.4557402003556,None,return,4.253425300121307,3122.4557402003556,None,,,LVYAWEN,F,001,2023_Apr_18_1352,untitled,2021.1.4,60.05295483313384,
18,9,36,18,27,54,81,0.89,0.33,0.67,0.67,0.0,0.0,,stimuli/P_18_09_36_18.png,,,,,0,25,25,158,,,,,,,,,,,,,,,,,,,,,,,,,,,,3126.7290273997933,None,3126.7290273997933,None,3127.062220700085,None,3127.062220700085,None,65,3127.062220700085,None,return,4.061999199911952,3127.062220700085,None,,,LVYAWEN,F,001,2023_Apr_18_1352,untitled,2021.1.4,60.05295483313384,
0,36,0,36,36,0,72,0.5,1.0,0.0,0.0,0.0,0.0,,stimuli/P_00_36_00_36.png,,,,,0,26,26,51,,,,,,,,,,,,,,,,,,,,,,,,,,,,3131.1441955007613,None,3131.1441955007613,None,3131.478640999645,None,3131.478640999645,None,0,3131.478640999645,None,return,2.3794192001223564,3131.478640999645,None,,,LVYAWEN,F,001,2023_Apr_18_1352,untitled,2021.1.4,60.05295483313384,
36,18,9,36,54,45,99,0.82,0.33,0.67,0.2,0.47,0.58,,stimuli/P_36_18_09_36.png,,,,,0,27,27,231,,,,,,,,,,,,,,,,,,,,,,,,,,,,3133.8853027001023,None,3133.8853027001023,None,3134.2212356999516,None,3134.2212356999516,None,85,3134.2212356999516,None,return,6.221236499026418,3134.2212356999516,None,,,LVYAWEN,F,001,2023_Apr_18_1352,untitled,2021.1.4,60.05295483313384,
9,18,36,9,27,45,72,0.75,0.67,0.33,0.8,-0.47,-2.33,,stimuli/P_09_18_36_09.png,,,,,0,28,28,109,,,,,,,,,,,,,,,,,,,,,,,,,,,,3140.458448100835,None,3140.458448100835,None,3140.788592301309,None,3140.788592301309,None,35,3140.788592301309,None,return,5.0316617004573345,3140.788592301309,None,,,LVYAWEN,F,001,2023_Apr_18_1352,untitled,2021.1.4,60.05295483313384,
18,36,9,9,54,27,72,0.5,0.67,0.33,0.5,-0.17,-0.33,,stimuli/P_18_36_09_09.png,,,,,0,29,29,181,,,,,,,,,,,,,,,,,,,,,,,,,,,,3145.833194600418,None,3145.833194600418,None,3146.1681181006134,None,3146.1681181006134,None,38,3146.1681181006134,None,return,6.646292399615049,3146.1681181006134,None,,,LVYAWEN,F,001,2023_Apr_18_1352,untitled,2021.1.4,60.05295483313384,
9,0,36,9,9,45,54,1.0,0.0,1.0,0.8,0.2,1.0,,stimuli/P_09_00_36_09.png,,,,,0,30,30,77,,,,,,,,,,,,,,,,,,,,,,,,,,,,3152.8395351003855,None,3152.8395351003855,None,3153.1709998007864,None,3153.1709998007864,None,100,3153.1709998007864,None,return,3.095115600153804,3153.1709998007864,None,,,LVYAWEN,F,001,2023_Apr_18_1352,untitled,2021.1.4,60.05295483313384,
18,0,9,18,18,27,45,1.0,0.0,1.0,0.33,0.67,1.0,,stimuli/P_18_00_09_18.png,,,,,0,31,31,134,,,,,,,,,,,,,,,,,,,,,,,,,,,,3156.283964600414,None,3156.283964600414,None,3156.618980901316,None,3156.618980901316,None,100,3156.618980901316,None,return,1.861123699694872,3156.618980901316,None,,,LVYAWEN,F,001,2023_Apr_18_1352,untitled,2021.1.4,60.05295483313384,
9,9,36,0,18,45,54,0.83,0.5,0.5,1.0,-0.5,#NAME?,,stimuli/P_09_09_36_00.png,,,,,0,32,32,92,,,,,,,,,,,,,,,,,,,,,,,,,,,,3158.5036568008363,None,3158.5036568008363,None,3158.8386235013604,None,3158.8386235013604,None,50,3158.8386235013604,None,return,3.8203826006501913,3158.8386235013604,None,,,LVYAWEN,F,001,2023_Apr_18_1352,untitled,2021.1.4,60.05295483313384,
9,0,9,0,9,18,18,1.0,0.0,1.0,1.0,0.0,None,,stimuli/P_09_00_09_00.png,,,,,0,33,33,68,,,,,,,,,,,,,,,,,,,,,,,,,,,,3162.682565201074,None,3162.682565201074,None,3163.0181483998895,None,3163.0181483998895,None,100,3163.0181483998895,None,return,1.6196036990731955,3163.0181483998895,None,,,LVYAWEN,F,001,2023_Apr_18_1352,untitled,2021.1.4,60.05295483313384,
36,18,36,18,54,72,108,0.83,0.33,0.67,0.67,0.0,0.0,,stimuli/P_36_18_36_18.png,,,,,0,34,34,238,,,,,,,,,,,,,,,,,,,,,,,,,,,,3164.65487710014,None,3164.65487710014,None,3164.9943372011185,None,3164.9943372011185,None,85,3164.9943372011185,None,return,4.532473500818014,3164.9943372011185,None,,,LVYAWEN,F,001,2023_Apr_18_1352,untitled,2021.1.4,60.05295483313384,
9,18,0,18,27,9,45,0.6,0.67,0.33,0.0,0.33,0.33,,stimuli/P_09_18_00_18.png,,,,,0,35,35,98,,,,,,,,,,,,,,,,,,,,,,,,,,,,3169.5534723009914,None,3169.5534723009914,None,3169.8831002004445,None,3169.8831002004445,None,40,3169.8831002004445,None,return,4.354968000203371,3169.8831002004445,None,,,LVYAWEN,F,001,2023_Apr_18_1352,untitled,2021.1.4,60.05295483313384,
0,9,9,0,9,9,18,0.5,1.0,0.0,1.0,-1.0,#NAME?,,stimuli/P_00_09_09_00.png,,,,,0,36,36,20,,,,,,,,,,,,,,,,,,,,,,,,,,,,3174.2667853999883,None,3174.2667853999883,None,3174.59709960036,None,3174.59709960036,None,0,3174.59709960036,None,return,1.413060000166297,3174.59709960036,None,,,LVYAWEN,F,001,2023_Apr_18_1352,untitled,2021.1.4,60.05295483313384,
36,9,36,0,45,72,81,0.89,0.2,0.8,1.0,-0.2,#NAME?,,stimuli/P_36_09_36_00.png,,,,,0,37,37,220,,,,,,,,,,,,,,,,,,,,,,,,,,,,3176.0340598002076,None,3176.0340598002076,None,3176.375039400533,None,3176.375039400533,None,88,3176.375039400533,None,return,5.305001201108098,3176.375039400533,None,,,LVYAWEN,F,001,2023_Apr_18_1352,untitled,2021.1.4,60.05295483313384,
9,9,36,36,18,45,90,0.9,0.5,0.5,0.5,0.0,0.0,,stimuli/P_09_09_36_36.png,,,,,0,38,38,95,,,,,,,,,,,,,,,,,,,,,,,,,,,,3181.6988458000124,None,3181.6988458000124,None,3182.032931400463,None,3182.032931400463,None,50,3182.032931400463,None,return,3.1475173998624086,3182.032931400463,None,,,LVYAWEN,F,001,2023_Apr_18_1352,untitled,2021.1.4,60.05295483313384,
0,36,0,18,36,0,54,0.33,1.0,0.0,0.0,0.0,0.0,,stimuli/P_00_36_00_18.png,,,,,0,39,39,50,,,,,,,,,,,,,,,,,,,,,,,,,,,,3185.2147084008902,None,3185.2147084008902,None,3185.5441410001367,None,3185.5441410001367,None,0,3185.5441410001367,None,return,1.2648823000490665,3185.5441410001367,None,,,LVYAWEN,F,001,2023_Apr_18_1352,untitled,2021.1.4,60.05295483313384,
36,0,9,0,36,45,45,1.0,0.0,1.0,1.0,0.0,None,,stimuli/P_36_00_09_00.png,,,,,0,40,40,196,,,,,,,,,,,,,,,,,,,,,,,,,,,,3186.8565002009273,None,3186.8565002009273,None,3187.1904891002923,None,3187.1904891002923,None,100,3187.1904891002923,None,return,2.7187272999435663,3187.1904891002923,None,,,LVYAWEN,F,001,2023_Apr_18_1352,untitled,2021.1.4,60.05295483313384,
0,0,9,18,0,9,27,1.0,None,None,0.33,None,None,,stimuli/P_00_00_09_18.png,,,,,0,41,41,6,,,,,,,,,,,,,,,,,,,,,,,,,,,,3189.933258600533,None,3189.933258600533,None,3190.2637301012874,None,3190.2637301012874,None,0,3190.2637301012874,None,return,2.37796219997108,3190.2637301012874,None,,,LVYAWEN,F,001,2023_Apr_18_1352,untitled,2021.1.4,60.05295483313384,
18,9,36,9,27,54,72,0.88,0.33,0.67,0.8,-0.13,-0.67,,stimuli/P_18_09_36_09.png,,,,,0,42,42,157,,,,,,,,,,,,,,,,,,,,,,,,,,,,3192.658300999552,None,3192.658300999552,None,3192.993995901197,None,3192.993995901197,None,75,3192.993995901197,None,return,4.564839398488402,3192.993995901197,None,,,LVYAWEN,F,001,2023_Apr_18_1352,untitled,2021.1.4,60.05295483313384,
18,18,18,0,36,36,54,0.67,0.5,0.5,1.0,-0.5,#NAME?,,stimuli/P_18_18_18_00.png,,,,,0,43,43,168,,,,,,,,,,,,,,,,,,,,,,,,,,,,3197.580543199554,None,3197.580543199554,None,3197.915553100407,None,3197.915553100407,None,50,3197.915553100407,None,return,1.612330200150609,3197.915553100407,None,,,LVYAWEN,F,001,2023_Apr_18_1352,untitled,2021.1.4,60.05295483313384,
0,9,36,9,9,36,54,0.83,1.0,0.0,0.8,-0.8,-4.0,,stimuli/P_00_09_36_09.png,,,,,0,44,44,29,,,,,,,,,,,,,,,,,,,,,,,,,,,,3199.557478001341,None,3199.557478001341,None,3199.8901107013226,None,3199.8901107013226,None,0,3199.8901107013226,None,return,1.557642599567771,3199.8901107013226,None,,,LVYAWEN,F,001,2023_Apr_18_1352,untitled,2021.1.4,60.05295483313384,
36,18,9,9,54,45,72,0.75,0.33,0.67,0.5,0.17,0.33,,stimuli/P_36_18_09_09.png,,,,,0,45,45,229,,,,,,,,,,,,,,,,,,,,,,,,,,,,3201.4586734008044,None,3201.4586734008044,None,3201.7930178996176,None,3201.7930178996176,None,85,3201.7930178996176,None,return,5.239757100120187,3201.7930178996176,None,,,LVYAWEN,F,001,2023_Apr_18_1352,untitled,2021.1.4,60.05295483313384,
36,18,0,36,54,36,90,0.8,0.33,0.67,0.0,0.67,0.67,,stimuli/P_36_18_00_36.png,,,,,0,46,46,227,,,,,,,,,,,,,,,,,,,,,,,,,,,,3207.0643199011683,None,3207.0643199011683,None,3207.3952249996364,None,3207.3952249996364,None,85,3207.3952249996364,None,return,2.7863591983914375,3207.3952249996364,None,,,LVYAWEN,F,001,2023_Apr_18_1352,untitled,2021.1.4,60.05295483313384,
36,9,0,0,45,36,45,0.8,0.2,0.8,None,None,None,,stimuli/P_36_09_00_00.png,,,,,0,47,47,208,,,,,,,,,,,,,,,,,,,,,,,,,,,,3210.221961500123,None,3210.221961500123,None,3210.5581961013377,None,3210.5581961013377,None,90,3210.5581961013377,None,return,5.171087199822068,3210.5581961013377,None,,,LVYAWEN,F,001,2023_Apr_18_1352,untitled,2021.1.4,60.05295483313384,
9,9,0,9,18,9,27,0.67,0.5,0.5,0.0,0.5,0.5,,stimuli/P_09_09_00_09.png,,,,,0,48,48,81,,,,,,,,,,,,,,,,,,,,,,,,,,,,3215.7526316996664,None,3215.7526316996664,None,3216.0864554997534,None,3216.0864554997534,None,50,3216.0864554997534,None,return,2.1400848999619484,3216.0864554997534,None,,,LVYAWEN,F,001,2023_Apr_18_1352,untitled,2021.1.4,60.05295483313384,
0,36,36,36,36,36,108,0.67,1.0,0.0,0.5,-0.5,-1.0,,stimuli/P_00_36_36_36.png,,,,,0,49,49,63,,,,,,,,,,,,,,,,,,,,,,,,,,,,3218.2558316998184,None,3218.2558316998184,None,3218.590055299923,None,3218.590055299923,None,0,3218.590055299923,None,return,2.30075809918344,3218.590055299923,None,,,LVYAWEN,F,001,2023_Apr_18_1352,untitled,2021.1.4,60.05295483313384,
18,9,36,0,27,54,63,0.86,0.33,0.67,1.0,-0.33,#NAME?,,stimuli/P_18_09_36_00.png,,,,,0,50,50,156,,,,,,,,,,,,,,,,,,,,,,,,,,,,3220.9106866009533,None,3220.9106866009533,None,3221.248068301007,None,3221.248068301007,None,70,3221.248068301007,None,return,5.379928199574351,3221.248068301007,None,,,LVYAWEN,F,001,2023_Apr_18_1352,untitled,2021.1.4,60.05295483313384,
0,0,0,0,0,0,0,None,None,None,None,None,None,,stimuli/P_00_00_00_00.png,,,,,0,51,51,0,,,,,,,,,,,,,,,,,,,,,,,,,,,,3226.6504357010126,None,3226.6504357010126,None,3226.9777239002287,None,3226.9777239002287,None,,3226.9777239002287,None,None,,3226.9777239002287,None,,,LVYAWEN,F,001,2023_Apr_18_1352,untitled,2021.1.4,60.05295483313384,
0,18,18,0,18,18,36,0.5,1.0,0.0,1.0,-1.0,#NAME?,,stimuli/P_00_18_18_00.png,,,,,0,52,52,40,,,,,,,,,,,,,,,,,,,,,,,,,,,,3234.9894517008215,None,3234.9894517008215,None,3235.31975630112,None,3235.31975630112,None,00,3235.31975630112,None,return,2.7028916999697685,3235.31975630112,None,,,LVYAWEN,F,001,2023_Apr_18_1352,untitled,2021.1.4,60.05295483313384,
0,36,18,9,36,18,63,0.43,1.0,0.0,0.67,-0.67,-2.0,,stimuli/P_00_36_18_09.png,,,,,0,53,53,57,,,,,,,,,,,,,,,,,,,,,,,,,,,,3238.0402403008193,None,3238.0402403008193,None,3238.372821500525,None,3238.372821500525,None,0,3238.372821500525,None,return,3.2039765994995832,3238.372821500525,None,,,LVYAWEN,F,001,2023_Apr_18_1352,untitled,2021.1.4,60.05295483313384,
18,18,18,18,36,36,72,0.75,0.5,0.5,0.5,0.0,0.0,,stimuli/P_18_18_18_18.png,,,,,0,54,54,170,,,,,,,,,,,,,,,,,,,,,,,,,,,,3241.6037668008357,None,3241.6037668008357,None,3241.9386817999184,None,3241.9386817999184,None,50,3241.9386817999184,None,return,2.1859333999454975,3241.9386817999184,None,,,LVYAWEN,F,001,2023_Apr_18_1352,untitled,2021.1.4,60.05295483313384,
18,36,36,0,54,54,90,0.6,0.67,0.33,1.0,-0.67,#NAME?,,stimuli/P_18_36_36_00.png,,,,,0,55,55,188,,,,,,,,,,,,,,,,,,,,,,,,,,,,3244.139519000426,None,3244.139519000426,None,3244.4708130005747,None,3244.4708130005747,None,30,3244.4708130005747,None,return,6.1246479991823435,3244.4708130005747,None,,,LVYAWEN,F,001,2023_Apr_18_1352,untitled,2021.1.4,60.05295483313384,
0,36,36,9,36,36,81,0.56,1.0,0.0,0.8,-0.8,-4.0,,stimuli/P_00_36_36_09.png,,,,,0,56,56,61,,,,,,,,,,,,,,,,,,,,,,,,,,,,3250.621966701001,None,3250.621966701001,None,3250.9529192000628,None,3250.9529192000628,None,0,3250.9529192000628,None,return,2.658778801560402,3250.9529192000628,None,,,LVYAWEN,F,001,2023_Apr_18_1352,untitled,2021.1.4,60.05295483313384,
18,9,18,0,27,36,45,0.8,0.33,0.67,1.0,-0.33,#NAME?,,stimuli/P_18_09_18_00.png,,,,,0,57,57,152,,,,,,,,,,,,,,,,,,,,,,,,,,,,3253.6418913006783,None,3253.6418913006783,None,3253.9680984001607,None,3253.9680984001607,None,70,3253.9680984001607,None,return,6.720024099573493,3253.9680984001607,None,,,LVYAWEN,F,001,2023_Apr_18_1352,untitled,2021.1.4,60.05295483313384,
9,9,18,18,18,27,54,0.83,0.5,0.5,0.5,0.0,0.0,,stimuli/P_09_09_18_18.png,,,,,0,58,58,90,,,,,,,,,,,,,,,,,,,,,,,,,,,,3260.7009450998157,None,3260.7009450998157,None,3261.0360145010054,None,3261.0360145010054,None,50,3261.0360145010054,None,return,2.9998084008693695,3261.0360145010054,None,,,LVYAWEN,F,001,2023_Apr_18_1352,untitled,2021.1.4,60.05295483313384,
36,18,18,0,54,54,72,0.75,0.33,0.67,1.0,-0.33,#NAME?,,stimuli/P_36_18_18_00.png,,,,,0,59,59,232,,,,,,,,,,,,,,,,,,,,,,,,,,,,3264.065389500931,None,3264.065389500931,None,3264.397755701095,None,3264.397755701095,None,70,3264.397755701095,None,return,7.324513599276543,3264.397755701095,None,,,LVYAWEN,F,001,2023_Apr_18_1352,untitled,2021.1.4,60.05295483313384,
0,18,0,36,18,0,54,0.67,1.0,0.0,0.0,0.0,0.0,,stimuli/P_00_18_00_36.png,,,,,0,60,60,35,,,,,,,,,,,,,,,,,,,,,,,,,,,,3271.749728800729,None,3271.749728800729,None,3272.0740655995905,None,3272.0740655995905,None,0,3272.0740655995905,None,return,1.8992176000028849,3272.0740655995905,None,,,LVYAWEN,F,001,2023_Apr_18_1352,untitled,2021.1.4,60.05295483313384,
36,0,0,36,36,36,72,1.0,0.0,1.0,0.0,1.0,1.0,,stimuli/P_36_00_00_36.png,,,,,0,61,61,195,,,,,,,,,,,,,,,,,,,,,,,,,,,,3273.9978360999376,None,3273.9978360999376,None,3274.329435599968,None,3274.329435599968,None,100,3274.329435599968,None,return,1.6160931997001171,3274.329435599968,None,,,LVYAWEN,F,001,2023_Apr_18_1352,untitled,2021.1.4,60.05295483313384,
0,9,36,0,9,36,45,0.8,1.0,0.0,1.0,-1.0,#NAME?,,stimuli/P_00_09_36_00.png,,,,,0,62,62,28,,,,,,,,,,,,,,,,,,,,,,,,,,,,3275.966390101239,None,3275.966390101239,None,3276.2866006996483,None,3276.2866006996483,None,0,3276.2866006996483,None,return,1.5326806008815765,3276.2866006996483,None,,,LVYAWEN,F,001,2023_Apr_18_1352,untitled,2021.1.4,60.05295483313384,
9,9,0,36,18,9,54,0.83,0.5,0.5,0.0,0.5,0.5,,stimuli/P_09_09_00_36.png,,,,,0,63,63,83,,,,,,,,,,,,,,,,,,,,,,,,,,,,3277.8326089009643,None,3277.8326089009643,None,3278.16349090077,None,3278.16349090077,None,50,3278.16349090077,None,return,1.7603194992989302,3278.16349090077,None,,,LVYAWEN,F,001,2023_Apr_18_1352,untitled,2021.1.4,60.05295483313384,
18,0,0,36,18,18,54,1.0,0.0,1.0,0.0,1.0,1.0,,stimuli/P_18_00_00_36.png,,,,,0,64,64,131,,,,,,,,,,,,,,,,,,,,,,,,,,,,3279.936186200008,None,3279.936186200008,None,3280.2635293006897,None,3280.2635293006897,None,100,3280.2635293006897,None,return,1.5446143988519907,3280.2635293006897,None,,,LVYAWEN,F,001,2023_Apr_18_1352,untitled,2021.1.4,60.05295483313384,
18,0,36,18,18,54,72,1.0,0.0,1.0,0.67,0.33,1.0,,stimuli/P_18_00_36_18.png,,,,,0,65,65,142,,,,,,,,,,,,,,,,,,,,,,,,,,,,3281.8331841006875,None,3281.8331841006875,None,3282.1679507996887,None,3282.1679507996887,None,100,3282.1679507996887,None,return,3.149175200611353,3282.1679507996887,None,,,LVYAWEN,F,001,2023_Apr_18_1352,untitled,2021.1.4,60.05295483313384,
9,9,18,0,18,27,36,0.75,0.5,0.5,1.0,-0.5,#NAME?,,stimuli/P_09_09_18_00.png,,,,,0,66,66,88,,,,,,,,,,,,,,,,,,,,,,,,,,,,3285.3406096007675,None,3285.3406096007675,None,3285.662824699655,None,3285.662824699655,None,50,3285.662824699655,None,return,4.3785783015191555,3285.662824699655,None,,,LVYAWEN,F,001,2023_Apr_18_1352,untitled,2021.1.4,60.05295483313384,
0,18,18,18,18,18,54,0.67,1.0,0.0,0.5,-0.5,-1.0,,stimuli/P_00_18_18_18.png,,,,,0,67,67,42,,,,,,,,,,,,,,,,,,,,,,,,,,,,3290.063142299652,None,3290.063142299652,None,3290.4079817011952,None,3290.4079817011952,None,0,3290.4079817011952,None,return,1.4364193007349968,3290.4079817011952,None,,,LVYAWEN,F,001,2023_Apr_18_1352,untitled,2021.1.4,60.05295483313384,
18,9,9,36,27,27,72,0.88,0.33,0.67,0.2,0.47,0.58,,stimuli/P_18_09_09_36.png,,,,,0,68,68,151,,,,,,,,,,,,,,,,,,,,,,,,,,,,3291.8616362009197,None,3291.8616362009197,None,3292.184382000938,None,3292.184382000938,None,73,3292.184382000938,None,return,7.198410199955106,3292.184382000938,None,,,LVYAWEN,F,001,2023_Apr_18_1352,untitled,2021.1.4,60.05295483313384,
0,36,9,36,36,9,81,0.56,1.0,0.0,0.2,-0.2,-0.25,,stimuli/P_00_36_09_36.png,,,,,0,69,69,55,,,,,,,,,,,,,,,,,,,,,,,,,,,,3299.4172051995993,None,3299.4172051995993,None,3299.744862800464,None,3299.744862800464,None,0,3299.744862800464,None,return,2.654153700917959,3299.744862800464,None,,,LVYAWEN,F,001,2023_Apr_18_1352,untitled,2021.1.4,60.05295483313384,
0,9,0,0,9,0,9,0.0,1.0,0.0,None,None,None,,stimuli/P_00_09_00_00.png,,,,,0,70,70,16,,,,,,,,,,,,,,,,,,,,,,,,,,,,3302.4316528011113,None,3302.4316528011113,None,3302.7601139005274,None,3302.7601139005274,None,0,3302.7601139005274,None,return,1.222527300938964,3302.7601139005274,None,,,LVYAWEN,F,001,2023_Apr_18_1352,untitled,2021.1.4,60.05295483313384,
36,18,9,18,54,45,81,0.78,0.33,0.67,0.33,0.33,0.5,,stimuli/P_36_18_09_18.png,,,,,0,71,71,230,,,,,,,,,,,,,,,,,,,,,,,,,,,,3304.0151271000504,None,3304.0151271000504,None,3304.343567101285,None,3304.343567101285,None,73,3304.343567101285,None,return,6.336149498820305,3304.343567101285,None,,,LVYAWEN,F,001,2023_Apr_18_1352,untitled,2021.1.4,60.05295483313384,
18,36,0,36,54,18,90,0.6,0.67,0.33,0.0,0.33,0.33,,stimuli/P_18_36_00_36.png,,,,,0,72,72,179,,,,,,,,,,,,,,,,,,,,,,,,,,,,3310.6932306010276,None,3310.6932306010276,None,3311.02314100042,None,3311.02314100042,None,35,3311.02314100042,None,return,4.788173301145434,3311.02314100042,None,,,LVYAWEN,F,001,2023_Apr_18_1352,untitled,2021.1.4,60.05295483313384,
9,0,36,18,9,45,63,1.0,0.0,1.0,0.67,0.33,1.0,,stimuli/P_09_00_36_18.png,,,,,0,73,73,78,,,,,,,,,,,,,,,,,,,,,,,,,,,,3315.8492987006903,None,3315.8492987006903,None,3316.172416500747,None,3316.172416500747,None,100,3316.172416500747,None,return,1.8020939007401466,3316.172416500747,None,,,LVYAWEN,F,001,2023_Apr_18_1352,untitled,2021.1.4,60.05295483313384,
9,18,18,9,27,27,54,0.67,0.67,0.33,0.67,-0.33,-1.0,,stimuli/P_09_18_18_09.png,,,,,0,74,74,105,,,,,,,,,,,,,,,,,,,,,,,,,,,,3317.9911512006074,None,3317.9911512006074,None,3318.3213053997606,None,3318.3213053997606,None,35,3318.3213053997606,None,None,,3318.3213053997606,None,,,LVYAWEN,F,001,2023_Apr_18_1352,untitled,2021.1.4,60.05295483313384,
36,9,36,36,45,72,117,0.92,0.2,0.8,0.5,0.3,0.6,,stimuli/P_36_09_36_36.png,,,,,0,75,75,223,,,,,,,,,,,,,,,,,,,,,,,,,,,,3326.3326082006097,None,3326.3326082006097,None,3326.660100100562,None,3326.660100100562,None,80,3326.660100100562,None,return,3.2390836998820305,3326.660100100562,None,,,LVYAWEN,F,001,2023_Apr_18_1352,untitled,2021.1.4,60.05295483313384,
36,9,9,18,45,45,72,0.88,0.2,0.8,0.33,0.47,0.7,,stimuli/P_36_09_09_18.png,,,,,0,76,76,214,,,,,,,,,,,,,,,,,,,,,,,,,,,,3329.9179034009576,None,3329.9179034009576,None,3330.2497262004763,None,3330.2497262004763,None,90,3330.2497262004763,None,return,5.112400000914931,3330.2497262004763,None,,,LVYAWEN,F,001,2023_Apr_18_1352,untitled,2021.1.4,60.05295483313384,
18,0,18,36,18,36,72,1.0,0.0,1.0,0.33,0.67,1.0,,stimuli/P_18_00_18_36.png,,,,,0,77,77,139,,,,,,,,,,,,,,,,,,,,,,,,,,,,3335.3955961000174,None,3335.3955961000174,None,3335.716624001041,None,3335.716624001041,None,100,3335.716624001041,None,return,2.086190700531006,3335.716624001041,None,,,LVYAWEN,F,001,2023_Apr_18_1352,untitled,2021.1.4,60.05295483313384,
36,9,0,9,45,36,54,0.83,0.2,0.8,0.0,0.8,0.8,,stimuli/P_36_09_00_09.png,,,,,0,78,78,209,,,,,,,,,,,,,,,,,,,,,,,,,,,,3337.818165799603,None,3337.818165799603,None,3338.1387495007366,None,3338.1387495007366,None,85,3338.1387495007366,None,return,2.9376893006265163,3338.1387495007366,None,,,LVYAWEN,F,001,2023_Apr_18_1352,untitled,2021.1.4,60.05295483313384,
18,0,0,18,18,18,36,1.0,0.0,1.0,0.0,1.0,1.0,,stimuli/P_18_00_00_18.png,,,,,0,79,79,130,,,,,,,,,,,,,,,,,,,,,,,,,,,,3341.1022622007877,None,3341.1022622007877,None,3341.431626399979,None,3341.431626399979,None,100,3341.431626399979,None,return,2.2370648998767138,3341.431626399979,None,,,LVYAWEN,F,001,2023_Apr_18_1352,untitled,2021.1.4,60.05295483313384,
18,9,0,36,27,18,63,0.86,0.33,0.67,0.0,0.67,0.67,,stimuli/P_18_09_00_36.png,,,,,0,80,80,147,,,,,,,,,,,,,,,,,,,,,,,,,,,,3343.710697799921,None,3343.710697799921,None,3344.0329438000917,None,3344.0329438000917,None,65,3344.0329438000917,None,return,6.554600300267339,3344.0329438000917,None,,,LVYAWEN,F,001,2023_Apr_18_1352,untitled,2021.1.4,60.05295483313384,
18,36,0,0,54,18,54,0.33,0.67,0.33,None,None,None,,stimuli/P_18_36_00_00.png,,,,,0,81,81,176,,,,,,,,,,,,,,,,,,,,,,,,,,,,3350.609903000295,None,3350.609903000295,None,3350.9387755002826,None,3350.9387755002826,None,35,3350.9387755002826,None,return,4.580985400825739,3350.9387755002826,None,,,LVYAWEN,F,001,2023_Apr_18_1352,untitled,2021.1.4,60.05295483313384,
9,9,0,18,18,9,36,0.75,0.5,0.5,0.0,0.5,0.5,,stimuli/P_09_09_00_18.png,,,,,0,82,82,82,,,,,,,,,,,,,,,,,,,,,,,,,,,,3355.5520380008966,None,3355.5520380008966,None,3355.8759971000254,None,3355.8759971000254,None,50,3355.8759971000254,None,return,1.6820790003985167,3355.8759971000254,None,,,LVYAWEN,F,001,2023_Apr_18_1352,untitled,2021.1.4,60.05295483313384,
9,18,0,36,27,9,63,0.71,0.67,0.33,0.0,0.33,0.33,,stimuli/P_09_18_00_36.png,,,,,0,83,83,99,,,,,,,,,,,,,,,,,,,,,,,,,,,,3357.5870249997824,None,3357.5870249997824,None,3357.9250923004,None,3357.9250923004,None,40,3357.9250923004,None,return,3.023012701421976,3357.9250923004,None,,,LVYAWEN,F,001,2023_Apr_18_1352,untitled,2021.1.4,60.05295483313384,
9,36,18,0,45,27,63,0.43,0.8,0.2,1.0,-0.8,#NAME?,,stimuli/P_09_36_18_00.png,,,,,0,84,84,120,,,,,,,,,,,,,,,,,,,,,,,,,,,,3360.965724401176,None,3360.965724401176,None,3361.3039494007826,None,3361.3039494007826,None,25,3361.3039494007826,None,return,5.129229500889778,3361.3039494007826,None,,,LVYAWEN,F,001,2023_Apr_18_1352,untitled,2021.1.4,60.05295483313384,
9,18,0,0,27,9,27,0.33,0.67,0.33,None,None,None,,stimuli/P_09_18_00_00.png,,,,,0,85,85,96,,,,,,,,,,,,,,,,,,,,,,,,,,,,3366.448416100815,None,3366.448416100815,None,3366.7877980004996,None,3366.7877980004996,None,35,3366.7877980004996,None,return,3.9329714998602867,3366.7877980004996,None,,,LVYAWEN,F,001,2023_Apr_18_1352,untitled,2021.1.4,60.05295483313384,
0,9,18,0,9,18,27,0.67,1.0,0.0,1.0,-1.0,#NAME?,,stimuli/P_00_09_18_00.png,,,,,0,86,86,24,,,,,,,,,,,,,,,,,,,,,,,,,,,,3370.748593000695,None,3370.748593000695,None,3371.0696166995913,None,3371.0696166995913,None,0,3371.0696166995913,None,return,1.4341462012380362,3371.0696166995913,None,,,LVYAWEN,F,001,2023_Apr_18_1352,untitled,2021.1.4,60.05295483313384,
9,0,9,18,9,18,36,1.0,0.0,1.0,0.33,0.67,1.0,,stimuli/P_09_00_09_18.png,,,,,0,87,87,70,,,,,,,,,,,,,,,,,,,,,,,,,,,,3372.531609401107,None,3372.531609401107,None,3372.8559227008373,None,3372.8559227008373,None,100,3372.8559227008373,None,return,2.6270588990300894,3372.8559227008373,None,,,LVYAWEN,F,001,2023_Apr_18_1352,untitled,2021.1.4,60.05295483313384,
9,36,0,9,45,9,54,0.33,0.8,0.2,0.0,0.2,0.2,,stimuli/P_09_36_00_09.png,,,,,0,88,88,113,,,,,,,,,,,,,,,,,,,,,,,,,,,,3375.510242100805,None,3375.510242100805,None,3375.839886300266,None,3375.839886300266,None,20,3375.839886300266,None,return,4.282772600650787,3375.839886300266,None,,,LVYAWEN,F,001,2023_Apr_18_1352,untitled,2021.1.4,60.05295483313384,
36,0,36,9,36,72,81,1.0,0.0,1.0,0.8,0.2,1.0,,stimuli/P_36_00_36_09.png,,,,,0,89,89,205,,,,,,,,,,,,,,,,,,,,,,,,,,,,3380.1395420003682,None,3380.1395420003682,None,3380.4616414997727,None,3380.4616414997727,None,100,3380.4616414997727,None,return,2.3552944008260965,3380.4616414997727,None,,,LVYAWEN,F,001,2023_Apr_18_1352,untitled,2021.1.4,60.05295483313384,
18,18,18,9,36,36,63,0.71,0.5,0.5,0.67,-0.17,-0.5,,stimuli/P_18_18_18_09.png,,,,,0,90,90,169,,,,,,,,,,,,,,,,,,,,,,,,,,,,3382.8461028002203,None,3382.8461028002203,None,3383.175235901028,None,3383.175235901028,None,50,3383.175235901028,None,return,1.9153429009020329,3383.175235901028,None,,,LVYAWEN,F,001,2023_Apr_18_1352,untitled,2021.1.4,60.05295483313384,
36,0,0,9,36,36,45,1.0,0.0,1.0,0.0,1.0,1.0,,stimuli/P_36_00_00_09.png,,,,,0,91,91,193,,,,,,,,,,,,,,,,,,,,,,,,,,,,3385.112804900855,None,3385.112804900855,None,3385.435451200232,None,3385.435451200232,None,100,3385.435451200232,None,return,2.4135142005980015,3385.435451200232,None,,,LVYAWEN,F,001,2023_Apr_18_1352,untitled,2021.1.4,60.05295483313384,
18,18,9,0,36,27,45,0.6,0.5,0.5,1.0,-0.5,#NAME?,,stimuli/P_18_18_09_00.png,,,,,0,92,92,164,,,,,,,,,,,,,,,,,,,,,,,,,,,,3387.883074199781,None,3387.883074199781,None,3388.2116264998913,None,3388.2116264998913,None,500,3388.2116264998913,None,return,2.2306513991206884,3388.2116264998913,None,,,LVYAWEN,F,001,2023_Apr_18_1352,untitled,2021.1.4,60.05295483313384,
36,18,18,18,54,54,90,0.8,0.33,0.67,0.5,0.17,0.33,,stimuli/P_36_18_18_18.png,,,,,0,93,93,234,,,,,,,,,,,,,,,,,,,,,,,,,,,,3390.454991200939,None,3390.454991200939,None,3390.776684399694,None,3390.776684399694,None,75,3390.776684399694,None,return,7.534724900498986,3390.776684399694,None,,,LVYAWEN,F,001,2023_Apr_18_1352,untitled,2021.1.4,60.05295483313384,
0,0,0,18,0,0,18,1.0,None,None,0.0,None,None,,stimuli/P_00_00_00_18.png,,,,,0,94,94,2,,,,,,,,,,,,,,,,,,,,,,,,,,,,3398.3331218995154,None,3398.3331218995154,None,3398.6632796004415,None,3398.6632796004415,None,0,3398.6632796004415,None,return,1.6688719000667334,3398.6632796004415,None,,,LVYAWEN,F,001,2023_Apr_18_1352,untitled,2021.1.4,60.05295483313384,
0,36,18,36,36,18,90,0.6,1.0,0.0,0.33,-0.33,-0.5,,stimuli/P_00_36_18_36.png,,,,,0,95,95,59,,,,,,,,,,,,,,,,,,,,,,,,,,,,3400.35524789989,None,3400.35524789989,None,3400.6736008003354,None,3400.6736008003354,None,0,3400.6736008003354,None,return,1.7495092004537582,3400.6736008003354,None,,,LVYAWEN,F,001,2023_Apr_18_1352,untitled,2021.1.4,60.05295483313384,
36,36,0,0,72,36,72,0.5,0.5,0.5,None,None,None,,stimuli/P_36_36_00_00.png,,,,,0,96,96,240,,,,,,,,,,,,,,,,,,,,,,,,,,,,3402.4387269001454,None,3402.4387269001454,None,3402.770135499537,None,3402.770135499537,None,50,3402.770135499537,None,return,5.674571800976992,3402.770135499537,None,,,LVYAWEN,F,001,2023_Apr_18_1352,untitled,2021.1.4,60.05295483313384,
0,0,36,36,0,36,72,1.0,None,None,0.5,None,None,,stimuli/P_00_00_36_36.png,,,,,0,97,97,15,,,,,,,,,,,,,,,,,,,,,,,,,,,,3408.472293300554,None,3408.472293300554,None,3408.8017517011613,None,3408.8017517011613,None,0,3408.8017517011613,None,return,1.258382799103856,3408.8017517011613,None,,,LVYAWEN,F,001,2023_Apr_18_1352,untitled,2021.1.4,60.05295483313384,
9,36,36,18,45,45,99,0.64,0.8,0.2,0.67,-0.47,-1.4,,stimuli/P_09_36_36_18.png,,,,,0,98,98,126,,,,,,,,,,,,,,,,,,,,,,,,,,,,3410.0808933004737,None,3410.0808933004737,None,3410.410326000303,None,3410.410326000303,None,25,3410.410326000303,None,return,5.96169999986887,3410.410326000303,None,,,LVYAWEN,F,001,2023_Apr_18_1352,untitled,2021.1.4,60.05295483313384,
36,9,36,9,45,72,90,0.9,0.2,0.8,0.8,0.0,0.0,,stimuli/P_36_09_36_09.png,,,,,0,99,99,221,,,,,,,,,,,,,,,,,,,,,,,,,,,,3416.3885395005345,None,3416.3885395005345,None,3416.719050699845,None,3416.719050699845,None,80,3416.719050699845,None,return,7.39800369925797,3416.719050699845,None,,,LVYAWEN,F,001,2023_Apr_18_1352,untitled,2021.1.4,60.05295483313384,
18,18,0,36,36,18,72,0.75,0.5,0.5,0.0,0.5,0.5,,stimuli/P_18_18_00_36.png,,,,,0,100,100,163,,,,,,,,,,,,,,,,,,,,,,,,,,,,3424.1477218996733,None,3424.1477218996733,None,3424.4699924997985,None,3424.4699924997985,None,50,3424.4699924997985,None,return,2.305241499096155,3424.4699924997985,None,,,LVYAWEN,F,001,2023_Apr_18_1352,untitled,2021.1.4,60.05295483313384,
36,18,36,9,54,72,99,0.82,0.33,0.67,0.8,-0.13,-0.67,,stimuli/P_36_18_36_09.png,,,,,0,101,101,237,,,,,,,,,,,,,,,,,,,,,,,,,,,,3426.7957090996206,None,3426.7957090996206,None,3427.1277332007885,None,3427.1277332007885,None,73,3427.1277332007885,None,return,7.916621200740337,3427.1277332007885,None,,,LVYAWEN,F,001,2023_Apr_18_1352,untitled,2021.1.4,60.05295483313384,
36,9,9,0,45,45,54,0.83,0.2,0.8,1.0,-0.2,#NAME?,,stimuli/P_36_09_09_00.png,,,,,0,102,102,212,,,,,,,,,,,,,,,,,,,,,,,,,,,,3435.062668601051,None,3435.062668601051,None,3435.387871099636,None,3435.387871099636,None,80,3435.387871099636,None,return,4.343329198658466,3435.387871099636,None,,,LVYAWEN,F,001,2023_Apr_18_1352,untitled,2021.1.4,60.05295483313384,
36,18,0,18,54,36,72,0.75,0.33,0.67,0.0,0.67,0.67,,stimuli/P_36_18_00_18.png,,,,,0,103,103,226,,,,,,,,,,,,,,,,,,,,,,,,,,,,3439.749372800812,None,3439.749372800812,None,3440.080128200352,None,3440.080128200352,None,7,3440.080128200352,None,None,,3440.080128200352,None,,,LVYAWEN,F,001,2023_Apr_18_1352,untitled,2021.1.4,60.05295483313384,
36,36,0,18,72,36,90,0.6,0.5,0.5,0.0,0.5,0.5,,stimuli/P_36_36_00_18.png,,,,,0,104,104,242,,,,,,,,,,,,,,,,,,,,,,,,,,,,3448.0911797005683,None,3448.0911797005683,None,3448.4244023002684,None,3448.4244023002684,None,50,3448.4244023002684,None,return,2.56363819912076,3448.4244023002684,None,,,LVYAWEN,F,001,2023_Apr_18_1352,untitled,2021.1.4,60.05295483313384,
9,9,9,9,18,18,36,0.75,0.5,0.5,0.5,0.0,0.0,,stimuli/P_09_09_09_09.png,,,,,0,105,105,85,,,,,,,,,,,,,,,,,,,,,,,,,,,,3451.014772700146,None,3451.014772700146,None,3451.3457404002547,None,3451.3457404002547,None,50,3451.3457404002547,None,return,2.1734664998948574,3451.3457404002547,None,,,LVYAWEN,F,001,2023_Apr_18_1352,untitled,2021.1.4,60.05295483313384,
36,36,36,0,72,72,108,0.67,0.5,0.5,1.0,-0.5,#NAME?,,stimuli/P_36_36_36_00.png,,,,,0,106,106,252,,,,,,,,,,,,,,,,,,,,,,,,,,,,3453.5345706008375,None,3453.5345706008375,None,3453.864582700655,None,3453.864582700655,None,50,3453.864582700655,None,return,2.5956708006560802,3453.864582700655,None,,,LVYAWEN,F,001,2023_Apr_18_1352,untitled,2021.1.4,60.05295483313384,
18,36,0,9,54,18,63,0.43,0.67,0.33,0.0,0.33,0.33,,stimuli/P_18_36_00_09.png,,,,,0,107,107,177,,,,,,,,,,,,,,,,,,,,,,,,,,,,3456.492863100022,None,3456.492863100022,None,3456.8130843006074,None,3456.8130843006074,None,30,3456.8130843006074,None,return,4.29493029974401,3456.8130843006074,None,,,LVYAWEN,F,001,2023_Apr_18_1352,untitled,2021.1.4,60.05295483313384,
0,0,36,0,0,36,36,1.0,None,None,1.0,None,None,,stimuli/P_00_00_36_00.png,,,,,0,108,108,12,,,,,,,,,,,,,,,,,,,,,,,,,,,,3461.140390999615,None,3461.140390999615,None,3461.4705598000437,None,3461.4705598000437,None,0,3461.4705598000437,None,return,1.7455358002334833,3461.4705598000437,None,,,LVYAWEN,F,001,2023_Apr_18_1352,untitled,2021.1.4,60.05295483313384,
9,18,36,0,27,45,63,0.71,0.67,0.33,1.0,-0.67,#NAME?,,stimuli/P_09_18_36_00.png,,,,,0,109,109,108,,,,,,,,,,,,,,,,,,,,,,,,,,,,3463.2461606003344,None,3463.2461606003344,None,3463.572773501277,None,3463.572773501277,None,37,3463.572773501277,None,return,5.247264200821519,3463.572773501277,None,,,LVYAWEN,F,001,2023_Apr_18_1352,untitled,2021.1.4,60.05295483313384,
9,0,36,36,9,45,81,1.0,0.0,1.0,0.5,0.5,1.0,,stimuli/P_09_00_36_36.png,,,,,0,110,110,79,,,,,,,,,,,,,,,,,,,,,,,,,,,,3468.844861799851,None,3468.844861799851,None,3469.1730409003794,None,3469.1730409003794,None,100,3469.1730409003794,None,return,1.9316524993628263,3469.1730409003794,None,,,LVYAWEN,F,001,2023_Apr_18_1352,untitled,2021.1.4,60.05295483313384,
36,9,9,9,45,45,63,0.86,0.2,0.8,0.5,0.3,0.6,,stimuli/P_36_09_09_09.png,,,,,0,111,111,213,,,,,,,,,,,,,,,,,,,,,,,,,,,,3471.1195909008384,None,3471.1195909008384,None,3471.459345800802,None,3471.459345800802,None,70,3471.459345800802,None,return,4.9668096005916595,3471.459345800802,None,,,LVYAWEN,F,001,2023_Apr_18_1352,untitled,2021.1.4,60.05295483313384,
0,0,0,36,0,0,36,1.0,None,None,0.0,None,None,,stimuli/P_00_00_00_36.png,,,,,0,112,112,3,,,,,,,,,,,,,,,,,,,,,,,,,,,,3476.440692000091,None,3476.440692000091,None,3476.7736559007317,None,3476.7736559007317,None,0,3476.7736559007317,None,return,1.3988946992903948,3476.7736559007317,None,,,LVYAWEN,F,001,2023_Apr_18_1352,untitled,2021.1.4,60.05295483313384,
36,36,0,9,72,36,81,0.56,0.5,0.5,0.0,0.5,0.5,,stimuli/P_36_36_00_09.png,,,,,0,113,113,241,,,,,,,,,,,,,,,,,,,,,,,,,,,,3478.202041000128,None,3478.202041000128,None,3478.5267677009106,None,3478.5267677009106,None,50,3478.5267677009106,None,return,2.002990201115608,3478.5267677009106,None,,,LVYAWEN,F,001,2023_Apr_18_1352,untitled,2021.1.4,60.05295483313384,
36,9,18,18,45,54,81,0.89,0.2,0.8,0.5,0.3,0.6,,stimuli/P_36_09_18_18.png,,,,,0,114,114,218,,,,,,,,,,,,,,,,,,,,,,,,,,,,3480.542138900608,None,3480.542138900608,None,3480.8734038006514,None,3480.8734038006514,None,70,3480.8734038006514,None,return,4.5462516993284225,3480.8734038006514,None,,,LVYAWEN,F,001,2023_Apr_18_1352,untitled,2021.1.4,60.05295483313384,
9,36,36,9,45,45,90,0.6,0.8,0.2,0.8,-0.6,-3.0,,stimuli/P_09_36_36_09.png,,,,,0,115,115,125,,,,,,,,,,,,,,,,,,,,,,,,,,,,3485.442731499672,None,3485.442731499672,None,3485.7730516996235,None,3485.7730516996235,None,75,3485.7730516996235,None,return,3.24363880045712,3485.7730516996235,None,,,LVYAWEN,F,001,2023_Apr_18_1352,untitled,2021.1.4,60.05295483313384,
0,9,0,9,9,0,18,0.5,1.0,0.0,0.0,0.0,0.0,,stimuli/P_00_09_00_09.png,,,,,0,116,116,17,,,,,,,,,,,,,,,,,,,,,,,,,,,,3489.03541290015,None,3489.03541290015,None,3489.3559681996703,None,3489.3559681996703,None,0,3489.3559681996703,None,return,1.4534196984022856,3489.3559681996703,None,,,LVYAWEN,F,001,2023_Apr_18_1352,untitled,2021.1.4,60.05295483313384,
0,36,9,18,36,9,63,0.43,1.0,0.0,0.33,-0.33,-0.5,,stimuli/P_00_36_09_18.png,,,,,0,117,117,54,,,,,,,,,,,,,,,,,,,,,,,,,,,,3490.8321671001613,None,3490.8321671001613,None,3491.1672005001456,None,3491.1672005001456,None,0,3491.1672005001456,None,return,1.6191582009196281,3491.1672005001456,None,,,LVYAWEN,F,001,2023_Apr_18_1352,untitled,2021.1.4,60.05295483313384,
18,9,0,0,27,18,27,0.67,0.33,0.67,None,None,None,,stimuli/P_18_09_00_00.png,,,,,0,118,118,144,,,,,,,,,,,,,,,,,,,,,,,,,,,,3492.8064857013524,None,3492.8064857013524,None,3493.135580500588,None,3493.135580500588,None,66,3493.135580500588,None,return,7.040125500410795,3493.135580500588,None,,,LVYAWEN,F,001,2023_Apr_18_1352,untitled,2021.1.4,60.05295483313384,
18,9,18,9,27,36,54,0.83,0.33,0.67,0.67,0.0,0.0,,stimuli/P_18_09_18_09.png,,,,,0,119,119,153,,,,,,,,,,,,,,,,,,,,,,,,,,,,3500.1962815001607,None,3500.1962815001607,None,3500.5360911004245,None,3500.5360911004245,None,60,3500.5360911004245,None,return,5.947815898805857,3500.5360911004245,None,,,LVYAWEN,F,001,2023_Apr_18_1352,untitled,2021.1.4,60.05295483313384,
36,9,36,18,45,72,99,0.91,0.2,0.8,0.67,0.13,0.4,,stimuli/P_36_09_36_18.png,,,,,0,120,120,222,,,,,,,,,,,,,,,,,,,,,,,,,,,,3506.515530800447,None,3506.515530800447,None,3506.838581200689,None,3506.838581200689,None,75,3506.838581200689,None,return,6.765233600512147,3506.838581200689,None,,,LVYAWEN,F,001,2023_Apr_18_1352,untitled,2021.1.4,60.05295483313384,
0,9,18,36,9,18,63,0.86,1.0,0.0,0.33,-0.33,-0.5,,stimuli/P_00_09_18_36.png,,,,,0,121,121,27,,,,,,,,,,,,,,,,,,,,,,,,,,,,3513.628926999867,None,3513.628926999867,None,3513.95872490108,None,3513.95872490108,None,0,3513.95872490108,None,return,1.5120828989893198,3513.95872490108,None,,,LVYAWEN,F,001,2023_Apr_18_1352,untitled,2021.1.4,60.05295483313384,
0,9,36,18,9,36,63,0.86,1.0,0.0,0.67,-0.67,-2.0,,stimuli/P_00_09_36_18.png,,,,,0,122,122,30,,,,,,,,,,,,,,,,,,,,,,,,,,,,3515.4941406007856,None,3515.4941406007856,None,3515.8251089006662,None,3515.8251089006662,None,0,3515.8251089006662,None,return,2.0264584999531507,3515.8251089006662,None,,,LVYAWEN,F,001,2023_Apr_18_1352,untitled,2021.1.4,60.05295483313384,
18,36,9,18,54,27,81,0.56,0.67,0.33,0.33,0.0,0.0,,stimuli/P_18_36_09_18.png,,,,,0,123,123,182,,,,,,,,,,,,,,,,,,,,,,,,,,,,3517.8689366001636,None,3517.8689366001636,None,3518.20117460005,None,3518.20117460005,None,30,3518.20117460005,None,return,5.430040700361133,3518.20117460005,None,,,LVYAWEN,F,001,2023_Apr_18_1352,untitled,2021.1.4,60.05295483313384,
18,9,18,36,27,36,81,0.89,0.33,0.67,0.33,0.33,0.5,,stimuli/P_18_09_18_36.png,,,,,0,124,124,155,,,,,,,,,,,,,,,,,,,,,,,,,,,,3523.6614721007645,None,3523.6614721007645,None,3523.9930425006896,None,3523.9930425006896,None,65,3523.9930425006896,None,return,6.217867501080036,3523.9930425006896,None,,,LVYAWEN,F,001,2023_Apr_18_1352,untitled,2021.1.4,60.05295483313384,
36,0,18,18,36,54,72,1.0,0.0,1.0,0.5,0.5,1.0,,stimuli/P_36_00_18_18.png,,,,,0,125,125,202,,,,,,,,,,,,,,,,,,,,,,,,,,,,3530.240671399981,None,3530.240671399981,None,3530.579307800159,None,3530.579307800159,None,100,3530.579307800159,None,return,1.6840131003409624,3530.579307800159,None,,,LVYAWEN,F,001,2023_Apr_18_1352,untitled,2021.1.4,60.05295483313384,
9,0,18,36,9,27,63,1.0,0.0,1.0,0.33,0.67,1.0,,stimuli/P_09_00_18_36.png,,,,,0,126,126,75,,,,,,,,,,,,,,,,,,,,,,,,,,,,3532.281847100705,None,3532.281847100705,None,3532.6144737005234,None,3532.6144737005234,None,100,3532.6144737005234,None,return,2.103226099163294,3532.6144737005234,None,,,LVYAWEN,F,001,2023_Apr_18_1352,untitled,2021.1.4,60.05295483313384,
9,36,9,9,45,18,63,0.43,0.8,0.2,0.5,-0.3,-0.6,,stimuli/P_09_36_09_09.png,,,,,0,127,127,117,,,,,,,,,,,,,,,,,,,,,,,,,,,,3534.7433077003807,None,3534.7433077003807,None,3535.0644374005497,None,3535.0644374005497,None,25,3535.0644374005497,None,return,3.851944100111723,3535.0644374005497,None,,,LVYAWEN,F,001,2023_Apr_18_1352,untitled,2021.1.4,60.05295483313384,
36,36,36,36,72,72,144,0.75,0.5,0.5,0.5,0.0,0.0,,stimuli/P_36_36_36_36.png,,,,,0,128,128,255,,,,,,,,,,,,,,,,,,,,,,,,,,,,3538.9348904006183,None,3538.9348904006183,None,3539.2840890008956,None,3539.2840890008956,None,50,3539.2840890008956,None,return,3.1101588997989893,3539.2840890008956,None,,,LVYAWEN,F,001,2023_Apr_18_1352,untitled,2021.1.4,60.05295483313384,
18,9,9,9,27,27,45,0.8,0.33,0.67,0.5,0.17,0.33,,stimuli/P_18_09_09_09.png,,,,,0,129,129,149,,,,,,,,,,,,,,,,,,,,,,,,,,,,3542.4208055995405,None,3542.4208055995405,None,3542.754049900919,None,3542.754049900919,None,70,3542.754049900919,None,return,3.819165799766779,3542.754049900919,None,,,LVYAWEN,F,001,2023_Apr_18_1352,untitled,2021.1.4,60.05295483313384,
9,9,9,18,18,18,45,0.8,0.5,0.5,0.33,0.17,0.25,,stimuli/P_09_09_09_18.png,,,,,0,130,130,86,,,,,,,,,,,,,,,,,,,,,,,,,,,,3546.596706200391,None,3546.596706200391,None,3546.9283726997674,None,3546.9283726997674,None,50,3546.9283726997674,None,return,2.009468199685216,3546.9283726997674,None,,,LVYAWEN,F,001,2023_Apr_18_1352,untitled,2021.1.4,60.05295483313384,
36,0,18,9,36,54,63,1.0,0.0,1.0,0.67,0.33,1.0,,stimuli/P_36_00_18_09.png,,,,,0,131,131,201,,,,,,,,,,,,,,,,,,,,,,,,,,,,3548.956637499854,None,3548.956637499854,None,3549.282222300768,None,3549.282222300768,None,100,3549.282222300768,None,return,1.9896763004362583,3549.282222300768,None,,,LVYAWEN,F,001,2023_Apr_18_1352,untitled,2021.1.4,60.05295483313384,
18,18,0,9,36,18,45,0.6,0.5,0.5,0.0,0.5,0.5,,stimuli/P_18_18_00_09.png,,,,,0,132,132,161,,,,,,,,,,,,,,,,,,,,,,,,,,,,3551.2898399997503,None,3551.2898399997503,None,3551.623987900093,None,3551.623987900093,None,100,3551.623987900093,None,return,1.760741401463747,3551.623987900093,None,,,LVYAWEN,F,001,2023_Apr_18_1352,untitled,2021.1.4,60.05295483313384,
18,36,36,18,54,54,108,0.67,0.67,0.33,0.67,-0.33,-1.0,,stimuli/P_18_36_36_18.png,,,,,0,133,133,190,,,,,,,,,,,,,,,,,,,,,,,,,,,,3553.4128871001303,None,3553.4128871001303,None,3553.743446800858,None,3553.743446800858,None,36,3553.743446800858,None,None,,3553.743446800858,None,,,LVYAWEN,F,001,2023_Apr_18_1352,untitled,2021.1.4,60.05295483313384,
36,36,36,9,72,72,117,0.69,0.5,0.5,0.8,-0.3,-1.5,,stimuli/P_36_36_36_09.png,,,,,0,134,134,253,,,,,,,,,,,,,,,,,,,,,,,,,,,,3561.7402047012,None,3561.7402047012,None,3562.065285200253,None,3562.065285200253,None,50,3562.065285200253,None,return,2.861064100638032,3562.065285200253,None,,,LVYAWEN,F,001,2023_Apr_18_1352,untitled,2021.1.4,60.05295483313384,
36,18,18,36,54,54,108,0.83,0.33,0.67,0.33,0.33,0.5,,stimuli/P_36_18_18_36.png,,,,,0,135,135,235,,,,,,,,,,,,,,,,,,,,,,,,,,,,3564.939882701263,None,3564.939882701263,None,3565.275044100359,None,3565.275044100359,None,75,3565.275044100359,None,return,2.6116305999457836,3565.275044100359,None,,,LVYAWEN,F,001,2023_Apr_18_1352,untitled,2021.1.4,60.05295483313384,
36,0,36,0,36,72,72,1.0,0.0,1.0,1.0,0.0,None,,stimuli/P_36_00_36_00.png,,,,,0,136,136,204,,,,,,,,,,,,,,,,,,,,,,,,,,,,3567.9186754003167,None,3567.9186754003167,None,3568.2414343003184,None,3568.2414343003184,None,100,3568.2414343003184,None,return,1.6571185998618603,3568.2414343003184,None,,,LVYAWEN,F,001,2023_Apr_18_1352,untitled,2021.1.4,60.05295483313384,
9,36,0,18,45,9,63,0.43,0.8,0.2,0.0,0.2,0.2,,stimuli/P_09_36_00_18.png,,,,,0,137,137,114,,,,,,,,,,,,,,,,,,,,,,,,,,,,3569.9286508001387,None,3569.9286508001387,None,3570.270313700661,None,3570.270313700661,None,28,3570.270313700661,None,return,5.331181101500988,3570.270313700661,None,,,LVYAWEN,F,001,2023_Apr_18_1352,untitled,2021.1.4,60.05295483313384,
36,36,18,9,72,54,99,0.64,0.5,0.5,0.67,-0.17,-0.5,,stimuli/P_36_36_18_09.png,,,,,0,138,138,249,,,,,,,,,,,,,,,,,,,,,,,,,,,,3575.632981300354,None,3575.632981300354,None,3575.96562420018,None,3575.96562420018,None,50,3575.96562420018,None,return,1.817010398954153,3575.96562420018,None,,,LVYAWEN,F,001,2023_Apr_18_1352,untitled,2021.1.4,60.05295483313384,
36,9,18,0,45,54,63,0.86,0.2,0.8,1.0,-0.2,#NAME?,,stimuli/P_36_09_18_00.png,,,,,0,139,139,216,,,,,,,,,,,,,,,,,,,,,,,,,,,,3577.804825300351,None,3577.804825300351,None,3578.136085100472,None,3578.136085100472,None,80,3578.136085100472,None,return,4.437076000496745,3578.136085100472,None,,,LVYAWEN,F,001,2023_Apr_18_1352,untitled,2021.1.4,60.05295483313384,
36,0,36,36,36,72,108,1.0,0.0,1.0,0.5,0.5,1.0,,stimuli/P_36_00_36_36.png,,,,,0,140,140,207,,,,,,,,,,,,,,,,,,,,,,,,,,,,3582.591693099588,None,3582.591693099588,None,3582.914490699768,None,3582.914490699768,None,100,3582.914490699768,None,return,2.181163599714637,3582.914490699768,None,,,LVYAWEN,F,001,2023_Apr_18_1352,untitled,2021.1.4,60.05295483313384,
9,9,9,36,18,18,63,0.86,0.5,0.5,0.2,0.3,0.37,,stimuli/P_09_09_09_36.png,,,,,0,141,141,87,,,,,,,,,,,,,,,,,,,,,,,,,,,,3585.113568900153,None,3585.113568900153,None,3585.4467085003853,None,3585.4467085003853,None,50,3585.4467085003853,None,return,1.8500727992504835,3585.4467085003853,None,,,LVYAWEN,F,001,2023_Apr_18_1352,untitled,2021.1.4,60.05295483313384,
9,0,18,9,9,27,36,1.0,0.0,1.0,0.67,0.33,1.0,,stimuli/P_09_00_18_09.png,,,,,0,142,142,73,,,,,,,,,,,,,,,,,,,,,,,,,,,,3587.3157152999192,None,3587.3157152999192,None,3587.6499569006264,None,3587.6499569006264,None,100,3587.6499569006264,None,return,2.0915533993393183,3587.6499569006264,None,,,LVYAWEN,F,001,2023_Apr_18_1352,untitled,2021.1.4,60.05295483313384,
0,18,0,9,18,0,27,0.33,1.0,0.0,0.0,0.0,0.0,,stimuli/P_00_18_00_09.png,,,,,0,143,143,33,,,,,,,,,,,,,,,,,,,,,,,,,,,,3589.7547427006066,None,3589.7547427006066,None,3590.0780292004347,None,3590.0780292004347,None,0,3590.0780292004347,None,return,2.627795599400997,3590.0780292004347,None,,,LVYAWEN,F,001,2023_Apr_18_1352,untitled,2021.1.4,60.05295483313384,
36,18,36,0,54,72,90,0.8,0.33,0.67,1.0,-0.33,#NAME?,,stimuli/P_36_18_36_00.png,,,,,0,144,144,236,,,,,,,,,,,,,,,,,,,,,,,,,,,,3592.7189587000757,None,3592.7189587000757,None,3593.049463899806,None,3593.049463899806,None,75,3593.049463899806,None,return,4.667164400219917,3593.049463899806,None,,,LVYAWEN,F,001,2023_Apr_18_1352,untitled,2021.1.4,60.05295483313384,
9,0,36,0,9,45,45,1.0,0.0,1.0,1.0,0.0,None,,stimuli/P_09_00_36_00.png,,,,,0,145,145,76,,,,,,,,,,,,,,,,,,,,,,,,,,,,3597.7363026011735,None,3597.7363026011735,None,3598.0617852006108,None,3598.0617852006108,None,100,3598.0617852006108,None,return,1.9312692005187273,3598.0617852006108,None,,,LVYAWEN,F,001,2023_Apr_18_1352,untitled,2021.1.4,60.05295483313384,
36,0,36,18,36,72,90,1.0,0.0,1.0,0.67,0.33,1.0,,stimuli/P_36_00_36_18.png,,,,,0,146,146,206,,,,,,,,,,,,,,,,,,,,,,,,,,,,3600.019341399893,None,3600.019341399893,None,3600.347812499851,None,3600.347812499851,None,100,3600.347812499851,None,return,1.8364845998585224,3600.347812499851,None,,,LVYAWEN,F,001,2023_Apr_18_1352,untitled,2021.1.4,60.05295483313384,
0,9,36,36,9,36,81,0.89,1.0,0.0,0.5,-0.5,-1.0,,stimuli/P_00_09_36_36.png,,,,,0,147,147,31,,,,,,,,,,,,,,,,,,,,,,,,,,,,3602.2263134010136,None,3602.2263134010136,None,3602.548039700836,None,3602.548039700836,None,0,3602.548039700836,None,return,3.3219239991158247,3602.548039700836,None,,,LVYAWEN,F,001,2023_Apr_18_1352,untitled,2021.1.4,60.05295483313384,
18,36,9,36,54,27,99,0.64,0.67,0.33,0.2,0.13,0.17,,stimuli/P_18_36_09_36.png,,,,,0,148,148,183,,,,,,,,,,,,,,,,,,,,,,,,,,,,3605.8870836012065,None,3605.8870836012065,None,3606.2206068001688,None,3606.2206068001688,None,38,3606.2206068001688,None,return,4.397851999849081,3606.2206068001688,None,,,LVYAWEN,F,001,2023_Apr_18_1352,untitled,2021.1.4,60.05295483313384,
18,36,18,9,54,36,81,0.56,0.67,0.33,0.67,-0.33,-1.0,,stimuli/P_18_36_18_09.png,,,,,0,149,149,185,,,,,,,,,,,,,,,,,,,,,,,,,,,,3610.6503320001066,None,3610.6503320001066,None,3610.9773651007563,None,3610.9773651007563,None,35,3610.9773651007563,None,return,3.351273799315095,3610.9773651007563,None,,,LVYAWEN,F,001,2023_Apr_18_1352,untitled,2021.1.4,60.05295483313384,
9,18,18,36,27,27,81,0.78,0.67,0.33,0.33,0.0,0.0,,stimuli/P_09_18_18_36.png,,,,,0,150,150,107,,,,,,,,,,,,,,,,,,,,,,,,,,,,3614.358867701143,None,3614.358867701143,None,3614.6907269004732,None,3614.6907269004732,None,38,3614.6907269004732,None,return,3.90996210090816,3614.6907269004732,None,,,LVYAWEN,F,001,2023_Apr_18_1352,untitled,2021.1.4,60.05295483313384,
18,0,0,9,18,18,27,1.0,0.0,1.0,0.0,1.0,1.0,,stimuli/P_18_00_00_09.png,,,,,0,151,151,129,,,,,,,,,,,,,,,,,,,,,,,,,,,,3618.612661300227,None,3618.612661300227,None,3618.931225201115,None,3618.931225201115,None,100,3618.931225201115,None,return,1.5934143997728825,3618.931225201115,None,,,LVYAWEN,F,001,2023_Apr_18_1352,untitled,2021.1.4,60.05295483313384,
0,0,0,9,0,0,9,1.0,None,None,0.0,None,None,,stimuli/P_00_00_00_09.png,,,,,0,152,152,1,,,,,,,,,,,,,,,,,,,,,,,,,,,,3620.5455926004797,None,3620.5455926004797,None,3620.863718699664,None,3620.863718699664,None,0,3620.863718699664,None,return,1.5239750985056162,3620.863718699664,None,,,LVYAWEN,F,001,2023_Apr_18_1352,untitled,2021.1.4,60.05295483313384,
0,9,0,36,9,0,45,0.8,1.0,0.0,0.0,0.0,0.0,,stimuli/P_00_09_00_36.png,,,,,0,153,153,19,,,,,,,,,,,,,,,,,,,,,,,,,,,,3622.409039700404,None,3622.409039700404,None,3622.7476177010685,None,3622.7476177010685,None,0,3622.7476177010685,None,return,1.770566400140524,3622.7476177010685,None,,,LVYAWEN,F,001,2023_Apr_18_1352,untitled,2021.1.4,60.05295483313384,
0,9,0,18,9,0,27,0.67,1.0,0.0,0.0,0.0,0.0,,stimuli/P_00_09_00_18.png,,,,,0,154,154,18,,,,,,,,,,,,,,,,,,,,,,,,,,,,3624.532725200057,None,3624.532725200057,None,3624.8586887996644,None,3624.8586887996644,None,0,3624.8586887996644,None,return,0.9998225998133421,3624.8586887996644,None,,,LVYAWEN,F,001,2023_Apr_18_1352,untitled,2021.1.4,60.05295483313384,
0,18,36,36,18,36,90,0.8,1.0,0.0,0.5,-0.5,-1.0,,stimuli/P_00_18_36_36.png,,,,,0,155,155,47,,,,,,,,,,,,,,,,,,,,,,,,,,,,3625.8762992005795,None,3625.8762992005795,None,3626.2253517005593,None,3626.2253517005593,None,0,3626.2253517005593,None,return,2.3607625011354685,3626.2253517005593,None,,,LVYAWEN,F,001,2023_Apr_18_1352,untitled,2021.1.4,60.05295483313384,
36,36,36,18,72,72,126,0.71,0.5,0.5,0.67,-0.17,-0.5,,stimuli/P_36_36_36_18.png,,,,,0,156,156,254,,,,,,,,,,,,,,,,,,,,,,,,,,,,3628.609869901091,None,3628.609869901091,None,3628.9338176008314,None,3628.9338176008314,None,50,3628.9338176008314,None,return,1.8644303996115923,3628.9338176008314,None,,,LVYAWEN,F,001,2023_Apr_18_1352,untitled,2021.1.4,60.05295483313384,
36,9,9,36,45,45,90,0.9,0.2,0.8,0.2,0.6,0.75,,stimuli/P_36_09_09_36.png,,,,,0,157,157,215,,,,,,,,,,,,,,,,,,,,,,,,,,,,3630.813170200214,None,3630.813170200214,None,3631.1421931013465,None,3631.1421931013465,None,85,3631.1421931013465,None,return,6.562864499166608,3631.1421931013465,None,,,LVYAWEN,F,001,2023_Apr_18_1352,untitled,2021.1.4,60.05295483313384,
18,0,0,0,18,18,18,1.0,0.0,1.0,None,None,None,,stimuli/P_18_00_00_00.png,,,,,0,158,158,128,,,,,,,,,,,,,,,,,,,,,,,,,,,,3637.719307700172,None,3637.719307700172,None,3638.043435400352,None,3638.043435400352,None,100,3638.043435400352,None,return,2.6757603008300066,3638.043435400352,None,,,LVYAWEN,F,001,2023_Apr_18_1352,untitled,2021.1.4,60.05295483313384,
18,9,9,18,27,27,54,0.83,0.33,0.67,0.33,0.33,0.5,,stimuli/P_18_09_09_18.png,,,,,0,159,159,150,,,,,,,,,,,,,,,,,,,,,,,,,,,,3640.74562860094,None,3640.74562860094,None,3641.076003201306,None,3641.076003201306,None,75,3641.076003201306,None,return,3.5570794008672237,3641.076003201306,None,,,LVYAWEN,F,001,2023_Apr_18_1352,untitled,2021.1.4,60.05295483313384,
18,0,18,0,18,36,36,1.0,0.0,1.0,1.0,0.0,None,,stimuli/P_18_00_18_00.png,,,,,0,160,160,136,,,,,,,,,,,,,,,,,,,,,,,,,,,,3644.656538700685,None,3644.656538700685,None,3644.9759366996586,None,3644.9759366996586,None,100,3644.9759366996586,None,return,2.359537299722433,3644.9759366996586,None,,,LVYAWEN,F,001,2023_Apr_18_1352,untitled,2021.1.4,60.05295483313384,
36,18,18,9,54,54,81,0.78,0.33,0.67,0.67,0.0,0.0,,stimuli/P_36_18_18_09.png,,,,,0,161,161,233,,,,,,,,,,,,,,,,,,,,,,,,,,,,3647.3652047999203,None,3647.3652047999203,None,3647.6891526002437,None,3647.6891526002437,None,75,3647.6891526002437,None,return,3.886353300884366,3647.6891526002437,None,,,LVYAWEN,F,001,2023_Apr_18_1352,untitled,2021.1.4,60.05295483313384,
9,18,36,36,27,45,99,0.82,0.67,0.33,0.5,-0.17,-0.33,,stimuli/P_09_18_36_36.png,,,,,0,162,162,111,,,,,,,,,,,,,,,,,,,,,,,,,,,,3651.6014511007816,None,3651.6014511007816,None,3651.932655500248,None,3651.932655500248,None,30,3651.932655500248,None,return,4.976697700098157,3651.932655500248,None,,,LVYAWEN,F,001,2023_Apr_18_1352,untitled,2021.1.4,60.05295483313384,
18,18,36,36,36,54,108,0.83,0.5,0.5,0.5,0.0,0.0,,stimuli/P_18_18_36_36.png,,,,,0,163,163,175,,,,,,,,,,,,,,,,,,,,,,,,,,,,3656.9379208013415,None,3656.9379208013415,None,3657.2596560008824,None,3657.2596560008824,None,50,3657.2596560008824,None,return,2.1564763002097607,3657.2596560008824,None,,,LVYAWEN,F,001,2023_Apr_18_1352,untitled,2021.1.4,60.05295483313384,
18,18,0,18,36,18,54,0.67,0.5,0.5,0.0,0.5,0.5,,stimuli/P_18_18_00_18.png,,,,,0,164,164,162,,,,,,,,,,,,,,,,,,,,,,,,,,,,3659.448480799794,None,3659.448480799794,None,3659.780915699899,None,3659.780915699899,None,50,3659.780915699899,None,return,4.6685929000377655,3659.780915699899,None,,,LVYAWEN,F,001,2023_Apr_18_1352,untitled,2021.1.4,60.05295483313384,
9,0,9,9,9,18,27,1.0,0.0,1.0,0.5,0.5,1.0,,stimuli/P_09_00_09_09.png,,,,,0,165,165,69,,,,,,,,,,,,,,,,,,,,,,,,,,,,3664.463545801118,None,3664.463545801118,None,3664.787256700918,None,3664.787256700918,None,100,3664.787256700918,None,return,4.457648700103164,3664.787256700918,None,,,LVYAWEN,F,001,2023_Apr_18_1352,untitled,2021.1.4,60.05295483313384,
9,36,9,36,45,18,90,0.6,0.8,0.2,0.2,0.0,0.0,,stimuli/P_09_36_09_36.png,,,,,0,166,166,119,,,,,,,,,,,,,,,,,,,,,,,,,,,,3669.2629502005875,None,3669.2629502005875,None,3669.596733201295,None,3669.596733201295,None,35,3669.596733201295,None,None,,3669.596733201295,None,,,LVYAWEN,F,001,2023_Apr_18_1352,untitled,2021.1.4,60.05295483313384,
9,18,0,9,27,9,36,0.5,0.67,0.33,0.0,0.33,0.33,,stimuli/P_09_18_00_09.png,,,,,0,167,167,97,,,,,,,,,,,,,,,,,,,,,,,,,,,,3677.6112144999206,None,3677.6112144999206,None,3677.9406615011394,None,3677.9406615011394,None,35,3677.9406615011394,None,return,6.969568299129605,3677.9406615011394,None,,,LVYAWEN,F,001,2023_Apr_18_1352,untitled,2021.1.4,60.05295483313384,
18,9,0,18,27,18,45,0.8,0.33,0.67,0.0,0.67,0.67,,stimuli/P_18_09_00_18.png,,,,,0,168,168,146,,,,,,,,,,,,,,,,,,,,,,,,,,,,3684.927033100277,None,3684.927033100277,None,3685.260825101286,None,3685.260825101286,None,65,3685.260825101286,None,return,4.383765898644924,3685.260825101286,None,,,LVYAWEN,F,001,2023_Apr_18_1352,untitled,2021.1.4,60.05295483313384,
18,18,9,9,36,27,54,0.67,0.5,0.5,0.5,0.0,0.0,,stimuli/P_18_18_09_09.png,,,,,0,169,169,165,,,,,,,,,,,,,,,,,,,,,,,,,,,,3689.660682199523,None,3689.660682199523,None,3689.987865800038,None,3689.987865800038,None,50,3689.987865800038,None,return,2.0946881007403135,3689.987865800038,None,,,LVYAWEN,F,001,2023_Apr_18_1352,untitled,2021.1.4,60.05295483313384,
9,9,18,36,18,27,72,0.88,0.5,0.5,0.33,0.17,0.25,,stimuli/P_09_09_18_36.png,,,,,0,170,170,91,,,,,,,,,,,,,,,,,,,,,,,,,,,,3692.100870201364,None,3692.100870201364,None,3692.436345299706,None,3692.436345299706,None,50,3692.436345299706,None,return,1.4605156015604734,3692.436345299706,None,,,LVYAWEN,F,001,2023_Apr_18_1352,untitled,2021.1.4,60.05295483313384,
18,36,36,36,54,54,126,0.71,0.67,0.33,0.5,-0.17,-0.33,,stimuli/P_18_36_36_36.png,,,,,0,171,171,191,,,,,,,,,,,,,,,,,,,,,,,,,,,,3693.921317599714,None,3693.921317599714,None,3694.2660501003265,None,3694.2660501003265,None,40,3694.2660501003265,None,return,7.585031701251864,3694.2660501003265,None,,,LVYAWEN,F,001,2023_Apr_18_1352,untitled,2021.1.4,60.05295483313384,
18,36,18,0,54,36,72,0.5,0.67,0.33,1.0,-0.67,#NAME?,,stimuli/P_18_36_18_00.png,,,,,0,172,172,184,,,,,,,,,,,,,,,,,,,,,,,,,,,,3701.883000301197,None,3701.883000301197,None,3702.211902100593,None,3702.211902100593,None,35,3702.211902100593,None,return,3.659484099596739,3702.211902100593,None,,,LVYAWEN,F,001,2023_Apr_18_1352,untitled,2021.1.4,60.05295483313384,
18,9,9,0,27,27,36,0.75,0.33,0.67,1.0,-0.33,#NAME?,,stimuli/P_18_09_09_00.png,,,,,0,173,173,148,,,,,,,,,,,,,,,,,,,,,,,,,,,,3705.9000864010304,None,3705.9000864010304,None,3706.230456000194,None,3706.230456000194,None,68,3706.230456000194,None,return,5.325889699161053,3706.230456000194,None,,,LVYAWEN,F,001,2023_Apr_18_1352,untitled,2021.1.4,60.05295483313384,
0,36,36,0,36,36,72,0.5,1.0,0.0,1.0,-1.0,#NAME?,,stimuli/P_00_36_36_00.png,,,,,0,174,174,60,,,,,,,,,,,,,,,,,,,,,,,,,,,,3711.574131499976,None,3711.574131499976,None,3711.8966275006533,None,3711.8966275006533,None,0,3711.8966275006533,None,return,1.271841399371624,3711.8966275006533,None,,,LVYAWEN,F,001,2023_Apr_18_1352,untitled,2021.1.4,60.05295483313384,
0,0,18,18,0,18,36,1.0,None,None,0.5,None,None,,stimuli/P_00_00_18_18.png,,,,,0,175,175,10,,,,,,,,,,,,,,,,,,,,,,,,,,,,3713.1948474999517,None,3713.1948474999517,None,3713.5241510998458,None,3713.5241510998458,None,0,3713.5241510998458,None,return,1.2606437988579273,3713.5241510998458,None,,,LVYAWEN,F,001,2023_Apr_18_1352,untitled,2021.1.4,60.05295483313384,
9,0,18,0,9,27,27,1.0,0.0,1.0,1.0,0.0,None,,stimuli/P_09_00_18_00.png,,,,,0,176,176,72,,,,,,,,,,,,,,,,,,,,,,,,,,,,3714.794429600239,None,3714.794429600239,None,3715.117222400382,None,3715.117222400382,None,100,3715.117222400382,None,return,1.846518600359559,3715.117222400382,None,,,LVYAWEN,F,001,2023_Apr_18_1352,untitled,2021.1.4,60.05295483313384,
0,9,18,18,9,18,45,0.8,1.0,0.0,0.5,-0.5,-1.0,,stimuli/P_00_09_18_18.png,,,,,0,177,177,26,,,,,,,,,,,,,,,,,,,,,,,,,,,,3716.9894377999008,None,3716.9894377999008,None,3717.3216456007212,None,3717.3216456007212,None,0,3717.3216456007212,None,return,1.1806227006018162,3717.3216456007212,None,,,LVYAWEN,F,001,2023_Apr_18_1352,untitled,2021.1.4,60.05295483313384,
9,9,36,9,18,45,63,0.86,0.5,0.5,0.8,-0.3,-1.5,,stimuli/P_09_09_36_09.png,,,,,0,178,178,93,,,,,,,,,,,,,,,,,,,,,,,,,,,,3718.5307421013713,None,3718.5307421013713,None,3718.853558300063,None,3718.853558300063,None,50,3718.853558300063,None,return,1.9580194000154734,3718.853558300063,None,,,LVYAWEN,F,001,2023_Apr_18_1352,untitled,2021.1.4,60.05295483313384,
36,36,0,36,72,36,108,0.67,0.5,0.5,0.0,0.5,0.5,,stimuli/P_36_36_00_36.png,,,,,0,179,179,243,,,,,,,,,,,,,,,,,,,,,,,,,,,,3720.846295300871,None,3720.846295300871,None,3721.1772801000625,None,3721.1772801000625,None,50,3721.1772801000625,None,return,1.5980191994458437,3721.1772801000625,None,,,LVYAWEN,F,001,2023_Apr_18_1352,untitled,2021.1.4,60.05295483313384,
0,36,18,0,36,18,54,0.33,1.0,0.0,1.0,-1.0,#NAME?,,stimuli/P_00_36_18_00.png,,,,,0,180,180,56,,,,,,,,,,,,,,,,,,,,,,,,,,,,3722.797982700169,None,3722.797982700169,None,3723.1275385003537,None,3723.1275385003537,None,0,3723.1275385003537,None,return,2.0518376007676125,3723.1275385003537,None,,,LVYAWEN,F,001,2023_Apr_18_1352,untitled,2021.1.4,60.05295483313384,
36,0,9,9,36,45,54,1.0,0.0,1.0,0.5,0.5,1.0,,stimuli/P_36_00_09_09.png,,,,,0,181,181,197,,,,,,,,,,,,,,,,,,,,,,,,,,,,3725.1966552995145,None,3725.1966552995145,None,3725.5201612003148,None,3725.5201612003148,None,100,3725.5201612003148,None,return,1.7117298003286123,3725.5201612003148,None,,,LVYAWEN,F,001,2023_Apr_18_1352,untitled,2021.1.4,60.05295483313384,
9,0,0,9,9,9,18,1.0,0.0,1.0,0.0,1.0,1.0,,stimuli/P_09_00_00_09.png,,,,,0,182,182,65,,,,,,,,,,,,,,,,,,,,,,,,,,,,3727.2474371008575,None,3727.2474371008575,None,3727.574714800343,None,3727.574714800343,None,100,3727.574714800343,None,return,2.025671200826764,3727.574714800343,None,,,LVYAWEN,F,001,2023_Apr_18_1352,untitled,2021.1.4,60.05295483313384,
18,9,0,9,27,18,36,0.75,0.33,0.67,0.0,0.67,0.67,,stimuli/P_18_09_00_09.png,,,,,0,183,183,145,,,,,,,,,,,,,,,,,,,,,,,,,,,,3729.6258022002876,None,3729.6258022002876,None,3729.949424300343,None,3729.949424300343,None,75,3729.949424300343,None,return,3.153805399313569,3729.949424300343,None,,,LVYAWEN,F,001,2023_Apr_18_1352,untitled,2021.1.4,60.05295483313384,
9,9,9,0,18,18,27,0.67,0.5,0.5,1.0,-0.5,#NAME?,,stimuli/P_09_09_09_00.png,,,,,0,184,184,84,,,,,,,,,,,,,,,,,,,,,,,,,,,,3733.1225733999163,None,3733.1225733999163,None,3733.454855300486,None,3733.454855300486,None,50,3733.454855300486,None,return,1.6222203988581896,3733.454855300486,None,,,LVYAWEN,F,001,2023_Apr_18_1352,untitled,2021.1.4,60.05295483313384,
0,18,0,18,18,0,36,0.5,1.0,0.0,0.0,0.0,0.0,,stimuli/P_00_18_00_18.png,,,,,0,185,185,34,,,,,,,,,,,,,,,,,,,,,,,,,,,,3735.0902855005115,None,3735.0902855005115,None,3735.409607499838,None,3735.409607499838,None,0,3735.409607499838,None,return,1.6093467008322477,3735.409607499838,None,,,LVYAWEN,F,001,2023_Apr_18_1352,untitled,2021.1.4,60.05295483313384,
18,0,18,9,18,36,45,1.0,0.0,1.0,0.67,0.33,1.0,,stimuli/P_18_00_18_09.png,,,,,0,186,186,137,,,,,,,,,,,,,,,,,,,,,,,,,,,,3737.0509562995285,None,3737.0509562995285,None,3737.3829072006047,None,3737.3829072006047,None,100,3737.3829072006047,None,return,1.4817327000200748,3737.3829072006047,None,,,LVYAWEN,F,001,2023_Apr_18_1352,untitled,2021.1.4,60.05295483313384,
0,18,9,36,18,9,63,0.71,1.0,0.0,0.2,-0.2,-0.25,,stimuli/P_00_18_09_36.png,,,,,0,187,187,39,,,,,,,,,,,,,,,,,,,,,,,,,,,,3738.8940695002675,None,3738.8940695002675,None,3739.2172977998853,None,3739.2172977998853,None,0,3739.2172977998853,None,return,1.0733300000429153,3739.2172977998853,None,,,LVYAWEN,F,001,2023_Apr_18_1352,untitled,2021.1.4,60.05295483313384,
0,0,9,0,0,9,9,1.0,None,None,1.0,None,None,,stimuli/P_00_00_09_00.png,,,,,0,188,188,4,,,,,,,,,,,,,,,,,,,,,,,,,,,,3740.307439500466,None,3740.307439500466,None,3740.649975100532,None,3740.649975100532,None,0,3740.649975100532,None,return,1.262083400040865,3740.649975100532,None,,,LVYAWEN,F,001,2023_Apr_18_1352,untitled,2021.1.4,60.05295483313384,
0,18,18,9,18,18,45,0.6,1.0,0.0,0.67,-0.67,-2.0,,stimuli/P_00_18_18_09.png,,,,,0,189,189,41,,,,,,,,,,,,,,,,,,,,,,,,,,,,3741.9345369003713,None,3741.9345369003713,None,3742.272485099733,None,3742.272485099733,None,0,3742.272485099733,None,return,2.653975699096918,3742.272485099733,None,,,LVYAWEN,F,001,2023_Apr_18_1352,untitled,2021.1.4,60.05295483313384,
0,18,9,0,18,9,27,0.33,1.0,0.0,1.0,-1.0,#NAME?,,stimuli/P_00_18_09_00.png,,,,,0,190,190,36,,,,,,,,,,,,,,,,,,,,,,,,,,,,3744.940171400085,None,3744.940171400085,None,3745.2619372997433,None,3745.2619372997433,None,0,3745.2619372997433,None,return,0.9847001992166042,3745.2619372997433,None,,,LVYAWEN,F,001,2023_Apr_18_1352,untitled,2021.1.4,60.05295483313384,
36,18,9,0,54,45,63,0.71,0.33,0.67,1.0,-0.33,#NAME?,,stimuli/P_36_18_09_00.png,,,,,0,191,191,228,,,,,,,,,,,,,,,,,,,,,,,,,,,,3746.271745800972,None,3746.271745800972,None,3746.602224100381,None,3746.602224100381,None,75,3746.602224100381,None,return,5.895443599671125,3746.602224100381,None,,,LVYAWEN,F,001,2023_Apr_18_1352,untitled,2021.1.4,60.05295483313384,
36,0,9,18,36,45,63,1.0,0.0,1.0,0.33,0.67,1.0,,stimuli/P_36_00_09_18.png,,,,,0,192,192,198,,,,,,,,,,,,,,,,,,,,,,,,,,,,3752.514913501218,None,3752.514913501218,None,3752.8385234996676,None,3752.8385234996676,None,100,3752.8385234996676,None,return,3.753024300560355,3752.8385234996676,None,,,LVYAWEN,F,001,2023_Apr_18_1352,untitled,2021.1.4,60.05295483313384,
0,36,0,0,36,0,36,0.0,1.0,0.0,None,None,None,,stimuli/P_00_36_00_00.png,,,,,0,193,193,48,,,,,,,,,,,,,,,,,,,,,,,,,,,,3756.60647550039,None,3756.60647550039,None,3756.9322485998273,None,3756.9322485998273,None,0,3756.9322485998273,None,return,1.5372605007141829,3756.9322485998273,None,,,LVYAWEN,F,001,2023_Apr_18_1352,untitled,2021.1.4,60.05295483313384,
0,18,36,0,18,36,54,0.67,1.0,0.0,1.0,-1.0,#NAME?,,stimuli/P_00_18_36_00.png,,,,,0,194,194,44,,,,,,,,,,,,,,,,,,,,,,,,,,,,3758.496756900102,None,3758.496756900102,None,3758.8197064008564,None,3758.8197064008564,None,0,3758.8197064008564,None,return,0.9374681003391743,3758.8197064008564,None,,,LVYAWEN,F,001,2023_Apr_18_1352,untitled,2021.1.4,60.05295483313384,
9,18,18,18,27,27,63,0.71,0.67,0.33,0.5,-0.17,-0.33,,stimuli/P_09_18_18_18.png,,,,,0,195,195,106,,,,,,,,,,,,,,,,,,,,,,,,,,,,3759.7697759009898,None,3759.7697759009898,None,3760.102662000805,None,3760.102662000805,None,35,3760.102662000805,None,return,5.604789100587368,3760.102662000805,None,,,LVYAWEN,F,001,2023_Apr_18_1352,untitled,2021.1.4,60.05295483313384,
36,0,18,36,36,54,90,1.0,0.0,1.0,0.33,0.67,1.0,,stimuli/P_36_00_18_36.png,,,,,0,196,196,203,,,,,,,,,,,,,,,,,,,,,,,,,,,,3765.7365634012967,None,3765.7365634012967,None,3766.0599846001714,None,3766.0599846001714,None,100,3766.0599846001714,None,return,2.0734583009034395,3766.0599846001714,None,,,LVYAWEN,F,001,2023_Apr_18_1352,untitled,2021.1.4,60.05295483313384,
9,9,0,0,18,9,18,0.5,0.5,0.5,None,None,None,,stimuli/P_09_09_00_00.png,,,,,0,197,197,80,,,,,,,,,,,,,,,,,,,,,,,,,,,,3768.167435500771,None,3768.167435500771,None,3768.5006042998284,None,3768.5006042998284,None,50,3768.5006042998284,None,return,2.4599830005317926,3768.5006042998284,None,,,LVYAWEN,F,001,2023_Apr_18_1352,untitled,2021.1.4,60.05295483313384,
18,18,18,36,36,36,90,0.8,0.5,0.5,0.33,0.17,0.25,,stimuli/P_18_18_18_36.png,,,,,0,198,198,171,,,,,,,,,,,,,,,,,,,,,,,,,,,,3770.9823567997664,None,3770.9823567997664,None,3771.3141895011067,None,3771.3141895011067,None,50,3771.3141895011067,None,return,1.5993440002202988,3771.3141895011067,None,,,LVYAWEN,F,001,2023_Apr_18_1352,untitled,2021.1.4,60.05295483313384,
18,0,9,36,18,27,63,1.0,0.0,1.0,0.2,0.8,1.0,,stimuli/P_18_00_09_36.png,,,,,0,199,199,135,,,,,,,,,,,,,,,,,,,,,,,,,,,,3772.9316728003323,None,3772.9316728003323,None,3773.260745100677,None,3773.260745100677,None,100,3773.260745100677,None,return,2.3024259004741907,3773.260745100677,None,,,LVYAWEN,F,001,2023_Apr_18_1352,untitled,2021.1.4,60.05295483313384,
0,18,0,0,18,0,18,0.0,1.0,0.0,None,None,None,,stimuli/P_00_18_00_00.png,,,,,0,200,200,32,,,,,,,,,,,,,,,,,,,,,,,,,,,,3775.5848974995315,None,3775.5848974995315,None,3775.913134900853,None,3775.913134900853,None,0,3775.913134900853,None,return,2.2568161003291607,3775.913134900853,None,,,LVYAWEN,F,001,2023_Apr_18_1352,untitled,2021.1.4,60.05295483313384,
9,9,36,18,18,45,72,0.88,0.5,0.5,0.67,-0.17,-0.5,,stimuli/P_09_09_36_18.png,,,,,0,201,201,94,,,,,,,,,,,,,,,,,,,,,,,,,,,,3778.208353901282,None,3778.208353901282,None,3778.535178501159,None,3778.535178501159,None,50,3778.535178501159,None,return,1.8457550015300512,3778.535178501159,None,,,LVYAWEN,F,001,2023_Apr_18_1352,untitled,2021.1.4,60.05295483313384,
0,18,9,18,18,9,45,0.6,1.0,0.0,0.33,-0.33,-0.5,,stimuli/P_00_18_09_18.png,,,,,0,202,202,38,,,,,,,,,,,,,,,,,,,,,,,,,,,,3780.40819090046,None,3780.40819090046,None,3780.7386857010424,None,3780.7386857010424,None,0,3780.7386857010424,None,return,1.7819230984896421,3780.7386857010424,None,,,LVYAWEN,F,001,2023_Apr_18_1352,untitled,2021.1.4,60.05295483313384,
9,18,18,0,27,27,45,0.6,0.67,0.33,1.0,-0.67,#NAME?,,stimuli/P_09_18_18_00.png,,,,,0,203,203,104,,,,,,,,,,,,,,,,,,,,,,,,,,,,3782.541769500822,None,3782.541769500822,None,3782.8650765009224,None,3782.8650765009224,None,45,3782.8650765009224,None,return,5.903996299952269,3782.8650765009224,None,,,LVYAWEN,F,001,2023_Apr_18_1352,untitled,2021.1.4,60.05295483313384,
36,36,9,0,72,45,81,0.56,0.5,0.5,1.0,-0.5,#NAME?,,stimuli/P_36_36_09_00.png,,,,,0,204,204,244,,,,,,,,,,,,,,,,,,,,,,,,,,,,3788.796674700454,None,3788.796674700454,None,3789.126174300909,None,3789.126174300909,None,50,3789.126174300909,None,return,1.7072672005742788,3789.126174300909,None,,,LVYAWEN,F,001,2023_Apr_18_1352,untitled,2021.1.4,60.05295483313384,
9,36,9,18,45,18,72,0.5,0.8,0.2,0.33,-0.13,-0.2,,stimuli/P_09_36_09_18.png,,,,,0,205,205,118,,,,,,,,,,,,,,,,,,,,,,,,,,,,3790.865464100614,None,3790.865464100614,None,3791.190843800083,None,3791.190843800083,None,30,3791.190843800083,None,return,6.079723101109266,3791.190843800083,None,,,LVYAWEN,F,001,2023_Apr_18_1352,untitled,2021.1.4,60.05295483313384,
36,0,0,18,36,36,54,1.0,0.0,1.0,0.0,1.0,1.0,,stimuli/P_36_00_00_18.png,,,,,0,206,206,194,,,,,,,,,,,,,,,,,,,,,,,,,,,,3797.290979200974,None,3797.290979200974,None,3797.625455399975,None,3797.625455399975,None,100,3797.625455399975,None,return,1.6648516990244389,3797.625455399975,None,,,LVYAWEN,F,001,2023_Apr_18_1352,untitled,2021.1.4,60.05295483313384,
0,18,36,18,18,36,72,0.75,1.0,0.0,0.67,-0.67,-2.0,,stimuli/P_00_18_36_18.png,,,,,0,207,207,46,,,,,,,,,,,,,,,,,,,,,,,,,,,,3799.320660300553,None,3799.320660300553,None,3799.6534243002534,None,3799.6534243002534,None,0,3799.6534243002534,None,return,2.8421430997550488,3799.6534243002534,None,,,LVYAWEN,F,001,2023_Apr_18_1352,untitled,2021.1.4,60.05295483313384,
0,9,9,36,9,9,54,0.83,1.0,0.0,0.2,-0.2,-0.25,,stimuli/P_00_09_09_36.png,,,,,0,208,208,23,,,,,,,,,,,,,,,,,,,,,,,,,,,,3802.5167107004672,None,3802.5167107004672,None,3802.8415470011532,None,3802.8415470011532,None,0,3802.8415470011532,None,return,1.0612067002803087,3802.8415470011532,None,,,LVYAWEN,F,001,2023_Apr_18_1352,untitled,2021.1.4,60.05295483313384,
18,18,9,36,36,27,81,0.78,0.5,0.5,0.2,0.3,0.37,,stimuli/P_18_18_09_36.png,,,,,0,209,209,167,,,,,,,,,,,,,,,,,,,,,,,,,,,,3803.9216064009815,None,3803.9216064009815,None,3804.2532970998436,None,3804.2532970998436,None,50,3804.2532970998436,None,return,1.932846300303936,3804.2532970998436,None,,,LVYAWEN,F,001,2023_Apr_18_1352,untitled,2021.1.4,60.05295483313384,
18,36,18,36,54,36,108,0.67,0.67,0.33,0.33,0.0,0.0,,stimuli/P_18_36_18_36.png,,,,,0,210,210,187,,,,,,,,,,,,,,,,,,,,,,,,,,,,3806.205826200545,None,3806.205826200545,None,3806.5286461003125,None,3806.5286461003125,None,35,3806.5286461003125,None,return,7.953931100666523,3806.5286461003125,None,,,LVYAWEN,F,001,2023_Apr_18_1352,untitled,2021.1.4,60.05295483313384,
9,36,36,36,45,45,117,0.69,0.8,0.2,0.5,-0.3,-0.6,,stimuli/P_09_36_36_36.png,,,,,0,211,211,127,,,,,,,,,,,,,,,,,,,,,,,,,,,,3814.5027890000492,None,3814.5027890000492,None,3814.8418351002038,None,3814.8418351002038,None,30,3814.8418351002038,None,return,6.3750714007765055,3814.8418351002038,None,,,LVYAWEN,F,001,2023_Apr_18_1352,untitled,2021.1.4,60.05295483313384,
9,18,9,0,27,18,36,0.5,0.67,0.33,1.0,-0.67,#NAME?,,stimuli/P_09_18_09_00.png,,,,,0,212,212,100,,,,,,,,,,,,,,,,,,,,,,,,,,,,3821.246088400483,None,3821.246088400483,None,3821.5749354995787,None,3821.5749354995787,None,37,3821.5749354995787,None,return,5.83881519921124,3821.5749354995787,None,,,LVYAWEN,F,001,2023_Apr_18_1352,untitled,2021.1.4,60.05295483313384,
9,18,9,18,27,18,54,0.67,0.67,0.33,0.33,0.0,0.0,,stimuli/P_09_18_09_18.png,,,,,0,213,213,102,,,,,,,,,,,,,,,,,,,,,,,,,,,,3827.4341570008546,None,3827.4341570008546,None,3827.765889899805,None,3827.765889899805,None,40,3827.765889899805,None,return,3.1862139999866486,3827.765889899805,None,,,LVYAWEN,F,001,2023_Apr_18_1352,untitled,2021.1.4,60.05295483313384,
18,18,36,0,36,54,72,0.75,0.5,0.5,1.0,-0.5,#NAME?,,stimuli/P_18_18_36_00.png,,,,,0,214,214,172,,,,,,,,,,,,,,,,,,,,,,,,,,,,3830.988981699571,None,3830.988981699571,None,3831.314686400816,None,3831.314686400816,None,50,3831.314686400816,None,return,1.4415605999529362,3831.314686400816,None,,,LVYAWEN,F,001,2023_Apr_18_1352,untitled,2021.1.4,60.05295483313384,
0,18,9,9,18,9,36,0.5,1.0,0.0,0.5,-0.5,-1.0,,stimuli/P_00_18_09_09.png,,,,,0,215,215,37,,,,,,,,,,,,,,,,,,,,,,,,,,,,3832.7879179008305,None,3832.7879179008305,None,3833.123137500137,None,3833.123137500137,None,0,3833.123137500137,None,return,1.5229729991406202,3833.123137500137,None,,,LVYAWEN,F,001,2023_Apr_18_1352,untitled,2021.1.4,60.05295483313384,
18,9,36,36,27,54,99,0.91,0.33,0.67,0.5,0.17,0.33,,stimuli/P_18_09_36_36.png,,,,,0,216,216,159,,,,,,,,,,,,,,,,,,,,,,,,,,,,3834.673255600035,None,3834.673255600035,None,3835.0154960006475,None,3835.0154960006475,None,78,3835.0154960006475,None,return,3.5156977009028196,3835.0154960006475,None,,,LVYAWEN,F,001,2023_Apr_18_1352,untitled,2021.1.4,60.05295483313384,
9,36,36,0,45,45,81,0.56,0.8,0.2,1.0,-0.8,#NAME?,,stimuli/P_09_36_36_00.png,,,,,0,217,217,124,,,,,,,,,,,,,,,,,,,,,,,,,,,,3838.560822499916,None,3838.560822499916,None,3838.886175200343,None,3838.886175200343,None,28,3838.886175200343,None,return,4.411754500120878,3838.886175200343,None,,,LVYAWEN,F,001,2023_Apr_18_1352,untitled,2021.1.4,60.05295483313384,
9,36,18,36,45,27,99,0.64,0.8,0.2,0.33,-0.13,-0.2,,stimuli/P_09_36_18_36.png,,,,,0,218,218,123,,,,,,,,,,,,,,,,,,,,,,,,,,,,3843.3371603004634,None,3843.3371603004634,None,3843.680852200836,None,3843.680852200836,None,30,3843.680852200836,None,return,3.262952499091625,3843.680852200836,None,,,LVYAWEN,F,001,2023_Apr_18_1352,untitled,2021.1.4,60.05295483313384,
0,0,18,0,0,18,18,1.0,None,None,1.0,None,None,,stimuli/P_00_00_18_00.png,,,,,0,219,219,8,,,,,,,,,,,,,,,,,,,,,,,,,,,,3846.9642380010337,None,3846.9642380010337,None,3847.2945416010916,None,3847.2945416010916,None,0,3847.2945416010916,None,return,1.0741206016391516,3847.2945416010916,None,,,LVYAWEN,F,001,2023_Apr_18_1352,untitled,2021.1.4,60.05295483313384,
0,0,36,9,0,36,45,1.0,None,None,0.8,None,None,,stimuli/P_00_00_36_09.png,,,,,0,220,220,13,,,,,,,,,,,,,,,,,,,,,,,,,,,,3848.3866847008467,None,3848.3866847008467,None,3848.721429400146,None,3848.721429400146,None,0,3848.721429400146,None,return,0.9301990997046232,3848.721429400146,None,,,LVYAWEN,F,001,2023_Apr_18_1352,untitled,2021.1.4,60.05295483313384,
0,9,9,18,9,9,36,0.75,1.0,0.0,0.33,-0.33,-0.5,,stimuli/P_00_09_09_18.png,,,,,0,221,221,22,,,,,,,,,,,,,,,,,,,,,,,,,,,,3849.679153099656,None,3849.679153099656,None,3850.001151399687,None,3850.001151399687,None,0,3850.001151399687,None,return,1.08746749907732,3850.001151399687,None,,,LVYAWEN,F,001,2023_Apr_18_1352,untitled,2021.1.4,60.05295483313384,
0,0,9,9,0,9,18,1.0,None,None,0.5,None,None,,stimuli/P_00_00_09_09.png,,,,,0,222,222,5,,,,,,,,,,,,,,,,,,,,,,,,,,,,3851.107556499541,None,3851.107556499541,None,3851.438719600439,None,3851.438719600439,None,0,3851.438719600439,None,return,0.8913171999156475,3851.438719600439,None,,,LVYAWEN,F,001,2023_Apr_18_1352,untitled,2021.1.4,60.05295483313384,
9,36,18,9,45,27,72,0.5,0.8,0.2,0.67,-0.47,-1.4,,stimuli/P_09_36_18_09.png,,,,,0,223,223,121,,,,,,,,,,,,,,,,,,,,,,,,,,,,3852.352088101208,None,3852.352088101208,None,3852.6797097995877,None,3852.6797097995877,None,25,3852.6797097995877,None,return,5.0912580993026495,3852.6797097995877,None,,,LVYAWEN,F,001,2023_Apr_18_1352,untitled,2021.1.4,60.05295483313384,
36,9,18,9,45,54,72,0.88,0.2,0.8,0.67,0.13,0.4,,stimuli/P_36_09_18_09.png,,,,,0,224,224,217,,,,,,,,,,,,,,,,,,,,,,,,,,,,3857.784637199715,None,3857.784637199715,None,3858.1139644011855,None,3858.1139644011855,None,75,3858.1139644011855,None,return,4.745468599721789,3858.1139644011855,None,,,LVYAWEN,F,001,2023_Apr_18_1352,untitled,2021.1.4,60.05295483313384,
0,0,9,36,0,9,45,1.0,None,None,0.2,None,None,,stimuli/P_00_00_09_36.png,,,,,0,225,225,7,,,,,,,,,,,,,,,,,,,,,,,,,,,,3862.8969256002456,None,3862.8969256002456,None,3863.228192601353,None,3863.228192601353,None,0,3863.228192601353,None,return,1.1985677983611822,3863.228192601353,None,,,LVYAWEN,F,001,2023_Apr_18_1352,untitled,2021.1.4,60.05295483313384,
36,18,0,0,54,36,54,0.67,0.33,0.67,None,None,None,,stimuli/P_36_18_00_00.png,,,,,0,226,226,224,,,,,,,,,,,,,,,,,,,,,,,,,,,,3864.4406375009567,None,3864.4406375009567,None,3864.7643002998084,None,3864.7643002998084,None,65,3864.7643002998084,None,return,4.096041299402714,3864.7643002998084,None,,,LVYAWEN,F,001,2023_Apr_18_1352,untitled,2021.1.4,60.05295483313384,
0,36,36,18,36,36,90,0.6,1.0,0.0,0.67,-0.67,-2.0,,stimuli/P_00_36_36_18.png,,,,,0,227,227,62,,,,,,,,,,,,,,,,,,,,,,,,,,,,3868.877748699859,None,3868.877748699859,None,3869.2116238996387,None,3869.2116238996387,None,0,3869.2116238996387,None,return,3.894334899261594,3869.2116238996387,None,,,LVYAWEN,F,001,2023_Apr_18_1352,untitled,2021.1.4,60.05295483313384,
9,0,0,0,9,9,9,1.0,0.0,1.0,None,None,None,,stimuli/P_09_00_00_00.png,,,,,0,228,228,64,,,,,,,,,,,,,,,,,,,,,,,,,,,,3873.143233399838,None,3873.143233399838,None,3873.46387970075,None,3873.46387970075,None,100,3873.46387970075,None,return,1.6464131008833647,3873.46387970075,None,,,LVYAWEN,F,001,2023_Apr_18_1352,untitled,2021.1.4,60.05295483313384,
9,18,36,18,27,45,81,0.78,0.67,0.33,0.67,-0.33,-1.0,,stimuli/P_09_18_36_18.png,,,,,0,229,229,110,,,,,,,,,,,,,,,,,,,,,,,,,,,,3875.1395883001387,None,3875.1395883001387,None,3875.4716875012964,None,3875.4716875012964,None,35,3875.4716875012964,None,return,4.8675151988863945,3875.4716875012964,None,,,LVYAWEN,F,001,2023_Apr_18_1352,untitled,2021.1.4,60.05295483313384,
18,36,9,0,54,27,63,0.43,0.67,0.33,1.0,-0.67,#NAME?,,stimuli/P_18_36_09_00.png,,,,,0,230,230,180,,,,,,,,,,,,,,,,,,,,,,,,,,,,3880.355809301138,None,3880.355809301138,None,3880.6951989009976,None,3880.6951989009976,None,35,3880.6951989009976,None,return,5.023898100480437,3880.6951989009976,None,,,LVYAWEN,F,001,2023_Apr_18_1352,untitled,2021.1.4,60.05295483313384,
9,36,0,36,45,9,81,0.56,0.8,0.2,0.0,0.2,0.2,,stimuli/P_09_36_00_36.png,,,,,0,231,231,115,,,,,,,,,,,,,,,,,,,,,,,,,,,,3885.7500873003155,None,3885.7500873003155,None,3886.0811707004905,None,3886.0811707004905,None,30,3886.0811707004905,None,return,2.8061076011508703,3886.0811707004905,None,,,LVYAWEN,F,001,2023_Apr_18_1352,untitled,2021.1.4,60.05295483313384,
9,36,9,0,45,18,54,0.33,0.8,0.2,1.0,-0.8,#NAME?,,stimuli/P_09_36_09_00.png,,,,,0,232,232,116,,,,,,,,,,,,,,,,,,,,,,,,,,,,3888.909471400082,None,3888.909471400082,None,3889.237571200356,None,3889.237571200356,None,28,3889.237571200356,None,return,4.890899999067187,3889.237571200356,None,,,LVYAWEN,F,001,2023_Apr_18_1352,untitled,2021.1.4,60.05295483313384,
18,36,36,9,54,54,99,0.64,0.67,0.33,0.8,-0.47,-2.33,,stimuli/P_18_36_36_09.png,,,,,0,233,233,189,,,,,,,,,,,,,,,,,,,,,,,,,,,,3894.1526507996023,None,3894.1526507996023,None,3894.4988030996174,None,3894.4988030996174,None,35,3894.4988030996174,None,return,4.630056299269199,3894.4988030996174,None,,,LVYAWEN,F,001,2023_Apr_18_1352,untitled,2021.1.4,60.05295483313384,
0,36,0,9,36,0,45,0.2,1.0,0.0,0.0,0.0,0.0,,stimuli/P_00_36_00_09.png,,,,,0,234,234,49,,,,,,,,,,,,,,,,,,,,,,,,,,,,3899.147539800033,None,3899.147539800033,None,3899.471929900348,None,3899.471929900348,None,0,3899.471929900348,None,return,2.0322813987731934,3899.471929900348,None,,,LVYAWEN,F,001,2023_Apr_18_1352,untitled,2021.1.4,60.05295483313384,
18,0,36,36,18,54,90,1.0,0.0,1.0,0.5,0.5,1.0,,stimuli/P_18_00_36_36.png,,,,,0,235,235,143,,,,,,,,,,,,,,,,,,,,,,,,,,,,3901.5348968002945,None,3901.5348968002945,None,3901.877153299749,None,3901.877153299749,None,100,3901.877153299749,None,return,3.1450539007782936,3901.877153299749,None,,,LVYAWEN,F,001,2023_Apr_18_1352,untitled,2021.1.4,60.05295483313384,
18,18,0,0,36,18,36,0.5,0.5,0.5,None,None,None,,stimuli/P_18_18_00_00.png,,,,,0,236,236,160,,,,,,,,,,,,,,,,,,,,,,,,,,,,3905.0395972002298,None,3905.0395972002298,None,3905.3696673996747,None,3905.3696673996747,None,50,3905.3696673996747,None,return,1.7344746012240648,3905.3696673996747,None,,,LVYAWEN,F,001,2023_Apr_18_1352,untitled,2021.1.4,60.05295483313384,
18,18,9,18,36,27,63,0.71,0.5,0.5,0.33,0.17,0.25,,stimuli/P_18_18_09_18.png,,,,,0,237,237,166,,,,,,,,,,,,,,,,,,,,,,,,,,,,3907.1258067004383,None,3907.1258067004383,None,3907.452673200518,None,3907.452673200518,None,50,3907.452673200518,None,return,1.3691448997706175,3907.452673200518,None,,,LVYAWEN,F,001,2023_Apr_18_1352,untitled,2021.1.4,60.05295483313384,
36,36,9,9,72,45,90,0.6,0.5,0.5,0.5,0.0,0.0,,stimuli/P_36_36_09_09.png,,,,,0,238,238,245,,,,,,,,,,,,,,,,,,,,,,,,,,,,3908.8530962001532,None,3908.8530962001532,None,3909.1845051012933,None,3909.1845051012933,None,50,3909.1845051012933,None,return,1.9265503995120525,3909.1845051012933,None,,,LVYAWEN,F,001,2023_Apr_18_1352,untitled,2021.1.4,60.05295483313384,
36,0,0,0,36,36,36,1.0,0.0,1.0,None,None,None,,stimuli/P_36_00_00_00.png,,,,,0,239,239,192,,,,,,,,,,,,,,,,,,,,,,,,,,,,3911.141903400421,None,3911.141903400421,None,3911.464255500585,None,3911.464255500585,None,100,3911.464255500585,None,return,1.759867999702692,3911.464255500585,None,,,LVYAWEN,F,001,2023_Apr_18_1352,untitled,2021.1.4,60.05295483313384,
0,36,9,9,36,9,54,0.33,1.0,0.0,0.5,-0.5,-1.0,,stimuli/P_00_36_09_09.png,,,,,0,240,240,53,,,,,,,,,,,,,,,,,,,,,,,,,,,,3913.250679301098,None,3913.250679301098,None,3913.591421401128,None,3913.591421401128,None,0,3913.591421401128,None,return,1.4912253003567457,3913.591421401128,None,,,LVYAWEN,F,001,2023_Apr_18_1352,untitled,2021.1.4,60.05295483313384,
0,9,18,9,9,18,36,0.75,1.0,0.0,0.67,-0.67,-2.0,,stimuli/P_00_09_18_09.png,,,,,0,241,241,25,,,,,,,,,,,,,,,,,,,,,,,,,,,,3915.109019599855,None,3915.109019599855,None,3915.4290204998106,None,3915.4290204998106,None,0,3915.4290204998106,None,return,3.5796399004757404,3915.4290204998106,None,,,LVYAWEN,F,001,2023_Apr_18_1352,untitled,2021.1.4,60.05295483313384,
18,18,36,18,36,54,90,0.8,0.5,0.5,0.67,-0.17,-0.5,,stimuli/P_18_18_36_18.png,,,,,0,242,242,174,,,,,,,,,,,,,,,,,,,,,,,,,,,,3919.0232849996537,None,3919.0232849996537,None,3919.3524593003094,None,3919.3524593003094,None,50,3919.3524593003094,None,return,1.561234699562192,3919.3524593003094,None,,,LVYAWEN,F,001,2023_Apr_18_1352,untitled,2021.1.4,60.05295483313384,
36,9,0,18,45,36,63,0.86,0.2,0.8,0.0,0.8,0.8,,stimuli/P_36_09_00_18.png,,,,,0,243,243,210,,,,,,,,,,,,,,,,,,,,,,,,,,,,3920.940195200965,None,3920.940195200965,None,3921.2652374003083,None,3921.2652374003083,None,75,3921.2652374003083,None,return,5.58591459877789,3921.2652374003083,None,,,LVYAWEN,F,001,2023_Apr_18_1352,untitled,2021.1.4,60.05295483313384,
18,0,18,18,18,36,54,1.0,0.0,1.0,0.5,0.5,1.0,,stimuli/P_18_00_18_18.png,,,,,0,244,244,138,,,,,,,,,,,,,,,,,,,,,,,,,,,,3926.8821594007313,None,3926.8821594007313,None,3927.2030408009887,None,3927.2030408009887,None,100,3927.2030408009887,None,return,1.5855685006827116,3927.2030408009887,None,,,LVYAWEN,F,001,2023_Apr_18_1352,untitled,2021.1.4,60.05295483313384,
18,9,18,18,27,36,63,0.86,0.33,0.67,0.5,0.17,0.33,,stimuli/P_18_09_18_18.png,,,,,0,245,245,154,,,,,,,,,,,,,,,,,,,,,,,,,,,,3928.80406820029,None,3928.80406820029,None,3929.1339762005955,None,3929.1339762005955,None,75,3929.1339762005955,None,return,4.158594001084566,3929.1339762005955,None,,,LVYAWEN,F,001,2023_Apr_18_1352,untitled,2021.1.4,60.05295483313384,
36,36,18,36,72,54,126,0.71,0.5,0.5,0.33,0.17,0.25,,stimuli/P_36_36_18_36.png,,,,,0,246,246,251,,,,,,,,,,,,,,,,,,,,,,,,,,,,3933.30570070073,None,3933.30570070073,None,3933.6305189002305,None,3933.6305189002305,None,50,3933.6305189002305,None,return,1.7673781011253595,3933.6305189002305,None,,,LVYAWEN,F,001,2023_Apr_18_1352,untitled,2021.1.4,60.05295483313384,
0,18,18,36,18,18,72,0.75,1.0,0.0,0.33,-0.33,-0.5,,stimuli/P_00_18_18_36.png,,,,,0,247,247,43,,,,,,,,,,,,,,,,,,,,,,,,,,,,3935.417218601331,None,3935.417218601331,None,3935.747768100351,None,3935.747768100351,None,0,3935.747768100351,None,return,1.9643652997910976,3935.747768100351,None,,,LVYAWEN,F,001,2023_Apr_18_1352,untitled,2021.1.4,60.05295483313384,
36,18,36,36,54,72,126,0.86,0.33,0.67,0.5,0.17,0.33,,stimuli/P_36_18_36_36.png,,,,,0,248,248,239,,,,,,,,,,,,,,,,,,,,,,,,,,,,3937.7333445996046,None,3937.7333445996046,None,3938.057227199897,None,3938.057227199897,None,75,3938.057227199897,None,return,3.12904379889369,3938.057227199897,None,,,LVYAWEN,F,001,2023_Apr_18_1352,untitled,2021.1.4,60.05295483313384,
0,0,36,18,0,36,54,1.0,None,None,0.67,None,None,,stimuli/P_00_00_36_18.png,,,,,0,249,249,14,,,,,,,,,,,,,,,,,,,,,,,,,,,,3941.2045016996562,None,3941.2045016996562,None,3941.531630201265,None,3941.531630201265,None,0,3941.531630201265,None,return,1.3577257003635168,3941.531630201265,None,,,LVYAWEN,F,001,2023_Apr_18_1352,untitled,2021.1.4,60.05295483313384,
36,36,9,18,72,45,99,0.64,0.5,0.5,0.33,0.17,0.25,,stimuli/P_36_36_09_18.png,,,,,0,250,250,246,,,,,,,,,,,,,,,,,,,,,,,,,,,,3942.9258671998978,None,3942.9258671998978,None,3943.251420000568,None,3943.251420000568,None,50,3943.251420000568,None,return,1.4292750991880894,3943.251420000568,None,,,LVYAWEN,F,001,2023_Apr_18_1352,untitled,2021.1.4,60.05295483313384,
18,0,36,9,18,54,63,1.0,0.0,1.0,0.8,0.2,1.0,,stimuli/P_18_00_36_09.png,,,,,0,251,251,141,,,,,,,,,,,,,,,,,,,,,,,,,,,,3944.712862100452,None,3944.712862100452,None,3945.046599701047,None,3945.046599701047,None,100,3945.046599701047,None,return,1.9243384003639221,3945.046599701047,None,,,LVYAWEN,F,001,2023_Apr_18_1352,untitled,2021.1.4,60.05295483313384,
18,36,18,18,54,36,90,0.6,0.67,0.33,0.5,-0.17,-0.33,,stimuli/P_18_36_18_18.png,,,,,0,252,252,186,,,,,,,,,,,,,,,,,,,,,,,,,,,,3946.984251201153,None,3946.984251201153,None,3947.3084027003497,None,3947.3084027003497,None,35,3947.3084027003497,None,return,3.752343500033021,3947.3084027003497,None,,,LVYAWEN,F,001,2023_Apr_18_1352,untitled,2021.1.4,60.05295483313384,
18,0,9,0,18,27,27,1.0,0.0,1.0,1.0,0.0,None,,stimuli/P_18_00_09_00.png,,,,,0,253,253,132,,,,,,,,,,,,,,,,,,,,,,,,,,,,3951.0790547002107,None,3951.0790547002107,None,3951.412094300613,None,3951.412094300613,None,100,3951.412094300613,None,return,2.0693316999822855,3951.412094300613,None,,,LVYAWEN,F,001,2023_Apr_18_1352,untitled,2021.1.4,60.05295483313384,
9,9,18,9,18,27,45,0.8,0.5,0.5,0.67,-0.17,-0.5,,stimuli/P_09_09_18_09.png,,,,,0,254,254,89,,,,,,,,,,,,,,,,,,,,,,,,,,,,3953.4960776995867,None,3953.4960776995867,None,3953.826357400045,None,3953.826357400045,None,50,3953.826357400045,None,return,1.421060100197792,3953.826357400045,None,,,LVYAWEN,F,001,2023_Apr_18_1352,untitled,2021.1.4,60.05295483313384,
36,36,9,36,72,45,117,0.69,0.5,0.5,0.2,0.3,0.37,,stimuli/P_36_36_09_36.png,,,,,0,255,255,247,,,,,,,,,,,,,,,,,,,,,,,,,,,,3955.26389240101,None,3955.26389240101,None,3955.6019933000207,None,3955.6019933000207,None,50,3955.6019933000207,None,return,3.7673796005547047,3955.6019933000207,None,,,LVYAWEN,F,001,2023_Apr_18_1352,untitled,2021.1.4,60.05295483313384,
,,,,,,,,,,,,,,,,,,,,,,,,,,,,,,,,,,,,,,,,,,,,,,,,,,,,,,,,,,,,,,,,,3959.4002197999507,None,,,,,,,,
