A1C1,A1C0,A0C1,A0C0,A1,C1,Total,MI,C0GvA1,C1GvA1,C1GvA0,dltP,dltPp,Image_practice,Image,trials_2.thisRepN,trials_2.thisTrialN,trials_2.thisN,trials_2.thisIndex,trials.thisRepN,trials.thisTrialN,trials.thisN,trials.thisIndex,image.started,image.stopped,key_resp.keys,key_resp.rt,key_resp.started,key_resp.stopped,betweenTrial.started,betweenTrial.stopped,ISI.started,ISI.stopped,image_card.started,image_card.stopped,textbox.text,textbox.started,textbox.stopped,key_resp_3.keys,key_resp_3.rt,key_resp_3.started,key_resp_3.stopped,text_2.started,text_2.stopped,key_resp_2.keys,key_resp_2.rt,key_resp_2.started,key_resp_2.stopped,image_endPractice.started,image_endPractice.stopped,polygon_2.started,polygon_2.stopped,ISI_2.started,ISI_2.stopped,Cards.started,Cards.stopped,TextNote.started,TextNote.stopped,Estimation.text,Estimation.started,Estimation.stopped,key_resp_4.keys,key_resp_4.rt,key_resp_4.started,key_resp_4.stopped,text.started,text.stopped,participant,gender,session,date,expName,psychopyVersion,frameRate,
,,,,,,,,,,,,,,,,,,,,,,,185.51505592460308,None,space,157.2119548552655,185.51505592460308,None,,,,,,,,,,,,,,,,,,,,,,,,,,,,,,,,,,,,,,,MINXUAN,F,002,2023_Apr_19_1102,untitled,2021.1.4,59.95146756959422,
0,0,0,9,0,0,9,1.0,None,None,0.0,None,None,practice_stimuli/P_00_00_00_09.png,,0,0,0,0,,,,,,,,,,,342.8363870332032,None,342.8363870332032,None,343.3184991805174,None,0,343.3184991805174,None,return,5.187752622150583,343.3184991805174,None,343.3184991805174,None,,,,,,,,,,,,,,,,,,,,,,,,MINXUAN,F,002,2023_Apr_19_1102,untitled,2021.1.4,59.95146756959422,
18,0,36,0,18,54,54,1.0,0.0,1.0,1.0,0.0,None,practice_stimuli/P_18_00_36_00.png,,0,1,1,1,,,,,,,,,,,348.5704964066099,None,348.5704964066099,None,348.97186674577824,None,40,348.97186674577824,None,return,5.866743504571787,348.97186674577824,None,348.97186674577824,None,,,,,,,,,,,,,,,,,,,,,,,,MINXUAN,F,002,2023_Apr_19_1102,untitled,2021.1.4,59.95146756959422,
9,18,18,0,27,27,45,0.6,0.67,0.33,1.0,-0.67,#NAME?,practice_stimuli/P_09_18_18_00.png,,0,2,2,2,,,,,,,,,,,354.8740474669394,None,354.8740474669394,None,355.27077226075926,None,30,355.27077226075926,None,return,5.252339697115531,355.27077226075926,None,355.27077226075926,None,,,,,,,,,,,,,,,,,,,,,,,,MINXUAN,F,002,2023_Apr_19_1102,untitled,2021.1.4,59.95146756959422,
36,18,18,36,54,54,108,0.83,0.33,0.67,0.33,0.33,0.5,practice_stimuli/P_36_18_18_36.png,,0,3,3,3,,,,,,,,,,,360.541504130415,None,360.541504130415,None,360.93821185757406,None,45,360.93821185757406,None,return,7.4626874417226645,360.93821185757406,None,360.93821185757406,None,,,,,,,,,,,,,,,,,,,,,,,,MINXUAN,F,002,2023_Apr_19_1102,untitled,2021.1.4,59.95146756959422,
,,,,,,,,,,,,,,,,,,,,,,,,,,,,,,,,,,,,,,,,,,,,space,58.729070157067326,368.4248125369413,None,,,,,,,,,,,,,,,,,,,,MINXUAN,F,002,2023_Apr_19_1102,untitled,2021.1.4,59.95146756959422,
36,18,0,18,54,36,72,0.75,0.33,0.67,0.0,0.67,0.67,,stimuli/P_36_18_00_18.png,,,,,0,0,0,226,,,,,,,,,,,,,,,,,,,,,,,,,,368.4248125369413,None,433.9952025613602,None,433.9952025613602,None,434.526614605762,None,434.526614605762,None,50,434.526614605762,None,return,3.9927375665065483,434.526614605762,None,,,MINXUAN,F,002,2023_Apr_19_1102,untitled,2021.1.4,59.95146756959422,
9,0,18,0,9,27,27,1.0,0.0,1.0,1.0,0.0,None,,stimuli/P_09_00_18_00.png,,,,,0,1,1,72,,,,,,,,,,,,,,,,,,,,,,,,,,,,438.54580834252556,None,438.54580834252556,None,438.9579739141773,None,438.9579739141773,None,30,438.9579739141773,None,return,3.9356729071805603,438.9579739141773,None,,,MINXUAN,F,002,2023_Apr_19_1102,untitled,2021.1.4,59.95146756959422,
36,0,36,0,36,72,72,1.0,0.0,1.0,1.0,0.0,None,,stimuli/P_36_00_36_00.png,,,,,0,2,2,204,,,,,,,,,,,,,,,,,,,,,,,,,,,,442.9240453904931,None,442.9240453904931,None,443.31843830941943,None,443.31843830941943,None,50,443.31843830941943,None,return,2.9332437523262342,443.31843830941943,None,,,MINXUAN,F,002,2023_Apr_19_1102,untitled,2021.1.4,59.95146756959422,
36,18,36,18,54,72,108,0.83,0.33,0.67,0.67,0.0,0.0,,stimuli/P_36_18_36_18.png,,,,,0,3,3,238,,,,,,,,,,,,,,,,,,,,,,,,,,,,446.28680809619254,None,446.28680809619254,None,446.682038419327,None,446.682038419327,None,,446.682038419327,None,None,,446.682038419327,None,,,MINXUAN,F,002,2023_Apr_19_1102,untitled,2021.1.4,59.95146756959422,
36,36,9,36,72,45,117,0.69,0.5,0.5,0.2,0.3,0.37,,stimuli/P_36_36_09_36.png,,,,,0,4,4,247,,,,,,,,,,,,,,,,,,,,,,,,,,,,454.68435265867447,None,454.68435265867447,None,455.081889256704,None,455.081889256704,None,40,455.081889256704,None,return,4.015949933243974,455.081889256704,None,,,MINXUAN,F,002,2023_Apr_19_1102,untitled,2021.1.4,59.95146756959422,
36,0,0,18,36,36,54,1.0,0.0,1.0,0.0,1.0,1.0,,stimuli/P_36_00_00_18.png,,,,,0,5,5,194,,,,,,,,,,,,,,,,,,,,,,,,,,,,459.1192424905239,None,459.1192424905239,None,459.51167786334554,None,459.51167786334554,None,60,459.51167786334554,None,return,3.4455866465868894,459.51167786334554,None,,,MINXUAN,F,002,2023_Apr_19_1102,untitled,2021.1.4,59.95146756959422,
18,36,36,0,54,54,90,0.6,0.67,0.33,1.0,-0.67,#NAME?,,stimuli/P_18_36_36_00.png,,,,,0,6,6,188,,,,,,,,,,,,,,,,,,,,,,,,,,,,462.99302997531777,None,462.99302997531777,None,463.3897286002539,None,463.3897286002539,None,20,463.3897286002539,None,return,3.6143070963735227,463.3897286002539,None,,,MINXUAN,F,002,2023_Apr_19_1102,untitled,2021.1.4,59.95146756959422,
0,9,18,9,9,18,36,0.75,1.0,0.0,0.67,-0.67,-2.0,,stimuli/P_00_09_18_09.png,,,,,0,7,7,25,,,,,,,,,,,,,,,,,,,,,,,,,,,,467.03058004463674,None,467.03058004463674,None,467.4249018524715,None,467.4249018524715,None,0,467.4249018524715,None,return,2.3081636101269396,467.4249018524715,None,,,MINXUAN,F,002,2023_Apr_19_1102,untitled,2021.1.4,59.95146756959422,
9,36,36,9,45,45,90,0.6,0.8,0.2,0.8,-0.6,-3.0,,stimuli/P_09_36_36_09.png,,,,,0,8,8,125,,,,,,,,,,,,,,,,,,,,,,,,,,,,469.7650483868274,None,469.7650483868274,None,470.16046189213375,None,470.16046189213375,None,10,470.16046189213375,None,return,3.5774209201990743,470.16046189213375,None,,,MINXUAN,F,002,2023_Apr_19_1102,untitled,2021.1.4,59.95146756959422,
9,9,9,36,18,18,63,0.86,0.5,0.5,0.2,0.3,0.37,,stimuli/P_09_09_09_36.png,,,,,0,9,9,87,,,,,,,,,,,,,,,,,,,,,,,,,,,,473.7578883533133,None,473.7578883533133,None,474.1551877247475,None,474.1551877247475,None,10,474.1551877247475,None,return,2.6397682802489726,474.1551877247475,None,,,MINXUAN,F,002,2023_Apr_19_1102,untitled,2021.1.4,59.95146756959422,
36,36,36,9,72,72,117,0.69,0.5,0.5,0.8,-0.3,-1.5,,stimuli/P_36_36_36_09.png,,,,,0,10,10,253,,,,,,,,,,,,,,,,,,,,,,,,,,,,476.829483568501,None,476.829483568501,None,477.2312276675584,None,477.2312276675584,None,30,477.2312276675584,None,return,3.46555236534914,477.2312276675584,None,,,MINXUAN,F,002,2023_Apr_19_1102,untitled,2021.1.4,59.95146756959422,
9,9,18,9,18,27,45,0.8,0.5,0.5,0.67,-0.17,-0.5,,stimuli/P_09_09_18_09.png,,,,,0,11,11,89,,,,,,,,,,,,,,,,,,,,,,,,,,,,480.71681913832435,None,480.71681913832435,None,481.1127065279434,None,481.1127065279434,None,25,481.1127065279434,None,return,3.9304237709002336,481.1127065279434,None,,,MINXUAN,F,002,2023_Apr_19_1102,untitled,2021.1.4,59.95146756959422,
18,0,18,9,18,36,45,1.0,0.0,1.0,0.67,0.33,1.0,,stimuli/P_18_00_18_09.png,,,,,0,12,12,137,,,,,,,,,,,,,,,,,,,,,,,,,,,,485.07008538450464,None,485.07008538450464,None,485.4681362579504,None,485.4681362579504,None,40,485.4681362579504,None,None,,485.4681362579504,None,,,MINXUAN,F,002,2023_Apr_19_1102,untitled,2021.1.4,59.95146756959422,
9,36,36,18,45,45,99,0.64,0.8,0.2,0.67,-0.47,-1.4,,stimuli/P_09_36_36_18.png,,,,,0,13,13,126,,,,,,,,,,,,,,,,,,,,,,,,,,,,493.4825171960838,None,493.4825171960838,None,493.8792067188042,None,493.8792067188042,None,20,493.8792067188042,None,return,5.037368593817519,493.8792067188042,None,,,MINXUAN,F,002,2023_Apr_19_1102,untitled,2021.1.4,59.95146756959422,
18,18,0,9,36,18,45,0.6,0.5,0.5,0.0,0.5,0.5,,stimuli/P_18_18_00_09.png,,,,,0,14,14,161,,,,,,,,,,,,,,,,,,,,,,,,,,,,498.9346250141534,None,498.9346250141534,None,499.32800360447436,None,499.32800360447436,None,35,499.32800360447436,None,return,6.24240746882424,499.32800360447436,None,,,MINXUAN,F,002,2023_Apr_19_1102,untitled,2021.1.4,59.95146756959422,
18,0,36,9,18,54,63,1.0,0.0,1.0,0.8,0.2,1.0,,stimuli/P_18_00_36_09.png,,,,,0,15,15,141,,,,,,,,,,,,,,,,,,,,,,,,,,,,505.5959974126963,None,505.5959974126963,None,505.9905831849028,None,505.9905831849028,None,25,505.9905831849028,None,return,4.770671283011325,505.9905831849028,None,,,MINXUAN,F,002,2023_Apr_19_1102,untitled,2021.1.4,59.95146756959422,
0,18,36,36,18,36,90,0.8,1.0,0.0,0.5,-0.5,-1.0,,stimuli/P_00_18_36_36.png,,,,,0,16,16,47,,,,,,,,,,,,,,,,,,,,,,,,,,,,510.7805801868526,None,510.7805801868526,None,511.17322320405947,None,511.17322320405947,None,0,511.17322320405947,None,return,2.5034488879100536,511.17322320405947,None,,,MINXUAN,F,002,2023_Apr_19_1102,untitled,2021.1.4,59.95146756959422,
0,36,9,0,36,9,45,0.2,1.0,0.0,1.0,-1.0,#NAME?,,stimuli/P_00_36_09_00.png,,,,,0,17,17,52,,,,,,,,,,,,,,,,,,,,,,,,,,,,513.699687054308,None,513.699687054308,None,514.093292631238,None,514.093292631238,None,0,514.093292631238,None,return,2.2286267083036364,514.093292631238,None,,,MINXUAN,F,002,2023_Apr_19_1102,untitled,2021.1.4,59.95146756959422,
18,18,18,36,36,36,90,0.8,0.5,0.5,0.33,0.17,0.25,,stimuli/P_18_18_18_36.png,,,,,0,18,18,171,,,,,,,,,,,,,,,,,,,,,,,,,,,,516.348549020855,None,516.348549020855,None,516.7462204455151,None,516.7462204455151,None,25,516.7462204455151,None,return,4.004117047719774,516.7462204455151,None,,,MINXUAN,F,002,2023_Apr_19_1102,untitled,2021.1.4,59.95146756959422,
18,9,36,0,27,54,63,0.86,0.33,0.67,1.0,-0.33,#NAME?,,stimuli/P_18_09_36_00.png,,,,,0,19,19,156,,,,,,,,,,,,,,,,,,,,,,,,,,,,520.7724149269561,None,520.7724149269561,None,521.1681464410576,None,521.1681464410576,None,30,521.1681464410576,None,return,5.076363640502677,521.1681464410576,None,,,MINXUAN,F,002,2023_Apr_19_1102,untitled,2021.1.4,59.95146756959422,
9,36,36,0,45,45,81,0.56,0.8,0.2,1.0,-0.8,#NAME?,,stimuli/P_09_36_36_00.png,,,,,0,20,20,124,,,,,,,,,,,,,,,,,,,,,,,,,,,,526.2752630683681,None,526.2752630683681,None,526.6693288762763,None,526.6693288762763,None,20,526.6693288762763,None,return,5.805409335349395,526.6693288762763,None,,,MINXUAN,F,002,2023_Apr_19_1102,untitled,2021.1.4,59.95146756959422,
9,36,36,36,45,45,117,0.69,0.8,0.2,0.5,-0.3,-0.6,,stimuli/P_09_36_36_36.png,,,,,0,21,21,127,,,,,,,,,,,,,,,,,,,,,,,,,,,,532.4925979043255,None,532.4925979043255,None,532.8868633921811,None,532.8868633921811,None,5,532.8868633921811,None,return,2.62551704874204,532.8868633921811,None,,,MINXUAN,F,002,2023_Apr_19_1102,untitled,2021.1.4,59.95146756959422,
9,9,36,9,18,45,63,0.86,0.5,0.5,0.8,-0.3,-1.5,,stimuli/P_09_09_36_09.png,,,,,0,22,22,93,,,,,,,,,,,,,,,,,,,,,,,,,,,,535.5323865507889,None,535.5323865507889,None,535.9270075940949,None,535.9270075940949,None,5,535.9270075940949,None,return,1.8434554756386206,535.9270075940949,None,,,MINXUAN,F,002,2023_Apr_19_1102,untitled,2021.1.4,59.95146756959422,
9,9,36,36,18,45,90,0.9,0.5,0.5,0.5,0.0,0.0,,stimuli/P_09_09_36_36.png,,,,,0,23,23,95,,,,,,,,,,,,,,,,,,,,,,,,,,,,537.7894485932193,None,537.7894485932193,None,538.1843034497942,None,538.1843034497942,None,5,538.1843034497942,None,return,1.898773077678925,538.1843034497942,None,,,MINXUAN,F,002,2023_Apr_19_1102,untitled,2021.1.4,59.95146756959422,
18,36,9,0,54,27,63,0.43,0.67,0.33,1.0,-0.67,#NAME?,,stimuli/P_18_36_09_00.png,,,,,0,24,24,180,,,,,,,,,,,,,,,,,,,,,,,,,,,,540.1020853754089,None,540.1020853754089,None,540.4971683563563,None,540.4971683563563,None,40,540.4971683563563,None,return,4.557319237028423,540.4971683563563,None,,,MINXUAN,F,002,2023_Apr_19_1102,untitled,2021.1.4,59.95146756959422,
0,36,0,0,36,0,36,0.0,1.0,0.0,None,None,None,,stimuli/P_00_36_00_00.png,,,,,0,25,25,48,,,,,,,,,,,,,,,,,,,,,,,,,,,,545.0723012060989,None,545.0723012060989,None,545.4637677614155,None,545.4637677614155,None,0,545.4637677614155,None,return,1.9944681260167272,545.4637677614155,None,,,MINXUAN,F,002,2023_Apr_19_1102,untitled,2021.1.4,59.95146756959422,
0,18,9,9,18,9,36,0.5,1.0,0.0,0.5,-0.5,-1.0,,stimuli/P_00_18_09_09.png,,,,,0,26,26,37,,,,,,,,,,,,,,,,,,,,,,,,,,,,547.4714540170098,None,547.4714540170098,None,547.8656182426639,None,547.8656182426639,None,0,547.8656182426639,None,return,1.8627152034896426,547.8656182426639,None,,,MINXUAN,F,002,2023_Apr_19_1102,untitled,2021.1.4,59.95146756959422,
36,0,9,9,36,45,54,1.0,0.0,1.0,0.5,0.5,1.0,,stimuli/P_36_00_09_09.png,,,,,0,27,27,197,,,,,,,,,,,,,,,,,,,,,,,,,,,,549.7602833748533,None,549.7602833748533,None,550.1560717778266,None,550.1560717778266,None,70,550.1560717778266,None,return,4.312629955515149,550.1560717778266,None,,,MINXUAN,F,002,2023_Apr_19_1102,untitled,2021.1.4,59.95146756959422,
0,0,0,36,0,0,36,1.0,None,None,0.0,None,None,,stimuli/P_00_00_00_36.png,,,,,0,28,28,3,,,,,,,,,,,,,,,,,,,,,,,,,,,,554.4921496200113,None,554.4921496200113,None,554.8850844771296,None,554.8850844771296,None,0,554.8850844771296,None,return,1.6554775735494331,554.8850844771296,None,,,MINXUAN,F,002,2023_Apr_19_1102,untitled,2021.1.4,59.95146756959422,
36,18,9,18,54,45,81,0.78,0.33,0.67,0.33,0.33,0.5,,stimuli/P_36_18_09_18.png,,,,,0,29,29,230,,,,,,,,,,,,,,,,,,,,,,,,,,,,556.5704332599635,None,556.5704332599635,None,556.9687833688804,None,556.9687833688804,None,40,556.9687833688804,None,return,3.658278212758887,556.9687833688804,None,,,MINXUAN,F,002,2023_Apr_19_1102,untitled,2021.1.4,59.95146756959422,
9,18,18,9,27,27,54,0.67,0.67,0.33,0.67,-0.33,-1.0,,stimuli/P_09_18_18_09.png,,,,,0,30,30,105,,,,,,,,,,,,,,,,,,,,,,,,,,,,560.6452301809113,None,560.6452301809113,None,561.0401641130156,None,561.0401641130156,None,20,561.0401641130156,None,return,4.848306958701869,561.0401641130156,None,,,MINXUAN,F,002,2023_Apr_19_1102,untitled,2021.1.4,59.95146756959422,
0,9,9,18,9,9,36,0.75,1.0,0.0,0.33,-0.33,-0.5,,stimuli/P_00_09_09_18.png,,,,,0,31,31,22,,,,,,,,,,,,,,,,,,,,,,,,,,,,565.913105660271,None,565.913105660271,None,566.3074018681145,None,566.3074018681145,None,0,566.3074018681145,None,return,3.3071942237293115,566.3074018681145,None,,,MINXUAN,F,002,2023_Apr_19_1102,untitled,2021.1.4,59.95146756959422,
18,36,18,0,54,36,72,0.5,0.67,0.33,1.0,-0.67,#NAME?,,stimuli/P_18_36_18_00.png,,,,,0,32,32,184,,,,,,,,,,,,,,,,,,,,,,,,,,,,569.6324694378709,None,569.6324694378709,None,570.0308656267734,None,570.0308656267734,None,40,570.0308656267734,None,return,2.9324131747853244,570.0308656267734,None,,,MINXUAN,F,002,2023_Apr_19_1102,untitled,2021.1.4,59.95146756959422,
36,36,36,18,72,72,126,0.71,0.5,0.5,0.67,-0.17,-0.5,,stimuli/P_36_36_36_18.png,,,,,0,33,33,254,,,,,,,,,,,,,,,,,,,,,,,,,,,,572.9870429903531,None,572.9870429903531,None,573.3818511980498,None,573.3818511980498,None,40,573.3818511980498,None,return,2.7467034320434323,573.3818511980498,None,,,MINXUAN,F,002,2023_Apr_19_1102,untitled,2021.1.4,59.95146756959422,
18,0,36,36,18,54,90,1.0,0.0,1.0,0.5,0.5,1.0,,stimuli/P_18_00_36_36.png,,,,,0,34,34,143,,,,,,,,,,,,,,,,,,,,,,,,,,,,576.1634457135078,None,576.1634457135078,None,576.5606330138617,None,576.5606330138617,None,30,576.5606330138617,None,return,3.0341845236107474,576.5606330138617,None,,,MINXUAN,F,002,2023_Apr_19_1102,untitled,2021.1.4,59.95146756959422,
0,36,18,9,36,18,63,0.43,1.0,0.0,0.67,-0.67,-2.0,,stimuli/P_00_36_18_09.png,,,,,0,35,35,57,,,,,,,,,,,,,,,,,,,,,,,,,,,,579.6292279099071,None,579.6292279099071,None,580.0256125082669,None,580.0256125082669,None,0,580.0256125082669,None,return,2.7167372183539555,580.0256125082669,None,,,MINXUAN,F,002,2023_Apr_19_1102,untitled,2021.1.4,59.95146756959422,
36,9,9,36,45,45,90,0.9,0.2,0.8,0.2,0.6,0.75,,stimuli/P_36_09_09_36.png,,,,,0,36,36,215,,,,,,,,,,,,,,,,,,,,,,,,,,,,582.7740658420444,None,582.7740658420444,None,583.171634297847,None,583.171634297847,None,40,583.171634297847,None,return,2.659734567896521,583.171634297847,None,,,MINXUAN,F,002,2023_Apr_19_1102,untitled,2021.1.4,59.95146756959422,
36,36,0,9,72,36,81,0.56,0.5,0.5,0.0,0.5,0.5,,stimuli/P_36_36_00_09.png,,,,,0,37,37,241,,,,,,,,,,,,,,,,,,,,,,,,,,,,585.8555881655193,None,585.8555881655193,None,586.2498138311639,None,586.2498138311639,None,40,586.2498138311639,None,return,5.477266353140294,586.2498138311639,None,,,MINXUAN,F,002,2023_Apr_19_1102,untitled,2021.1.4,59.95146756959422,
9,18,0,0,27,9,27,0.33,0.67,0.33,None,None,None,,stimuli/P_09_18_00_00.png,,,,,0,38,38,96,,,,,,,,,,,,,,,,,,,,,,,,,,,,591.7564866114844,None,591.7564866114844,None,592.1523825344339,None,592.1523825344339,None,40,592.1523825344339,None,return,4.048860146103834,592.1523825344339,None,,,MINXUAN,F,002,2023_Apr_19_1102,untitled,2021.1.4,59.95146756959422,
0,18,0,0,18,0,18,0.0,1.0,0.0,None,None,None,,stimuli/P_00_18_00_00.png,,,,,0,39,39,32,,,,,,,,,,,,,,,,,,,,,,,,,,,,596.223365625352,None,596.223365625352,None,596.6168983845273,None,596.6168983845273,None,0,596.6168983845273,None,return,1.402656027690682,596.6168983845273,None,,,MINXUAN,F,002,2023_Apr_19_1102,untitled,2021.1.4,59.95146756959422,
36,0,36,36,36,72,108,1.0,0.0,1.0,0.5,0.5,1.0,,stimuli/P_36_00_36_36.png,,,,,0,40,40,207,,,,,,,,,,,,,,,,,,,,,,,,,,,,598.0452733026759,None,598.0452733026759,None,598.4413444433521,None,598.4413444433521,None,33,598.4413444433521,None,return,5.856355596413778,598.4413444433521,None,,,MINXUAN,F,002,2023_Apr_19_1102,untitled,2021.1.4,59.95146756959422,
18,36,36,9,54,54,99,0.64,0.67,0.33,0.8,-0.47,-2.33,,stimuli/P_18_36_36_09.png,,,,,0,41,41,189,,,,,,,,,,,,,,,,,,,,,,,,,,,,604.3253241385755,None,604.3253241385755,None,604.7205499105985,None,604.7205499105985,None,40,604.7205499105985,None,return,5.824917098689184,604.7205499105985,None,,,MINXUAN,F,002,2023_Apr_19_1102,untitled,2021.1.4,59.95146756959422,
36,36,36,36,72,72,144,0.75,0.5,0.5,0.5,0.0,0.0,,stimuli/P_36_36_36_36.png,,,,,0,42,42,255,,,,,,,,,,,,,,,,,,,,,,,,,,,,610.5643842661302,None,610.5643842661302,None,610.9612854154548,None,610.9612854154548,None,25,610.9612854154548,None,return,3.162396682695544,610.9612854154548,None,,,MINXUAN,F,002,2023_Apr_19_1102,untitled,2021.1.4,59.95146756959422,
36,18,36,9,54,72,99,0.82,0.33,0.67,0.8,-0.13,-0.67,,stimuli/P_36_18_36_09.png,,,,,0,43,43,237,,,,,,,,,,,,,,,,,,,,,,,,,,,,614.1551461958661,None,614.1551461958661,None,614.5515097453463,None,614.5515097453463,None,40,614.5515097453463,None,return,5.644145310106978,614.5515097453463,None,,,MINXUAN,F,002,2023_Apr_19_1102,untitled,2021.1.4,59.95146756959422,
9,0,9,36,9,18,54,1.0,0.0,1.0,0.2,0.8,1.0,,stimuli/P_09_00_09_36.png,,,,,0,44,44,71,,,,,,,,,,,,,,,,,,,,,,,,,,,,620.2136945169914,None,620.2136945169914,None,620.6132648922285,None,620.6132648922285,None,10,620.6132648922285,None,return,2.667855454477831,620.6132648922285,None,,,MINXUAN,F,002,2023_Apr_19_1102,untitled,2021.1.4,59.95146756959422,
18,18,9,18,36,27,63,0.71,0.5,0.5,0.33,0.17,0.25,,stimuli/P_18_18_09_18.png,,,,,0,45,45,166,,,,,,,,,,,,,,,,,,,,,,,,,,,,623.3013528742813,None,623.3013528742813,None,623.6965058285496,None,623.6965058285496,None,30,623.6965058285496,None,return,3.8481823720721877,623.6965058285496,None,,,MINXUAN,F,002,2023_Apr_19_1102,untitled,2021.1.4,59.95146756959422,
9,0,9,18,9,18,36,1.0,0.0,1.0,0.33,0.67,1.0,,stimuli/P_09_00_09_18.png,,,,,0,46,46,70,,,,,,,,,,,,,,,,,,,,,,,,,,,,627.5777275512228,None,627.5777275512228,None,627.9747185849701,None,627.9747185849701,None,20,627.9747185849701,None,return,4.201327444956405,627.9747185849701,None,,,MINXUAN,F,002,2023_Apr_19_1102,untitled,2021.1.4,59.95146756959422,
9,0,36,18,9,45,63,1.0,0.0,1.0,0.67,0.33,1.0,,stimuli/P_09_00_36_18.png,,,,,0,47,47,78,,,,,,,,,,,,,,,,,,,,,,,,,,,,632.2125590150899,None,632.2125590150899,None,632.6080624048191,None,632.6080624048191,None,10,632.6080624048191,None,return,2.8358710511311074,632.6080624048191,None,,,MINXUAN,F,002,2023_Apr_19_1102,untitled,2021.1.4,59.95146756959422,
9,0,18,36,9,27,63,1.0,0.0,1.0,0.33,0.67,1.0,,stimuli/P_09_00_18_36.png,,,,,0,48,48,75,,,,,,,,,,,,,,,,,,,,,,,,,,,,635.4633410948736,None,635.4633410948736,None,635.8578654270968,None,635.8578654270968,None,15,635.8578654270968,None,return,6.24694833864487,635.8578654270968,None,,,MINXUAN,F,002,2023_Apr_19_1102,untitled,2021.1.4,59.95146756959422,
36,9,36,0,45,72,81,0.89,0.2,0.8,1.0,-0.2,#NAME?,,stimuli/P_36_09_36_00.png,,,,,0,49,49,220,,,,,,,,,,,,,,,,,,,,,,,,,,,,642.1334265931582,None,642.1334265931582,None,642.5278451120757,None,642.5278451120757,None,45,642.5278451120757,None,return,3.566851536539616,642.5278451120757,None,,,MINXUAN,F,002,2023_Apr_19_1102,untitled,2021.1.4,59.95146756959422,
9,36,0,18,45,9,63,0.43,0.8,0.2,0.0,0.2,0.2,,stimuli/P_09_36_00_18.png,,,,,0,50,50,114,,,,,,,,,,,,,,,,,,,,,,,,,,,,646.1094502088672,None,646.1094502088672,None,646.5036565322953,None,646.5036565322953,None,25,646.5036565322953,None,return,5.965575405345589,646.5036565322953,None,,,MINXUAN,F,002,2023_Apr_19_1102,untitled,2021.1.4,59.95146756959422,
18,9,0,36,27,18,63,0.86,0.33,0.67,0.0,0.67,0.67,,stimuli/P_18_09_00_36.png,,,,,0,51,51,147,,,,,,,,,,,,,,,,,,,,,,,,,,,,652.487745852377,None,652.487745852377,None,652.8831741487884,None,652.8831741487884,None,35,652.8831741487884,None,return,3.294997818309639,652.8831741487884,None,,,MINXUAN,F,002,2023_Apr_19_1102,untitled,2021.1.4,59.95146756959422,
9,9,18,36,18,27,72,0.88,0.5,0.5,0.33,0.17,0.25,,stimuli/P_09_09_18_36.png,,,,,0,52,52,91,,,,,,,,,,,,,,,,,,,,,,,,,,,,656.208898785022,None,656.208898785022,None,656.6052782633851,None,656.6052782633851,None,25,656.6052782633851,None,return,6.372346774092875,656.6052782633851,None,,,MINXUAN,F,002,2023_Apr_19_1102,untitled,2021.1.4,59.95146756959422,
18,9,18,9,27,36,54,0.83,0.33,0.67,0.67,0.0,0.0,,stimuli/P_18_09_18_09.png,,,,,0,53,53,153,,,,,,,,,,,,,,,,,,,,,,,,,,,,663.0058669494392,None,663.0058669494392,None,663.4003326861275,None,663.4003326861275,None,33,663.4003326861275,None,return,4.9124229938024655,663.4003326861275,None,,,MINXUAN,F,002,2023_Apr_19_1102,untitled,2021.1.4,59.95146756959422,
0,36,36,9,36,36,81,0.56,1.0,0.0,0.8,-0.8,-4.0,,stimuli/P_00_36_36_09.png,,,,,0,54,54,61,,,,,,,,,,,,,,,,,,,,,,,,,,,,668.3451226040561,None,668.3451226040561,None,668.7414201624415,None,668.7414201624415,None,0,668.7414201624415,None,return,2.2521559460510616,668.7414201624415,None,,,MINXUAN,F,002,2023_Apr_19_1102,untitled,2021.1.4,59.95146756959422,
18,0,9,36,18,27,63,1.0,0.0,1.0,0.2,0.8,1.0,,stimuli/P_18_00_09_36.png,,,,,0,55,55,135,,,,,,,,,,,,,,,,,,,,,,,,,,,,671.0145709469653,None,671.0145709469653,None,671.4156824417587,None,671.4156824417587,None,35,671.4156824417587,None,return,3.072767694859067,671.4156824417587,None,,,MINXUAN,F,002,2023_Apr_19_1102,untitled,2021.1.4,59.95146756959422,
9,18,0,18,27,9,45,0.6,0.67,0.33,0.0,0.33,0.33,,stimuli/P_09_18_00_18.png,,,,,0,56,56,98,,,,,,,,,,,,,,,,,,,,,,,,,,,,674.5154291156068,None,674.5154291156068,None,674.9087235104089,None,674.9087235104089,None,20,674.9087235104089,None,return,6.163209055797779,674.9087235104089,None,,,MINXUAN,F,002,2023_Apr_19_1102,untitled,2021.1.4,59.95146756959422,
0,18,18,0,18,18,36,0.5,1.0,0.0,1.0,-1.0,#NAME?,,stimuli/P_00_18_18_00.png,,,,,0,57,57,40,,,,,,,,,,,,,,,,,,,,,,,,,,,,681.0906933786464,None,681.0906933786464,None,681.4852615152995,None,681.4852615152995,None,0,681.4852615152995,None,return,1.7579418288514717,681.4852615152995,None,,,MINXUAN,F,002,2023_Apr_19_1102,untitled,2021.1.4,59.95146756959422,
0,9,9,0,9,9,18,0.5,1.0,0.0,1.0,-1.0,#NAME?,,stimuli/P_00_09_09_00.png,,,,,0,58,58,20,,,,,,,,,,,,,,,,,,,,,,,,,,,,683.2766204368745,None,683.2766204368745,None,683.6751861546145,None,683.6751861546145,None,0,683.6751861546145,None,return,1.719887724124419,683.6751861546145,None,,,MINXUAN,F,002,2023_Apr_19_1102,untitled,2021.1.4,59.95146756959422,
36,0,0,36,36,36,72,1.0,0.0,1.0,0.0,1.0,1.0,,stimuli/P_36_00_00_36.png,,,,,0,59,59,195,,,,,,,,,,,,,,,,,,,,,,,,,,,,685.4215624756398,None,685.4215624756398,None,685.8205963888104,None,685.8205963888104,None,50,685.8205963888104,None,return,2.5421253569074906,685.8205963888104,None,,,MINXUAN,F,002,2023_Apr_19_1102,untitled,2021.1.4,59.95146756959422,
9,0,0,9,9,9,18,1.0,0.0,1.0,0.0,1.0,1.0,,stimuli/P_09_00_00_09.png,,,,,0,60,60,65,,,,,,,,,,,,,,,,,,,,,,,,,,,,688.377142506055,None,688.377142506055,None,688.7716287227377,None,688.7716287227377,None,50,688.7716287227377,None,return,2.903687138503301,688.7716287227377,None,,,MINXUAN,F,002,2023_Apr_19_1102,untitled,2021.1.4,59.95146756959422,
36,36,9,9,72,45,90,0.6,0.5,0.5,0.5,0.0,0.0,,stimuli/P_36_36_09_09.png,,,,,0,61,61,245,,,,,,,,,,,,,,,,,,,,,,,,,,,,691.6992757477637,None,691.6992757477637,None,692.0954071906381,None,692.0954071906381,None,40,692.0954071906381,None,return,5.052222278478439,692.0954071906381,None,,,MINXUAN,F,002,2023_Apr_19_1102,untitled,2021.1.4,59.95146756959422,
0,9,18,0,9,18,27,0.67,1.0,0.0,1.0,-1.0,#NAME?,,stimuli/P_00_09_18_00.png,,,,,0,62,62,24,,,,,,,,,,,,,,,,,,,,,,,,,,,,697.1633569668629,None,697.1633569668629,None,697.5579495657366,None,697.5579495657366,None,0,697.5579495657366,None,return,2.081166768024559,697.5579495657366,None,,,MINXUAN,F,002,2023_Apr_19_1102,untitled,2021.1.4,59.95146756959422,
9,9,9,9,18,18,36,0.75,0.5,0.5,0.5,0.0,0.0,,stimuli/P_09_09_09_09.png,,,,,0,63,63,85,,,,,,,,,,,,,,,,,,,,,,,,,,,,699.6704325204119,None,699.6704325204119,None,700.065827252387,None,700.065827252387,None,25,700.065827252387,None,return,3.1553561158143566,700.065827252387,None,,,MINXUAN,F,002,2023_Apr_19_1102,untitled,2021.1.4,59.95146756959422,
18,9,0,18,27,18,45,0.8,0.33,0.67,0.0,0.67,0.67,,stimuli/P_18_09_00_18.png,,,,,0,64,64,146,,,,,,,,,,,,,,,,,,,,,,,,,,,,703.2458833789497,None,703.2458833789497,None,703.6425461638937,None,703.6425461638937,None,30,703.6425461638937,None,return,2.9417810654485947,703.6425461638937,None,,,MINXUAN,F,002,2023_Apr_19_1102,untitled,2021.1.4,59.95146756959422,
18,18,18,18,36,36,72,0.75,0.5,0.5,0.5,0.0,0.0,,stimuli/P_18_18_18_18.png,,,,,0,65,65,170,,,,,,,,,,,,,,,,,,,,,,,,,,,,706.613007754524,None,706.613007754524,None,707.0115717655935,None,707.0115717655935,None,25,707.0115717655935,None,return,2.356578316350351,707.0115717655935,None,,,MINXUAN,F,002,2023_Apr_19_1102,untitled,2021.1.4,59.95146756959422,
36,9,18,9,45,54,72,0.88,0.2,0.8,0.67,0.13,0.4,,stimuli/P_36_09_18_09.png,,,,,0,66,66,217,,,,,,,,,,,,,,,,,,,,,,,,,,,,709.4039718673157,None,709.4039718673157,None,709.7993990259492,None,709.7993990259492,None,50,709.7993990259492,None,return,3.753179661318427,709.7993990259492,None,,,MINXUAN,F,002,2023_Apr_19_1102,untitled,2021.1.4,59.95146756959422,
36,0,36,18,36,72,90,1.0,0.0,1.0,0.67,0.33,1.0,,stimuli/P_36_00_36_18.png,,,,,0,67,67,206,,,,,,,,,,,,,,,,,,,,,,,,,,,,713.5869867841466,None,713.5869867841466,None,713.9817659785185,None,713.9817659785185,None,40,713.9817659785185,None,return,3.912902566997218,713.9817659785185,None,,,MINXUAN,F,002,2023_Apr_19_1102,untitled,2021.1.4,59.95146756959422,
0,18,0,36,18,0,54,0.67,1.0,0.0,0.0,0.0,0.0,,stimuli/P_00_18_00_36.png,,,,,0,68,68,35,,,,,,,,,,,,,,,,,,,,,,,,,,,,717.9212003779685,None,717.9212003779685,None,718.3130856353891,None,718.3130856353891,None,0,718.3130856353891,None,return,1.9730415009980788,718.3130856353891,None,,,MINXUAN,F,002,2023_Apr_19_1102,untitled,2021.1.4,59.95146756959422,
0,18,9,18,18,9,45,0.6,1.0,0.0,0.33,-0.33,-0.5,,stimuli/P_00_18_09_18.png,,,,,0,69,69,38,,,,,,,,,,,,,,,,,,,,,,,,,,,,720.3127943643631,None,720.3127943643631,None,720.7128704816714,None,720.7128704816714,None,0,720.7128704816714,None,return,1.8357396378341946,720.7128704816714,None,,,MINXUAN,F,002,2023_Apr_19_1102,untitled,2021.1.4,59.95146756959422,
0,9,36,36,9,36,81,0.89,1.0,0.0,0.5,-0.5,-1.0,,stimuli/P_00_09_36_36.png,,,,,0,70,70,31,,,,,,,,,,,,,,,,,,,,,,,,,,,,722.5733357302524,None,722.5733357302524,None,722.9712193504092,None,722.9712193504092,None,0,722.9712193504092,None,return,1.6398024135705782,722.9712193504092,None,,,MINXUAN,F,002,2023_Apr_19_1102,untitled,2021.1.4,59.95146756959422,
18,18,18,9,36,36,63,0.71,0.5,0.5,0.67,-0.17,-0.5,,stimuli/P_18_18_18_09.png,,,,,0,71,71,169,,,,,,,,,,,,,,,,,,,,,,,,,,,,724.6364505211895,None,724.6364505211895,None,725.0347687723333,None,725.0347687723333,None,35,725.0347687723333,None,return,2.9043225872155745,725.0347687723333,None,,,MINXUAN,F,002,2023_Apr_19_1102,untitled,2021.1.4,59.95146756959422,
18,0,36,18,18,54,72,1.0,0.0,1.0,0.67,0.33,1.0,,stimuli/P_18_00_36_18.png,,,,,0,72,72,142,,,,,,,,,,,,,,,,,,,,,,,,,,,,727.9728839188247,None,727.9728839188247,None,728.3725202851492,None,728.3725202851492,None,30,728.3725202851492,None,return,4.241766900122457,728.3725202851492,None,,,MINXUAN,F,002,2023_Apr_19_1102,untitled,2021.1.4,59.95146756959422,
9,18,18,0,27,27,45,0.6,0.67,0.33,1.0,-0.67,#NAME?,,stimuli/P_09_18_18_00.png,,,,,0,73,73,104,,,,,,,,,,,,,,,,,,,,,,,,,,,,732.6377271074889,None,732.6377271074889,None,733.0368372517405,None,733.0368372517405,None,25,733.0368372517405,None,return,4.521915584882663,733.0368372517405,None,,,MINXUAN,F,002,2023_Apr_19_1102,untitled,2021.1.4,59.95146756959422,
0,0,9,36,0,9,45,1.0,None,None,0.2,None,None,,stimuli/P_00_00_09_36.png,,,,,0,74,74,7,,,,,,,,,,,,,,,,,,,,,,,,,,,,737.5820067322275,None,737.5820067322275,None,737.9768934465683,None,737.9768934465683,None,0,737.9768934465683,None,return,1.4928413887028,737.9768934465683,None,,,MINXUAN,F,002,2023_Apr_19_1102,untitled,2021.1.4,59.95146756959422,
36,0,9,0,36,45,45,1.0,0.0,1.0,1.0,0.0,None,,stimuli/P_36_00_09_00.png,,,,,0,75,75,196,,,,,,,,,,,,,,,,,,,,,,,,,,,,739.4843672222269,None,739.4843672222269,None,739.8803877317987,None,739.8803877317987,None,75,739.8803877317987,None,return,2.8263370449567446,739.8803877317987,None,,,MINXUAN,F,002,2023_Apr_19_1102,untitled,2021.1.4,59.95146756959422,
18,0,18,18,18,36,54,1.0,0.0,1.0,0.5,0.5,1.0,,stimuli/P_18_00_18_18.png,,,,,0,76,76,138,,,,,,,,,,,,,,,,,,,,,,,,,,,,742.7263850022719,None,742.7263850022719,None,743.1199911480871,None,743.1199911480871,None,33,743.1199911480871,None,return,2.577438555745175,743.1199911480871,None,,,MINXUAN,F,002,2023_Apr_19_1102,untitled,2021.1.4,59.95146756959422,
9,0,0,36,9,9,45,1.0,0.0,1.0,0.0,1.0,1.0,,stimuli/P_09_00_00_36.png,,,,,0,77,77,67,,,,,,,,,,,,,,,,,,,,,,,,,,,,745.7155584809079,None,745.7155584809079,None,746.1132492477846,None,746.1132492477846,None,25,746.1132492477846,None,return,3.259721597234602,746.1132492477846,None,,,MINXUAN,F,002,2023_Apr_19_1102,untitled,2021.1.4,59.95146756959422,
36,9,18,18,45,54,81,0.89,0.2,0.8,0.5,0.3,0.6,,stimuli/P_36_09_18_18.png,,,,,0,78,78,218,,,,,,,,,,,,,,,,,,,,,,,,,,,,749.3869444588272,None,749.3869444588272,None,749.7842057147136,None,749.7842057147136,None,45,749.7842057147136,None,return,3.3906519066586043,749.7842057147136,None,,,MINXUAN,F,002,2023_Apr_19_1102,untitled,2021.1.4,59.95146756959422,
9,9,36,0,18,45,54,0.83,0.5,0.5,1.0,-0.5,#NAME?,,stimuli/P_09_09_36_00.png,,,,,0,79,79,92,,,,,,,,,,,,,,,,,,,,,,,,,,,,753.1913798566748,None,753.1913798566748,None,753.5874106062474,None,753.5874106062474,None,15,753.5874106062474,None,return,3.496771272031765,753.5874106062474,None,,,MINXUAN,F,002,2023_Apr_19_1102,untitled,2021.1.4,59.95146756959422,
0,36,36,36,36,36,108,0.67,1.0,0.0,0.5,-0.5,-1.0,,stimuli/P_00_36_36_36.png,,,,,0,80,80,63,,,,,,,,,,,,,,,,,,,,,,,,,,,,757.1020136954248,None,757.1020136954248,None,757.4951698502628,None,757.4951698502628,None,0,757.4951698502628,None,return,2.063605741910578,757.4951698502628,None,,,MINXUAN,F,002,2023_Apr_19_1102,untitled,2021.1.4,59.95146756959422,
18,36,0,9,54,18,63,0.43,0.67,0.33,0.0,0.33,0.33,,stimuli/P_18_36_00_09.png,,,,,0,81,81,177,,,,,,,,,,,,,,,,,,,,,,,,,,,,759.5780666089049,None,759.5780666089049,None,759.9754223003256,None,759.9754223003256,None,30,759.9754223003256,None,return,7.440136123695993,759.9754223003256,None,,,MINXUAN,F,002,2023_Apr_19_1102,untitled,2021.1.4,59.95146756959422,
0,0,18,9,0,18,27,1.0,None,None,0.67,None,None,,stimuli/P_00_00_18_09.png,,,,,0,82,82,9,,,,,,,,,,,,,,,,,,,,,,,,,,,,767.4446320513016,None,767.4446320513016,None,767.838765556975,None,767.838765556975,None,0,767.838765556975,None,return,1.5242235664481996,767.838765556975,None,,,MINXUAN,F,002,2023_Apr_19_1102,untitled,2021.1.4,59.95146756959422,
36,18,9,9,54,45,72,0.75,0.33,0.67,0.5,0.17,0.33,,stimuli/P_36_18_09_09.png,,,,,0,83,83,229,,,,,,,,,,,,,,,,,,,,,,,,,,,,769.3823711623481,None,769.3823711623481,None,769.7785566496532,None,769.7785566496532,None,55,769.7785566496532,None,return,2.8182923894637497,769.7785566496532,None,,,MINXUAN,F,002,2023_Apr_19_1102,untitled,2021.1.4,59.95146756959422,
9,9,0,36,18,9,54,0.83,0.5,0.5,0.0,0.5,0.5,,stimuli/P_09_09_00_36.png,,,,,0,84,84,83,,,,,,,,,,,,,,,,,,,,,,,,,,,,772.6178245353731,None,772.6178245353731,None,773.0124922275572,None,773.0124922275572,None,15,773.0124922275572,None,return,2.5660306301069795,773.0124922275572,None,,,MINXUAN,F,002,2023_Apr_19_1102,untitled,2021.1.4,59.95146756959422,
18,0,18,0,18,36,36,1.0,0.0,1.0,1.0,0.0,None,,stimuli/P_18_00_18_00.png,,,,,0,85,85,136,,,,,,,,,,,,,,,,,,,,,,,,,,,,775.6005644513934,None,775.6005644513934,None,776.0106057925368,None,776.0106057925368,None,50,776.0106057925368,None,return,1.8648354517790722,776.0106057925368,None,,,MINXUAN,F,002,2023_Apr_19_1102,untitled,2021.1.4,59.95146756959422,
18,9,36,18,27,54,81,0.89,0.33,0.67,0.67,0.0,0.0,,stimuli/P_18_09_36_18.png,,,,,0,86,86,158,,,,,,,,,,,,,,,,,,,,,,,,,,,,777.9103681677152,None,777.9103681677152,None,778.3063238239774,None,778.3063238239774,None,35,778.3063238239774,None,return,3.9068547109345673,778.3063238239774,None,,,MINXUAN,F,002,2023_Apr_19_1102,untitled,2021.1.4,59.95146756959422,
36,36,9,0,72,45,81,0.56,0.5,0.5,1.0,-0.5,#NAME?,,stimuli/P_36_36_09_00.png,,,,,0,87,87,244,,,,,,,,,,,,,,,,,,,,,,,,,,,,782.2316952940964,None,782.2316952940964,None,782.6290595188475,None,782.6290595188475,None,35,782.6290595188475,None,return,3.0664752166485414,782.6290595188475,None,,,MINXUAN,F,002,2023_Apr_19_1102,untitled,2021.1.4,59.95146756959422,
9,9,0,18,18,9,36,0.75,0.5,0.5,0.0,0.5,0.5,,stimuli/P_09_09_00_18.png,,,,,0,88,88,82,,,,,,,,,,,,,,,,,,,,,,,,,,,,785.7231423365301,None,785.7231423365301,None,786.1121552747645,None,786.1121552747645,None,30,786.1121552747645,None,return,7.4829040404219995,786.1121552747645,None,,,MINXUAN,F,002,2023_Apr_19_1102,untitled,2021.1.4,59.95146756959422,
9,9,9,18,18,18,45,0.8,0.5,0.5,0.33,0.17,0.25,,stimuli/P_09_09_09_18.png,,,,,0,89,89,86,,,,,,,,,,,,,,,,,,,,,,,,,,,,793.6151888739041,None,793.6151888739041,None,794.013114022935,None,794.013114022935,None,30,794.013114022935,None,return,2.3698772281204583,794.013114022935,None,,,MINXUAN,F,002,2023_Apr_19_1102,untitled,2021.1.4,59.95146756959422,
36,36,18,9,72,54,99,0.64,0.5,0.5,0.67,-0.17,-0.5,,stimuli/P_36_36_18_09.png,,,,,0,90,90,249,,,,,,,,,,,,,,,,,,,,,,,,,,,,796.4020080634291,None,796.4020080634291,None,796.794523649558,None,796.794523649558,None,45,796.794523649558,None,return,5.984400502216886,796.794523649558,None,,,MINXUAN,F,002,2023_Apr_19_1102,untitled,2021.1.4,59.95146756959422,
18,9,9,0,27,27,36,0.75,0.33,0.67,1.0,-0.33,#NAME?,,stimuli/P_18_09_09_00.png,,,,,0,91,91,148,,,,,,,,,,,,,,,,,,,,,,,,,,,,802.7939519163847,None,802.7939519163847,None,803.185852533803,None,803.185852533803,None,45,803.185852533803,None,return,4.671077640232397,803.185852533803,None,,,MINXUAN,F,002,2023_Apr_19_1102,untitled,2021.1.4,59.95146756959422,
36,36,18,18,72,54,108,0.67,0.5,0.5,0.5,0.0,0.0,,stimuli/P_36_36_18_18.png,,,,,0,92,92,250,,,,,,,,,,,,,,,,,,,,,,,,,,,,807.8759293508483,None,807.8759293508483,None,808.2705156919401,None,808.2705156919401,None,45,808.2705156919401,None,return,2.3104243739289814,808.2705156919401,None,,,MINXUAN,F,002,2023_Apr_19_1102,untitled,2021.1.4,59.95146756959422,
18,18,0,18,36,18,54,0.67,0.5,0.5,0.0,0.5,0.5,,stimuli/P_18_18_00_18.png,,,,,0,93,93,162,,,,,,,,,,,,,,,,,,,,,,,,,,,,810.6035886638638,None,810.6035886638638,None,810.991307949138,None,810.991307949138,None,66,810.991307949138,None,return,2.902671672127326,810.991307949138,None,,,MINXUAN,F,002,2023_Apr_19_1102,untitled,2021.1.4,59.95146756959422,
18,18,9,36,36,27,81,0.78,0.5,0.5,0.2,0.3,0.37,,stimuli/P_18_18_09_36.png,,,,,0,94,94,167,,,,,,,,,,,,,,,,,,,,,,,,,,,,813.9120270472413,None,813.9120270472413,None,814.3044993978328,None,814.3044993978328,None,30,814.3044993978328,None,return,7.632849455541873,814.3044993978328,None,,,MINXUAN,F,002,2023_Apr_19_1102,untitled,2021.1.4,59.95146756959422,
0,9,0,18,9,0,27,0.67,1.0,0.0,0.0,0.0,0.0,,stimuli/P_00_09_00_18.png,,,,,0,95,95,18,,,,,,,,,,,,,,,,,,,,,,,,,,,,821.9659798852299,None,821.9659798852299,None,822.3527388863295,None,822.3527388863295,None,0,822.3527388863295,None,return,1.6740347238301183,822.3527388863295,None,,,MINXUAN,F,002,2023_Apr_19_1102,untitled,2021.1.4,59.95146756959422,
0,9,18,18,9,18,45,0.8,1.0,0.0,0.5,-0.5,-1.0,,stimuli/P_00_09_18_18.png,,,,,0,96,96,26,,,,,,,,,,,,,,,,,,,,,,,,,,,,824.0413195260262,None,824.0413195260262,None,824.4335762677802,None,824.4335762677802,None,0,824.4335762677802,None,return,1.480868556551286,824.4335762677802,None,,,MINXUAN,F,002,2023_Apr_19_1102,untitled,2021.1.4,59.95146756959422,
0,36,18,36,36,18,90,0.6,1.0,0.0,0.33,-0.33,-0.5,,stimuli/P_00_36_18_36.png,,,,,0,97,97,59,,,,,,,,,,,,,,,,,,,,,,,,,,,,825.9355790405461,None,825.9355790405461,None,826.3276133468098,None,826.3276133468098,None,0,826.3276133468098,None,return,1.5399459441905492,826.3276133468098,None,,,MINXUAN,F,002,2023_Apr_19_1102,untitled,2021.1.4,59.95146756959422,
36,9,18,36,45,54,99,0.91,0.2,0.8,0.33,0.47,0.7,,stimuli/P_36_09_18_36.png,,,,,0,98,98,219,,,,,,,,,,,,,,,,,,,,,,,,,,,,827.8979345357002,None,827.8979345357002,None,828.2973080754309,None,828.2973080754309,None,40,828.2973080754309,None,return,3.0720890106022125,828.2973080754309,None,,,MINXUAN,F,002,2023_Apr_19_1102,untitled,2021.1.4,59.95146756959422,
9,0,9,9,9,18,27,1.0,0.0,1.0,0.5,0.5,1.0,,stimuli/P_09_00_09_09.png,,,,,0,99,99,69,,,,,,,,,,,,,,,,,,,,,,,,,,,,831.3836488864254,None,831.3836488864254,None,831.7803111024914,None,831.7803111024914,None,33,831.7803111024914,None,return,1.997215289680753,831.7803111024914,None,,,MINXUAN,F,002,2023_Apr_19_1102,untitled,2021.1.4,59.95146756959422,
0,9,36,9,9,36,54,0.83,1.0,0.0,0.8,-0.8,-4.0,,stimuli/P_00_09_36_09.png,,,,,0,100,100,29,,,,,,,,,,,,,,,,,,,,,,,,,,,,833.7948991161174,None,833.7948991161174,None,834.1842585075865,None,834.1842585075865,None,0,834.1842585075865,None,return,3.1275403015024494,834.1842585075865,None,,,MINXUAN,F,002,2023_Apr_19_1102,untitled,2021.1.4,59.95146756959422,
36,18,36,0,54,72,90,0.8,0.33,0.67,1.0,-0.33,#NAME?,,stimuli/P_36_18_36_00.png,,,,,0,101,101,236,,,,,,,,,,,,,,,,,,,,,,,,,,,,837.3435456445004,None,837.3435456445004,None,837.7356009996511,None,837.7356009996511,None,40,837.7356009996511,None,return,2.9898225806755363,837.7356009996511,None,,,MINXUAN,F,002,2023_Apr_19_1102,untitled,2021.1.4,59.95146756959422,
36,36,0,36,72,36,108,0.67,0.5,0.5,0.0,0.5,0.5,,stimuli/P_36_36_00_36.png,,,,,0,102,102,243,,,,,,,,,,,,,,,,,,,,,,,,,,,,840.7563261848627,None,840.7563261848627,None,841.1468108382396,None,841.1468108382396,None,33,841.1468108382396,None,return,5.765323160085245,841.1468108382396,None,,,MINXUAN,F,002,2023_Apr_19_1102,untitled,2021.1.4,59.95146756959422,
9,0,18,9,9,27,36,1.0,0.0,1.0,0.67,0.33,1.0,,stimuli/P_09_00_18_09.png,,,,,0,103,103,73,,,,,,,,,,,,,,,,,,,,,,,,,,,,846.9310979040456,None,846.9310979040456,None,847.3233426991355,None,847.3233426991355,None,30,847.3233426991355,None,return,3.4253819945588475,847.3233426991355,None,,,MINXUAN,F,002,2023_Apr_19_1102,untitled,2021.1.4,59.95146756959422,
0,18,9,0,18,9,27,0.33,1.0,0.0,1.0,-1.0,#NAME?,,stimuli/P_00_18_09_00.png,,,,,0,104,104,36,,,,,,,,,,,,,,,,,,,,,,,,,,,,850.7666452574849,None,850.7666452574849,None,851.1543281338818,None,851.1543281338818,None,0,851.1543281338818,None,return,2.6553148713792325,851.1543281338818,None,,,MINXUAN,F,002,2023_Apr_19_1102,untitled,2021.1.4,59.95146756959422,
18,18,0,0,36,18,36,0.5,0.5,0.5,None,None,None,,stimuli/P_18_18_00_00.png,,,,,0,105,105,160,,,,,,,,,,,,,,,,,,,,,,,,,,,,853.8460063726889,None,853.8460063726889,None,854.2393149897034,None,854.2393149897034,None,50,854.2393149897034,None,return,3.072454237168131,854.2393149897034,None,,,MINXUAN,F,002,2023_Apr_19_1102,untitled,2021.1.4,59.95146756959422,
18,36,18,18,54,36,90,0.6,0.67,0.33,0.5,-0.17,-0.33,,stimuli/P_18_36_18_18.png,,,,,0,106,106,186,,,,,,,,,,,,,,,,,,,,,,,,,,,,857.3448108530283,None,857.3448108530283,None,857.735106635344,None,857.735106635344,None,25,857.735106635344,None,return,4.931320339535887,857.735106635344,None,,,MINXUAN,F,002,2023_Apr_19_1102,untitled,2021.1.4,59.95146756959422,
18,18,18,0,36,36,54,0.67,0.5,0.5,1.0,-0.5,#NAME?,,stimuli/P_18_18_18_00.png,,,,,0,107,107,168,,,,,,,,,,,,,,,,,,,,,,,,,,,,862.6990834633689,None,862.6990834633689,None,863.0920774849219,None,863.0920774849219,None,33,863.0920774849219,None,return,2.0768329737038584,863.0920774849219,None,,,MINXUAN,F,002,2023_Apr_19_1102,untitled,2021.1.4,59.95146756959422,
18,36,0,0,54,18,54,0.33,0.67,0.33,None,None,None,,stimuli/P_18_36_00_00.png,,,,,0,108,108,176,,,,,,,,,,,,,,,,,,,,,,,,,,,,865.1821860459531,None,865.1821860459531,None,865.5681463272849,None,865.5681463272849,None,66,865.5681463272849,None,return,4.329171533034241,865.5681463272849,None,,,MINXUAN,F,002,2023_Apr_19_1102,untitled,2021.1.4,59.95146756959422,
0,0,18,0,0,18,18,1.0,None,None,1.0,None,None,,stimuli/P_00_00_18_00.png,,,,,0,109,109,8,,,,,,,,,,,,,,,,,,,,,,,,,,,,869.9299845888017,None,869.9299845888017,None,870.3170246209338,None,870.3170246209338,None,0,870.3170246209338,None,return,1.515502502254094,870.3170246209338,None,,,MINXUAN,F,002,2023_Apr_19_1102,untitled,2021.1.4,59.95146756959422,
18,36,36,36,54,54,126,0.71,0.67,0.33,0.5,-0.17,-0.33,,stimuli/P_18_36_36_36.png,,,,,0,110,110,191,,,,,,,,,,,,,,,,,,,,,,,,,,,,871.8496870827512,None,871.8496870827512,None,872.2466485342884,None,872.2466485342884,None,15,872.2466485342884,None,return,3.6751150435229647,872.2466485342884,None,,,MINXUAN,F,002,2023_Apr_19_1102,untitled,2021.1.4,59.95146756959422,
36,18,0,9,54,36,63,0.71,0.33,0.67,0.0,0.67,0.67,,stimuli/P_36_18_00_09.png,,,,,0,111,111,225,,,,,,,,,,,,,,,,,,,,,,,,,,,,875.9441442292227,None,875.9441442292227,None,876.3333329540765,None,876.3333329540765,None,55,876.3333329540765,None,return,4.8176956251845695,876.3333329540765,None,,,MINXUAN,F,002,2023_Apr_19_1102,untitled,2021.1.4,59.95146756959422,
0,9,0,0,9,0,9,0.0,1.0,0.0,None,None,None,,stimuli/P_00_09_00_00.png,,,,,0,112,112,16,,,,,,,,,,,,,,,,,,,,,,,,,,,,881.170528378163,None,881.170528378163,None,881.5601210140085,None,881.5601210140085,None,0,881.5601210140085,None,return,1.5814782345987624,881.5601210140085,None,,,MINXUAN,F,002,2023_Apr_19_1102,untitled,2021.1.4,59.95146756959422,
18,36,9,18,54,27,81,0.56,0.67,0.33,0.33,0.0,0.0,,stimuli/P_18_36_09_18.png,,,,,0,113,113,182,,,,,,,,,,,,,,,,,,,,,,,,,,,,883.1673511346162,None,883.1673511346162,None,883.5606489427446,None,883.5606489427446,None,35,883.5606489427446,None,return,7.090428845389397,883.5606489427446,None,,,MINXUAN,F,002,2023_Apr_19_1102,untitled,2021.1.4,59.95146756959422,
36,9,36,36,45,72,117,0.92,0.2,0.8,0.5,0.3,0.6,,stimuli/P_36_09_36_36.png,,,,,0,114,114,223,,,,,,,,,,,,,,,,,,,,,,,,,,,,890.6742082348937,None,890.6742082348937,None,891.0676158385468,None,891.0676158385468,None,35,891.0676158385468,None,return,2.96102145108307,891.0676158385468,None,,,MINXUAN,F,002,2023_Apr_19_1102,untitled,2021.1.4,59.95146756959422,
18,18,9,0,36,27,45,0.6,0.5,0.5,1.0,-0.5,#NAME?,,stimuli/P_18_18_09_00.png,,,,,0,115,115,164,,,,,,,,,,,,,,,,,,,,,,,,,,,,894.0594767475268,None,894.0594767475268,None,894.4545972751366,None,894.4545972751366,None,40,894.4545972751366,None,return,5.002183394935855,894.4545972751366,None,,,MINXUAN,F,002,2023_Apr_19_1102,untitled,2021.1.4,59.95146756959422,
9,18,36,36,27,45,99,0.82,0.67,0.33,0.5,-0.17,-0.33,,stimuli/P_09_18_36_36.png,,,,,0,116,116,111,,,,,,,,,,,,,,,,,,,,,,,,,,,,899.4752223359392,None,899.4752223359392,None,899.8685776018247,None,899.8685776018247,None,30,899.8685776018247,None,return,2.7778523654124,899.8685776018247,None,,,MINXUAN,F,002,2023_Apr_19_1102,untitled,2021.1.4,59.95146756959422,
0,18,36,9,18,36,63,0.71,1.0,0.0,0.8,-0.8,-4.0,,stimuli/P_00_18_36_09.png,,,,,0,117,117,45,,,,,,,,,,,,,,,,,,,,,,,,,,,,902.6733281640336,None,902.6733281640336,None,903.0595057608516,None,903.0595057608516,None,0,903.0595057608516,None,return,1.4565332034762832,903.0595057608516,None,,,MINXUAN,F,002,2023_Apr_19_1102,untitled,2021.1.4,59.95146756959422,
36,0,0,0,36,36,36,1.0,0.0,1.0,None,None,None,,stimuli/P_36_00_00_00.png,,,,,0,118,118,192,,,,,,,,,,,,,,,,,,,,,,,,,,,,904.5397974642328,None,904.5397974642328,None,904.9289435224346,None,904.9289435224346,None,100,904.9289435224346,None,return,2.232718156032206,904.9289435224346,None,,,MINXUAN,F,002,2023_Apr_19_1102,untitled,2021.1.4,59.95146756959422,
36,0,9,36,36,45,81,1.0,0.0,1.0,0.2,0.8,1.0,,stimuli/P_36_00_09_36.png,,,,,0,119,119,199,,,,,,,,,,,,,,,,,,,,,,,,,,,,907.1847232896762,None,907.1847232896762,None,907.577892528956,None,907.577892528956,None,40,907.577892528956,None,return,5.608291666976584,907.577892528956,None,,,MINXUAN,F,002,2023_Apr_19_1102,untitled,2021.1.4,59.95146756959422,
36,36,9,18,72,45,99,0.64,0.5,0.5,0.33,0.17,0.25,,stimuli/P_36_36_09_18.png,,,,,0,120,120,246,,,,,,,,,,,,,,,,,,,,,,,,,,,,913.2081410252358,None,913.2081410252358,None,913.5995000605835,None,913.5995000605835,None,3,913.5995000605835,None,None,,913.5995000605835,None,,,MINXUAN,F,002,2023_Apr_19_1102,untitled,2021.1.4,59.95146756959422,
18,9,9,9,27,27,45,0.8,0.33,0.67,0.5,0.17,0.33,,stimuli/P_18_09_09_09.png,,,,,0,121,121,149,,,,,,,,,,,,,,,,,,,,,,,,,,,,921.6108567862466,None,921.6108567862466,None,922.0045220964894,None,922.0045220964894,None,540,922.0045220964894,None,return,2.149081273149932,922.0045220964894,None,,,MINXUAN,F,002,2023_Apr_19_1102,untitled,2021.1.4,59.95146756959422,
9,18,9,18,27,18,54,0.67,0.67,0.33,0.33,0.0,0.0,,stimuli/P_09_18_09_18.png,,,,,0,122,122,102,,,,,,,,,,,,,,,,,,,,,,,,,,,,924.1888101862933,None,924.1888101862933,None,924.5785717820909,None,924.5785717820909,None,40,924.5785717820909,None,return,5.389602306953748,924.5785717820909,None,,,MINXUAN,F,002,2023_Apr_19_1102,untitled,2021.1.4,59.95146756959422,
36,36,0,0,72,36,72,0.5,0.5,0.5,None,None,None,,stimuli/P_36_36_00_00.png,,,,,0,123,123,240,,,,,,,,,,,,,,,,,,,,,,,,,,,,930.0044157142984,None,930.0044157142984,None,930.3948821632293,None,930.3948821632293,None,50,930.3948821632293,None,return,2.1718760755538824,930.3948821632293,None,,,MINXUAN,F,002,2023_Apr_19_1102,untitled,2021.1.4,59.95146756959422,
18,0,9,0,18,27,27,1.0,0.0,1.0,1.0,0.0,None,,stimuli/P_18_00_09_00.png,,,,,0,124,124,132,,,,,,,,,,,,,,,,,,,,,,,,,,,,932.5843869626624,None,932.5843869626624,None,932.9740091807253,None,932.9740091807253,None,70,932.9740091807253,None,return,3.4448999978994834,932.9740091807253,None,,,MINXUAN,F,002,2023_Apr_19_1102,untitled,2021.1.4,59.95146756959422,
0,0,9,18,0,9,27,1.0,None,None,0.33,None,None,,stimuli/P_00_00_09_18.png,,,,,0,125,125,6,,,,,,,,,,,,,,,,,,,,,,,,,,,,936.4493305033029,None,936.4493305033029,None,936.841166267397,None,936.841166267397,None,0,936.841166267397,None,return,1.3905455244675977,936.841166267397,None,,,MINXUAN,F,002,2023_Apr_19_1102,untitled,2021.1.4,59.95146756959422,
0,9,9,9,9,9,27,0.67,1.0,0.0,0.5,-0.5,-1.0,,stimuli/P_00_09_09_09.png,,,,,0,126,126,21,,,,,,,,,,,,,,,,,,,,,,,,,,,,938.2556642828349,None,938.2556642828349,None,938.6399434979685,None,938.6399434979685,None,0,938.6399434979685,None,return,1.3785328701051185,938.6399434979685,None,,,MINXUAN,F,002,2023_Apr_19_1102,untitled,2021.1.4,59.95146756959422,
9,9,9,0,18,18,27,0.67,0.5,0.5,1.0,-0.5,#NAME?,,stimuli/P_09_09_09_00.png,,,,,0,127,127,84,,,,,,,,,,,,,,,,,,,,,,,,,,,,940.046272840169,None,940.046272840169,None,940.4367705779878,None,940.4367705779878,None,33,940.4367705779878,None,return,2.14865233105229,940.4367705779878,None,,,MINXUAN,F,002,2023_Apr_19_1102,untitled,2021.1.4,59.95146756959422,
0,36,0,9,36,0,45,0.2,1.0,0.0,0.0,0.0,0.0,,stimuli/P_00_36_00_09.png,,,,,0,128,128,49,,,,,,,,,,,,,,,,,,,,,,,,,,,,942.6081858536709,None,942.6081858536709,None,943.0002087821631,None,943.0002087821631,None,0,943.0002087821631,None,return,1.3281247777777025,943.0002087821631,None,,,MINXUAN,F,002,2023_Apr_19_1102,untitled,2021.1.4,59.95146756959422,
36,9,36,18,45,72,99,0.91,0.2,0.8,0.67,0.13,0.4,,stimuli/P_36_09_36_18.png,,,,,0,129,129,222,,,,,,,,,,,,,,,,,,,,,,,,,,,,944.3447448619409,None,944.3447448619409,None,944.7371131058899,None,944.7371131058899,None,35,944.7371131058899,None,return,4.466751013904286,944.7371131058899,None,,,MINXUAN,F,002,2023_Apr_19_1102,untitled,2021.1.4,59.95146756959422,
9,36,9,9,45,18,63,0.43,0.8,0.2,0.5,-0.3,-0.6,,stimuli/P_09_36_09_09.png,,,,,0,130,130,117,,,,,,,,,,,,,,,,,,,,,,,,,,,,949.226140664563,None,949.226140664563,None,949.6206308634646,None,949.6206308634646,None,25,949.6206308634646,None,return,3.3987676732431282,949.6206308634646,None,,,MINXUAN,F,002,2023_Apr_19_1102,untitled,2021.1.4,59.95146756959422,
0,18,9,36,18,9,63,0.71,1.0,0.0,0.2,-0.2,-0.25,,stimuli/P_00_18_09_36.png,,,,,0,131,131,39,,,,,,,,,,,,,,,,,,,,,,,,,,,,953.048561479518,None,953.048561479518,None,953.4376625955047,None,953.4376625955047,None,0,953.4376625955047,None,return,1.3428521691384958,953.4376625955047,None,,,MINXUAN,F,002,2023_Apr_19_1102,untitled,2021.1.4,59.95146756959422,
0,0,0,0,0,0,0,None,None,None,None,None,None,,stimuli/P_00_00_00_00.png,,,,,0,132,132,0,,,,,,,,,,,,,,,,,,,,,,,,,,,,954.7994143859469,None,954.7994143859469,None,955.1888921062709,None,955.1888921062709,None,0,955.1888921062709,None,return,2.524661610761541,955.1888921062709,None,,,MINXUAN,F,002,2023_Apr_19_1102,untitled,2021.1.4,59.95146756959422,
18,0,9,18,18,27,45,1.0,0.0,1.0,0.33,0.67,1.0,,stimuli/P_18_00_09_18.png,,,,,0,133,133,134,,,,,,,,,,,,,,,,,,,,,,,,,,,,957.7283738372644,None,957.7283738372644,None,958.1189426861674,None,958.1189426861674,None,35,958.1189426861674,None,return,5.959223193822254,958.1189426861674,None,,,MINXUAN,F,002,2023_Apr_19_1102,untitled,2021.1.4,59.95146756959422,
36,9,9,0,45,45,54,0.83,0.2,0.8,1.0,-0.2,#NAME?,,stimuli/P_36_09_09_00.png,,,,,0,134,134,212,,,,,,,,,,,,,,,,,,,,,,,,,,,,964.1095201821809,None,964.1095201821809,None,964.5026922659017,None,964.5026922659017,None,75,964.5026922659017,None,return,3.423863630545384,964.5026922659017,None,,,MINXUAN,F,002,2023_Apr_19_1102,untitled,2021.1.4,59.95146756959422,
0,36,36,0,36,36,72,0.5,1.0,0.0,1.0,-1.0,#NAME?,,stimuli/P_00_36_36_00.png,,,,,0,135,135,60,,,,,,,,,,,,,,,,,,,,,,,,,,,,967.9435656693822,None,967.9435656693822,None,968.329516848491,None,968.329516848491,None,0,968.329516848491,None,return,1.5934584623028059,968.329516848491,None,,,MINXUAN,F,002,2023_Apr_19_1102,untitled,2021.1.4,59.95146756959422,
36,18,0,0,54,36,54,0.67,0.33,0.67,None,None,None,,stimuli/P_36_18_00_00.png,,,,,0,136,136,224,,,,,,,,,,,,,,,,,,,,,,,,,,,,969.9444133135912,None,969.9444133135912,None,970.3339672650036,None,970.3339672650036,None,80,970.3339672650036,None,return,4.320899890939472,970.3339672650036,None,,,MINXUAN,F,002,2023_Apr_19_1102,untitled,2021.1.4,59.95146756959422,
18,0,0,9,18,18,27,1.0,0.0,1.0,0.0,1.0,1.0,,stimuli/P_18_00_00_09.png,,,,,0,137,137,129,,,,,,,,,,,,,,,,,,,,,,,,,,,,974.6696099073088,None,974.6696099073088,None,975.0682364961467,None,975.0682364961467,None,70,975.0682364961467,None,return,4.616283415809448,975.0682364961467,None,,,MINXUAN,F,002,2023_Apr_19_1102,untitled,2021.1.4,59.95146756959422,
9,36,0,36,45,9,81,0.56,0.8,0.2,0.0,0.2,0.2,,stimuli/P_09_36_00_36.png,,,,,0,138,138,115,,,,,,,,,,,,,,,,,,,,,,,,,,,,979.7004704140854,None,979.7004704140854,None,980.091386854001,None,980.091386854001,None,20,980.091386854001,None,return,2.770755478537467,980.091386854001,None,,,MINXUAN,F,002,2023_Apr_19_1102,untitled,2021.1.4,59.95146756959422,
36,9,18,0,45,54,63,0.86,0.2,0.8,1.0,-0.2,#NAME?,,stimuli/P_36_09_18_00.png,,,,,0,139,139,216,,,,,,,,,,,,,,,,,,,,,,,,,,,,982.8926524038689,None,982.8926524038689,None,983.2880880958328,None,983.2880880958328,None,60,983.2880880958328,None,return,7.042960769998899,983.2880880958328,None,,,MINXUAN,F,002,2023_Apr_19_1102,untitled,2021.1.4,59.95146756959422,
18,18,0,36,36,18,72,0.75,0.5,0.5,0.0,0.5,0.5,,stimuli/P_18_18_00_36.png,,,,,0,140,140,163,,,,,,,,,,,,,,,,,,,,,,,,,,,,990.3601424042281,None,990.3601424042281,None,990.7513097240735,None,990.7513097240735,None,40,990.7513097240735,None,return,6.909061999198457,990.7513097240735,None,,,MINXUAN,F,002,2023_Apr_19_1102,untitled,2021.1.4,59.95146756959422,
9,0,36,9,9,45,54,1.0,0.0,1.0,0.8,0.2,1.0,,stimuli/P_09_00_36_09.png,,,,,0,141,141,77,,,,,,,,,,,,,,,,,,,,,,,,,,,,997.6835237877967,None,997.6835237877967,None,998.0791722441427,None,998.0791722441427,None,25,998.0791722441427,None,return,3.1707633292098762,998.0791722441427,None,,,MINXUAN,F,002,2023_Apr_19_1102,untitled,2021.1.4,59.95146756959422,
9,0,36,36,9,45,81,1.0,0.0,1.0,0.5,0.5,1.0,,stimuli/P_09_00_36_36.png,,,,,0,142,142,79,,,,,,,,,,,,,,,,,,,,,,,,,,,,1001.2633988939633,None,1001.2633988939633,None,1001.6533209163899,None,1001.6533209163899,None,20,1001.6533209163899,None,return,4.4171234369059675,1001.6533209163899,None,,,MINXUAN,F,002,2023_Apr_19_1102,untitled,2021.1.4,59.95146756959422,
9,36,18,18,45,27,81,0.56,0.8,0.2,0.5,-0.3,-0.6,,stimuli/P_09_36_18_18.png,,,,,0,143,143,122,,,,,,,,,,,,,,,,,,,,,,,,,,,,1006.0965944614145,None,1006.0965944614145,None,1006.487892056779,None,1006.487892056779,None,15,1006.487892056779,None,return,4.280867760106048,1006.487892056779,None,,,MINXUAN,F,002,2023_Apr_19_1102,untitled,2021.1.4,59.95146756959422,
36,36,36,0,72,72,108,0.67,0.5,0.5,1.0,-0.5,#NAME?,,stimuli/P_36_36_36_00.png,,,,,0,144,144,252,,,,,,,,,,,,,,,,,,,,,,,,,,,,1010.7886493045589,None,1010.7886493045589,None,1011.1738700305432,None,1011.1738700305432,None,33,1011.1738700305432,None,return,2.340735334189958,1011.1738700305432,None,,,MINXUAN,F,002,2023_Apr_19_1102,untitled,2021.1.4,59.95146756959422,
0,0,0,18,0,0,18,1.0,None,None,0.0,None,None,,stimuli/P_00_00_00_18.png,,,,,0,145,145,2,,,,,,,,,,,,,,,,,,,,,,,,,,,,1013.527951494274,None,1013.527951494274,None,1013.9162095171632,None,1013.9162095171632,None,0,1013.9162095171632,None,return,1.380768602801254,1013.9162095171632,None,,,MINXUAN,F,002,2023_Apr_19_1102,untitled,2021.1.4,59.95146756959422,
36,18,9,36,54,45,99,0.82,0.33,0.67,0.2,0.47,0.58,,stimuli/P_36_18_09_36.png,,,,,0,146,146,231,,,,,,,,,,,,,,,,,,,,,,,,,,,,1015.3267173470667,None,1015.3267173470667,None,1015.7198706574563,None,1015.7198706574563,None,30,1015.7198706574563,None,return,4.380636051733745,1015.7198706574563,None,,,MINXUAN,F,002,2023_Apr_19_1102,untitled,2021.1.4,59.95146756959422,
36,18,18,0,54,54,72,0.75,0.33,0.67,1.0,-0.33,#NAME?,,stimuli/P_36_18_18_00.png,,,,,0,147,147,232,,,,,,,,,,,,,,,,,,,,,,,,,,,,1020.1233026493719,None,1020.1233026493719,None,1020.5226636735533,None,1020.5226636735533,None,50,1020.5226636735533,None,return,3.1735065106477123,1020.5226636735533,None,,,MINXUAN,F,002,2023_Apr_19_1102,untitled,2021.1.4,59.95146756959422,
0,18,18,18,18,18,54,0.67,1.0,0.0,0.5,-0.5,-1.0,,stimuli/P_00_18_18_18.png,,,,,0,148,148,42,,,,,,,,,,,,,,,,,,,,,,,,,,,,1023.7230518832221,None,1023.7230518832221,None,1024.1141970164026,None,1024.1141970164026,None,0,1024.1141970164026,None,return,1.5498832924786257,1024.1141970164026,None,,,MINXUAN,F,002,2023_Apr_19_1102,untitled,2021.1.4,59.95146756959422,
0,9,0,36,9,0,45,0.8,1.0,0.0,0.0,0.0,0.0,,stimuli/P_00_09_00_36.png,,,,,0,149,149,19,,,,,,,,,,,,,,,,,,,,,,,,,,,,1025.6822830414822,None,1025.6822830414822,None,1026.0711486375367,None,1026.0711486375367,None,0,1026.0711486375367,None,return,1.328247657744214,1026.0711486375367,None,,,MINXUAN,F,002,2023_Apr_19_1102,untitled,2021.1.4,59.95146756959422,
0,18,36,18,18,36,72,0.75,1.0,0.0,0.67,-0.67,-2.0,,stimuli/P_00_18_36_18.png,,,,,0,150,150,46,,,,,,,,,,,,,,,,,,,,,,,,,,,,1027.4233470795807,None,1027.4233470795807,None,1027.816123785633,None,1027.816123785633,None,0,1027.816123785633,None,return,1.3295282262697583,1027.816123785633,None,,,MINXUAN,F,002,2023_Apr_19_1102,untitled,2021.1.4,59.95146756959422,
36,18,18,36,54,54,108,0.83,0.33,0.67,0.33,0.33,0.5,,stimuli/P_36_18_18_36.png,,,,,0,151,151,235,,,,,,,,,,,,,,,,,,,,,,,,,,,,1029.1695112051166,None,1029.1695112051166,None,1029.5596954852444,None,1029.5596954852444,None,40,1029.5596954852444,None,return,3.702140102504927,1029.5596954852444,None,,,MINXUAN,F,002,2023_Apr_19_1102,untitled,2021.1.4,59.95146756959422,
0,9,9,36,9,9,54,0.83,1.0,0.0,0.2,-0.2,-0.25,,stimuli/P_00_09_09_36.png,,,,,0,152,152,23,,,,,,,,,,,,,,,,,,,,,,,,,,,,1033.2977620486345,None,1033.2977620486345,None,1033.688217119794,None,1033.688217119794,None,0,1033.688217119794,None,return,2.3907213110869634,1033.688217119794,None,,,MINXUAN,F,002,2023_Apr_19_1102,untitled,2021.1.4,59.95146756959422,
18,36,0,18,54,18,72,0.5,0.67,0.33,0.0,0.33,0.33,,stimuli/P_18_36_00_18.png,,,,,0,153,153,178,,,,,,,,,,,,,,,,,,,,,,,,,,,,1036.1115636304894,None,1036.1115636304894,None,1036.5005242309635,None,1036.5005242309635,None,35,1036.5005242309635,None,return,6.717256613759673,1036.5005242309635,None,,,MINXUAN,F,002,2023_Apr_19_1102,untitled,2021.1.4,59.95146756959422,
36,18,9,0,54,45,63,0.71,0.33,0.67,1.0,-0.33,#NAME?,,stimuli/P_36_18_09_00.png,,,,,0,154,154,228,,,,,,,,,,,,,,,,,,,,,,,,,,,,1043.2423477355114,None,1043.2423477355114,None,1043.6391100759865,None,1043.6391100759865,None,50,1043.6391100759865,None,return,5.016848208542797,1043.6391100759865,None,,,MINXUAN,F,002,2023_Apr_19_1102,untitled,2021.1.4,59.95146756959422,
36,36,18,0,72,54,90,0.6,0.5,0.5,1.0,-0.5,#NAME?,,stimuli/P_36_36_18_00.png,,,,,0,155,155,248,,,,,,,,,,,,,,,,,,,,,,,,,,,,1048.6897713237995,None,1048.6897713237995,None,1049.0821941810646,None,1049.0821941810646,None,35,1049.0821941810646,None,return,5.10341373058327,1049.0821941810646,None,,,MINXUAN,F,002,2023_Apr_19_1102,untitled,2021.1.4,59.95146756959422,
9,9,0,9,18,9,27,0.67,0.5,0.5,0.0,0.5,0.5,,stimuli/P_09_09_00_09.png,,,,,0,156,156,81,,,,,,,,,,,,,,,,,,,,,,,,,,,,1054.2052442438435,None,1054.2052442438435,None,1054.5941889154274,None,1054.5941889154274,None,33,1054.5941889154274,None,return,1.7042250796876033,1054.5941889154274,None,,,MINXUAN,F,002,2023_Apr_19_1102,untitled,2021.1.4,59.95146756959422,
9,9,0,0,18,9,18,0.5,0.5,0.5,None,None,None,,stimuli/P_09_09_00_00.png,,,,,0,157,157,80,,,,,,,,,,,,,,,,,,,,,,,,,,,,1056.3259794983896,None,1056.3259794983896,None,1056.718202106822,None,1056.718202106822,None,50,1056.718202106822,None,return,1.7706655941219651,1056.718202106822,None,,,MINXUAN,F,002,2023_Apr_19_1102,untitled,2021.1.4,59.95146756959422,
0,18,0,9,18,0,27,0.33,1.0,0.0,0.0,0.0,0.0,,stimuli/P_00_18_00_09.png,,,,,0,158,158,33,,,,,,,,,,,,,,,,,,,,,,,,,,,,1058.5220316381747,None,1058.5220316381747,None,1058.9084453238174,None,1058.9084453238174,None,0,1058.9084453238174,None,return,1.7039167420007288,1058.9084453238174,None,,,MINXUAN,F,002,2023_Apr_19_1102,untitled,2021.1.4,59.95146756959422,
0,18,18,9,18,18,45,0.6,1.0,0.0,0.67,-0.67,-2.0,,stimuli/P_00_18_18_09.png,,,,,0,159,159,41,,,,,,,,,,,,,,,,,,,,,,,,,,,,1060.64193631518,None,1060.64193631518,None,1061.0319021420364,None,1061.0319021420364,None,0,1061.0319021420364,None,return,1.501829261695093,1061.0319021420364,None,,,MINXUAN,F,002,2023_Apr_19_1102,untitled,2021.1.4,59.95146756959422,
18,0,0,0,18,18,18,1.0,0.0,1.0,None,None,None,,stimuli/P_18_00_00_00.png,,,,,0,160,160,128,,,,,,,,,,,,,,,,,,,,,,,,,,,,1062.5675518385615,None,1062.5675518385615,None,1062.9580251141597,None,1062.9580251141597,None,100,1062.9580251141597,None,return,2.1367016855583643,1062.9580251141597,None,,,MINXUAN,F,002,2023_Apr_19_1102,untitled,2021.1.4,59.95146756959422,
18,18,36,9,36,54,81,0.78,0.5,0.5,0.8,-0.3,-1.5,,stimuli/P_18_18_36_09.png,,,,,0,161,161,173,,,,,,,,,,,,,,,,,,,,,,,,,,,,1065.1206214768026,None,1065.1206214768026,None,1065.5122507342894,None,1065.5122507342894,None,40,1065.5122507342894,None,return,2.321360690810252,1065.5122507342894,None,,,MINXUAN,F,002,2023_Apr_19_1102,untitled,2021.1.4,59.95146756959422,
0,9,36,0,9,36,45,0.8,1.0,0.0,1.0,-1.0,#NAME?,,stimuli/P_00_09_36_00.png,,,,,0,162,162,28,,,,,,,,,,,,,,,,,,,,,,,,,,,,1067.8555335522033,None,1067.8555335522033,None,1068.2444110949218,None,1068.2444110949218,None,0,1068.2444110949218,None,return,1.3498295893805334,1068.2444110949218,None,,,MINXUAN,F,002,2023_Apr_19_1102,untitled,2021.1.4,59.95146756959422,
9,0,9,0,9,18,18,1.0,0.0,1.0,1.0,0.0,None,,stimuli/P_09_00_09_00.png,,,,,0,163,163,68,,,,,,,,,,,,,,,,,,,,,,,,,,,,1069.6108909195682,None,1069.6108909195682,None,1070.0088519085912,None,1070.0088519085912,None,50,1070.0088519085912,None,return,2.0131930984643986,1070.0088519085912,None,,,MINXUAN,F,002,2023_Apr_19_1102,untitled,2021.1.4,59.95146756959422,
9,18,18,18,27,27,63,0.71,0.67,0.33,0.5,-0.17,-0.33,,stimuli/P_09_18_18_18.png,,,,,0,164,164,106,,,,,,,,,,,,,,,,,,,,,,,,,,,,1072.0481342440835,None,1072.0481342440835,None,1072.4397333504749,None,1072.4397333504749,None,20,1072.4397333504749,None,return,5.429170224590052,1072.4397333504749,None,,,MINXUAN,F,002,2023_Apr_19_1102,untitled,2021.1.4,59.95146756959422,
18,0,0,36,18,18,54,1.0,0.0,1.0,0.0,1.0,1.0,,stimuli/P_18_00_00_36.png,,,,,0,165,165,131,,,,,,,,,,,,,,,,,,,,,,,,,,,,1077.9014115835962,None,1077.9014115835962,None,1078.289058620001,None,1078.289058620001,None,35,1078.289058620001,None,return,5.499059342488181,1078.289058620001,None,,,MINXUAN,F,002,2023_Apr_19_1102,untitled,2021.1.4,59.95146756959422,
9,9,18,18,18,27,54,0.83,0.5,0.5,0.5,0.0,0.0,,stimuli/P_09_09_18_18.png,,,,,0,166,166,90,,,,,,,,,,,,,,,,,,,,,,,,,,,,1083.8088926410273,None,1083.8088926410273,None,1084.2041343419332,None,1084.2041343419332,None,25,1084.2041343419332,None,return,4.024944632903498,1084.2041343419332,None,,,MINXUAN,F,002,2023_Apr_19_1102,untitled,2021.1.4,59.95146756959422,
9,18,36,0,27,45,63,0.71,0.67,0.33,1.0,-0.67,#NAME?,,stimuli/P_09_18_36_00.png,,,,,0,167,167,108,,,,,,,,,,,,,,,,,,,,,,,,,,,,1088.2574756245376,None,1088.2574756245376,None,1088.6474869624944,None,1088.6474869624944,None,35,1088.6474869624944,None,return,4.315107465925394,1088.6474869624944,None,,,MINXUAN,F,002,2023_Apr_19_1102,untitled,2021.1.4,59.95146756959422,
36,18,36,36,54,72,126,0.86,0.33,0.67,0.5,0.17,0.33,,stimuli/P_36_18_36_36.png,,,,,0,168,168,239,,,,,,,,,,,,,,,,,,,,,,,,,,,,1092.9902651761004,None,1092.9902651761004,None,1093.3832125487752,None,1093.3832125487752,None,25,1093.3832125487752,None,return,5.442875322922191,1093.3832125487752,None,,,MINXUAN,F,002,2023_Apr_19_1102,untitled,2021.1.4,59.95146756959422,
36,0,18,36,36,54,90,1.0,0.0,1.0,0.33,0.67,1.0,,stimuli/P_36_00_18_36.png,,,,,0,169,169,203,,,,,,,,,,,,,,,,,,,,,,,,,,,,1098.859961782051,None,1098.859961782051,None,1099.2502939732512,None,1099.2502939732512,None,66,1099.2502939732512,None,return,4.7489858136177645,1099.2502939732512,None,,,MINXUAN,F,002,2023_Apr_19_1102,untitled,2021.1.4,59.95146756959422,
18,0,18,36,18,36,72,1.0,0.0,1.0,0.33,0.67,1.0,,stimuli/P_18_00_18_36.png,,,,,0,170,170,139,,,,,,,,,,,,,,,,,,,,,,,,,,,,1104.0123346453765,None,1104.0123346453765,None,1104.4084797415853,None,1104.4084797415853,None,66,1104.4084797415853,None,return,3.21937657759554,1104.4084797415853,None,,,MINXUAN,F,002,2023_Apr_19_1102,untitled,2021.1.4,59.95146756959422,
0,0,36,36,0,36,72,1.0,None,None,0.5,None,None,,stimuli/P_00_00_36_36.png,,,,,0,171,171,15,,,,,,,,,,,,,,,,,,,,,,,,,,,,1107.6451880831446,None,1107.6451880831446,None,1108.03567501207,None,1108.03567501207,None,0,1108.03567501207,None,return,1.4061114578144043,1108.03567501207,None,,,MINXUAN,F,002,2023_Apr_19_1102,untitled,2021.1.4,59.95146756959422,
36,36,0,18,72,36,90,0.6,0.5,0.5,0.0,0.5,0.5,,stimuli/P_36_36_00_18.png,,,,,0,172,172,242,,,,,,,,,,,,,,,,,,,,,,,,,,,,1109.4620832818982,None,1109.4620832818982,None,1109.8599686087182,None,1109.8599686087182,None,66,1109.8599686087182,None,return,3.5941229243326234,1109.8599686087182,None,,,MINXUAN,F,002,2023_Apr_19_1102,untitled,2021.1.4,59.95146756959422,
9,36,9,18,45,18,72,0.5,0.8,0.2,0.33,-0.13,-0.2,,stimuli/P_09_36_09_18.png,,,,,0,173,173,118,,,,,,,,,,,,,,,,,,,,,,,,,,,,1113.4723084878788,None,1113.4723084878788,None,1113.865163700575,None,1113.865163700575,None,20,1113.865163700575,None,return,5.133765081947786,1113.865163700575,None,,,MINXUAN,F,002,2023_Apr_19_1102,untitled,2021.1.4,59.95146756959422,
36,9,9,18,45,45,72,0.88,0.2,0.8,0.33,0.47,0.7,,stimuli/P_36_09_09_18.png,,,,,0,174,174,214,,,,,,,,,,,,,,,,,,,,,,,,,,,,1119.035103278904,None,1119.035103278904,None,1119.4250213191044,None,1119.4250213191044,None,55,1119.4250213191044,None,return,3.640388368956337,1119.4250213191044,None,,,MINXUAN,F,002,2023_Apr_19_1102,untitled,2021.1.4,59.95146756959422,
36,0,18,9,36,54,63,1.0,0.0,1.0,0.67,0.33,1.0,,stimuli/P_36_00_18_09.png,,,,,0,175,175,201,,,,,,,,,,,,,,,,,,,,,,,,,,,,1123.0949407018852,None,1123.0949407018852,None,1123.4877566612558,None,1123.4877566612558,None,50,1123.4877566612558,None,return,2.9782223706351942,1123.4877566612558,None,,,MINXUAN,F,002,2023_Apr_19_1102,untitled,2021.1.4,59.95146756959422,
18,0,0,18,18,18,36,1.0,0.0,1.0,0.0,1.0,1.0,,stimuli/P_18_00_00_18.png,,,,,0,176,176,130,,,,,,,,,,,,,,,,,,,,,,,,,,,,1126.4881907233575,None,1126.4881907233575,None,1126.8787311278284,None,1126.8787311278284,None,50,1126.8787311278284,None,return,1.7244217672778177,1126.8787311278284,None,,,MINXUAN,F,002,2023_Apr_19_1102,untitled,2021.1.4,59.95146756959422,
9,18,36,18,27,45,81,0.78,0.67,0.33,0.67,-0.33,-1.0,,stimuli/P_09_18_36_18.png,,,,,0,177,177,110,,,,,,,,,,,,,,,,,,,,,,,,,,,,1128.6276134037034,None,1128.6276134037034,None,1129.0196084566414,None,1129.0196084566414,None,20,1129.0196084566414,None,return,4.968729893334967,1129.0196084566414,None,,,MINXUAN,F,002,2023_Apr_19_1102,untitled,2021.1.4,59.95146756959422,
0,0,36,9,0,36,45,1.0,None,None,0.8,None,None,,stimuli/P_00_00_36_09.png,,,,,0,178,178,13,,,,,,,,,,,,,,,,,,,,,,,,,,,,1134.0149759957421,None,1134.0149759957421,None,1134.4044076360806,None,1134.4044076360806,None,0,1134.4044076360806,None,return,1.352363419777248,1134.4044076360806,None,,,MINXUAN,F,002,2023_Apr_19_1102,untitled,2021.1.4,59.95146756959422,
9,36,0,0,45,9,45,0.2,0.8,0.2,None,None,None,,stimuli/P_09_36_00_00.png,,,,,0,179,179,112,,,,,,,,,,,,,,,,,,,,,,,,,,,,1135.7775753165988,None,1135.7775753165988,None,1136.1696227073044,None,1136.1696227073044,None,25,1136.1696227073044,None,return,4.722697465549572,1136.1696227073044,None,,,MINXUAN,F,002,2023_Apr_19_1102,untitled,2021.1.4,59.95146756959422,
18,0,9,9,18,27,36,1.0,0.0,1.0,0.5,0.5,1.0,,stimuli/P_18_00_09_09.png,,,,,0,180,180,133,,,,,,,,,,,,,,,,,,,,,,,,,,,,1140.9198378894653,None,1140.9198378894653,None,1141.3089623298947,None,1141.3089623298947,None,55,1141.3089623298947,None,return,4.948305081365106,1141.3089623298947,None,,,MINXUAN,F,002,2023_Apr_19_1102,untitled,2021.1.4,59.95146756959422,
9,36,18,0,45,27,63,0.43,0.8,0.2,1.0,-0.8,#NAME?,,stimuli/P_09_36_18_00.png,,,,,0,181,181,120,,,,,,,,,,,,,,,,,,,,,,,,,,,,1146.2933457654508,None,1146.2933457654508,None,1146.6897377593632,None,1146.6897377593632,None,35,1146.6897377593632,None,return,6.150123477294983,1146.6897377593632,None,,,MINXUAN,F,002,2023_Apr_19_1102,untitled,2021.1.4,59.95146756959422,
36,0,36,9,36,72,81,1.0,0.0,1.0,0.8,0.2,1.0,,stimuli/P_36_00_36_09.png,,,,,0,182,182,205,,,,,,,,,,,,,,,,,,,,,,,,,,,,1152.8758730308618,None,1152.8758730308618,None,1153.2712922250503,None,1153.2712922250503,None,65,1153.2712922250503,None,return,5.608586920228845,1153.2712922250503,None,,,MINXUAN,F,002,2023_Apr_19_1102,untitled,2021.1.4,59.95146756959422,
36,36,18,36,72,54,126,0.71,0.5,0.5,0.33,0.17,0.25,,stimuli/P_36_36_18_36.png,,,,,0,183,183,251,,,,,,,,,,,,,,,,,,,,,,,,,,,,1158.9090102303235,None,1158.9090102303235,None,1159.3037934069216,None,1159.3037934069216,None,25,1159.3037934069216,None,return,4.479417890295736,1159.3037934069216,None,,,MINXUAN,F,002,2023_Apr_19_1102,untitled,2021.1.4,59.95146756959422,
9,36,18,36,45,27,99,0.64,0.8,0.2,0.33,-0.13,-0.2,,stimuli/P_09_36_18_36.png,,,,,0,184,184,123,,,,,,,,,,,,,,,,,,,,,,,,,,,,1163.7988841816477,None,1163.7988841816477,None,1164.1923299008486,None,1164.1923299008486,None,15,1164.1923299008486,None,return,3.3768927639030153,1164.1923299008486,None,,,MINXUAN,F,002,2023_Apr_19_1102,untitled,2021.1.4,59.95146756959422,
18,36,9,36,54,27,99,0.64,0.67,0.33,0.2,0.13,0.17,,stimuli/P_18_36_09_36.png,,,,,0,185,185,183,,,,,,,,,,,,,,,,,,,,,,,,,,,,1167.5898972188734,None,1167.5898972188734,None,1167.9836467246496,None,1167.9836467246496,None,25,1167.9836467246496,None,return,7.365478580490162,1167.9836467246496,None,,,MINXUAN,F,002,2023_Apr_19_1102,untitled,2021.1.4,59.95146756959422,
36,18,0,36,54,36,90,0.8,0.33,0.67,0.0,0.67,0.67,,stimuli/P_36_18_00_36.png,,,,,0,186,186,227,,,,,,,,,,,,,,,,,,,,,,,,,,,,1175.3735585070754,None,1175.3735585070754,None,1175.7648623602145,None,1175.7648623602145,None,40,1175.7648623602145,None,return,5.289364682139421,1175.7648623602145,None,,,MINXUAN,F,002,2023_Apr_19_1102,untitled,2021.1.4,59.95146756959422,
9,36,9,36,45,18,90,0.6,0.8,0.2,0.2,0.0,0.0,,stimuli/P_09_36_09_36.png,,,,,0,187,187,119,,,,,,,,,,,,,,,,,,,,,,,,,,,,1181.0809346614187,None,1181.0809346614187,None,1181.472550834471,None,1181.472550834471,None,15,1181.472550834471,None,return,4.888471640610078,1181.472550834471,None,,,MINXUAN,F,002,2023_Apr_19_1102,untitled,2021.1.4,59.95146756959422,
0,0,9,0,0,9,9,1.0,None,None,1.0,None,None,,stimuli/P_00_00_09_00.png,,,,,0,188,188,4,,,,,,,,,,,,,,,,,,,,,,,,,,,,1186.3857998547028,None,1186.3857998547028,None,1186.7775628010495,None,1186.7775628010495,None,0,1186.7775628010495,None,return,1.3221935439069057,1186.7775628010495,None,,,MINXUAN,F,002,2023_Apr_19_1102,untitled,2021.1.4,59.95146756959422,
9,9,36,18,18,45,72,0.88,0.5,0.5,0.67,-0.17,-0.5,,stimuli/P_09_09_36_18.png,,,,,0,189,189,94,,,,,,,,,,,,,,,,,,,,,,,,,,,,1188.1204428457422,None,1188.1204428457422,None,1188.5124873919995,None,1188.5124873919995,None,20,1188.5124873919995,None,return,6.469194959870947,1188.5124873919995,None,,,MINXUAN,F,002,2023_Apr_19_1102,untitled,2021.1.4,59.95146756959422,
36,0,18,18,36,54,72,1.0,0.0,1.0,0.5,0.5,1.0,,stimuli/P_36_00_18_18.png,,,,,0,190,190,202,,,,,,,,,,,,,,,,,,,,,,,,,,,,1195.015807711061,None,1195.015807711061,None,1195.41367597122,None,1195.41367597122,None,50,1195.41367597122,None,return,2.671736413372855,1195.41367597122,None,,,MINXUAN,F,002,2023_Apr_19_1102,untitled,2021.1.4,59.95146756959422,
36,9,9,9,45,45,63,0.86,0.2,0.8,0.5,0.3,0.6,,stimuli/P_36_09_09_09.png,,,,,0,191,191,213,,,,,,,,,,,,,,,,,,,,,,,,,,,,1198.1039900148608,None,1198.1039900148608,None,1198.4981656183008,None,1198.4981656183008,None,50,1198.4981656183008,None,return,3.861650243801705,1198.4981656183008,None,,,MINXUAN,F,002,2023_Apr_19_1102,untitled,2021.1.4,59.95146756959422,
18,0,36,0,18,54,54,1.0,0.0,1.0,1.0,0.0,None,,stimuli/P_18_00_36_00.png,,,,,0,192,192,140,,,,,,,,,,,,,,,,,,,,,,,,,,,,1202.38823868068,None,1202.38823868068,None,1202.778294391952,None,1202.778294391952,None,66,1202.778294391952,None,return,2.4383816708650556,1202.778294391952,None,,,MINXUAN,F,002,2023_Apr_19_1102,untitled,2021.1.4,59.95146756959422,
9,18,18,36,27,27,81,0.78,0.67,0.33,0.33,0.0,0.0,,stimuli/P_09_18_18_36.png,,,,,0,193,193,107,,,,,,,,,,,,,,,,,,,,,,,,,,,,1205.2491379913554,None,1205.2491379913554,None,1205.642805577154,None,1205.642805577154,None,20,1205.642805577154,None,return,4.761245365691138,1205.642805577154,None,,,MINXUAN,F,002,2023_Apr_19_1102,untitled,2021.1.4,59.95146756959422,
18,18,36,36,36,54,108,0.83,0.5,0.5,0.5,0.0,0.0,,stimuli/P_18_18_36_36.png,,,,,0,194,194,175,,,,,,,,,,,,,,,,,,,,,,,,,,,,1210.418724858675,None,1210.418724858675,None,1210.8086116099948,None,1210.8086116099948,None,20,1210.8086116099948,None,return,5.083283602973097,1210.8086116099948,None,,,MINXUAN,F,002,2023_Apr_19_1102,untitled,2021.1.4,59.95146756959422,
36,9,0,0,45,36,45,0.8,0.2,0.8,None,None,None,,stimuli/P_36_09_00_00.png,,,,,0,195,195,208,,,,,,,,,,,,,,,,,,,,,,,,,,,,1215.9129793669708,None,1215.9129793669708,None,1216.3034003048087,None,1216.3034003048087,None,75,1216.3034003048087,None,return,2.6965746640853467,1216.3034003048087,None,,,MINXUAN,F,002,2023_Apr_19_1102,untitled,2021.1.4,59.95146756959422,
9,18,9,36,27,18,72,0.75,0.67,0.33,0.2,0.13,0.17,,stimuli/P_09_18_09_36.png,,,,,0,196,196,103,,,,,,,,,,,,,,,,,,,,,,,,,,,,1219.0293506760936,None,1219.0293506760936,None,1219.4203507426573,None,1219.4203507426573,None,15,1219.4203507426573,None,return,4.798016057451605,1219.4203507426573,None,,,MINXUAN,F,002,2023_Apr_19_1102,untitled,2021.1.4,59.95146756959422,
36,9,0,36,45,36,81,0.89,0.2,0.8,0.0,0.8,0.8,,stimuli/P_36_09_00_36.png,,,,,0,197,197,211,,,,,,,,,,,,,,,,,,,,,,,,,,,,1224.2405665449041,None,1224.2405665449041,None,1224.6339690285604,None,1224.6339690285604,None,40,1224.6339690285604,None,return,6.274264099767606,1224.6339690285604,None,,,MINXUAN,F,002,2023_Apr_19_1102,untitled,2021.1.4,59.95146756959422,
18,36,0,36,54,18,90,0.6,0.67,0.33,0.0,0.33,0.33,,stimuli/P_18_36_00_36.png,,,,,0,198,198,179,,,,,,,,,,,,,,,,,,,,,,,,,,,,1230.922745479751,None,1230.922745479751,None,1231.3110456004142,None,1231.3110456004142,None,20,1231.3110456004142,None,None,,1231.3110456004142,None,,,MINXUAN,F,002,2023_Apr_19_1102,untitled,2021.1.4,59.95146756959422,
0,0,18,18,0,18,36,1.0,None,None,0.5,None,None,,stimuli/P_00_00_18_18.png,,,,,0,199,199,10,,,,,,,,,,,,,,,,,,,,,,,,,,,,1239.3162588967098,None,1239.3162588967098,None,1239.7098468380864,None,1239.7098468380864,None,0,1239.7098468380864,None,return,1.3910085998868453,1239.7098468380864,None,,,MINXUAN,F,002,2023_Apr_19_1102,untitled,2021.1.4,59.95146756959422,
18,18,36,0,36,54,72,0.75,0.5,0.5,1.0,-0.5,#NAME?,,stimuli/P_18_18_36_00.png,,,,,0,200,200,172,,,,,,,,,,,,,,,,,,,,,,,,,,,,1241.1175022599127,None,1241.1175022599127,None,1241.509792566103,None,1241.509792566103,None,25,1241.509792566103,None,return,4.263229365125881,1241.509792566103,None,,,MINXUAN,F,002,2023_Apr_19_1102,untitled,2021.1.4,59.95146756959422,
0,36,0,36,36,0,72,0.5,1.0,0.0,0.0,0.0,0.0,,stimuli/P_00_36_00_36.png,,,,,0,201,201,51,,,,,,,,,,,,,,,,,,,,,,,,,,,,1245.7891254644273,None,1245.7891254644273,None,1246.176946580781,None,1246.176946580781,None,0,1246.176946580781,None,return,1.5927769336121855,1246.176946580781,None,,,MINXUAN,F,002,2023_Apr_19_1102,untitled,2021.1.4,59.95146756959422,
18,18,36,18,36,54,90,0.8,0.5,0.5,0.67,-0.17,-0.5,,stimuli/P_18_18_36_18.png,,,,,0,202,202,174,,,,,,,,,,,,,,,,,,,,,,,,,,,,1247.7888137133996,None,1247.7888137133996,None,1248.182004001559,None,1248.182004001559,None,20,1248.182004001559,None,return,6.489454225215013,1248.182004001559,None,,,MINXUAN,F,002,2023_Apr_19_1102,untitled,2021.1.4,59.95146756959422,
0,9,36,18,9,36,63,0.86,1.0,0.0,0.67,-0.67,-2.0,,stimuli/P_00_09_36_18.png,,,,,0,203,203,30,,,,,,,,,,,,,,,,,,,,,,,,,,,,1254.689463554998,None,1254.689463554998,None,1255.0808635503345,None,1255.0808635503345,None,0,1255.0808635503345,None,return,1.5333530927382526,1255.0808635503345,None,,,MINXUAN,F,002,2023_Apr_19_1102,untitled,2021.1.4,59.95146756959422,
9,18,0,36,27,9,63,0.71,0.67,0.33,0.0,0.33,0.33,,stimuli/P_09_18_00_36.png,,,,,0,204,204,99,,,,,,,,,,,,,,,,,,,,,,,,,,,,1256.6316980247575,None,1256.6316980247575,None,1257.024754055179,None,1257.024754055179,None,25,1257.024754055179,None,return,5.620861263400002,1257.024754055179,None,,,MINXUAN,F,002,2023_Apr_19_1102,untitled,2021.1.4,59.95146756959422,
0,36,36,18,36,36,90,0.6,1.0,0.0,0.67,-0.67,-2.0,,stimuli/P_00_36_36_18.png,,,,,0,205,205,62,,,,,,,,,,,,,,,,,,,,,,,,,,,,1262.6662318460512,None,1262.6662318460512,None,1263.0557385797001,None,1263.0557385797001,None,0,1263.0557385797001,None,return,1.5994795805891044,1263.0557385797001,None,,,MINXUAN,F,002,2023_Apr_19_1102,untitled,2021.1.4,59.95146756959422,
0,18,18,36,18,18,72,0.75,1.0,0.0,0.33,-0.33,-0.5,,stimuli/P_00_18_18_36.png,,,,,0,206,206,43,,,,,,,,,,,,,,,,,,,,,,,,,,,,1264.675169656839,None,1264.675169656839,None,1265.0670372787063,None,1265.0670372787063,None,0,1265.0670372787063,None,return,1.0436957742422237,1265.0670372787063,None,,,MINXUAN,F,002,2023_Apr_19_1102,untitled,2021.1.4,59.95146756959422,
0,36,9,9,36,9,54,0.33,1.0,0.0,0.5,-0.5,-1.0,,stimuli/P_00_36_09_09.png,,,,,0,207,207,53,,,,,,,,,,,,,,,,,,,,,,,,,,,,1266.1310548960537,None,1266.1310548960537,None,1266.52079828742,None,1266.52079828742,None,0,1266.52079828742,None,return,1.0273430677771103,1266.52079828742,None,,,MINXUAN,F,002,2023_Apr_19_1102,untitled,2021.1.4,59.95146756959422,
18,36,18,9,54,36,81,0.56,0.67,0.33,0.67,-0.33,-1.0,,stimuli/P_18_36_18_09.png,,,,,0,208,208,185,,,,,,,,,,,,,,,,,,,,,,,,,,,,1267.5642397683914,None,1267.5642397683914,None,1267.9610288466429,None,1267.9610288466429,None,3,1267.9610288466429,None,None,,1267.9610288466429,None,,,MINXUAN,F,002,2023_Apr_19_1102,untitled,2021.1.4,59.95146756959422,
36,0,9,18,36,45,63,1.0,0.0,1.0,0.33,0.67,1.0,,stimuli/P_36_00_09_18.png,,,,,0,209,209,198,,,,,,,,,,,,,,,,,,,,,,,,,,,,1275.9685962044896,None,1275.9685962044896,None,1276.3699159125536,None,1276.3699159125536,None,50,1276.3699159125536,None,return,2.910915438675147,1276.3699159125536,None,,,MINXUAN,F,002,2023_Apr_19_1102,untitled,2021.1.4,59.95146756959422,
0,0,36,0,0,36,36,1.0,None,None,1.0,None,None,,stimuli/P_00_00_36_00.png,,,,,0,210,210,12,,,,,,,,,,,,,,,,,,,,,,,,,,,,1279.294554085107,None,1279.294554085107,None,1279.6870309867954,None,1279.6870309867954,None,0,1279.6870309867954,None,return,1.205442786005733,1279.6870309867954,None,,,MINXUAN,F,002,2023_Apr_19_1102,untitled,2021.1.4,59.95146756959422,
18,9,36,36,27,54,99,0.91,0.33,0.67,0.5,0.17,0.33,,stimuli/P_18_09_36_36.png,,,,,0,211,211,159,,,,,,,,,,,,,,,,,,,,,,,,,,,,1280.9104950299006,None,1280.9104950299006,None,1281.3090271832116,None,1281.3090271832116,None,20,1281.3090271832116,None,return,5.604527899158711,1281.3090271832116,None,,,MINXUAN,F,002,2023_Apr_19_1102,untitled,2021.1.4,59.95146756959422,
18,36,9,9,54,27,72,0.5,0.67,0.33,0.5,-0.17,-0.33,,stimuli/P_18_36_09_09.png,,,,,0,212,212,181,,,,,,,,,,,,,,,,,,,,,,,,,,,,1286.9482151969496,None,1286.9482151969496,None,1287.340053805492,None,1287.340053805492,None,20,1287.340053805492,None,return,4.57907809306198,1287.340053805492,None,,,MINXUAN,F,002,2023_Apr_19_1102,untitled,2021.1.4,59.95146756959422,
36,18,18,9,54,54,81,0.78,0.33,0.67,0.67,0.0,0.0,,stimuli/P_36_18_18_09.png,,,,,0,213,213,233,,,,,,,,,,,,,,,,,,,,,,,,,,,,1291.9343411386726,None,1291.9343411386726,None,1292.3269443336685,None,1292.3269443336685,None,50,1292.3269443336685,None,return,5.060760160493373,1292.3269443336685,None,,,MINXUAN,F,002,2023_Apr_19_1102,untitled,2021.1.4,59.95146756959422,
18,18,9,9,36,27,54,0.67,0.5,0.5,0.5,0.0,0.0,,stimuli/P_18_18_09_09.png,,,,,0,214,214,165,,,,,,,,,,,,,,,,,,,,,,,,,,,,1297.4033233341615,None,1297.4033233341615,None,1297.795456627071,None,1297.795456627071,None,35,1297.795456627071,None,return,3.0714848507777788,1297.795456627071,None,,,MINXUAN,F,002,2023_Apr_19_1102,untitled,2021.1.4,59.95146756959422,
0,36,18,18,36,18,72,0.5,1.0,0.0,0.5,-0.5,-1.0,,stimuli/P_00_36_18_18.png,,,,,0,215,215,58,,,,,,,,,,,,,,,,,,,,,,,,,,,,1300.889216884847,None,1300.889216884847,None,1301.2814053599577,None,1301.2814053599577,None,0,1301.2814053599577,None,return,1.9287631847037119,1301.2814053599577,None,,,MINXUAN,F,002,2023_Apr_19_1102,untitled,2021.1.4,59.95146756959422,
36,9,36,9,45,72,90,0.9,0.2,0.8,0.8,0.0,0.0,,stimuli/P_36_09_36_09.png,,,,,0,216,216,221,,,,,,,,,,,,,,,,,,,,,,,,,,,,1303.2325207516405,None,1303.2325207516405,None,1303.6230008538987,None,1303.6230008538987,None,40,1303.6230008538987,None,return,7.427842438308289,1303.6230008538987,None,,,MINXUAN,F,002,2023_Apr_19_1102,untitled,2021.1.4,59.95146756959422,
9,0,0,0,9,9,9,1.0,0.0,1.0,None,None,None,,stimuli/P_09_00_00_00.png,,,,,0,217,217,64,,,,,,,,,,,,,,,,,,,,,,,,,,,,1311.0814745368261,None,1311.0814745368261,None,1311.4745396694634,None,1311.4745396694634,None,100,1311.4745396694634,None,return,3.58251304319856,1311.4745396694634,None,,,MINXUAN,F,002,2023_Apr_19_1102,untitled,2021.1.4,59.95146756959422,
18,9,9,36,27,27,72,0.88,0.33,0.67,0.2,0.47,0.58,,stimuli/P_18_09_09_36.png,,,,,0,218,218,151,,,,,,,,,,,,,,,,,,,,,,,,,,,,1315.0945874219833,None,1315.0945874219833,None,1315.4892522697191,None,1315.4892522697191,None,25,1315.4892522697191,None,return,3.779808773739205,1315.4892522697191,None,,,MINXUAN,F,002,2023_Apr_19_1102,untitled,2021.1.4,59.95146756959422,
9,36,0,9,45,9,54,0.33,0.8,0.2,0.0,0.2,0.2,,stimuli/P_09_36_00_09.png,,,,,0,219,219,113,,,,,,,,,,,,,,,,,,,,,,,,,,,,1319.2945444139987,None,1319.2945444139987,None,1319.6838298499351,None,1319.6838298499351,None,10,1319.6838298499351,None,return,2.7015626804422936,1319.6838298499351,None,,,MINXUAN,F,002,2023_Apr_19_1102,untitled,2021.1.4,59.95146756959422,
0,0,0,9,0,0,9,1.0,None,None,0.0,None,None,,stimuli/P_00_00_00_09.png,,,,,0,220,220,1,,,,,,,,,,,,,,,,,,,,,,,,,,,,1322.4103900699338,None,1322.4103900699338,None,1322.8000970524154,None,1322.8000970524154,None,0,1322.8000970524154,None,return,1.3330126697183005,1322.8000970524154,None,,,MINXUAN,F,002,2023_Apr_19_1102,untitled,2021.1.4,59.95146756959422,
9,18,0,9,27,9,36,0.5,0.67,0.33,0.0,0.33,0.33,,stimuli/P_09_18_00_09.png,,,,,0,221,221,97,,,,,,,,,,,,,,,,,,,,,,,,,,,,1324.1687949742118,None,1324.1687949742118,None,1324.558258472316,None,1324.558258472316,None,25,1324.558258472316,None,return,5.089375263465627,1324.558258472316,None,,,MINXUAN,F,002,2023_Apr_19_1102,untitled,2021.1.4,59.95146756959422,
0,36,9,18,36,9,63,0.43,1.0,0.0,0.33,-0.33,-0.5,,stimuli/P_00_36_09_18.png,,,,,0,222,222,54,,,,,,,,,,,,,,,,,,,,,,,,,,,,1329.6613257496647,None,1329.6613257496647,None,1330.0541428468205,None,1330.0541428468205,None,0,1330.0541428468205,None,return,1.3733047827045084,1330.0541428468205,None,,,MINXUAN,F,002,2023_Apr_19_1102,untitled,2021.1.4,59.95146756959422,
18,9,0,9,27,18,36,0.75,0.33,0.67,0.0,0.67,0.67,,stimuli/P_18_09_00_09.png,,,,,0,223,223,145,,,,,,,,,,,,,,,,,,,,,,,,,,,,1331.4470253661784,None,1331.4470253661784,None,1331.835702091179,None,1331.835702091179,None,40,1331.835702091179,None,return,4.589663974496943,1331.835702091179,None,,,MINXUAN,F,002,2023_Apr_19_1102,untitled,2021.1.4,59.95146756959422,
9,36,9,0,45,18,54,0.33,0.8,0.2,1.0,-0.8,#NAME?,,stimuli/P_09_36_09_00.png,,,,,0,224,224,116,,,,,,,,,,,,,,,,,,,,,,,,,,,,1336.4622260729666,None,1336.4622260729666,None,1336.855243418955,None,1336.855243418955,None,10,1336.855243418955,None,return,3.446476957440609,1336.855243418955,None,,,MINXUAN,F,002,2023_Apr_19_1102,untitled,2021.1.4,59.95146756959422,
18,9,0,0,27,18,27,0.67,0.33,0.67,None,None,None,,stimuli/P_18_09_00_00.png,,,,,0,225,225,144,,,,,,,,,,,,,,,,,,,,,,,,,,,,1340.3346157981505,None,1340.3346157981505,None,1340.7235178030896,None,1340.7235178030896,None,60,1340.7235178030896,None,return,2.6800165887980256,1340.7235178030896,None,,,MINXUAN,F,002,2023_Apr_19_1102,untitled,2021.1.4,59.95146756959422,
36,0,18,0,36,54,54,1.0,0.0,1.0,1.0,0.0,None,,stimuli/P_36_00_18_00.png,,,,,0,226,226,200,,,,,,,,,,,,,,,,,,,,,,,,,,,,1343.4261818521045,None,1343.4261818521045,None,1343.8217956062435,None,1343.8217956062435,None,60,1343.8217956062435,None,return,2.8390448813370313,1343.8217956062435,None,,,MINXUAN,F,002,2023_Apr_19_1102,untitled,2021.1.4,59.95146756959422,
9,0,18,18,9,27,45,1.0,0.0,1.0,0.5,0.5,1.0,,stimuli/P_09_00_18_18.png,,,,,0,227,227,74,,,,,,,,,,,,,,,,,,,,,,,,,,,,1346.6772808029054,None,1346.6772808029054,None,1347.0711827708656,None,1347.0711827708656,None,25,1347.0711827708656,None,return,6.496059023345879,1347.0711827708656,None,,,MINXUAN,F,002,2023_Apr_19_1102,untitled,2021.1.4,59.95146756959422,
18,36,18,36,54,36,108,0.67,0.67,0.33,0.33,0.0,0.0,,stimuli/P_18_36_18_36.png,,,,,0,228,228,187,,,,,,,,,,,,,,,,,,,,,,,,,,,,1353.5829704297284,None,1353.5829704297284,None,1353.9757078824623,None,1353.9757078824623,None,20,1353.9757078824623,None,return,6.610962030659721,1353.9757078824623,None,,,MINXUAN,F,002,2023_Apr_19_1102,untitled,2021.1.4,59.95146756959422,
36,9,0,18,45,36,63,0.86,0.2,0.8,0.0,0.8,0.8,,stimuli/P_36_09_00_18.png,,,,,0,229,229,210,,,,,,,,,,,,,,,,,,,,,,,,,,,,1360.600045624873,None,1360.600045624873,None,1360.997134507481,None,1360.997134507481,None,55,1360.997134507481,None,return,4.294973356096307,1360.997134507481,None,,,MINXUAN,F,002,2023_Apr_19_1102,untitled,2021.1.4,59.95146756959422,
18,9,9,18,27,27,54,0.83,0.33,0.67,0.33,0.33,0.5,,stimuli/P_18_09_09_18.png,,,,,0,230,230,150,,,,,,,,,,,,,,,,,,,,,,,,,,,,1365.3194253313632,None,1365.3194253313632,None,1365.7095453270595,None,1365.7095453270595,None,35,1365.7095453270595,None,return,2.620586490142159,1365.7095453270595,None,,,MINXUAN,F,002,2023_Apr_19_1102,untitled,2021.1.4,59.95146756959422,
36,9,0,9,45,36,54,0.83,0.2,0.8,0.0,0.8,0.8,,stimuli/P_36_09_00_09.png,,,,,0,231,231,209,,,,,,,,,,,,,,,,,,,,,,,,,,,,1368.3667853178922,None,1368.3667853178922,None,1368.75714652241,None,1368.75714652241,None,60,1368.75714652241,None,return,2.942222523102828,1368.75714652241,None,,,MINXUAN,F,002,2023_Apr_19_1102,untitled,2021.1.4,59.95146756959422,
18,9,18,18,27,36,63,0.86,0.33,0.67,0.5,0.17,0.33,,stimuli/P_18_09_18_18.png,,,,,0,232,232,154,,,,,,,,,,,,,,,,,,,,,,,,,,,,1371.7165443650738,None,1371.7165443650738,None,1372.1063560230832,None,1372.1063560230832,None,40,1372.1063560230832,None,return,7.514343107024615,1372.1063560230832,None,,,MINXUAN,F,002,2023_Apr_19_1102,untitled,2021.1.4,59.95146756959422,
36,0,0,9,36,36,45,1.0,0.0,1.0,0.0,1.0,1.0,,stimuli/P_36_00_00_09.png,,,,,0,233,233,193,,,,,,,,,,,,,,,,,,,,,,,,,,,,1379.6427560838347,None,1379.6427560838347,None,1380.0366244873585,None,1380.0366244873585,None,70,1380.0366244873585,None,return,2.5148107335626264,1380.0366244873585,None,,,MINXUAN,F,002,2023_Apr_19_1102,untitled,2021.1.4,59.95146756959422,
0,18,36,0,18,36,54,0.67,1.0,0.0,1.0,-1.0,#NAME?,,stimuli/P_00_18_36_00.png,,,,,0,234,234,44,,,,,,,,,,,,,,,,,,,,,,,,,,,,1382.5710590375675,None,1382.5710590375675,None,1382.9589108739092,None,1382.9589108739092,None,0,1382.9589108739092,None,return,1.5758490806474583,1382.9589108739092,None,,,MINXUAN,F,002,2023_Apr_19_1102,untitled,2021.1.4,59.95146756959422,
18,9,36,9,27,54,72,0.88,0.33,0.67,0.8,-0.13,-0.67,,stimuli/P_18_09_36_09.png,,,,,0,235,235,157,,,,,,,,,,,,,,,,,,,,,,,,,,,,1384.553690295841,None,1384.553690295841,None,1384.9473920149612,None,1384.9473920149612,None,35,1384.9473920149612,None,return,4.777183921156393,1384.9473920149612,None,,,MINXUAN,F,002,2023_Apr_19_1102,untitled,2021.1.4,59.95146756959422,
9,36,18,9,45,27,72,0.5,0.8,0.2,0.67,-0.47,-1.4,,stimuli/P_09_36_18_09.png,,,,,0,236,236,121,,,,,,,,,,,,,,,,,,,,,,,,,,,,1389.7474054407357,None,1389.7474054407357,None,1390.1346388950333,None,1390.1346388950333,None,20,1390.1346388950333,None,return,3.71650340508495,1390.1346388950333,None,,,MINXUAN,F,002,2023_Apr_19_1102,untitled,2021.1.4,59.95146756959422,
0,18,0,18,18,0,36,0.5,1.0,0.0,0.0,0.0,0.0,,stimuli/P_00_18_00_18.png,,,,,0,237,237,34,,,,,,,,,,,,,,,,,,,,,,,,,,,,1393.8808388605612,None,1393.8808388605612,None,1394.268005185986,None,1394.268005185986,None,0,1394.268005185986,None,return,1.2764907302480424,1394.268005185986,None,,,MINXUAN,F,002,2023_Apr_19_1102,untitled,2021.1.4,59.95146756959422,
9,0,0,18,9,9,27,1.0,0.0,1.0,0.0,1.0,1.0,,stimuli/P_09_00_00_18.png,,,,,0,238,238,66,,,,,,,,,,,,,,,,,,,,,,,,,,,,1395.5644155550108,None,1395.5644155550108,None,1395.9555703593069,None,1395.9555703593069,None,35,1395.9555703593069,None,return,4.333832438373065,1395.9555703593069,None,,,MINXUAN,F,002,2023_Apr_19_1102,untitled,2021.1.4,59.95146756959422,
9,18,9,0,27,18,36,0.5,0.67,0.33,1.0,-0.67,#NAME?,,stimuli/P_09_18_09_00.png,,,,,0,239,239,100,,,,,,,,,,,,,,,,,,,,,,,,,,,,1400.3144953416559,None,1400.3144953416559,None,1400.7049430172628,None,1400.7049430172628,None,30,1400.7049430172628,None,return,6.625799217545136,1400.7049430172628,None,,,MINXUAN,F,002,2023_Apr_19_1102,untitled,2021.1.4,59.95146756959422,
9,9,18,0,18,27,36,0.75,0.5,0.5,1.0,-0.5,#NAME?,,stimuli/P_09_09_18_00.png,,,,,0,240,240,88,,,,,,,,,,,,,,,,,,,,,,,,,,,,1407.3530062640348,None,1407.3530062640348,None,1407.7459257611554,None,1407.7459257611554,None,30,1407.7459257611554,None,return,3.3533703528155456,1407.7459257611554,None,,,MINXUAN,F,002,2023_Apr_19_1102,untitled,2021.1.4,59.95146756959422,
18,9,18,0,27,36,45,0.8,0.33,0.67,1.0,-0.33,#NAME?,,stimuli/P_18_09_18_00.png,,,,,0,241,241,152,,,,,,,,,,,,,,,,,,,,,,,,,,,,1411.1207836100875,None,1411.1207836100875,None,1411.5092669129153,None,1411.5092669129153,None,45,1411.5092669129153,None,return,7.2127177350485,1411.5092669129153,None,,,MINXUAN,F,002,2023_Apr_19_1102,untitled,2021.1.4,59.95146756959422,
0,0,36,18,0,36,54,1.0,None,None,0.67,None,None,,stimuli/P_00_00_36_18.png,,,,,0,242,242,14,,,,,,,,,,,,,,,,,,,,,,,,,,,,1418.7416101712734,None,1418.7416101712734,None,1419.1355121392335,None,1419.1355121392335,None,0,1419.1355121392335,None,return,1.7210528082359815,1419.1355121392335,None,,,MINXUAN,F,002,2023_Apr_19_1102,untitled,2021.1.4,59.95146756959422,
0,0,9,9,0,9,18,1.0,None,None,0.5,None,None,,stimuli/P_00_00_09_09.png,,,,,0,243,243,5,,,,,,,,,,,,,,,,,,,,,,,,,,,,1420.872635485117,None,1420.872635485117,None,1421.2618947521696,None,1421.2618947521696,None,0,1421.2618947521696,None,return,1.0748754275919055,1421.2618947521696,None,,,MINXUAN,F,002,2023_Apr_19_1102,untitled,2021.1.4,59.95146756959422,
0,36,0,18,36,0,54,0.33,1.0,0.0,0.0,0.0,0.0,,stimuli/P_00_36_00_18.png,,,,,0,244,244,50,,,,,,,,,,,,,,,,,,,,,,,,,,,,1422.3694960726789,None,1422.3694960726789,None,1422.7580243177144,None,1422.7580243177144,None,0,1422.7580243177144,None,return,1.109315951129247,1422.7580243177144,None,,,MINXUAN,F,002,2023_Apr_19_1102,untitled,2021.1.4,59.95146756959422,
9,0,36,0,9,45,45,1.0,0.0,1.0,1.0,0.0,None,,stimuli/P_09_00_36_00.png,,,,,0,245,245,76,,,,,,,,,,,,,,,,,,,,,,,,,,,,1423.8851174726733,None,1423.8851174726733,None,1424.2699604565423,None,1424.2699604565423,None,20,1424.2699604565423,None,return,3.279270320563228,1424.2699604565423,None,,,MINXUAN,F,002,2023_Apr_19_1102,untitled,2021.1.4,59.95146756959422,
0,36,9,36,36,9,81,0.56,1.0,0.0,0.2,-0.2,-0.25,,stimuli/P_00_36_09_36.png,,,,,0,246,246,55,,,,,,,,,,,,,,,,,,,,,,,,,,,,1427.5637323196497,None,1427.5637323196497,None,1427.9520449558622,None,1427.9520449558622,None,0,1427.9520449558622,None,return,1.881253580439079,1427.9520449558622,None,,,MINXUAN,F,002,2023_Apr_19_1102,untitled,2021.1.4,59.95146756959422,
9,18,9,9,27,18,45,0.6,0.67,0.33,0.5,-0.17,-0.33,,stimuli/P_09_18_09_09.png,,,,,0,247,247,101,,,,,,,,,,,,,,,,,,,,,,,,,,,,1429.8686947929018,None,1429.8686947929018,None,1430.2605971169833,None,1430.2605971169833,None,30,1430.2605971169833,None,return,3.3632172477955464,1430.2605971169833,None,,,MINXUAN,F,002,2023_Apr_19_1102,untitled,2021.1.4,59.95146756959422,
0,36,18,0,36,18,54,0.33,1.0,0.0,1.0,-1.0,#NAME?,,stimuli/P_00_36_18_00.png,,,,,0,248,248,56,,,,,,,,,,,,,,,,,,,,,,,,,,,,1433.6446152122007,None,1433.6446152122007,None,1434.0341395813957,None,1434.0341395813957,None,0,1434.0341395813957,None,return,1.4359280537755694,1434.0341395813957,None,,,MINXUAN,F,002,2023_Apr_19_1102,untitled,2021.1.4,59.95146756959422,
0,0,18,36,0,18,54,1.0,None,None,0.33,None,None,,stimuli/P_00_00_18_36.png,,,,,0,249,249,11,,,,,,,,,,,,,,,,,,,,,,,,,,,,1435.493933086167,None,1435.493933086167,None,1435.8868463255203,None,1435.8868463255203,None,0,1435.8868463255203,None,return,0.850949446845334,1435.8868463255203,None,,,MINXUAN,F,002,2023_Apr_19_1102,untitled,2021.1.4,59.95146756959422,
0,9,18,36,9,18,63,0.86,1.0,0.0,0.33,-0.33,-0.5,,stimuli/P_00_09_18_36.png,,,,,0,250,250,27,,,,,,,,,,,,,,,,,,,,,,,,,,,,1436.7577421489113,None,1436.7577421489113,None,1437.147060011499,None,1437.147060011499,None,0,1437.147060011499,None,return,1.142004866276693,1437.147060011499,None,,,MINXUAN,F,002,2023_Apr_19_1102,untitled,2021.1.4,59.95146756959422,
0,9,0,9,9,0,18,0.5,1.0,0.0,0.0,0.0,0.0,,stimuli/P_00_09_00_09.png,,,,,0,251,251,17,,,,,,,,,,,,,,,,,,,,,,,,,,,,1438.320020388972,None,1438.320020388972,None,1438.7127999394725,None,1438.7127999394725,None,0,1438.7127999394725,None,return,0.9055189602077007,1438.7127999394725,None,,,MINXUAN,F,002,2023_Apr_19_1102,untitled,2021.1.4,59.95146756959422,
36,18,18,18,54,54,90,0.8,0.33,0.67,0.5,0.17,0.33,,stimuli/P_36_18_18_18.png,,,,,0,252,252,234,,,,,,,,,,,,,,,,,,,,,,,,,,,,1439.6530347653606,None,1439.6530347653606,None,1440.0467808578032,None,1440.0467808578032,None,40,1440.0467808578032,None,return,4.205899034765025,1440.0467808578032,None,,,MINXUAN,F,002,2023_Apr_19_1102,untitled,2021.1.4,59.95146756959422,
9,18,36,9,27,45,72,0.75,0.67,0.33,0.8,-0.47,-2.33,,stimuli/P_09_18_36_09.png,,,,,0,253,253,109,,,,,,,,,,,,,,,,,,,,,,,,,,,,1444.2723452380887,None,1444.2723452380887,None,1444.6663001126944,None,1444.6663001126944,None,25,1444.6663001126944,None,return,3.669095631899836,1444.6663001126944,None,,,MINXUAN,F,002,2023_Apr_19_1102,untitled,2021.1.4,59.95146756959422,
18,36,36,18,54,54,108,0.67,0.67,0.33,0.67,-0.33,-1.0,,stimuli/P_18_36_36_18.png,,,,,0,254,254,190,,,,,,,,,,,,,,,,,,,,,,,,,,,,1448.3560748498276,None,1448.3560748498276,None,1448.744069477245,None,1448.744069477245,None,20,1448.744069477245,None,return,3.5336568793136394,1448.744069477245,None,,,MINXUAN,F,002,2023_Apr_19_1102,untitled,2021.1.4,59.95146756959422,
18,9,18,36,27,36,81,0.89,0.33,0.67,0.33,0.33,0.5,,stimuli/P_18_09_18_36.png,,,,,0,255,255,155,,,,,,,,,,,,,,,,,,,,,,,,,,,,1452.3098640185272,None,1452.3098640185272,None,1452.701009151715,None,1452.701009151715,None,25,1452.701009151715,None,return,5.787000096141128,1452.701009151715,None,,,MINXUAN,F,002,2023_Apr_19_1102,untitled,2021.1.4,59.95146756959422,
,,,,,,,,,,,,,,,,,,,,,,,,,,,,,,,,,,,,,,,,,,,,,,,,,,,,,,,,,,,,,,,,,1458.5033578657094,None,,,,,,,,
