A1C1,A1C0,A0C1,A0C0,A1,C1,Total,MI,C0GvA1,C1GvA1,C1GvA0,dltP,dltPp,Image_practice,Image,trials_2.thisRepN,trials_2.thisTrialN,trials_2.thisN,trials_2.thisIndex,trials.thisRepN,trials.thisTrialN,trials.thisN,trials.thisIndex,image.started,image.stopped,key_resp.keys,key_resp.rt,key_resp.started,key_resp.stopped,betweenTrial.started,betweenTrial.stopped,ISI.started,ISI.stopped,image_card.started,image_card.stopped,textbox.text,textbox.started,textbox.stopped,key_resp_3.keys,key_resp_3.started,key_resp_3.stopped,text_2.started,text_2.stopped,key_resp_2.keys,key_resp_2.rt,key_resp_2.started,key_resp_2.stopped,image_endPractice.started,image_endPractice.stopped,polygon_2.started,polygon_2.stopped,ISI_2.started,ISI_2.stopped,Cards.started,Cards.stopped,TextNote.started,TextNote.stopped,Estimation.text,Estimation.started,Estimation.stopped,key_resp_4.keys,key_resp_4.rt,key_resp_4.started,key_resp_4.stopped,text.started,text.stopped,participant,gender,session,date,expName,psychopyVersion,frameRate,
,,,,,,,,,,,,,,,,,,,,,,,20.137472686197725,None,space,97.40114267119498,20.137472686197725,None,,,,,,,,,,,,,,,,,,,,,,,,,,,,,,,,,,,,,,WANGJIAQI,F,002,2023_Apr_18_0911,untitled,2021.1.4,60.007271287145365,
0,0,0,9,0,0,9,1.0,None,None,0.0,None,None,practice_stimuli/P_00_00_00_09.png,,0,0,0,0,,,,,,,,,,,117.69128194100631,None,117.69128194100631,None,118.29408963762398,None,40,118.29408963762398,None,None,118.29408963762398,None,118.29408963762398,None,,,,,,,,,,,,,,,,,,,,,,,,WANGJIAQI,F,002,2023_Apr_18_0911,untitled,2021.1.4,60.007271287145365,
18,0,36,0,18,54,54,1.0,0.0,1.0,1.0,0.0,None,practice_stimuli/P_18_00_36_00.png,,0,1,1,1,,,,,,,,,,,126.31424595704448,None,126.31424595704448,None,126.8145130506091,None,5,126.8145130506091,None,None,126.8145130506091,None,126.8145130506091,None,,,,,,,,,,,,,,,,,,,,,,,,WANGJIAQI,F,002,2023_Apr_18_0911,untitled,2021.1.4,60.007271287145365,
9,18,18,0,27,27,45,0.6,0.67,0.33,1.0,-0.67,#NAME?,practice_stimuli/P_09_18_18_00.png,,0,2,2,2,,,,,,,,,,,134.85061420141574,None,134.85061420141574,None,135.35057011248864,None,30,135.35057011248864,None,None,135.35057011248864,None,135.35057011248864,None,,,,,,,,,,,,,,,,,,,,,,,,WANGJIAQI,F,002,2023_Apr_18_0911,untitled,2021.1.4,60.007271287145365,
36,18,18,36,54,54,108,0.83,0.33,0.67,0.33,0.33,0.5,practice_stimuli/P_36_18_18_36.png,,0,3,3,3,,,,,,,,,,,143.38093173839297,None,143.38093173839297,None,143.8813638098727,None,25,143.8813638098727,None,None,143.8813638098727,None,143.8813638098727,None,,,,,,,,,,,,,,,,,,,,,,,,WANGJIAQI,F,002,2023_Apr_18_0911,untitled,2021.1.4,60.007271287145365,
,,,,,,,,,,,,,,,,,,,,,,,,,,,,,,,,,,,,,,,,,,,space,18.328331089061976,151.89423663864,None,,,,,,,,,,,,,,,,,,,,WANGJIAQI,F,002,2023_Apr_18_0911,untitled,2021.1.4,60.007271287145365,
18,36,0,9,54,18,63,0.43,0.67,0.33,0.0,0.33,0.33,,stimuli/P_18_36_00_09.png,,,,,0,0,0,177,,,,,,,,,,,,,,,,,,,,,,,,,151.89423663864,None,177.6582465350366,None,177.6582465350366,None,178.10175496683223,None,178.10175496683223,None,40,178.10175496683223,None,return,4.451578696462093,178.10175496683223,None,,,WANGJIAQI,F,002,2023_Apr_18_0911,untitled,2021.1.4,60.007271287145365,
0,36,18,9,36,18,63,0.43,1.0,0.0,0.67,-0.67,-2.0,,stimuli/P_00_36_18_09.png,,,,,0,1,1,57,,,,,,,,,,,,,,,,,,,,,,,,,,,182.60652652645513,None,182.60652652645513,None,183.0826471105247,None,183.0826471105247,None,0,183.0826471105247,None,return,3.577409630495822,183.0826471105247,None,,,WANGJIAQI,F,002,2023_Apr_18_0911,untitled,2021.1.4,60.007271287145365,
18,9,36,0,27,54,63,0.86,0.33,0.67,1.0,-0.33,#NAME?,,stimuli/P_18_09_36_00.png,,,,,0,2,2,156,,,,,,,,,,,,,,,,,,,,,,,,,,,186.7007505357542,None,186.7007505357542,None,187.17580729669135,None,187.17580729669135,None,50,187.17580729669135,None,None,,187.17580729669135,None,,,WANGJIAQI,F,002,2023_Apr_18_0911,untitled,2021.1.4,60.007271287145365,
9,36,9,36,45,18,90,0.6,0.8,0.2,0.2,0.0,0.0,,stimuli/P_09_36_09_36.png,,,,,0,3,3,119,,,,,,,,,,,,,,,,,,,,,,,,,,,195.19967675705993,None,195.19967675705993,None,195.69574715370254,None,195.69574715370254,None,25,195.69574715370254,None,return,4.09062578400335,195.69574715370254,None,,,WANGJIAQI,F,002,2023_Apr_18_0911,untitled,2021.1.4,60.007271287145365,
36,36,0,18,72,36,90,0.6,0.5,0.5,0.0,0.5,0.5,,stimuli/P_36_36_00_18.png,,,,,0,4,4,242,,,,,,,,,,,,,,,,,,,,,,,,,,,199.82587547808362,None,199.82587547808362,None,200.30781864489109,None,200.30781864489109,None,25,200.30781864489109,None,return,4.1630493835764355,200.30781864489109,None,,,WANGJIAQI,F,002,2023_Apr_18_0911,untitled,2021.1.4,60.007271287145365,
36,0,36,0,36,72,72,1.0,0.0,1.0,1.0,0.0,None,,stimuli/P_36_00_36_00.png,,,,,0,5,5,204,,,,,,,,,,,,,,,,,,,,,,,,,,,204.48852806132345,None,204.48852806132345,None,204.96385788916086,None,204.96385788916086,None,25,204.96385788916086,None,return,3.4880484875757247,204.96385788916086,None,,,WANGJIAQI,F,002,2023_Apr_18_0911,untitled,2021.1.4,60.007271287145365,
36,36,0,36,72,36,108,0.67,0.5,0.5,0.0,0.5,0.5,,stimuli/P_36_36_00_36.png,,,,,0,6,6,243,,,,,,,,,,,,,,,,,,,,,,,,,,,208.471254304357,None,208.471254304357,None,208.95813599983376,None,208.95813599983376,None,25,208.95813599983376,None,return,2.391551196342334,208.95813599983376,None,,,WANGJIAQI,F,002,2023_Apr_18_0911,untitled,2021.1.4,60.007271287145365,
9,0,36,18,9,45,63,1.0,0.0,1.0,0.67,0.33,1.0,,stimuli/P_09_00_36_18.png,,,,,0,7,7,78,,,,,,,,,,,,,,,,,,,,,,,,,,,211.36852141669078,None,211.36852141669078,None,211.84432740493503,None,211.84432740493503,None,10,211.84432740493503,None,return,5.209011093909794,211.84432740493503,None,,,WANGJIAQI,F,002,2023_Apr_18_0911,untitled,2021.1.4,60.007271287145365,
9,36,36,18,45,45,99,0.64,0.8,0.2,0.67,-0.47,-1.4,,stimuli/P_09_36_36_18.png,,,,,0,8,8,126,,,,,,,,,,,,,,,,,,,,,,,,,,,217.0889270803309,None,217.0889270803309,None,217.5621867197333,None,217.5621867197333,None,10,217.5621867197333,None,return,3.842454621117213,217.5621867197333,None,,,WANGJIAQI,F,002,2023_Apr_18_0911,untitled,2021.1.4,60.007271287145365,
9,18,36,9,27,45,72,0.75,0.67,0.33,0.8,-0.47,-2.33,,stimuli/P_09_18_36_09.png,,,,,0,9,9,109,,,,,,,,,,,,,,,,,,,,,,,,,,,221.43819443614484,None,221.43819443614484,None,221.91498574079014,None,221.91498574079014,None,5,221.91498574079014,None,return,6.315013957697374,221.91498574079014,None,,,WANGJIAQI,F,002,2023_Apr_18_0911,untitled,2021.1.4,60.007271287145365,
18,18,9,9,36,27,54,0.67,0.5,0.5,0.5,0.0,0.0,,stimuli/P_18_18_09_09.png,,,,,0,10,10,165,,,,,,,,,,,,,,,,,,,,,,,,,,,228.25631822761352,None,228.25631822761352,None,228.73194786014938,None,228.73194786014938,None,13,228.73194786014938,None,return,6.201469896368508,228.73194786014938,None,,,WANGJIAQI,F,002,2023_Apr_18_0911,untitled,2021.1.4,60.007271287145365,
9,18,0,0,27,9,27,0.33,0.67,0.33,None,None,None,,stimuli/P_09_18_00_00.png,,,,,0,11,11,96,,,,,,,,,,,,,,,,,,,,,,,,,,,234.96904786692176,None,234.96904786692176,None,235.4462425141246,None,235.4462425141246,None,13,235.4462425141246,None,return,2.212000038678525,235.4462425141246,None,,,WANGJIAQI,F,002,2023_Apr_18_0911,untitled,2021.1.4,60.007271287145365,
36,36,36,0,72,72,108,0.67,0.5,0.5,1.0,-0.5,#NAME?,,stimuli/P_36_36_36_00.png,,,,,0,12,12,252,,,,,,,,,,,,,,,,,,,,,,,,,,,237.69065843825229,None,237.69065843825229,None,238.18279268931656,None,238.18279268931656,None,25,238.18279268931656,None,return,2.2149434723105514,238.18279268931656,None,,,WANGJIAQI,F,002,2023_Apr_18_0911,untitled,2021.1.4,60.007271287145365,
18,18,18,0,36,36,54,0.67,0.5,0.5,1.0,-0.5,#NAME?,,stimuli/P_18_18_18_00.png,,,,,0,13,13,168,,,,,,,,,,,,,,,,,,,,,,,,,,,240.43470088650065,None,240.43470088650065,None,240.9030436150424,None,240.9030436150424,None,13,240.9030436150424,None,return,6.875196480170416,240.9030436150424,None,,,WANGJIAQI,F,002,2023_Apr_18_0911,untitled,2021.1.4,60.007271287145365,
36,9,0,18,45,36,63,0.86,0.2,0.8,0.0,0.8,0.8,,stimuli/P_36_09_00_18.png,,,,,0,14,14,210,,,,,,,,,,,,,,,,,,,,,,,,,,,247.80559058966173,None,247.80559058966173,None,248.2857884038749,None,248.2857884038749,None,25,248.2857884038749,None,return,2.072317786150961,248.2857884038749,None,,,WANGJIAQI,F,002,2023_Apr_18_0911,untitled,2021.1.4,60.007271287145365,
36,36,0,9,72,36,81,0.56,0.5,0.5,0.0,0.5,0.5,,stimuli/P_36_36_00_09.png,,,,,0,15,15,241,,,,,,,,,,,,,,,,,,,,,,,,,,,250.39764058820583,None,250.39764058820583,None,250.8876705174771,None,250.8876705174771,None,25,250.8876705174771,None,return,7.2996220867935335,250.8876705174771,None,,,WANGJIAQI,F,002,2023_Apr_18_0911,untitled,2021.1.4,60.007271287145365,
0,18,0,0,18,0,18,0.0,1.0,0.0,None,None,None,,stimuli/P_00_18_00_00.png,,,,,0,16,16,32,,,,,,,,,,,,,,,,,,,,,,,,,,,258.22024722794595,None,258.22024722794595,None,258.68947002834466,None,258.68947002834466,None,0,258.68947002834466,None,return,2.5068326458276715,258.68947002834466,None,,,WANGJIAQI,F,002,2023_Apr_18_0911,untitled,2021.1.4,60.007271287145365,
18,9,0,36,27,18,63,0.86,0.33,0.67,0.0,0.67,0.67,,stimuli/P_18_09_00_36.png,,,,,0,17,17,147,,,,,,,,,,,,,,,,,,,,,,,,,,,261.2166416070904,None,261.2166416070904,None,261.7021380569349,None,261.7021380569349,None,36,261.7021380569349,None,return,6.1070826158247655,261.7021380569349,None,,,WANGJIAQI,F,002,2023_Apr_18_0911,untitled,2021.1.4,60.007271287145365,
9,0,36,36,9,45,81,1.0,0.0,1.0,0.5,0.5,1.0,,stimuli/P_09_00_36_36.png,,,,,0,18,18,79,,,,,,,,,,,,,,,,,,,,,,,,,,,267.8455738415578,None,267.8455738415578,None,268.3167064035879,None,268.3167064035879,None,20,268.3167064035879,None,None,,268.3167064035879,None,,,WANGJIAQI,F,002,2023_Apr_18_0911,untitled,2021.1.4,60.007271287145365,
18,9,9,36,27,27,72,0.88,0.33,0.67,0.2,0.47,0.58,,stimuli/P_18_09_09_36.png,,,,,0,19,19,151,,,,,,,,,,,,,,,,,,,,,,,,,,,276.3542934934376,None,276.3542934934376,None,276.8321378123146,None,276.8321378123146,None,25,276.8321378123146,None,return,3.0404690834257053,276.8321378123146,None,,,WANGJIAQI,F,002,2023_Apr_18_0911,untitled,2021.1.4,60.007271287145365,
0,9,9,36,9,9,54,0.83,1.0,0.0,0.2,-0.2,-0.25,,stimuli/P_00_09_09_36.png,,,,,0,20,20,23,,,,,,,,,,,,,,,,,,,,,,,,,,,279.9059011463687,None,279.9059011463687,None,280.386182018432,None,280.386182018432,None,0,280.386182018432,None,return,4.74637603246083,280.386182018432,None,,,WANGJIAQI,F,002,2023_Apr_18_0911,untitled,2021.1.4,60.007271287145365,
9,0,18,18,9,27,45,1.0,0.0,1.0,0.5,0.5,1.0,,stimuli/P_09_00_18_18.png,,,,,0,21,21,74,,,,,,,,,,,,,,,,,,,,,,,,,,,285.1575965789234,None,285.1575965789234,None,285.6456974043249,None,285.6456974043249,None,30,285.6456974043249,None,return,7.966865038390097,285.6456974043249,None,,,WANGJIAQI,F,002,2023_Apr_18_0911,untitled,2021.1.4,60.007271287145365,
0,9,0,36,9,0,45,0.8,1.0,0.0,0.0,0.0,0.0,,stimuli/P_00_09_00_36.png,,,,,0,22,22,19,,,,,,,,,,,,,,,,,,,,,,,,,,,293.63658550322,None,293.63658550322,None,294.1128949585618,None,294.1128949585618,None,0,294.1128949585618,None,return,1.9232130189193413,294.1128949585618,None,,,WANGJIAQI,F,002,2023_Apr_18_0911,untitled,2021.1.4,60.007271287145365,
9,18,36,0,27,45,63,0.71,0.67,0.33,1.0,-0.67,#NAME?,,stimuli/P_09_18_36_00.png,,,,,0,23,23,108,,,,,,,,,,,,,,,,,,,,,,,,,,,296.06815636037936,None,296.06815636037936,None,296.5452673808468,None,296.5452673808468,None,25,296.5452673808468,None,return,7.242246180052462,296.5452673808468,None,,,WANGJIAQI,F,002,2023_Apr_18_0911,untitled,2021.1.4,60.007271287145365,
9,36,0,18,45,9,63,0.43,0.8,0.2,0.0,0.2,0.2,,stimuli/P_09_36_00_18.png,,,,,0,24,24,114,,,,,,,,,,,,,,,,,,,,,,,,,,,303.8123046220571,None,303.8123046220571,None,304.2801916702083,None,304.2801916702083,None,25,304.2801916702083,None,return,5.19421485017665,304.2801916702083,None,,,WANGJIAQI,F,002,2023_Apr_18_0911,untitled,2021.1.4,60.007271287145365,
36,36,36,9,72,72,117,0.69,0.5,0.5,0.8,-0.3,-1.5,,stimuli/P_36_36_36_09.png,,,,,0,25,25,253,,,,,,,,,,,,,,,,,,,,,,,,,,,309.50965035489935,None,309.50965035489935,None,309.97119314875454,None,309.97119314875454,None,,309.97119314875454,None,None,,309.97119314875454,None,,,WANGJIAQI,F,002,2023_Apr_18_0911,untitled,2021.1.4,60.007271287145365,
9,0,9,0,9,18,18,1.0,0.0,1.0,1.0,0.0,None,,stimuli/P_09_00_09_00.png,,,,,0,26,26,68,,,,,,,,,,,,,,,,,,,,,,,,,,,317.98282409201056,None,317.98282409201056,None,318.4927241893456,None,318.4927241893456,None,50,318.4927241893456,None,return,6.030919137490855,318.4927241893456,None,,,WANGJIAQI,F,002,2023_Apr_18_0911,untitled,2021.1.4,60.007271287145365,
0,9,0,18,9,0,27,0.67,1.0,0.0,0.0,0.0,0.0,,stimuli/P_00_09_00_18.png,,,,,0,27,27,18,,,,,,,,,,,,,,,,,,,,,,,,,,,324.5429343655269,None,324.5429343655269,None,325.01221064152924,None,325.01221064152924,None,0,325.01221064152924,None,return,1.5804298641887726,325.01221064152924,None,,,WANGJIAQI,F,002,2023_Apr_18_0911,untitled,2021.1.4,60.007271287145365,
9,9,0,0,18,9,18,0.5,0.5,0.5,None,None,None,,stimuli/P_09_09_00_00.png,,,,,0,28,28,80,,,,,,,,,,,,,,,,,,,,,,,,,,,326.6358271736826,None,326.6358271736826,None,327.1684196992719,None,327.1684196992719,None,50,327.1684196992719,None,return,3.1581819660932524,327.1684196992719,None,,,WANGJIAQI,F,002,2023_Apr_18_0911,untitled,2021.1.4,60.007271287145365,
18,9,0,0,27,18,27,0.67,0.33,0.67,None,None,None,,stimuli/P_18_09_00_00.png,,,,,0,29,29,144,,,,,,,,,,,,,,,,,,,,,,,,,,,330.3440005779921,None,330.3440005779921,None,330.8152867401586,None,330.8152867401586,None,60,330.8152867401586,None,return,5.056767763999233,330.8152867401586,None,,,WANGJIAQI,F,002,2023_Apr_18_0911,untitled,2021.1.4,60.007271287145365,
18,9,9,9,27,27,45,0.8,0.33,0.67,0.5,0.17,0.33,,stimuli/P_18_09_09_09.png,,,,,0,30,30,149,,,,,,,,,,,,,,,,,,,,,,,,,,,335.91150072448363,None,335.91150072448363,None,336.3912371694096,None,336.3912371694096,None,45,336.3912371694096,None,return,7.070202086571953,336.3912371694096,None,,,WANGJIAQI,F,002,2023_Apr_18_0911,untitled,2021.1.4,60.007271287145365,
36,0,18,18,36,54,72,1.0,0.0,1.0,0.5,0.5,1.0,,stimuli/P_36_00_18_18.png,,,,,0,31,31,202,,,,,,,,,,,,,,,,,,,,,,,,,,,343.48041000995,None,343.48041000995,None,343.95753468375915,None,343.95753468375915,None,50,343.95753468375915,None,return,4.889157025412715,343.95753468375915,None,,,WANGJIAQI,F,002,2023_Apr_18_0911,untitled,2021.1.4,60.007271287145365,
36,18,18,9,54,54,81,0.78,0.33,0.67,0.67,0.0,0.0,,stimuli/P_36_18_18_09.png,,,,,0,32,32,233,,,,,,,,,,,,,,,,,,,,,,,,,,,348.8854108888845,None,348.8854108888845,None,349.3775445710635,None,349.3775445710635,None,45,349.3775445710635,None,return,4.978569368380704,349.3775445710635,None,,,WANGJIAQI,F,002,2023_Apr_18_0911,untitled,2021.1.4,60.007271287145365,
9,36,36,0,45,45,81,0.56,0.8,0.2,1.0,-0.8,#NAME?,,stimuli/P_09_36_36_00.png,,,,,0,33,33,124,,,,,,,,,,,,,,,,,,,,,,,,,,,354.3965113427985,None,354.3965113427985,None,354.8696958888104,None,354.8696958888104,None,20,354.8696958888104,None,return,6.970803459531453,354.8696958888104,None,,,WANGJIAQI,F,002,2023_Apr_18_0911,untitled,2021.1.4,60.007271287145365,
0,9,0,0,9,0,9,0.0,1.0,0.0,None,None,None,,stimuli/P_00_09_00_00.png,,,,,0,34,34,16,,,,,,,,,,,,,,,,,,,,,,,,,,,361.86252560713183,None,361.86252560713183,None,362.34657764685835,None,362.34657764685835,None,0,362.34657764685835,None,return,1.6947487528523197,362.34657764685835,None,,,WANGJIAQI,F,002,2023_Apr_18_0911,untitled,2021.1.4,60.007271287145365,
9,18,36,18,27,45,81,0.78,0.67,0.33,0.67,-0.33,-1.0,,stimuli/P_09_18_36_18.png,,,,,0,35,35,110,,,,,,,,,,,,,,,,,,,,,,,,,,,364.0754990155401,None,364.0754990155401,None,364.5644662594568,None,364.5644662594568,None,20,364.5644662594568,None,return,7.1272742063811165,364.5644662594568,None,,,WANGJIAQI,F,002,2023_Apr_18_0911,untitled,2021.1.4,60.007271287145365,
0,18,18,36,18,18,72,0.75,1.0,0.0,0.33,-0.33,-0.5,,stimuli/P_00_18_18_36.png,,,,,0,36,36,43,,,,,,,,,,,,,,,,,,,,,,,,,,,371.72564570366376,None,371.72564570366376,None,372.1987892896359,None,372.1987892896359,None,0,372.1987892896359,None,return,1.8498575785488356,372.1987892896359,None,,,WANGJIAQI,F,002,2023_Apr_18_0911,untitled,2021.1.4,60.007271287145365,
36,18,9,36,54,45,99,0.82,0.33,0.67,0.2,0.47,0.58,,stimuli/P_36_18_09_36.png,,,,,0,37,37,231,,,,,,,,,,,,,,,,,,,,,,,,,,,374.0835761068738,None,374.0835761068738,None,374.5591084593252,None,374.5591084593252,None,30,374.5591084593252,None,return,6.895124674949329,374.5591084593252,None,,,WANGJIAQI,F,002,2023_Apr_18_0911,untitled,2021.1.4,60.007271287145365,
9,36,18,36,45,27,99,0.64,0.8,0.2,0.33,-0.13,-0.2,,stimuli/P_09_36_18_36.png,,,,,0,38,38,123,,,,,,,,,,,,,,,,,,,,,,,,,,,381.4814192197009,None,381.4814192197009,None,381.9579095818626,None,381.9579095818626,None,10,381.9579095818626,None,return,7.399464447538776,381.9579095818626,None,,,WANGJIAQI,F,002,2023_Apr_18_0911,untitled,2021.1.4,60.007271287145365,
0,36,18,18,36,18,72,0.5,1.0,0.0,0.5,-0.5,-1.0,,stimuli/P_00_36_18_18.png,,,,,0,39,39,58,,,,,,,,,,,,,,,,,,,,,,,,,,,389.38629920964013,None,389.38629920964013,None,389.86015106288687,None,389.86015106288687,None,0,389.86015106288687,None,return,1.7566530190088088,389.86015106288687,None,,,WANGJIAQI,F,002,2023_Apr_18_0911,untitled,2021.1.4,60.007271287145365,
36,9,36,18,45,72,99,0.91,0.2,0.8,0.67,0.13,0.4,,stimuli/P_36_09_36_18.png,,,,,0,40,40,222,,,,,,,,,,,,,,,,,,,,,,,,,,,391.650354332749,None,391.650354332749,None,392.1251556623538,None,392.1251556623538,None,35,392.1251556623538,None,return,7.287250449568091,392.1251556623538,None,,,WANGJIAQI,F,002,2023_Apr_18_0911,untitled,2021.1.4,60.007271287145365,
36,0,36,9,36,72,81,1.0,0.0,1.0,0.8,0.2,1.0,,stimuli/P_36_00_36_09.png,,,,,0,41,41,205,,,,,,,,,,,,,,,,,,,,,,,,,,,399.4543270010254,None,399.4543270010254,None,399.9292597440799,None,399.9292597440799,None,45,399.9292597440799,None,return,7.465521037243889,399.9292597440799,None,,,WANGJIAQI,F,002,2023_Apr_18_0911,untitled,2021.1.4,60.007271287145365,
9,36,36,36,45,45,117,0.69,0.8,0.2,0.5,-0.3,-0.6,,stimuli/P_09_36_36_36.png,,,,,0,42,42,127,,,,,,,,,,,,,,,,,,,,,,,,,,,407.431155567916,None,407.431155567916,None,407.91270449439617,None,407.91270449439617,None,15,407.91270449439617,None,return,6.902057729756052,407.91270449439617,None,,,WANGJIAQI,F,002,2023_Apr_18_0911,untitled,2021.1.4,60.007271287145365,
0,0,0,18,0,0,18,1.0,None,None,0.0,None,None,,stimuli/P_00_00_00_18.png,,,,,0,43,43,2,,,,,,,,,,,,,,,,,,,,,,,,,,,414.8433437952117,None,414.8433437952117,None,415.3155970693115,None,415.3155970693115,None,0,415.3155970693115,None,return,1.4970739175041672,415.3155970693115,None,,,WANGJIAQI,F,002,2023_Apr_18_0911,untitled,2021.1.4,60.007271287145365,
36,36,36,36,72,72,144,0.75,0.5,0.5,0.5,0.0,0.0,,stimuli/P_36_36_36_36.png,,,,,0,44,44,255,,,,,,,,,,,,,,,,,,,,,,,,,,,416.8418817495185,None,416.8418817495185,None,417.3142305970323,None,417.3142305970323,None,25,417.3142305970323,None,return,3.450025628466392,417.3142305970323,None,,,WANGJIAQI,F,002,2023_Apr_18_0911,untitled,2021.1.4,60.007271287145365,
18,36,9,0,54,27,63,0.43,0.67,0.33,1.0,-0.67,#NAME?,,stimuli/P_18_36_09_00.png,,,,,0,45,45,180,,,,,,,,,,,,,,,,,,,,,,,,,,,420.80500634026976,None,420.80500634026976,None,421.28882797979895,None,421.28882797979895,None,35,421.28882797979895,None,return,6.073545449427911,421.28882797979895,None,,,WANGJIAQI,F,002,2023_Apr_18_0911,untitled,2021.1.4,60.007271287145365,
36,9,0,36,45,36,81,0.89,0.2,0.8,0.0,0.8,0.8,,stimuli/P_36_09_00_36.png,,,,,0,46,46,211,,,,,,,,,,,,,,,,,,,,,,,,,,,427.40342050425534,None,427.40342050425534,None,427.8738715368163,None,427.8738715368163,None,4,427.8738715368163,None,None,,427.8738715368163,None,,,WANGJIAQI,F,002,2023_Apr_18_0911,untitled,2021.1.4,60.007271287145365,
0,0,9,0,0,9,9,1.0,None,None,1.0,None,None,,stimuli/P_00_00_09_00.png,,,,,0,47,47,4,,,,,,,,,,,,,,,,,,,,,,,,,,,435.8882871935566,None,435.8882871935566,None,436.38962152358727,None,436.38962152358727,None,0,436.38962152358727,None,return,4.068456165077805,436.38962152358727,None,,,WANGJIAQI,F,002,2023_Apr_18_0911,untitled,2021.1.4,60.007271287145365,
18,18,0,36,36,18,72,0.75,0.5,0.5,0.0,0.5,0.5,,stimuli/P_18_18_00_36.png,,,,,0,48,48,163,,,,,,,,,,,,,,,,,,,,,,,,,,,440.4924630691239,None,440.4924630691239,None,440.9579363196608,None,440.9579363196608,None,25,440.9579363196608,None,return,5.102673154280637,440.9579363196608,None,,,WANGJIAQI,F,002,2023_Apr_18_0911,untitled,2021.1.4,60.007271287145365,
9,0,0,0,9,9,9,1.0,0.0,1.0,None,None,None,,stimuli/P_09_00_00_00.png,,,,,0,49,49,64,,,,,,,,,,,,,,,,,,,,,,,,,,,446.0766612565276,None,446.0766612565276,None,446.5490197751642,None,446.5490197751642,None,100,446.5490197751642,None,return,3.050826283368224,446.5490197751642,None,,,WANGJIAQI,F,002,2023_Apr_18_0911,untitled,2021.1.4,60.007271287145365,
36,9,9,36,45,45,90,0.9,0.2,0.8,0.2,0.6,0.75,,stimuli/P_36_09_09_36.png,,,,,0,50,50,215,,,,,,,,,,,,,,,,,,,,,,,,,,,449.6394908212533,None,449.6394908212533,None,450.11560059642215,None,450.11560059642215,None,36,450.11560059642215,None,return,6.1104111875465605,450.11560059642215,None,,,WANGJIAQI,F,002,2023_Apr_18_0911,untitled,2021.1.4,60.007271287145365,
36,9,0,0,45,36,45,0.8,0.2,0.8,None,None,None,,stimuli/P_36_09_00_00.png,,,,,0,51,51,208,,,,,,,,,,,,,,,,,,,,,,,,,,,456.2585408783998,None,456.2585408783998,None,456.76488541714934,None,456.76488541714934,None,60,456.76488541714934,None,None,,456.76488541714934,None,,,WANGJIAQI,F,002,2023_Apr_18_0911,untitled,2021.1.4,60.007271287145365,
18,36,36,18,54,54,108,0.67,0.67,0.33,0.67,-0.33,-1.0,,stimuli/P_18_36_36_18.png,,,,,0,52,52,190,,,,,,,,,,,,,,,,,,,,,,,,,,,464.76697836115636,None,464.76697836115636,None,465.26466155918024,None,465.26466155918024,None,15,465.26466155918024,None,return,4.650601230736356,465.26466155918024,None,,,WANGJIAQI,F,002,2023_Apr_18_0911,untitled,2021.1.4,60.007271287145365,
36,18,0,18,54,36,72,0.75,0.33,0.67,0.0,0.67,0.67,,stimuli/P_36_18_00_18.png,,,,,0,53,53,226,,,,,,,,,,,,,,,,,,,,,,,,,,,469.93395933919965,None,469.93395933919965,None,470.39522963503987,None,470.39522963503987,None,50,470.39522963503987,None,return,5.5623158576199785,470.39522963503987,None,,,WANGJIAQI,F,002,2023_Apr_18_0911,untitled,2021.1.4,60.007271287145365,
0,9,18,18,9,18,45,0.8,1.0,0.0,0.5,-0.5,-1.0,,stimuli/P_00_09_18_18.png,,,,,0,54,54,26,,,,,,,,,,,,,,,,,,,,,,,,,,,475.9786188617509,None,475.9786188617509,None,476.45891168049275,None,476.45891168049275,None,0,476.45891168049275,None,return,1.4908593699801713,476.45891168049275,None,,,WANGJIAQI,F,002,2023_Apr_18_0911,untitled,2021.1.4,60.007271287145365,
36,0,18,9,36,54,63,1.0,0.0,1.0,0.67,0.33,1.0,,stimuli/P_36_00_18_09.png,,,,,0,55,55,201,,,,,,,,,,,,,,,,,,,,,,,,,,,477.9866538552742,None,477.9866538552742,None,478.4770490115261,None,478.4770490115261,None,59,478.4770490115261,None,return,6.5109963471622905,478.4770490115261,None,,,WANGJIAQI,F,002,2023_Apr_18_0911,untitled,2021.1.4,60.007271287145365,
36,18,0,36,54,36,90,0.8,0.33,0.67,0.0,0.67,0.67,,stimuli/P_36_18_00_36.png,,,,,0,56,56,227,,,,,,,,,,,,,,,,,,,,,,,,,,,485.0160392670223,None,485.0160392670223,None,485.4878505140732,None,485.4878505140732,None,47,485.4878505140732,None,return,5.836011948951636,485.4878505140732,None,,,WANGJIAQI,F,002,2023_Apr_18_0911,untitled,2021.1.4,60.007271287145365,
18,0,18,18,18,36,54,1.0,0.0,1.0,0.5,0.5,1.0,,stimuli/P_18_00_18_18.png,,,,,0,57,57,138,,,,,,,,,,,,,,,,,,,,,,,,,,,491.36167255751934,None,491.36167255751934,None,491.85322824808827,None,491.85322824808827,None,35,491.85322824808827,None,return,6.706959394381556,491.85322824808827,None,,,WANGJIAQI,F,002,2023_Apr_18_0911,untitled,2021.1.4,60.007271287145365,
18,9,36,9,27,54,72,0.88,0.33,0.67,0.8,-0.13,-0.67,,stimuli/P_18_09_36_09.png,,,,,0,58,58,157,,,,,,,,,,,,,,,,,,,,,,,,,,,498.59267179463495,None,498.59267179463495,None,499.100240014428,None,499.100240014428,None,30,499.100240014428,None,return,6.715254939241277,499.100240014428,None,,,WANGJIAQI,F,002,2023_Apr_18_0911,untitled,2021.1.4,60.007271287145365,
9,36,18,0,45,27,63,0.43,0.8,0.2,1.0,-0.8,#NAME?,,stimuli/P_09_36_18_00.png,,,,,0,59,59,120,,,,,,,,,,,,,,,,,,,,,,,,,,,505.8509310727968,None,505.8509310727968,None,506.323827191889,None,506.323827191889,None,25,506.323827191889,None,return,4.52222394785349,506.323827191889,None,,,WANGJIAQI,F,002,2023_Apr_18_0911,untitled,2021.1.4,60.007271287145365,
18,36,9,18,54,27,81,0.56,0.67,0.33,0.33,0.0,0.0,,stimuli/P_18_36_09_18.png,,,,,0,60,60,182,,,,,,,,,,,,,,,,,,,,,,,,,,,510.87255512679985,None,510.87255512679985,None,511.3473684030905,None,511.3473684030905,None,20,511.3473684030905,None,return,7.642870593022963,511.3473684030905,None,,,WANGJIAQI,F,002,2023_Apr_18_0911,untitled,2021.1.4,60.007271287145365,
18,18,9,0,36,27,45,0.6,0.5,0.5,1.0,-0.5,#NAME?,,stimuli/P_18_18_09_00.png,,,,,0,61,61,164,,,,,,,,,,,,,,,,,,,,,,,,,,,519.0140293808581,None,519.0140293808581,None,519.4910863568366,None,519.4910863568366,None,40,519.4910863568366,None,return,7.31222753754264,519.4910863568366,None,,,WANGJIAQI,F,002,2023_Apr_18_0911,untitled,2021.1.4,60.007271287145365,
36,36,9,0,72,45,81,0.56,0.5,0.5,1.0,-0.5,#NAME?,,stimuli/P_36_36_09_00.png,,,,,0,62,62,244,,,,,,,,,,,,,,,,,,,,,,,,,,,526.8427043635529,None,526.8427043635529,None,527.3305844598726,None,527.3305844598726,None,40,527.3305844598726,None,return,4.54556320332631,527.3305844598726,None,,,WANGJIAQI,F,002,2023_Apr_18_0911,untitled,2021.1.4,60.007271287145365,
36,0,9,0,36,45,45,1.0,0.0,1.0,1.0,0.0,None,,stimuli/P_36_00_09_00.png,,,,,0,63,63,196,,,,,,,,,,,,,,,,,,,,,,,,,,,531.8936859537207,None,531.8936859537207,None,532.3699396579032,None,532.3699396579032,None,80,532.3699396579032,None,return,4.456693580825231,532.3699396579032,None,,,WANGJIAQI,F,002,2023_Apr_18_0911,untitled,2021.1.4,60.007271287145365,
9,18,36,36,27,45,99,0.82,0.67,0.33,0.5,-0.17,-0.33,,stimuli/P_09_18_36_36.png,,,,,0,64,64,111,,,,,,,,,,,,,,,,,,,,,,,,,,,536.8557836991604,None,536.8557836991604,None,537.331120353665,None,537.331120353665,None,25,537.331120353665,None,None,,537.331120353665,None,,,WANGJIAQI,F,002,2023_Apr_18_0911,untitled,2021.1.4,60.007271287145365,
0,36,0,36,36,0,72,0.5,1.0,0.0,0.0,0.0,0.0,,stimuli/P_00_36_00_36.png,,,,,0,65,65,51,,,,,,,,,,,,,,,,,,,,,,,,,,,545.3693167240417,None,545.3693167240417,None,545.8994556297548,None,545.8994556297548,None,0,545.8994556297548,None,return,1.895900071162032,545.8994556297548,None,,,WANGJIAQI,F,002,2023_Apr_18_0911,untitled,2021.1.4,60.007271287145365,
0,36,18,36,36,18,90,0.6,1.0,0.0,0.33,-0.33,-0.5,,stimuli/P_00_36_18_36.png,,,,,0,66,66,59,,,,,,,,,,,,,,,,,,,,,,,,,,,547.8253623398632,None,547.8253623398632,None,548.3110823632378,None,548.3110823632378,None,0,548.3110823632378,None,return,1.6341222122282488,548.3110823632378,None,,,WANGJIAQI,F,002,2023_Apr_18_0911,untitled,2021.1.4,60.007271287145365,
36,18,0,0,54,36,54,0.67,0.33,0.67,None,None,None,,stimuli/P_36_18_00_00.png,,,,,0,67,67,224,,,,,,,,,,,,,,,,,,,,,,,,,,,549.9746326539098,None,549.9746326539098,None,550.4606593086501,None,550.4606593086501,None,70,550.4606593086501,None,return,6.355630952355568,550.4606593086501,None,,,WANGJIAQI,F,002,2023_Apr_18_0911,untitled,2021.1.4,60.007271287145365,
9,36,36,9,45,45,90,0.6,0.8,0.2,0.8,-0.6,-3.0,,stimuli/P_09_36_36_09.png,,,,,0,68,68,125,,,,,,,,,,,,,,,,,,,,,,,,,,,556.8385179066463,None,556.8385179066463,None,557.3176888755406,None,557.3176888755406,None,18,557.3176888755406,None,return,6.728931039797317,557.3176888755406,None,,,WANGJIAQI,F,002,2023_Apr_18_0911,untitled,2021.1.4,60.007271287145365,
9,9,0,36,18,9,54,0.83,0.5,0.5,0.0,0.5,0.5,,stimuli/P_09_09_00_36.png,,,,,0,69,69,83,,,,,,,,,,,,,,,,,,,,,,,,,,,564.0834867912417,None,564.0834867912417,None,564.594045662474,None,564.594045662474,None,20,564.594045662474,None,return,7.195605215805699,564.594045662474,None,,,WANGJIAQI,F,002,2023_Apr_18_0911,untitled,2021.1.4,60.007271287145365,
0,18,0,9,18,0,27,0.33,1.0,0.0,0.0,0.0,0.0,,stimuli/P_00_18_00_09.png,,,,,0,70,70,33,,,,,,,,,,,,,,,,,,,,,,,,,,,571.8163249632635,None,571.8163249632635,None,572.2891112867073,None,572.2891112867073,None,0,572.2891112867073,None,return,2.1684657793084625,572.2891112867073,None,,,WANGJIAQI,F,002,2023_Apr_18_0911,untitled,2021.1.4,60.007271287145365,
0,0,18,18,0,18,36,1.0,None,None,0.5,None,None,,stimuli/P_00_00_18_18.png,,,,,0,71,71,10,,,,,,,,,,,,,,,,,,,,,,,,,,,574.4833210168799,None,574.4833210168799,None,574.9598130857048,None,574.9598130857048,None,0,574.9598130857048,None,return,1.582200247918081,574.9598130857048,None,,,WANGJIAQI,F,002,2023_Apr_18_0911,untitled,2021.1.4,60.007271287145365,
0,0,9,18,0,9,27,1.0,None,None,0.33,None,None,,stimuli/P_00_00_09_18.png,,,,,0,72,72,6,,,,,,,,,,,,,,,,,,,,,,,,,,,576.5821678212305,None,576.5821678212305,None,577.0564759237459,None,577.0564759237459,None,0,577.0564759237459,None,return,0.9878775363176828,577.0564759237459,None,,,WANGJIAQI,F,002,2023_Apr_18_0911,untitled,2021.1.4,60.007271287145365,
18,0,0,9,18,18,27,1.0,0.0,1.0,0.0,1.0,1.0,,stimuli/P_18_00_00_09.png,,,,,0,73,73,129,,,,,,,,,,,,,,,,,,,,,,,,,,,578.0787553383125,None,578.0787553383125,None,578.5620513240647,None,578.5620513240647,None,70,578.5620513240647,None,return,6.392383481499564,578.5620513240647,None,,,WANGJIAQI,F,002,2023_Apr_18_0911,untitled,2021.1.4,60.007271287145365,
0,9,18,9,9,18,36,0.75,1.0,0.0,0.67,-0.67,-2.0,,stimuli/P_00_09_18_09.png,,,,,0,74,74,25,,,,,,,,,,,,,,,,,,,,,,,,,,,584.9767290112504,None,584.9767290112504,None,585.4619939231197,None,585.4619939231197,None,0,585.4619939231197,None,return,1.6212937568343477,585.4619939231197,None,,,WANGJIAQI,F,002,2023_Apr_18_0911,untitled,2021.1.4,60.007271287145365,
18,18,18,9,36,36,63,0.71,0.5,0.5,0.67,-0.17,-0.5,,stimuli/P_18_18_18_09.png,,,,,0,75,75,169,,,,,,,,,,,,,,,,,,,,,,,,,,,587.1250361955827,None,587.1250361955827,None,587.6356297690727,None,587.6356297690727,None,3,587.6356297690727,None,None,,587.6356297690727,None,,,WANGJIAQI,F,002,2023_Apr_18_0911,untitled,2021.1.4,60.007271287145365,
18,18,18,18,36,36,72,0.75,0.5,0.5,0.5,0.0,0.0,,stimuli/P_18_18_18_18.png,,,,,0,76,76,170,,,,,,,,,,,,,,,,,,,,,,,,,,,595.6691629532434,None,595.6691629532434,None,596.1799801002489,None,596.1799801002489,None,25,596.1799801002489,None,return,4.200856064737309,596.1799801002489,None,,,WANGJIAQI,F,002,2023_Apr_18_0911,untitled,2021.1.4,60.007271287145365,
9,18,9,36,27,18,72,0.75,0.67,0.33,0.2,0.13,0.17,,stimuli/P_09_18_09_36.png,,,,,0,77,77,103,,,,,,,,,,,,,,,,,,,,,,,,,,,600.3983972110727,None,600.3983972110727,None,600.8860383738647,None,600.8860383738647,None,20,600.8860383738647,None,return,6.743135638585954,600.8860383738647,None,,,WANGJIAQI,F,002,2023_Apr_18_0911,untitled,2021.1.4,60.007271287145365,
9,0,36,0,9,45,45,1.0,0.0,1.0,1.0,0.0,None,,stimuli/P_09_00_36_00.png,,,,,0,78,78,76,,,,,,,,,,,,,,,,,,,,,,,,,,,607.6533199530531,None,607.6533199530531,None,608.1364993164825,None,608.1364993164825,None,15,608.1364993164825,None,return,6.898160268647189,608.1364993164825,None,,,WANGJIAQI,F,002,2023_Apr_18_0911,untitled,2021.1.4,60.007271287145365,
18,9,18,36,27,36,81,0.89,0.33,0.67,0.33,0.33,0.5,,stimuli/P_18_09_18_36.png,,,,,0,79,79,155,,,,,,,,,,,,,,,,,,,,,,,,,,,615.0733269959019,None,615.0733269959019,None,615.5731719735486,None,615.5731719735486,None,29,615.5731719735486,None,return,6.615916614471644,615.5731719735486,None,,,WANGJIAQI,F,002,2023_Apr_18_0911,untitled,2021.1.4,60.007271287145365,
36,9,9,9,45,45,63,0.86,0.2,0.8,0.5,0.3,0.6,,stimuli/P_36_09_09_09.png,,,,,0,80,80,213,,,,,,,,,,,,,,,,,,,,,,,,,,,622.2237373642565,None,622.2237373642565,None,622.709408463139,None,622.709408463139,None,4,622.709408463139,None,None,,622.709408463139,None,,,WANGJIAQI,F,002,2023_Apr_18_0911,untitled,2021.1.4,60.007271287145365,
36,0,9,9,36,45,54,1.0,0.0,1.0,0.5,0.5,1.0,,stimuli/P_36_00_09_09.png,,,,,0,81,81,197,,,,,,,,,,,,,,,,,,,,,,,,,,,630.7412964192408,None,630.7412964192408,None,631.2461049566773,None,631.2461049566773,None,60,631.2461049566773,None,return,4.109518600125739,631.2461049566773,None,,,WANGJIAQI,F,002,2023_Apr_18_0911,untitled,2021.1.4,60.007271287145365,
36,18,18,36,54,54,108,0.83,0.33,0.67,0.33,0.33,0.5,,stimuli/P_36_18_18_36.png,,,,,0,82,82,235,,,,,,,,,,,,,,,,,,,,,,,,,,,635.3934859891087,None,635.3934859891087,None,635.9104021991006,None,635.9104021991006,None,35,635.9104021991006,None,return,7.160838110583427,635.9104021991006,None,,,WANGJIAQI,F,002,2023_Apr_18_0911,untitled,2021.1.4,60.007271287145365,
0,9,9,18,9,9,36,0.75,1.0,0.0,0.33,-0.33,-0.5,,stimuli/P_00_09_09_18.png,,,,,0,83,83,22,,,,,,,,,,,,,,,,,,,,,,,,,,,643.1190964216294,None,643.1190964216294,None,643.6350915997245,None,643.6350915997245,None,0,643.6350915997245,None,return,1.5118684545741417,643.6350915997245,None,,,WANGJIAQI,F,002,2023_Apr_18_0911,untitled,2021.1.4,60.007271287145365,
0,0,36,0,0,36,36,1.0,None,None,1.0,None,None,,stimuli/P_00_00_36_00.png,,,,,0,84,84,12,,,,,,,,,,,,,,,,,,,,,,,,,,,645.1829844050371,None,645.1829844050371,None,645.6570171650965,None,645.6570171650965,None,0,645.6570171650965,None,return,1.4925000469302176,645.6570171650965,None,,,WANGJIAQI,F,002,2023_Apr_18_0911,untitled,2021.1.4,60.007271287145365,
36,36,18,0,72,54,90,0.6,0.5,0.5,1.0,-0.5,#NAME?,,stimuli/P_36_36_18_00.png,,,,,0,85,85,248,,,,,,,,,,,,,,,,,,,,,,,,,,,647.171593533094,None,647.171593533094,None,647.6539235446835,None,647.6539235446835,None,40,647.6539235446835,None,return,4.3320049766407465,647.6539235446835,None,,,WANGJIAQI,F,002,2023_Apr_18_0911,untitled,2021.1.4,60.007271287145365,
9,9,18,18,18,27,54,0.83,0.5,0.5,0.5,0.0,0.0,,stimuli/P_09_09_18_18.png,,,,,0,86,86,90,,,,,,,,,,,,,,,,,,,,,,,,,,,652.0074780508221,None,652.0074780508221,None,652.4987219900213,None,652.4987219900213,None,30,652.4987219900213,None,return,7.661149008621578,652.4987219900213,None,,,WANGJIAQI,F,002,2023_Apr_18_0911,untitled,2021.1.4,60.007271287145365,
36,9,18,9,45,54,72,0.88,0.2,0.8,0.67,0.13,0.4,,stimuli/P_36_09_18_09.png,,,,,0,87,87,217,,,,,,,,,,,,,,,,,,,,,,,,,,,660.19278238673,None,660.19278238673,None,660.6711358615939,None,660.6711358615939,None,50,660.6711358615939,None,return,4.941976128262468,660.6711358615939,None,,,WANGJIAQI,F,002,2023_Apr_18_0911,untitled,2021.1.4,60.007271287145365,
0,0,18,0,0,18,18,1.0,None,None,1.0,None,None,,stimuli/P_00_00_18_00.png,,,,,0,88,88,8,,,,,,,,,,,,,,,,,,,,,,,,,,,665.6354448800266,None,665.6354448800266,None,666.1170074598485,None,666.1170074598485,None,0,666.1170074598485,None,return,1.7316708110301988,666.1170074598485,None,,,WANGJIAQI,F,002,2023_Apr_18_0911,untitled,2021.1.4,60.007271287145365,
0,18,36,36,18,36,90,0.8,1.0,0.0,0.5,-0.5,-1.0,,stimuli/P_00_18_36_36.png,,,,,0,89,89,47,,,,,,,,,,,,,,,,,,,,,,,,,,,667.8755378137939,None,667.8755378137939,None,668.3470771317297,None,668.3470771317297,None,0,668.3470771317297,None,return,1.386332774112816,668.3470771317297,None,,,WANGJIAQI,F,002,2023_Apr_18_0911,untitled,2021.1.4,60.007271287145365,
36,18,9,9,54,45,72,0.75,0.33,0.67,0.5,0.17,0.33,,stimuli/P_36_18_09_09.png,,,,,0,90,90,229,,,,,,,,,,,,,,,,,,,,,,,,,,,669.7513202500122,None,669.7513202500122,None,670.2425164025044,None,670.2425164025044,None,50,670.2425164025044,None,return,4.61823654534237,670.2425164025044,None,,,WANGJIAQI,F,002,2023_Apr_18_0911,untitled,2021.1.4,60.007271287145365,
36,36,18,9,72,54,99,0.64,0.5,0.5,0.67,-0.17,-0.5,,stimuli/P_36_36_18_09.png,,,,,0,91,91,249,,,,,,,,,,,,,,,,,,,,,,,,,,,674.8927114462276,None,674.8927114462276,None,675.3644379287653,None,675.3644379287653,None,4,675.3644379287653,None,None,,675.3644379287653,None,,,WANGJIAQI,F,002,2023_Apr_18_0911,untitled,2021.1.4,60.007271287145365,
0,0,36,18,0,36,54,1.0,None,None,0.67,None,None,,stimuli/P_00_00_36_18.png,,,,,0,92,92,14,,,,,,,,,,,,,,,,,,,,,,,,,,,683.4009754177241,None,683.4009754177241,None,683.9186328905635,None,683.9186328905635,None,0,683.9186328905635,None,return,2.0052371955753188,683.9186328905635,None,,,WANGJIAQI,F,002,2023_Apr_18_0911,untitled,2021.1.4,60.007271287145365,
36,18,9,18,54,45,81,0.78,0.33,0.67,0.33,0.33,0.5,,stimuli/P_36_18_09_18.png,,,,,0,93,93,230,,,,,,,,,,,,,,,,,,,,,,,,,,,685.9581132442545,None,685.9581132442545,None,686.4341405304658,None,686.4341405304658,None,35,686.4341405304658,None,return,3.041973795814556,686.4341405304658,None,,,WANGJIAQI,F,002,2023_Apr_18_0911,untitled,2021.1.4,60.007271287145365,
18,9,18,18,27,36,63,0.86,0.33,0.67,0.5,0.17,0.33,,stimuli/P_18_09_18_18.png,,,,,0,94,94,154,,,,,,,,,,,,,,,,,,,,,,,,,,,689.5008581696238,None,689.5008581696238,None,689.9918694330627,None,689.9918694330627,None,28,689.9918694330627,None,return,6.249719679755799,689.9918694330627,None,,,WANGJIAQI,F,002,2023_Apr_18_0911,untitled,2021.1.4,60.007271287145365,
18,9,18,9,27,36,54,0.83,0.33,0.67,0.67,0.0,0.0,,stimuli/P_18_09_18_09.png,,,,,0,95,95,153,,,,,,,,,,,,,,,,,,,,,,,,,,,696.2697542568567,None,696.2697542568567,None,696.758511011707,None,696.758511011707,None,35,696.758511011707,None,return,6.664883198478492,696.758511011707,None,,,WANGJIAQI,F,002,2023_Apr_18_0911,untitled,2021.1.4,60.007271287145365,
9,18,9,9,27,18,45,0.6,0.67,0.33,0.5,-0.17,-0.33,,stimuli/P_09_18_09_09.png,,,,,0,96,96,101,,,,,,,,,,,,,,,,,,,,,,,,,,,703.4598526235204,None,703.4598526235204,None,703.9652590636906,None,703.9652590636906,None,20,703.9652590636906,None,return,5.7632350690691965,703.9652590636906,None,,,WANGJIAQI,F,002,2023_Apr_18_0911,untitled,2021.1.4,60.007271287145365,
0,9,36,36,9,36,81,0.89,1.0,0.0,0.5,-0.5,-1.0,,stimuli/P_00_09_36_36.png,,,,,0,97,97,31,,,,,,,,,,,,,,,,,,,,,,,,,,,709.7591128966669,None,709.7591128966669,None,710.2419634420294,None,710.2419634420294,None,0,710.2419634420294,None,return,1.5420975292581716,710.2419634420294,None,,,WANGJIAQI,F,002,2023_Apr_18_0911,untitled,2021.1.4,60.007271287145365,
9,36,18,9,45,27,72,0.5,0.8,0.2,0.67,-0.47,-1.4,,stimuli/P_09_36_18_09.png,,,,,0,98,98,121,,,,,,,,,,,,,,,,,,,,,,,,,,,711.8083997653885,None,711.8083997653885,None,712.2838672644575,None,712.2838672644575,None,15,712.2838672644575,None,return,3.551946710998891,712.2838672644575,None,,,WANGJIAQI,F,002,2023_Apr_18_0911,untitled,2021.1.4,60.007271287145365,
18,36,36,0,54,54,90,0.6,0.67,0.33,1.0,-0.67,#NAME?,,stimuli/P_18_36_36_00.png,,,,,0,99,99,188,,,,,,,,,,,,,,,,,,,,,,,,,,,715.8599986005283,None,715.8599986005283,None,716.3283236935022,None,716.3283236935022,None,20,716.3283236935022,None,return,5.583819307081285,716.3283236935022,None,,,WANGJIAQI,F,002,2023_Apr_18_0911,untitled,2021.1.4,60.007271287145365,
9,18,0,36,27,9,63,0.71,0.67,0.33,0.0,0.33,0.33,,stimuli/P_09_18_00_36.png,,,,,0,100,100,99,,,,,,,,,,,,,,,,,,,,,,,,,,,721.9491759921875,None,721.9491759921875,None,722.4161932084826,None,722.4161932084826,None,18,722.4161932084826,None,return,6.058806663517316,722.4161932084826,None,,,WANGJIAQI,F,002,2023_Apr_18_0911,untitled,2021.1.4,60.007271287145365,
0,18,36,9,18,36,63,0.71,1.0,0.0,0.8,-0.8,-4.0,,stimuli/P_00_18_36_09.png,,,,,0,101,101,45,,,,,,,,,,,,,,,,,,,,,,,,,,,728.5081297136057,None,728.5081297136057,None,728.9797907738684,None,728.9797907738684,None,0,728.9797907738684,None,return,1.6534775354157318,728.9797907738684,None,,,WANGJIAQI,F,002,2023_Apr_18_0911,untitled,2021.1.4,60.007271287145365,
36,9,18,0,45,54,63,0.86,0.2,0.8,1.0,-0.2,#NAME?,,stimuli/P_36_09_18_00.png,,,,,0,102,102,216,,,,,,,,,,,,,,,,,,,,,,,,,,,730.6666308266358,None,730.6666308266358,None,731.1482320909345,None,731.1482320909345,None,59,731.1482320909345,None,return,7.055912723270012,731.1482320909345,None,,,WANGJIAQI,F,002,2023_Apr_18_0911,untitled,2021.1.4,60.007271287145365,
0,36,0,18,36,0,54,0.33,1.0,0.0,0.0,0.0,0.0,,stimuli/P_00_36_00_18.png,,,,,0,103,103,50,,,,,,,,,,,,,,,,,,,,,,,,,,,738.246413863606,None,738.246413863606,None,738.7266657223081,None,738.7266657223081,None,0,738.7266657223081,None,return,3.379741621822177,738.7266657223081,None,,,WANGJIAQI,F,002,2023_Apr_18_0911,untitled,2021.1.4,60.007271287145365,
36,36,18,36,72,54,126,0.71,0.5,0.5,0.33,0.17,0.25,,stimuli/P_36_36_18_36.png,,,,,0,104,104,251,,,,,,,,,,,,,,,,,,,,,,,,,,,742.1242238215564,None,742.1242238215564,None,742.6096730535864,None,742.6096730535864,None,25,742.6096730535864,None,return,6.266891605526325,742.6096730535864,None,,,WANGJIAQI,F,002,2023_Apr_18_0911,untitled,2021.1.4,60.007271287145365,
36,36,9,36,72,45,117,0.69,0.5,0.5,0.2,0.3,0.37,,stimuli/P_36_36_09_36.png,,,,,0,105,105,247,,,,,,,,,,,,,,,,,,,,,,,,,,,748.8994095497183,None,748.8994095497183,None,749.3785059941001,None,749.3785059941001,None,25,749.3785059941001,None,return,3.0970092916686554,749.3785059941001,None,,,WANGJIAQI,F,002,2023_Apr_18_0911,untitled,2021.1.4,60.007271287145365,
36,9,0,9,45,36,54,0.83,0.2,0.8,0.0,0.8,0.8,,stimuli/P_36_09_00_09.png,,,,,0,106,106,209,,,,,,,,,,,,,,,,,,,,,,,,,,,752.4985547365432,None,752.4985547365432,None,752.96882713784,None,752.96882713784,None,70,752.96882713784,None,return,5.183496974357695,752.96882713784,None,,,WANGJIAQI,F,002,2023_Apr_18_0911,untitled,2021.1.4,60.007271287145365,
9,9,9,0,18,18,27,0.67,0.5,0.5,1.0,-0.5,#NAME?,,stimuli/P_09_09_09_00.png,,,,,0,107,107,84,,,,,,,,,,,,,,,,,,,,,,,,,,,758.1895966062366,None,758.1895966062366,None,758.6802983938542,None,758.6802983938542,None,33,758.6802983938542,None,return,3.5501621050279937,758.6802983938542,None,,,WANGJIAQI,F,002,2023_Apr_18_0911,untitled,2021.1.4,60.007271287145365,
0,0,36,9,0,36,45,1.0,None,None,0.8,None,None,,stimuli/P_00_00_36_09.png,,,,,0,108,108,13,,,,,,,,,,,,,,,,,,,,,,,,,,,762.2707014576663,None,762.2707014576663,None,762.7553627779125,None,762.7553627779125,None,0,762.7553627779125,None,return,1.5323991032055346,762.7553627779125,None,,,WANGJIAQI,F,002,2023_Apr_18_0911,untitled,2021.1.4,60.007271287145365,
18,36,0,36,54,18,90,0.6,0.67,0.33,0.0,0.33,0.33,,stimuli/P_18_36_00_36.png,,,,,0,109,109,179,,,,,,,,,,,,,,,,,,,,,,,,,,,764.3186935341728,None,764.3186935341728,None,764.7938379040716,None,764.7938379040716,None,15,764.7938379040716,None,return,5.102986612328095,764.7938379040716,None,,,WANGJIAQI,F,002,2023_Apr_18_0911,untitled,2021.1.4,60.007271287145365,
36,9,18,36,45,54,99,0.91,0.2,0.8,0.33,0.47,0.7,,stimuli/P_36_09_18_36.png,,,,,0,110,110,219,,,,,,,,,,,,,,,,,,,,,,,,,,,769.9349645667244,None,769.9349645667244,None,770.4164520531485,None,770.4164520531485,None,37,770.4164520531485,None,return,6.171759079901676,770.4164520531485,None,,,WANGJIAQI,F,002,2023_Apr_18_0911,untitled,2021.1.4,60.007271287145365,
36,9,18,18,45,54,81,0.89,0.2,0.8,0.5,0.3,0.6,,stimuli/P_36_09_18_18.png,,,,,0,111,111,218,,,,,,,,,,,,,,,,,,,,,,,,,,,776.6107198100362,None,776.6107198100362,None,777.0855433263278,None,777.0855433263278,None,45,777.0855433263278,None,return,4.877131272929546,777.0855433263278,None,,,WANGJIAQI,F,002,2023_Apr_18_0911,untitled,2021.1.4,60.007271287145365,
9,18,18,18,27,27,63,0.71,0.67,0.33,0.5,-0.17,-0.33,,stimuli/P_09_18_18_18.png,,,,,0,112,112,106,,,,,,,,,,,,,,,,,,,,,,,,,,,781.9862402727013,None,781.9862402727013,None,782.4746511428166,None,782.4746511428166,None,26,782.4746511428166,None,return,6.043281103600748,782.4746511428166,None,,,WANGJIAQI,F,002,2023_Apr_18_0911,untitled,2021.1.4,60.007271287145365,
18,0,9,9,18,27,36,1.0,0.0,1.0,0.5,0.5,1.0,,stimuli/P_18_00_09_09.png,,,,,0,113,113,133,,,,,,,,,,,,,,,,,,,,,,,,,,,788.5498054113923,None,788.5498054113923,None,789.0312832266936,None,789.0312832266936,None,60,789.0312832266936,None,return,7.107449549468583,789.0312832266936,None,,,WANGJIAQI,F,002,2023_Apr_18_0911,untitled,2021.1.4,60.007271287145365,
0,0,0,9,0,0,9,1.0,None,None,0.0,None,None,,stimuli/P_00_00_00_09.png,,,,,0,114,114,1,,,,,,,,,,,,,,,,,,,,,,,,,,,796.167999858917,None,796.167999858917,None,796.6545368074294,None,796.6545368074294,None,0,796.6545368074294,None,return,1.6899871487839846,796.6545368074294,None,,,WANGJIAQI,F,002,2023_Apr_18_0911,untitled,2021.1.4,60.007271287145365,
9,18,9,18,27,18,54,0.67,0.67,0.33,0.33,0.0,0.0,,stimuli/P_09_18_09_18.png,,,,,0,115,115,102,,,,,,,,,,,,,,,,,,,,,,,,,,,798.3785424030211,None,798.3785424030211,None,798.856034579374,None,798.856034579374,None,26,798.856034579374,None,return,7.669563451367139,798.856034579374,None,,,WANGJIAQI,F,002,2023_Apr_18_0911,untitled,2021.1.4,60.007271287145365,
0,18,9,18,18,9,45,0.6,1.0,0.0,0.33,-0.33,-0.5,,stimuli/P_00_18_09_18.png,,,,,0,116,116,38,,,,,,,,,,,,,,,,,,,,,,,,,,,806.5594054195826,None,806.5594054195826,None,807.0209675556689,None,807.0209675556689,None,0,807.0209675556689,None,return,2.1813323502938147,807.0209675556689,None,,,WANGJIAQI,F,002,2023_Apr_18_0911,untitled,2021.1.4,60.007271287145365,
36,9,36,36,45,72,117,0.92,0.2,0.8,0.5,0.3,0.6,,stimuli/P_36_09_36_36.png,,,,,0,117,117,223,,,,,,,,,,,,,,,,,,,,,,,,,,,809.2372513313458,None,809.2372513313458,None,809.7116652472905,None,809.7116652472905,None,28,809.7116652472905,None,return,6.200874838083109,809.7116652472905,None,,,WANGJIAQI,F,002,2023_Apr_18_0911,untitled,2021.1.4,60.007271287145365,
18,18,0,0,36,18,36,0.5,0.5,0.5,None,None,None,,stimuli/P_18_18_00_00.png,,,,,0,118,118,160,,,,,,,,,,,,,,,,,,,,,,,,,,,815.9371957508483,None,815.9371957508483,None,816.4118901292604,None,816.4118901292604,None,50,816.4118901292604,None,return,2.423296361215762,816.4118901292604,None,,,WANGJIAQI,F,002,2023_Apr_18_0911,untitled,2021.1.4,60.007271287145365,
36,0,0,0,36,36,36,1.0,0.0,1.0,None,None,None,,stimuli/P_36_00_00_00.png,,,,,0,119,119,192,,,,,,,,,,,,,,,,,,,,,,,,,,,818.8721927442675,None,818.8721927442675,None,819.3388965025224,None,819.3388965025224,None,100,819.3388965025224,None,return,3.1317092679455527,819.3388965025224,None,,,WANGJIAQI,F,002,2023_Apr_18_0911,untitled,2021.1.4,60.007271287145365,
18,18,18,36,36,36,90,0.8,0.5,0.5,0.33,0.17,0.25,,stimuli/P_18_18_18_36.png,,,,,0,120,120,171,,,,,,,,,,,,,,,,,,,,,,,,,,,822.4892533952734,None,822.4892533952734,None,822.9639130714277,None,822.9639130714277,None,1,822.9639130714277,None,None,,822.9639130714277,None,,,WANGJIAQI,F,002,2023_Apr_18_0911,untitled,2021.1.4,60.007271287145365,
0,36,36,18,36,36,90,0.6,1.0,0.0,0.67,-0.67,-2.0,,stimuli/P_00_36_36_18.png,,,,,0,121,121,62,,,,,,,,,,,,,,,,,,,,,,,,,,,830.9920378243187,None,830.9920378243187,None,831.4911324368804,None,831.4911324368804,None,0,831.4911324368804,None,return,3.1507670619903365,831.4911324368804,None,,,WANGJIAQI,F,002,2023_Apr_18_0911,untitled,2021.1.4,60.007271287145365,
9,0,9,36,9,18,54,1.0,0.0,1.0,0.2,0.8,1.0,,stimuli/P_09_00_09_36.png,,,,,0,122,122,71,,,,,,,,,,,,,,,,,,,,,,,,,,,834.6649998208013,None,834.6649998208013,None,835.1400048128053,None,835.1400048128053,None,10,835.1400048128053,None,return,4.73847415905766,835.1400048128053,None,,,WANGJIAQI,F,002,2023_Apr_18_0911,untitled,2021.1.4,60.007271287145365,
0,18,9,9,18,9,36,0.5,1.0,0.0,0.5,-0.5,-1.0,,stimuli/P_00_18_09_09.png,,,,,0,123,123,37,,,,,,,,,,,,,,,,,,,,,,,,,,,839.8978314505948,None,839.8978314505948,None,840.3597548314356,None,840.3597548314356,None,0,840.3597548314356,None,return,2.482055238018802,840.3597548314356,None,,,WANGJIAQI,F,002,2023_Apr_18_0911,untitled,2021.1.4,60.007271287145365,
9,9,36,36,18,45,90,0.9,0.5,0.5,0.5,0.0,0.0,,stimuli/P_09_09_36_36.png,,,,,0,124,124,95,,,,,,,,,,,,,,,,,,,,,,,,,,,842.8743994661563,None,842.8743994661563,None,843.3561930150609,None,843.3561930150609,None,15,843.3561930150609,None,return,6.073714978461794,843.3561930150609,None,,,WANGJIAQI,F,002,2023_Apr_18_0911,untitled,2021.1.4,60.007271287145365,
9,0,18,0,9,27,27,1.0,0.0,1.0,1.0,0.0,None,,stimuli/P_09_00_18_00.png,,,,,0,125,125,72,,,,,,,,,,,,,,,,,,,,,,,,,,,849.4725758343775,None,849.4725758343775,None,849.9506932201475,None,849.9506932201475,None,40,849.9506932201475,None,return,7.875574222707655,849.9506932201475,None,,,WANGJIAQI,F,002,2023_Apr_18_0911,untitled,2021.1.4,60.007271287145365,
0,36,9,9,36,9,54,0.33,1.0,0.0,0.5,-0.5,-1.0,,stimuli/P_00_36_09_09.png,,,,,0,126,126,53,,,,,,,,,,,,,,,,,,,,,,,,,,,857.8540548443489,None,857.8540548443489,None,858.3212740163726,None,858.3212740163726,None,0,858.3212740163726,None,return,1.5533609699778026,858.3212740163726,None,,,WANGJIAQI,F,002,2023_Apr_18_0911,untitled,2021.1.4,60.007271287145365,
9,0,9,9,9,18,27,1.0,0.0,1.0,0.5,0.5,1.0,,stimuli/P_09_00_09_09.png,,,,,0,127,127,69,,,,,,,,,,,,,,,,,,,,,,,,,,,859.8970497965929,None,859.8970497965929,None,860.3710700410884,None,860.3710700410884,None,33,860.3710700410884,None,return,3.7705959286831785,860.3710700410884,None,,,WANGJIAQI,F,002,2023_Apr_18_0911,untitled,2021.1.4,60.007271287145365,
9,18,18,9,27,27,54,0.67,0.67,0.33,0.67,-0.33,-1.0,,stimuli/P_09_18_18_09.png,,,,,0,128,128,105,,,,,,,,,,,,,,,,,,,,,,,,,,,864.1821669110068,None,864.1821669110068,None,864.6677282142409,None,864.6677282142409,None,25,864.6677282142409,None,return,7.7258021482412005,864.6677282142409,None,,,WANGJIAQI,F,002,2023_Apr_18_0911,untitled,2021.1.4,60.007271287145365,
9,18,0,9,27,9,36,0.5,0.67,0.33,0.0,0.33,0.33,,stimuli/P_09_18_00_09.png,,,,,0,129,129,97,,,,,,,,,,,,,,,,,,,,,,,,,,,872.4303238516513,None,872.4303238516513,None,872.9069450583702,None,872.9069450583702,None,24,872.9069450583702,None,return,5.842347101024643,872.9069450583702,None,,,WANGJIAQI,F,002,2023_Apr_18_0911,untitled,2021.1.4,60.007271287145365,
9,18,9,0,27,18,36,0.5,0.67,0.33,1.0,-0.67,#NAME?,,stimuli/P_09_18_09_00.png,,,,,0,130,130,100,,,,,,,,,,,,,,,,,,,,,,,,,,,878.7830620015447,None,878.7830620015447,None,879.2694191810151,None,879.2694191810151,None,23,879.2694191810151,None,return,7.869051337147539,879.2694191810151,None,,,WANGJIAQI,F,002,2023_Apr_18_0911,untitled,2021.1.4,60.007271287145365,
0,18,18,0,18,18,36,0.5,1.0,0.0,1.0,-1.0,#NAME?,,stimuli/P_00_18_18_00.png,,,,,0,131,131,40,,,,,,,,,,,,,,,,,,,,,,,,,,,887.1660417416861,None,887.1660417416861,None,887.6344271369308,None,887.6344271369308,None,0,887.6344271369308,None,return,1.5016540458527743,887.6344271369308,None,,,WANGJIAQI,F,002,2023_Apr_18_0911,untitled,2021.1.4,60.007271287145365,
9,9,36,0,18,45,54,0.83,0.5,0.5,1.0,-0.5,#NAME?,,stimuli/P_09_09_36_00.png,,,,,0,132,132,92,,,,,,,,,,,,,,,,,,,,,,,,,,,889.1654483900711,None,889.1654483900711,None,889.6441898474877,None,889.6441898474877,None,20,889.6441898474877,None,return,7.467922888179601,889.6441898474877,None,,,WANGJIAQI,F,002,2023_Apr_18_0911,untitled,2021.1.4,60.007271287145365,
36,0,36,36,36,72,108,1.0,0.0,1.0,0.5,0.5,1.0,,stimuli/P_36_00_36_36.png,,,,,0,133,133,207,,,,,,,,,,,,,,,,,,,,,,,,,,,897.1456237331513,None,897.1456237331513,None,897.6240329591747,None,897.6240329591747,None,33,897.6240329591747,None,return,2.608749746133981,897.6240329591747,None,,,WANGJIAQI,F,002,2023_Apr_18_0911,untitled,2021.1.4,60.007271287145365,
18,36,9,9,54,27,72,0.5,0.67,0.33,0.5,-0.17,-0.33,,stimuli/P_18_36_09_09.png,,,,,0,134,134,181,,,,,,,,,,,,,,,,,,,,,,,,,,,900.258800291951,None,900.258800291951,None,900.742067264342,None,900.742067264342,None,2,900.742067264342,None,None,,900.742067264342,None,,,WANGJIAQI,F,002,2023_Apr_18_0911,untitled,2021.1.4,60.007271287145365,
18,36,18,36,54,36,108,0.67,0.67,0.33,0.33,0.0,0.0,,stimuli/P_18_36_18_36.png,,,,,0,135,135,187,,,,,,,,,,,,,,,,,,,,,,,,,,,908.7776211435703,None,908.7776211435703,None,909.3018822842714,None,909.3018822842714,None,15,909.3018822842714,None,return,6.69894601865235,909.3018822842714,None,,,WANGJIAQI,F,002,2023_Apr_18_0911,untitled,2021.1.4,60.007271287145365,
9,9,0,9,18,9,27,0.67,0.5,0.5,0.0,0.5,0.5,,stimuli/P_09_09_00_09.png,,,,,0,136,136,81,,,,,,,,,,,,,,,,,,,,,,,,,,,916.033665735391,None,916.033665735391,None,916.5191633230206,None,916.5191633230206,None,33,916.5191633230206,None,return,2.3799947775914916,916.5191633230206,None,,,WANGJIAQI,F,002,2023_Apr_18_0911,untitled,2021.1.4,60.007271287145365,
0,9,36,0,9,36,45,0.8,1.0,0.0,1.0,-1.0,#NAME?,,stimuli/P_00_09_36_00.png,,,,,0,137,137,28,,,,,,,,,,,,,,,,,,,,,,,,,,,918.9370165506989,None,918.9370165506989,None,919.4212762350435,None,919.4212762350435,None,0,919.4212762350435,None,return,2.5631760183605365,919.4212762350435,None,,,WANGJIAQI,F,002,2023_Apr_18_0911,untitled,2021.1.4,60.007271287145365,
36,18,18,18,54,54,90,0.8,0.33,0.67,0.5,0.17,0.33,,stimuli/P_36_18_18_18.png,,,,,0,138,138,234,,,,,,,,,,,,,,,,,,,,,,,,,,,922.0063880587841,None,922.0063880587841,None,922.4853360230409,None,922.4853360230409,None,40,922.4853360230409,None,return,4.741757219635474,922.4853360230409,None,,,WANGJIAQI,F,002,2023_Apr_18_0911,untitled,2021.1.4,60.007271287145365,
0,18,9,36,18,9,63,0.71,1.0,0.0,0.2,-0.2,-0.25,,stimuli/P_00_18_09_36.png,,,,,0,139,139,39,,,,,,,,,,,,,,,,,,,,,,,,,,,927.2637974162208,None,927.2637974162208,None,927.7894210469749,None,927.7894210469749,None,0,927.7894210469749,None,return,2.025948751033866,927.7894210469749,None,,,WANGJIAQI,F,002,2023_Apr_18_0911,untitled,2021.1.4,60.007271287145365,
36,36,36,18,72,72,126,0.71,0.5,0.5,0.67,-0.17,-0.5,,stimuli/P_36_36_36_18.png,,,,,0,140,140,254,,,,,,,,,,,,,,,,,,,,,,,,,,,929.8413304957139,None,929.8413304957139,None,930.3248437971997,None,930.3248437971997,None,40,930.3248437971997,None,return,6.630597373659839,930.3248437971997,None,,,WANGJIAQI,F,002,2023_Apr_18_0911,untitled,2021.1.4,60.007271287145365,
0,18,0,36,18,0,54,0.67,1.0,0.0,0.0,0.0,0.0,,stimuli/P_00_18_00_36.png,,,,,0,141,141,35,,,,,,,,,,,,,,,,,,,,,,,,,,,936.9765589133312,None,936.9765589133312,None,937.4566150740866,None,937.4566150740866,None,0,937.4566150740866,None,return,6.377027450624155,937.4566150740866,None,,,WANGJIAQI,F,002,2023_Apr_18_0911,untitled,2021.1.4,60.007271287145365,
18,0,18,0,18,36,36,1.0,0.0,1.0,1.0,0.0,None,,stimuli/P_18_00_18_00.png,,,,,0,142,142,136,,,,,,,,,,,,,,,,,,,,,,,,,,,943.8687287768698,None,943.8687287768698,None,944.3388310802475,None,944.3388310802475,None,50,944.3388310802475,None,return,2.353623341754428,944.3388310802475,None,,,WANGJIAQI,F,002,2023_Apr_18_0911,untitled,2021.1.4,60.007271287145365,
0,36,36,9,36,36,81,0.56,1.0,0.0,0.8,-0.8,-4.0,,stimuli/P_00_36_36_09.png,,,,,0,143,143,61,,,,,,,,,,,,,,,,,,,,,,,,,,,946.7344088755854,None,946.7344088755854,None,947.2193364360573,None,947.2193364360573,None,0,947.2193364360573,None,return,1.4158490304107545,947.2193364360573,None,,,WANGJIAQI,F,002,2023_Apr_18_0911,untitled,2021.1.4,60.007271287145365,
18,9,18,0,27,36,45,0.8,0.33,0.67,1.0,-0.33,#NAME?,,stimuli/P_18_09_18_00.png,,,,,0,144,144,152,,,,,,,,,,,,,,,,,,,,,,,,,,,948.6674528717849,None,948.6674528717849,None,949.1563023556009,None,949.1563023556009,None,40,949.1563023556009,None,None,,949.1563023556009,None,,,WANGJIAQI,F,002,2023_Apr_18_0911,untitled,2021.1.4,60.007271287145365,
18,9,0,9,27,18,36,0.75,0.33,0.67,0.0,0.67,0.67,,stimuli/P_18_09_00_09.png,,,,,0,145,145,145,,,,,,,,,,,,,,,,,,,,,,,,,,,957.1688867574485,None,957.1688867574485,None,957.6761750836667,None,957.6761750836667,None,50,957.6761750836667,None,None,,957.6761750836667,None,,,WANGJIAQI,F,002,2023_Apr_18_0911,untitled,2021.1.4,60.007271287145365,
0,18,36,18,18,36,72,0.75,1.0,0.0,0.67,-0.67,-2.0,,stimuli/P_00_18_36_18.png,,,,,0,146,146,46,,,,,,,,,,,,,,,,,,,,,,,,,,,965.7050866105637,None,965.7050866105637,None,966.2208792640376,None,966.2208792640376,None,0,966.2208792640376,None,return,1.7384502657005214,966.2208792640376,None,,,WANGJIAQI,F,002,2023_Apr_18_0911,untitled,2021.1.4,60.007271287145365,
0,9,36,18,9,36,63,0.86,1.0,0.0,0.67,-0.67,-2.0,,stimuli/P_00_09_36_18.png,,,,,0,147,147,30,,,,,,,,,,,,,,,,,,,,,,,,,,,967.9771175626956,None,967.9771175626956,None,968.4563220960626,None,968.4563220960626,None,0,968.4563220960626,None,return,1.7955246610654285,968.4563220960626,None,,,WANGJIAQI,F,002,2023_Apr_18_0911,untitled,2021.1.4,60.007271287145365,
18,9,36,36,27,54,99,0.91,0.33,0.67,0.5,0.17,0.33,,stimuli/P_18_09_36_36.png,,,,,0,148,148,159,,,,,,,,,,,,,,,,,,,,,,,,,,,970.2781527706902,None,970.2781527706902,None,970.7507530673101,None,970.7507530673101,None,20,970.7507530673101,None,return,7.288791570877947,970.7507530673101,None,,,WANGJIAQI,F,002,2023_Apr_18_0911,untitled,2021.1.4,60.007271287145365,
9,9,0,18,18,9,36,0.75,0.5,0.5,0.0,0.5,0.5,,stimuli/P_09_09_00_18.png,,,,,0,149,149,82,,,,,,,,,,,,,,,,,,,,,,,,,,,978.0738725608171,None,978.0738725608171,None,978.5433530681039,None,978.5433530681039,None,30,978.5433530681039,None,return,7.309036068159912,978.5433530681039,None,,,WANGJIAQI,F,002,2023_Apr_18_0911,untitled,2021.1.4,60.007271287145365,
0,0,0,36,0,0,36,1.0,None,None,0.0,None,None,,stimuli/P_00_00_00_36.png,,,,,0,150,150,3,,,,,,,,,,,,,,,,,,,,,,,,,,,985.8745985774367,None,985.8745985774367,None,986.3532990748135,None,986.3532990748135,None,0,986.3532990748135,None,return,1.5855111840864993,986.3532990748135,None,,,WANGJIAQI,F,002,2023_Apr_18_0911,untitled,2021.1.4,60.007271287145365,
18,9,9,18,27,27,54,0.83,0.33,0.67,0.33,0.33,0.5,,stimuli/P_18_09_09_18.png,,,,,0,151,151,150,,,,,,,,,,,,,,,,,,,,,,,,,,,987.9713689355704,None,987.9713689355704,None,988.4418313459173,None,988.4418313459173,None,30,988.4418313459173,None,None,,988.4418313459173,None,,,WANGJIAQI,F,002,2023_Apr_18_0911,untitled,2021.1.4,60.007271287145365,
9,9,36,9,18,45,63,0.86,0.5,0.5,0.8,-0.3,-1.5,,stimuli/P_09_09_36_09.png,,,,,0,152,152,93,,,,,,,,,,,,,,,,,,,,,,,,,,,996.4533234801711,None,996.4533234801711,None,996.9705844371201,None,996.9705844371201,None,15,996.9705844371201,None,None,,996.9705844371201,None,,,WANGJIAQI,F,002,2023_Apr_18_0911,untitled,2021.1.4,60.007271287145365,
0,36,9,36,36,9,81,0.56,1.0,0.0,0.2,-0.2,-0.25,,stimuli/P_00_36_09_36.png,,,,,0,153,153,55,,,,,,,,,,,,,,,,,,,,,,,,,,,1005.0070593482451,None,1005.0070593482451,None,1005.5192719808911,None,1005.5192719808911,None,0,1005.5192719808911,None,return,2.1665082309700665,1005.5192719808911,None,,,WANGJIAQI,F,002,2023_Apr_18_0911,untitled,2021.1.4,60.007271287145365,
18,18,36,0,36,54,72,0.75,0.5,0.5,1.0,-0.5,#NAME?,,stimuli/P_18_18_36_00.png,,,,,0,154,154,172,,,,,,,,,,,,,,,,,,,,,,,,,,,1007.7276476253683,None,1007.7276476253683,None,1008.240924650032,None,1008.240924650032,None,15,1008.240924650032,None,return,5.904787829866109,1008.240924650032,None,,,WANGJIAQI,F,002,2023_Apr_18_0911,untitled,2021.1.4,60.007271287145365,
9,9,18,36,18,27,72,0.88,0.5,0.5,0.33,0.17,0.25,,stimuli/P_09_09_18_36.png,,,,,0,155,155,91,,,,,,,,,,,,,,,,,,,,,,,,,,,1014.1702156830288,None,1014.1702156830288,None,1014.653275579687,None,1014.653275579687,None,10,1014.653275579687,None,return,2.8707961208565393,1014.653275579687,None,,,WANGJIAQI,F,002,2023_Apr_18_0911,untitled,2021.1.4,60.007271287145365,
0,9,0,9,9,0,18,0.5,1.0,0.0,0.0,0.0,0.0,,stimuli/P_00_09_00_09.png,,,,,0,156,156,17,,,,,,,,,,,,,,,,,,,,,,,,,,,1017.5589258458422,None,1017.5589258458422,None,1018.0669935504993,None,1018.0669935504993,None,0,1018.0669935504993,None,return,1.4073287742576213,1018.0669935504993,None,,,WANGJIAQI,F,002,2023_Apr_18_0911,untitled,2021.1.4,60.007271287145365,
9,36,9,9,45,18,63,0.43,0.8,0.2,0.5,-0.3,-0.6,,stimuli/P_09_36_09_09.png,,,,,0,157,157,117,,,,,,,,,,,,,,,,,,,,,,,,,,,1019.4963514279953,None,1019.4963514279953,None,1019.9712301265608,None,1019.9712301265608,None,17,1019.9712301265608,None,None,,1019.9712301265608,None,,,WANGJIAQI,F,002,2023_Apr_18_0911,untitled,2021.1.4,60.007271287145365,
0,0,0,0,0,0,0,None,None,None,None,None,None,,stimuli/P_00_00_00_00.png,,,,,0,158,158,0,,,,,,,,,,,,,,,,,,,,,,,,,,,1027.999320177194,None,1027.999320177194,None,1028.490052115958,None,1028.490052115958,None,0,1028.490052115958,None,return,1.6191331149966572,1028.490052115958,None,,,WANGJIAQI,F,002,2023_Apr_18_0911,untitled,2021.1.4,60.007271287145365,
9,0,9,18,9,18,36,1.0,0.0,1.0,0.33,0.67,1.0,,stimuli/P_09_00_09_18.png,,,,,0,159,159,70,,,,,,,,,,,,,,,,,,,,,,,,,,,1030.1481052286035,None,1030.1481052286035,None,1030.6117773753795,None,1030.6117773753795,None,25,1030.6117773753795,None,return,6.019773456871917,1030.6117773753795,None,,,WANGJIAQI,F,002,2023_Apr_18_0911,untitled,2021.1.4,60.007271287145365,
0,36,36,36,36,36,108,0.67,1.0,0.0,0.5,-0.5,-1.0,,stimuli/P_00_36_36_36.png,,,,,0,160,160,63,,,,,,,,,,,,,,,,,,,,,,,,,,,1036.6624694008642,None,1036.6624694008642,None,1037.1374374150546,None,1037.1374374150546,None,0,1037.1374374150546,None,return,1.4859356324450346,1037.1374374150546,None,,,WANGJIAQI,F,002,2023_Apr_18_0911,untitled,2021.1.4,60.007271287145365,
9,18,0,18,27,9,45,0.6,0.67,0.33,0.0,0.33,0.33,,stimuli/P_09_18_00_18.png,,,,,0,161,161,98,,,,,,,,,,,,,,,,,,,,,,,,,,,1038.6650857230925,None,1038.6650857230925,None,1039.1464372449627,None,1039.1464372449627,None,15,1039.1464372449627,None,return,6.581667198573996,1039.1464372449627,None,,,WANGJIAQI,F,002,2023_Apr_18_0911,untitled,2021.1.4,60.007271287145365,
36,18,9,0,54,45,63,0.71,0.33,0.67,1.0,-0.33,#NAME?,,stimuli/P_36_18_09_00.png,,,,,0,162,162,228,,,,,,,,,,,,,,,,,,,,,,,,,,,1045.7633067491333,None,1045.7633067491333,None,1046.2445581464635,None,1046.2445581464635,None,66,1046.2445581464635,None,return,6.596592580201104,1046.2445581464635,None,,,WANGJIAQI,F,002,2023_Apr_18_0911,untitled,2021.1.4,60.007271287145365,
0,18,0,18,18,0,36,0.5,1.0,0.0,0.0,0.0,0.0,,stimuli/P_00_18_00_18.png,,,,,0,163,163,34,,,,,,,,,,,,,,,,,,,,,,,,,,,1052.8768451215728,None,1052.8768451215728,None,1053.3609659969152,None,1053.3609659969152,None,0,1053.3609659969152,None,return,1.3464229089513537,1053.3609659969152,None,,,WANGJIAQI,F,002,2023_Apr_18_0911,untitled,2021.1.4,60.007271287145365,
9,9,9,36,18,18,63,0.86,0.5,0.5,0.2,0.3,0.37,,stimuli/P_09_09_09_36.png,,,,,0,164,164,87,,,,,,,,,,,,,,,,,,,,,,,,,,,1054.7438456125237,None,1054.7438456125237,None,1055.2247943607144,None,1055.2247943607144,None,13,1055.2247943607144,None,return,3.110337231933954,1055.2247943607144,None,,,WANGJIAQI,F,002,2023_Apr_18_0911,untitled,2021.1.4,60.007271287145365,
0,0,9,36,0,9,45,1.0,None,None,0.2,None,None,,stimuli/P_00_00_09_36.png,,,,,0,165,165,7,,,,,,,,,,,,,,,,,,,,,,,,,,,1058.3649396891924,None,1058.3649396891924,None,1058.8279951598888,None,1058.8279951598888,None,0,1058.8279951598888,None,return,2.746236654566019,1058.8279951598888,None,,,WANGJIAQI,F,002,2023_Apr_18_0911,untitled,2021.1.4,60.007271287145365,
18,18,9,18,36,27,63,0.71,0.5,0.5,0.33,0.17,0.25,,stimuli/P_18_18_09_18.png,,,,,0,166,166,166,,,,,,,,,,,,,,,,,,,,,,,,,,,1061.612929376366,None,1061.612929376366,None,1062.078596049294,None,1062.078596049294,None,27,1062.078596049294,None,return,6.410854181711329,1062.078596049294,None,,,WANGJIAQI,F,002,2023_Apr_18_0911,untitled,2021.1.4,60.007271287145365,
18,36,18,0,54,36,72,0.5,0.67,0.33,1.0,-0.67,#NAME?,,stimuli/P_18_36_18_00.png,,,,,0,167,167,184,,,,,,,,,,,,,,,,,,,,,,,,,,,1068.5277575347936,None,1068.5277575347936,None,1069.0035020829891,None,1069.0035020829891,None,25,1069.0035020829891,None,return,7.437224479763245,1069.0035020829891,None,,,WANGJIAQI,F,002,2023_Apr_18_0911,untitled,2021.1.4,60.007271287145365,
0,0,18,9,0,18,27,1.0,None,None,0.67,None,None,,stimuli/P_00_00_18_09.png,,,,,0,168,168,9,,,,,,,,,,,,,,,,,,,,,,,,,,,1076.47401057338,None,1076.47401057338,None,1076.948529164969,None,1076.948529164969,None,0,1076.948529164969,None,return,1.3888154073501937,1076.948529164969,None,,,WANGJIAQI,F,002,2023_Apr_18_0911,untitled,2021.1.4,60.007271287145365,
36,36,9,18,72,45,99,0.64,0.5,0.5,0.33,0.17,0.25,,stimuli/P_36_36_09_18.png,,,,,0,169,169,246,,,,,,,,,,,,,,,,,,,,,,,,,,,1078.3690874616223,None,1078.3690874616223,None,1078.8377425104263,None,1078.8377425104263,None,,1078.8377425104263,None,return,1.4836663327296264,1078.8377425104263,None,,,WANGJIAQI,F,002,2023_Apr_18_0911,untitled,2021.1.4,60.007271287145365,
36,0,36,18,36,72,90,1.0,0.0,1.0,0.67,0.33,1.0,,stimuli/P_36_00_36_18.png,,,,,0,170,170,206,,,,,,,,,,,,,,,,,,,,,,,,,,,1080.3378491771873,None,1080.3378491771873,None,1080.8162054964923,None,1080.8162054964923,None,4,1080.8162054964923,None,None,,1080.8162054964923,None,,,WANGJIAQI,F,002,2023_Apr_18_0911,untitled,2021.1.4,60.007271287145365,
0,9,9,9,9,9,27,0.67,1.0,0.0,0.5,-0.5,-1.0,,stimuli/P_00_09_09_09.png,,,,,0,171,171,21,,,,,,,,,,,,,,,,,,,,,,,,,,,1088.8305443531717,None,1088.8305443531717,None,1089.3383554887332,None,1089.3383554887332,None,0,1089.3383554887332,None,return,2.754324554800405,1089.3383554887332,None,,,WANGJIAQI,F,002,2023_Apr_18_0911,untitled,2021.1.4,60.007271287145365,
18,18,36,9,36,54,81,0.78,0.5,0.5,0.8,-0.3,-1.5,,stimuli/P_18_18_36_09.png,,,,,0,172,172,173,,,,,,,,,,,,,,,,,,,,,,,,,,,1092.1298023507625,None,1092.1298023507625,None,1092.6039500264815,None,1092.6039500264815,None,30,1092.6039500264815,None,return,7.393963287293445,1092.6039500264815,None,,,WANGJIAQI,F,002,2023_Apr_18_0911,untitled,2021.1.4,60.007271287145365,
0,9,18,0,9,18,27,0.67,1.0,0.0,1.0,-1.0,#NAME?,,stimuli/P_00_09_18_00.png,,,,,0,173,173,24,,,,,,,,,,,,,,,,,,,,,,,,,,,1100.0174654726798,None,1100.0174654726798,None,1100.4985422209793,None,1100.4985422209793,None,0,1100.4985422209793,None,return,3.8028718673376716,1100.4985422209793,None,,,WANGJIAQI,F,002,2023_Apr_18_0911,untitled,2021.1.4,60.007271287145365,
9,0,18,36,9,27,63,1.0,0.0,1.0,0.33,0.67,1.0,,stimuli/P_09_00_18_36.png,,,,,0,174,174,75,,,,,,,,,,,,,,,,,,,,,,,,,,,1104.3329123551957,None,1104.3329123551957,None,1104.8133400007137,None,1104.8133400007137,None,12,1104.8133400007137,None,return,2.307787924866716,1104.8133400007137,None,,,WANGJIAQI,F,002,2023_Apr_18_0911,untitled,2021.1.4,60.007271287145365,
9,9,36,18,18,45,72,0.88,0.5,0.5,0.67,-0.17,-0.5,,stimuli/P_09_09_36_18.png,,,,,0,175,175,94,,,,,,,,,,,,,,,,,,,,,,,,,,,1107.1579356369912,None,1107.1579356369912,None,1107.6357264802646,None,1107.6357264802646,None,15,1107.6357264802646,None,return,2.428478374524275,1107.6357264802646,None,,,WANGJIAQI,F,002,2023_Apr_18_0911,untitled,2021.1.4,60.007271287145365,
0,18,18,9,18,18,45,0.6,1.0,0.0,0.67,-0.67,-2.0,,stimuli/P_00_18_18_09.png,,,,,0,176,176,41,,,,,,,,,,,,,,,,,,,,,,,,,,,1110.1021184871424,None,1110.1021184871424,None,1110.5764789274835,None,1110.5764789274835,None,0,1110.5764789274835,None,return,1.3046658599778311,1110.5764789274835,None,,,WANGJIAQI,F,002,2023_Apr_18_0911,untitled,2021.1.4,60.007271287145365,
18,0,18,9,18,36,45,1.0,0.0,1.0,0.67,0.33,1.0,,stimuli/P_18_00_18_09.png,,,,,0,177,177,137,,,,,,,,,,,,,,,,,,,,,,,,,,,1111.9222003958348,None,1111.9222003958348,None,1112.3978840728596,None,1112.3978840728596,None,30,1112.3978840728596,None,return,4.772680339352519,1112.3978840728596,None,,,WANGJIAQI,F,002,2023_Apr_18_0911,untitled,2021.1.4,60.007271287145365,
18,0,0,0,18,18,18,1.0,0.0,1.0,None,None,None,,stimuli/P_18_00_00_00.png,,,,,0,178,178,128,,,,,,,,,,,,,,,,,,,,,,,,,,,1117.2066274474346,None,1117.2066274474346,None,1117.679724953363,None,1117.679724953363,None,100,1117.679724953363,None,return,2.3785759674938163,1117.679724953363,None,,,WANGJIAQI,F,002,2023_Apr_18_0911,untitled,2021.1.4,60.007271287145365,
0,36,0,0,36,0,36,0.0,1.0,0.0,None,None,None,,stimuli/P_00_36_00_00.png,,,,,0,179,179,48,,,,,,,,,,,,,,,,,,,,,,,,,,,1120.0985435863113,None,1120.0985435863113,None,1120.561306647869,None,1120.561306647869,None,0,1120.561306647869,None,return,1.622411624455708,1120.561306647869,None,,,WANGJIAQI,F,002,2023_Apr_18_0911,untitled,2021.1.4,60.007271287145365,
18,36,36,9,54,54,99,0.64,0.67,0.33,0.8,-0.47,-2.33,,stimuli/P_18_36_36_09.png,,,,,0,180,180,189,,,,,,,,,,,,,,,,,,,,,,,,,,,1122.2027402263411,None,1122.2027402263411,None,1122.6884801608394,None,1122.6884801608394,None,20,1122.6884801608394,None,return,7.822439386261976,1122.6884801608394,None,,,WANGJIAQI,F,002,2023_Apr_18_0911,untitled,2021.1.4,60.007271287145365,
18,36,18,9,54,36,81,0.56,0.67,0.33,0.67,-0.33,-1.0,,stimuli/P_18_36_18_09.png,,,,,0,181,181,185,,,,,,,,,,,,,,,,,,,,,,,,,,,1130.5395164781658,None,1130.5395164781658,None,1131.0485370725291,None,1131.0485370725291,None,20,1131.0485370725291,None,return,6.0799488682241645,1131.0485370725291,None,,,WANGJIAQI,F,002,2023_Apr_18_0911,untitled,2021.1.4,60.007271287145365,
18,18,0,9,36,18,45,0.6,0.5,0.5,0.0,0.5,0.5,,stimuli/P_18_18_00_09.png,,,,,0,182,182,161,,,,,,,,,,,,,,,,,,,,,,,,,,,1137.1682717880394,None,1137.1682717880394,None,1137.6517657472868,None,1137.6517657472868,None,45,1137.6517657472868,None,return,7.238803830448887,1137.6517657472868,None,,,WANGJIAQI,F,002,2023_Apr_18_0911,untitled,2021.1.4,60.007271287145365,
0,9,36,9,9,36,54,0.83,1.0,0.0,0.8,-0.8,-4.0,,stimuli/P_00_09_36_09.png,,,,,0,183,183,29,,,,,,,,,,,,,,,,,,,,,,,,,,,1144.9168010667781,None,1144.9168010667781,None,1145.3884029625478,None,1145.3884029625478,None,0,1145.3884029625478,None,return,2.6706358078299672,1145.3884029625478,None,,,WANGJIAQI,F,002,2023_Apr_18_0911,untitled,2021.1.4,60.007271287145365,
18,18,36,18,36,54,90,0.8,0.5,0.5,0.67,-0.17,-0.5,,stimuli/P_18_18_36_18.png,,,,,0,184,184,174,,,,,,,,,,,,,,,,,,,,,,,,,,,1148.0956729705285,None,1148.0956729705285,None,1148.571693998958,None,1148.571693998958,None,17,1148.571693998958,None,None,,1148.571693998958,None,,,WANGJIAQI,F,002,2023_Apr_18_0911,untitled,2021.1.4,60.007271287145365,
36,18,36,0,54,72,90,0.8,0.33,0.67,1.0,-0.33,#NAME?,,stimuli/P_36_18_36_00.png,,,,,0,185,185,236,,,,,,,,,,,,,,,,,,,,,,,,,,,1156.621858663988,None,1156.621858663988,None,1157.1380290600064,None,1157.1380290600064,None,40,1157.1380290600064,None,return,4.7305535122941365,1157.1380290600064,None,,,WANGJIAQI,F,002,2023_Apr_18_0911,untitled,2021.1.4,60.007271287145365,
0,36,36,0,36,36,72,0.5,1.0,0.0,1.0,-1.0,#NAME?,,stimuli/P_00_36_36_00.png,,,,,0,186,186,60,,,,,,,,,,,,,,,,,,,,,,,,,,,1161.903664273348,None,1161.903664273348,None,1162.3882544824228,None,1162.3882544824228,None,0,1162.3882544824228,None,return,1.1623524940951029,1162.3882544824228,None,,,WANGJIAQI,F,002,2023_Apr_18_0911,untitled,2021.1.4,60.007271287145365,
18,0,36,9,18,54,63,1.0,0.0,1.0,0.8,0.2,1.0,,stimuli/P_18_00_36_09.png,,,,,0,187,187,141,,,,,,,,,,,,,,,,,,,,,,,,,,,1163.5770335946218,None,1163.5770335946218,None,1164.0494842733387,None,1164.0494842733387,None,47,1164.0494842733387,None,return,5.017908068613906,1164.0494842733387,None,,,WANGJIAQI,F,002,2023_Apr_18_0911,untitled,2021.1.4,60.007271287145365,
18,0,36,18,18,54,72,1.0,0.0,1.0,0.67,0.33,1.0,,stimuli/P_18_00_36_18.png,,,,,0,188,188,142,,,,,,,,,,,,,,,,,,,,,,,,,,,1169.0902474725663,None,1169.0902474725663,None,1169.566988146049,None,1169.566988146049,None,40,1169.566988146049,None,return,4.671693942065758,1169.566988146049,None,,,WANGJIAQI,F,002,2023_Apr_18_0911,untitled,2021.1.4,60.007271287145365,
36,36,9,9,72,45,90,0.6,0.5,0.5,0.5,0.0,0.0,,stimuli/P_36_36_09_09.png,,,,,0,189,189,245,,,,,,,,,,,,,,,,,,,,,,,,,,,1174.2565383878027,None,1174.2565383878027,None,1174.7398184446429,None,1174.7398184446429,None,40,1174.7398184446429,None,return,5.528441339825804,1174.7398184446429,None,,,WANGJIAQI,F,002,2023_Apr_18_0911,untitled,2021.1.4,60.007271287145365,
36,9,9,18,45,45,72,0.88,0.2,0.8,0.33,0.47,0.7,,stimuli/P_36_09_09_18.png,,,,,0,190,190,214,,,,,,,,,,,,,,,,,,,,,,,,,,,1180.3017002396737,None,1180.3017002396737,None,1180.7814327023807,None,1180.7814327023807,None,50,1180.7814327023807,None,return,4.7094613698573085,1180.7814327023807,None,,,WANGJIAQI,F,002,2023_Apr_18_0911,untitled,2021.1.4,60.007271287145365,
36,0,0,9,36,36,45,1.0,0.0,1.0,0.0,1.0,1.0,,stimuli/P_36_00_00_09.png,,,,,0,191,191,193,,,,,,,,,,,,,,,,,,,,,,,,,,,1185.5308124707371,None,1185.5308124707371,None,1186.0407819725806,None,1186.0407819725806,None,70,1186.0407819725806,None,return,4.150228323749616,1186.0407819725806,None,,,WANGJIAQI,F,002,2023_Apr_18_0911,untitled,2021.1.4,60.007271287145365,
0,18,9,0,18,9,27,0.33,1.0,0.0,1.0,-1.0,#NAME?,,stimuli/P_00_18_09_00.png,,,,,0,192,192,36,,,,,,,,,,,,,,,,,,,,,,,,,,,1190.2259878906189,None,1190.2259878906189,None,1190.6995342502705,None,1190.6995342502705,None,0,1190.6995342502705,None,return,1.508182620309526,1190.6995342502705,None,,,WANGJIAQI,F,002,2023_Apr_18_0911,untitled,2021.1.4,60.007271287145365,
36,0,0,36,36,36,72,1.0,0.0,1.0,0.0,1.0,1.0,,stimuli/P_36_00_00_36.png,,,,,0,193,193,195,,,,,,,,,,,,,,,,,,,,,,,,,,,1192.2426330248272,None,1192.2426330248272,None,1192.7209478152072,None,1192.7209478152072,None,50,1192.7209478152072,None,return,2.169895398306835,1192.7209478152072,None,,,WANGJIAQI,F,002,2023_Apr_18_0911,untitled,2021.1.4,60.007271287145365,
9,0,0,18,9,9,27,1.0,0.0,1.0,0.0,1.0,1.0,,stimuli/P_09_00_00_18.png,,,,,0,194,194,66,,,,,,,,,,,,,,,,,,,,,,,,,,,1194.9126908410544,None,1194.9126908410544,None,1195.3759198230036,None,1195.3759198230036,None,40,1195.3759198230036,None,return,2.84144882469991,1195.3759198230036,None,,,WANGJIAQI,F,002,2023_Apr_18_0911,untitled,2021.1.4,60.007271287145365,
36,9,36,9,45,72,90,0.9,0.2,0.8,0.8,0.0,0.0,,stimuli/P_36_09_36_09.png,,,,,0,195,195,221,,,,,,,,,,,,,,,,,,,,,,,,,,,1198.2453506093661,None,1198.2453506093661,None,1198.7288183997007,None,1198.7288183997007,None,35,1198.7288183997007,None,return,5.74084016996494,1198.7288183997007,None,,,WANGJIAQI,F,002,2023_Apr_18_0911,untitled,2021.1.4,60.007271287145365,
36,18,0,9,54,36,63,0.71,0.33,0.67,0.0,0.67,0.67,,stimuli/P_36_18_00_09.png,,,,,0,196,196,225,,,,,,,,,,,,,,,,,,,,,,,,,,,1204.4963406191018,None,1204.4963406191018,None,1204.969765805312,None,1204.969765805312,None,65,1204.969765805312,None,return,4.358990244116285,1204.969765805312,None,,,WANGJIAQI,F,002,2023_Apr_18_0911,untitled,2021.1.4,60.007271287145365,
9,0,0,36,9,9,45,1.0,0.0,1.0,0.0,1.0,1.0,,stimuli/P_09_00_00_36.png,,,,,0,197,197,67,,,,,,,,,,,,,,,,,,,,,,,,,,,1209.3684355143996,None,1209.3684355143996,None,1209.8484985018295,None,1209.8484985018295,None,35,1209.8484985018295,None,return,3.977902630031167,1209.8484985018295,None,,,WANGJIAQI,F,002,2023_Apr_18_0911,untitled,2021.1.4,60.007271287145365,
36,36,0,0,72,36,72,0.5,0.5,0.5,None,None,None,,stimuli/P_36_36_00_00.png,,,,,0,198,198,240,,,,,,,,,,,,,,,,,,,,,,,,,,,1213.852163287178,None,1213.852163287178,None,1214.3519064336288,None,1214.3519064336288,None,50,1214.3519064336288,None,return,1.9714224111667136,1214.3519064336288,None,,,WANGJIAQI,F,002,2023_Apr_18_0911,untitled,2021.1.4,60.007271287145365,
0,18,18,18,18,18,54,0.67,1.0,0.0,0.5,-0.5,-1.0,,stimuli/P_00_18_18_18.png,,,,,0,199,199,42,,,,,,,,,,,,,,,,,,,,,,,,,,,1216.3653965073609,None,1216.3653965073609,None,1216.8475695054804,None,1216.8475695054804,None,0,1216.8475695054804,None,return,1.445338548910513,1216.8475695054804,None,,,WANGJIAQI,F,002,2023_Apr_18_0911,untitled,2021.1.4,60.007271287145365,
18,18,0,18,36,18,54,0.67,0.5,0.5,0.0,0.5,0.5,,stimuli/P_18_18_00_18.png,,,,,0,200,200,162,,,,,,,,,,,,,,,,,,,,,,,,,,,1218.3182600404689,None,1218.3182600404689,None,1218.79986926922,None,1218.79986926922,None,33,1218.79986926922,None,return,2.138881256294553,1218.79986926922,None,,,WANGJIAQI,F,002,2023_Apr_18_0911,untitled,2021.1.4,60.007271287145365,
0,18,36,0,18,36,54,0.67,1.0,0.0,1.0,-1.0,#NAME?,,stimuli/P_00_18_36_00.png,,,,,0,201,201,44,,,,,,,,,,,,,,,,,,,,,,,,,,,1220.9800069518242,None,1220.9800069518242,None,1221.4528154619547,None,1221.4528154619547,None,0,1221.4528154619547,None,return,1.2104230773402378,1221.4528154619547,None,,,WANGJIAQI,F,002,2023_Apr_18_0911,untitled,2021.1.4,60.007271287145365,
9,18,18,36,27,27,81,0.78,0.67,0.33,0.33,0.0,0.0,,stimuli/P_09_18_18_36.png,,,,,0,202,202,107,,,,,,,,,,,,,,,,,,,,,,,,,,,1222.6976279019727,None,1222.6976279019727,None,1223.1818420751733,None,1223.1818420751733,None,15,1223.1818420751733,None,return,2.819155187899014,1223.1818420751733,None,,,WANGJIAQI,F,002,2023_Apr_18_0911,untitled,2021.1.4,60.007271287145365,
0,9,9,0,9,9,18,0.5,1.0,0.0,1.0,-1.0,#NAME?,,stimuli/P_00_09_09_00.png,,,,,0,203,203,20,,,,,,,,,,,,,,,,,,,,,,,,,,,1226.0325177166378,None,1226.0325177166378,None,1226.5215970317659,None,1226.5215970317659,None,0,1226.5215970317659,None,return,1.412358325214882,1226.5215970317659,None,,,WANGJIAQI,F,002,2023_Apr_18_0911,untitled,2021.1.4,60.007271287145365,
18,9,0,18,27,18,45,0.8,0.33,0.67,0.0,0.67,0.67,,stimuli/P_18_09_00_18.png,,,,,0,204,204,146,,,,,,,,,,,,,,,,,,,,,,,,,,,1227.9643653384774,None,1227.9643653384774,None,1228.4414615678252,None,1228.4414615678252,None,40,1228.4414615678252,None,return,7.197842088826292,1228.4414615678252,None,,,WANGJIAQI,F,002,2023_Apr_18_0911,untitled,2021.1.4,60.007271287145365,
18,36,36,36,54,54,126,0.71,0.67,0.33,0.5,-0.17,-0.33,,stimuli/P_18_36_36_36.png,,,,,0,205,205,191,,,,,,,,,,,,,,,,,,,,,,,,,,,1235.6810254344746,None,1235.6810254344746,None,1236.1710701548654,None,1236.1710701548654,None,20,1236.1710701548654,None,return,6.43752371557639,1236.1710701548654,None,,,WANGJIAQI,F,002,2023_Apr_18_0911,untitled,2021.1.4,60.007271287145365,
36,9,36,0,45,72,81,0.89,0.2,0.8,1.0,-0.2,#NAME?,,stimuli/P_36_09_36_00.png,,,,,0,206,206,220,,,,,,,,,,,,,,,,,,,,,,,,,,,1242.6269564816685,None,1242.6269564816685,None,1243.109795649245,None,1243.109795649245,None,45,1243.109795649245,None,return,4.329329489919473,1243.109795649245,None,,,WANGJIAQI,F,002,2023_Apr_18_0911,untitled,2021.1.4,60.007271287145365,
18,18,9,36,36,27,81,0.78,0.5,0.5,0.2,0.3,0.37,,stimuli/P_18_18_09_36.png,,,,,0,207,207,167,,,,,,,,,,,,,,,,,,,,,,,,,,,1247.475724068172,None,1247.475724068172,None,1247.962452732405,None,1247.962452732405,None,20,1247.962452732405,None,return,7.833987271667866,1247.962452732405,None,,,WANGJIAQI,F,002,2023_Apr_18_0911,untitled,2021.1.4,60.007271287145365,
18,0,9,0,18,27,27,1.0,0.0,1.0,1.0,0.0,None,,stimuli/P_18_00_09_00.png,,,,,0,208,208,132,,,,,,,,,,,,,,,,,,,,,,,,,,,1255.8340481428313,None,1255.8340481428313,None,1256.3173469730245,None,1256.3173469730245,None,70,1256.3173469730245,None,return,7.252693833404919,1256.3173469730245,None,,,WANGJIAQI,F,002,2023_Apr_18_0911,untitled,2021.1.4,60.007271287145365,
36,0,9,18,36,45,63,1.0,0.0,1.0,0.33,0.67,1.0,,stimuli/P_36_00_09_18.png,,,,,0,209,209,198,,,,,,,,,,,,,,,,,,,,,,,,,,,1263.5884938710733,None,1263.5884938710733,None,1264.0722370038638,None,1264.0722370038638,None,65,1264.0722370038638,None,return,3.3867059655458434,1264.0722370038638,None,,,WANGJIAQI,F,002,2023_Apr_18_0911,untitled,2021.1.4,60.007271287145365,
18,0,0,18,18,18,36,1.0,0.0,1.0,0.0,1.0,1.0,,stimuli/P_18_00_00_18.png,,,,,0,210,210,130,,,,,,,,,,,,,,,,,,,,,,,,,,,1267.4962643879262,None,1267.4962643879262,None,1267.9755650635925,None,1267.9755650635925,None,50,1267.9755650635925,None,return,2.046214297217375,1267.9755650635925,None,,,WANGJIAQI,F,002,2023_Apr_18_0911,untitled,2021.1.4,60.007271287145365,
0,36,9,0,36,9,45,0.2,1.0,0.0,1.0,-1.0,#NAME?,,stimuli/P_00_36_09_00.png,,,,,0,211,211,52,,,,,,,,,,,,,,,,,,,,,,,,,,,1270.0614980791433,None,1270.0614980791433,None,1270.542254542721,None,1270.542254542721,None,0,1270.542254542721,None,return,1.3327041416850989,1270.542254542721,None,,,WANGJIAQI,F,002,2023_Apr_18_0911,untitled,2021.1.4,60.007271287145365,
18,36,0,0,54,18,54,0.33,0.67,0.33,None,None,None,,stimuli/P_18_36_00_00.png,,,,,0,212,212,176,,,,,,,,,,,,,,,,,,,,,,,,,,,1271.9161519640038,None,1271.9161519640038,None,1272.3907593023396,None,1272.3907593023396,None,35,1272.3907593023396,None,return,6.542226098259562,1272.3907593023396,None,,,WANGJIAQI,F,002,2023_Apr_18_0911,untitled,2021.1.4,60.007271287145365,
9,36,18,18,45,27,81,0.56,0.8,0.2,0.5,-0.3,-0.6,,stimuli/P_09_36_18_18.png,,,,,0,213,213,122,,,,,,,,,,,,,,,,,,,,,,,,,,,1278.9761914107949,None,1278.9761914107949,None,1279.4584053689468,None,1279.4584053689468,None,15,1279.4584053689468,None,return,6.8693198529290385,1279.4584053689468,None,,,WANGJIAQI,F,002,2023_Apr_18_0911,untitled,2021.1.4,60.007271287145365,
0,36,9,18,36,9,63,0.43,1.0,0.0,0.33,-0.33,-0.5,,stimuli/P_00_36_09_18.png,,,,,0,214,214,54,,,,,,,,,,,,,,,,,,,,,,,,,,,1286.3646415911571,None,1286.3646415911571,None,1286.8438330400677,None,1286.8438330400677,None,0,1286.8438330400677,None,return,1.3137072188110324,1286.8438330400677,None,,,WANGJIAQI,F,002,2023_Apr_18_0911,untitled,2021.1.4,60.007271287145365,
0,0,18,36,0,18,54,1.0,None,None,0.33,None,None,,stimuli/P_00_00_18_36.png,,,,,0,215,215,11,,,,,,,,,,,,,,,,,,,,,,,,,,,1288.1818716574198,None,1288.1818716574198,None,1288.657658872311,None,1288.657658872311,None,0,1288.657658872311,None,return,1.3012968971088412,1288.657658872311,None,,,WANGJIAQI,F,002,2023_Apr_18_0911,untitled,2021.1.4,60.007271287145365,
36,18,36,18,54,72,108,0.83,0.33,0.67,0.67,0.0,0.0,,stimuli/P_36_18_36_18.png,,,,,0,216,216,238,,,,,,,,,,,,,,,,,,,,,,,,,,,1289.9884566657056,None,1289.9884566657056,None,1290.4638496402622,None,1290.4638496402622,None,35,1290.4638496402622,None,return,4.920236589714477,1290.4638496402622,None,,,WANGJIAQI,F,002,2023_Apr_18_0911,untitled,2021.1.4,60.007271287145365,
0,36,0,9,36,0,45,0.2,1.0,0.0,0.0,0.0,0.0,,stimuli/P_00_36_00_09.png,,,,,0,217,217,49,,,,,,,,,,,,,,,,,,,,,,,,,,,1295.4205344033035,None,1295.4205344033035,None,1295.9290293438826,None,1295.9290293438826,None,0,1295.9290293438826,None,return,1.628871932196489,1295.9290293438826,None,,,WANGJIAQI,F,002,2023_Apr_18_0911,untitled,2021.1.4,60.007271287145365,
9,0,18,9,9,27,36,1.0,0.0,1.0,0.67,0.33,1.0,,stimuli/P_09_00_18_09.png,,,,,0,218,218,73,,,,,,,,,,,,,,,,,,,,,,,,,,,1297.5957642772773,None,1297.5957642772773,None,1298.080020548281,None,1298.080020548281,None,25,1298.080020548281,None,return,5.900992768845754,1298.080020548281,None,,,WANGJIAQI,F,002,2023_Apr_18_0911,untitled,2021.1.4,60.007271287145365,
9,9,18,9,18,27,45,0.8,0.5,0.5,0.67,-0.17,-0.5,,stimuli/P_09_09_18_09.png,,,,,0,219,219,89,,,,,,,,,,,,,,,,,,,,,,,,,,,1304.0056433825957,None,1304.0056433825957,None,1304.4820865269357,None,1304.4820865269357,None,35,1304.4820865269357,None,return,6.072081697064277,1304.4820865269357,None,,,WANGJIAQI,F,002,2023_Apr_18_0911,untitled,2021.1.4,60.007271287145365,
18,9,36,18,27,54,81,0.89,0.33,0.67,0.67,0.0,0.0,,stimuli/P_18_09_36_18.png,,,,,0,220,220,158,,,,,,,,,,,,,,,,,,,,,,,,,,,1310.5897346187921,None,1310.5897346187921,None,1311.060161189118,None,1311.060161189118,None,25,1311.060161189118,None,return,6.697579546380439,1311.060161189118,None,,,WANGJIAQI,F,002,2023_Apr_18_0911,untitled,2021.1.4,60.007271287145365,
18,0,36,36,18,54,90,1.0,0.0,1.0,0.5,0.5,1.0,,stimuli/P_18_00_36_36.png,,,,,0,221,221,143,,,,,,,,,,,,,,,,,,,,,,,,,,,1317.793898775235,None,1317.793898775235,None,1318.2708414044537,None,1318.2708414044537,None,20,1318.2708414044537,None,return,5.459294543041324,1318.2708414044537,None,,,WANGJIAQI,F,002,2023_Apr_18_0911,untitled,2021.1.4,60.007271287145365,
9,0,0,9,9,9,18,1.0,0.0,1.0,0.0,1.0,1.0,,stimuli/P_09_00_00_09.png,,,,,0,222,222,65,,,,,,,,,,,,,,,,,,,,,,,,,,,1323.7647915503985,None,1323.7647915503985,None,1324.2487303811358,None,1324.2487303811358,None,50,1324.2487303811358,None,return,2.0296721319828066,1324.2487303811358,None,,,WANGJIAQI,F,002,2023_Apr_18_0911,untitled,2021.1.4,60.007271287145365,
0,0,36,36,0,36,72,1.0,None,None,0.5,None,None,,stimuli/P_00_00_36_36.png,,,,,0,223,223,15,,,,,,,,,,,,,,,,,,,,,,,,,,,1326.3131929428127,None,1326.3131929428127,None,1326.7730427218848,None,1326.7730427218848,None,0,1326.7730427218848,None,return,1.2312580817888374,1326.7730427218848,None,,,WANGJIAQI,F,002,2023_Apr_18_0911,untitled,2021.1.4,60.007271287145365,
36,18,36,36,54,72,126,0.86,0.33,0.67,0.5,0.17,0.33,,stimuli/P_36_18_36_36.png,,,,,0,224,224,239,,,,,,,,,,,,,,,,,,,,,,,,,,,1328.0421706315392,None,1328.0421706315392,None,1328.5278087348415,None,1328.5278087348415,None,27,1328.5278087348415,None,return,6.907343280930945,1328.5278087348415,None,,,WANGJIAQI,F,002,2023_Apr_18_0911,untitled,2021.1.4,60.007271287145365,
0,0,9,9,0,9,18,1.0,None,None,0.5,None,None,,stimuli/P_00_00_09_09.png,,,,,0,225,225,5,,,,,,,,,,,,,,,,,,,,,,,,,,,1335.464787169949,None,1335.464787169949,None,1335.9458468515659,None,1335.9458468515659,None,0,1335.9458468515659,None,return,1.2317359488588409,1335.9458468515659,None,,,WANGJIAQI,F,002,2023_Apr_18_0911,untitled,2021.1.4,60.007271287145365,
18,0,36,0,18,54,54,1.0,0.0,1.0,1.0,0.0,None,,stimuli/P_18_00_36_00.png,,,,,0,226,226,140,,,,,,,,,,,,,,,,,,,,,,,,,,,1337.2107359664951,None,1337.2107359664951,None,1337.6880324449012,None,1337.6880324449012,None,30,1337.6880324449012,None,return,6.373409314197488,1337.6880324449012,None,,,WANGJIAQI,F,002,2023_Apr_18_0911,untitled,2021.1.4,60.007271287145365,
18,18,36,36,36,54,108,0.83,0.5,0.5,0.5,0.0,0.0,,stimuli/P_18_18_36_36.png,,,,,0,227,227,175,,,,,,,,,,,,,,,,,,,,,,,,,,,1344.0860257445165,None,1344.0860257445165,None,1344.550353251856,None,1344.550353251856,None,,1344.550353251856,None,None,,1344.550353251856,None,,,WANGJIAQI,F,002,2023_Apr_18_0911,untitled,2021.1.4,60.007271287145365,
18,0,0,36,18,18,54,1.0,0.0,1.0,0.0,1.0,1.0,,stimuli/P_18_00_00_36.png,,,,,0,228,228,131,,,,,,,,,,,,,,,,,,,,,,,,,,,1352.598146217082,None,1352.598146217082,None,1353.0996898984013,None,1353.0996898984013,None,40,1353.0996898984013,None,return,3.469119831424905,1353.0996898984013,None,,,WANGJIAQI,F,002,2023_Apr_18_0911,untitled,2021.1.4,60.007271287145365,
9,36,9,18,45,18,72,0.5,0.8,0.2,0.33,-0.13,-0.2,,stimuli/P_09_36_09_18.png,,,,,0,229,229,118,,,,,,,,,,,,,,,,,,,,,,,,,,,1356.5970363139131,None,1356.5970363139131,None,1357.0727421776319,None,1357.0727421776319,None,15,1357.0727421776319,None,return,2.3195645038067596,1357.0727421776319,None,,,WANGJIAQI,F,002,2023_Apr_18_0911,untitled,2021.1.4,60.007271287145365,
9,36,0,0,45,9,45,0.2,0.8,0.2,None,None,None,,stimuli/P_09_36_00_00.png,,,,,0,230,230,112,,,,,,,,,,,,,,,,,,,,,,,,,,,1359.4281023386502,None,1359.4281023386502,None,1359.8870891125407,None,1359.8870891125407,None,20,1359.8870891125407,None,return,2.054454659803014,1359.8870891125407,None,,,WANGJIAQI,F,002,2023_Apr_18_0911,untitled,2021.1.4,60.007271287145365,
36,0,18,36,36,54,90,1.0,0.0,1.0,0.33,0.67,1.0,,stimuli/P_36_00_18_36.png,,,,,0,231,231,203,,,,,,,,,,,,,,,,,,,,,,,,,,,1361.968964240179,None,1361.968964240179,None,1362.4460678650867,None,1362.4460678650867,None,40,1362.4460678650867,None,return,5.226375304286194,1362.4460678650867,None,,,WANGJIAQI,F,002,2023_Apr_18_0911,untitled,2021.1.4,60.007271287145365,
36,0,18,0,36,54,54,1.0,0.0,1.0,1.0,0.0,None,,stimuli/P_36_00_18_00.png,,,,,0,232,232,200,,,,,,,,,,,,,,,,,,,,,,,,,,,1367.7083537422368,None,1367.7083537422368,None,1368.1738076505353,None,1368.1738076505353,None,60,1368.1738076505353,None,return,5.368595941203239,1368.1738076505353,None,,,WANGJIAQI,F,002,2023_Apr_18_0911,untitled,2021.1.4,60.007271287145365,
18,0,9,18,18,27,45,1.0,0.0,1.0,0.33,0.67,1.0,,stimuli/P_18_00_09_18.png,,,,,0,233,233,134,,,,,,,,,,,,,,,,,,,,,,,,,,,1373.5687460142217,None,1373.5687460142217,None,1374.0534426056038,None,1374.0534426056038,None,39,1374.0534426056038,None,return,6.649461176428304,1374.0534426056038,None,,,WANGJIAQI,F,002,2023_Apr_18_0911,untitled,2021.1.4,60.007271287145365,
9,9,9,9,18,18,36,0.75,0.5,0.5,0.5,0.0,0.0,,stimuli/P_09_09_09_09.png,,,,,0,234,234,85,,,,,,,,,,,,,,,,,,,,,,,,,,,1380.726434184333,None,1380.726434184333,None,1381.1946386727577,None,1381.1946386727577,None,25,1381.1946386727577,None,return,3.764049149765924,1381.1946386727577,None,,,WANGJIAQI,F,002,2023_Apr_18_0911,untitled,2021.1.4,60.007271287145365,
9,36,9,0,45,18,54,0.33,0.8,0.2,1.0,-0.8,#NAME?,,stimuli/P_09_36_09_00.png,,,,,0,235,235,116,,,,,,,,,,,,,,,,,,,,,,,,,,,1384.987388860347,None,1384.987388860347,None,1385.472160545134,None,1385.472160545134,None,15,1385.472160545134,None,return,5.436814310523914,1385.472160545134,None,,,WANGJIAQI,F,002,2023_Apr_18_0911,untitled,2021.1.4,60.007271287145365,
9,0,36,9,9,45,54,1.0,0.0,1.0,0.8,0.2,1.0,,stimuli/P_09_00_36_09.png,,,,,0,236,236,77,,,,,,,,,,,,,,,,,,,,,,,,,,,1390.9288552637372,None,1390.9288552637372,None,1391.4089956201205,None,1391.4089956201205,None,20,1391.4089956201205,None,return,6.831793634242786,1391.4089956201205,None,,,WANGJIAQI,F,002,2023_Apr_18_0911,untitled,2021.1.4,60.007271287145365,
18,36,0,18,54,18,72,0.5,0.67,0.33,0.0,0.33,0.33,,stimuli/P_18_36_00_18.png,,,,,0,237,237,178,,,,,,,,,,,,,,,,,,,,,,,,,,,1398.263763851748,None,1398.263763851748,None,1398.7414232815718,None,1398.7414232815718,None,25,1398.7414232815718,None,return,6.136015191623301,1398.7414232815718,None,,,WANGJIAQI,F,002,2023_Apr_18_0911,untitled,2021.1.4,60.007271287145365,
36,18,36,9,54,72,99,0.82,0.33,0.67,0.8,-0.13,-0.67,,stimuli/P_36_18_36_09.png,,,,,0,238,238,237,,,,,,,,,,,,,,,,,,,,,,,,,,,1404.9181288545806,None,1404.9181288545806,None,1405.3967480007777,None,1405.3967480007777,None,27,1405.3967480007777,None,return,7.510091244170326,1405.3967480007777,None,,,WANGJIAQI,F,002,2023_Apr_18_0911,untitled,2021.1.4,60.007271287145365,
18,36,9,36,54,27,99,0.64,0.67,0.33,0.2,0.13,0.17,,stimuli/P_18_36_09_36.png,,,,,0,239,239,183,,,,,,,,,,,,,,,,,,,,,,,,,,,1412.927910907376,None,1412.927910907376,None,1413.4093033892714,None,1413.4093033892714,None,24,1413.4093033892714,None,return,5.132946033445478,1413.4093033892714,None,,,WANGJIAQI,F,002,2023_Apr_18_0911,untitled,2021.1.4,60.007271287145365,
9,18,18,0,27,27,45,0.6,0.67,0.33,1.0,-0.67,#NAME?,,stimuli/P_09_18_18_00.png,,,,,0,240,240,104,,,,,,,,,,,,,,,,,,,,,,,,,,,1418.5785678892644,None,1418.5785678892644,None,1419.0588612768915,None,1419.0588612768915,None,30,1419.0588612768915,None,return,3.42199132899259,1419.0588612768915,None,,,WANGJIAQI,F,002,2023_Apr_18_0911,untitled,2021.1.4,60.007271287145365,
0,36,18,0,36,18,54,0.33,1.0,0.0,1.0,-1.0,#NAME?,,stimuli/P_00_36_18_00.png,,,,,0,241,241,56,,,,,,,,,,,,,,,,,,,,,,,,,,,1422.5208182222123,None,1422.5208182222123,None,1423.0063971610143,None,1423.0063971610143,None,0,1423.0063971610143,None,return,3.433552867747494,1423.0063971610143,None,,,WANGJIAQI,F,002,2023_Apr_18_0911,untitled,2021.1.4,60.007271287145365,
36,18,18,0,54,54,72,0.75,0.33,0.67,1.0,-0.33,#NAME?,,stimuli/P_36_18_18_00.png,,,,,0,242,242,232,,,,,,,,,,,,,,,,,,,,,,,,,,,1426.4762417575039,None,1426.4762417575039,None,1426.952223532564,None,1426.952223532564,None,4,1426.952223532564,None,return,1.9635250888750306,1426.952223532564,None,,,WANGJIAQI,F,002,2023_Apr_18_0911,untitled,2021.1.4,60.007271287145365,
9,9,18,0,18,27,36,0.75,0.5,0.5,1.0,-0.5,#NAME?,,stimuli/P_09_09_18_00.png,,,,,0,243,243,88,,,,,,,,,,,,,,,,,,,,,,,,,,,1428.9536286893199,None,1428.9536286893199,None,1429.4221085202007,None,1429.4221085202007,None,30,1429.4221085202007,None,return,7.301801501984301,1429.4221085202007,None,,,WANGJIAQI,F,002,2023_Apr_18_0911,untitled,2021.1.4,60.007271287145365,
18,9,9,0,27,27,36,0.75,0.33,0.67,1.0,-0.33,#NAME?,,stimuli/P_18_09_09_00.png,,,,,0,244,244,148,,,,,,,,,,,,,,,,,,,,,,,,,,,1436.761104009478,None,1436.761104009478,None,1437.2422399222633,None,1437.2422399222633,None,50,1437.2422399222633,None,return,6.17116117716796,1437.2422399222633,None,,,WANGJIAQI,F,002,2023_Apr_18_0911,untitled,2021.1.4,60.007271287145365,
0,9,18,36,9,18,63,0.86,1.0,0.0,0.33,-0.33,-0.5,,stimuli/P_00_09_18_36.png,,,,,0,245,245,27,,,,,,,,,,,,,,,,,,,,,,,,,,,1443.4496814503946,None,1443.4496814503946,None,1443.9358719452794,None,1443.9358719452794,None,0,1443.9358719452794,None,return,2.0195083544313093,1443.9358719452794,None,,,WANGJIAQI,F,002,2023_Apr_18_0911,untitled,2021.1.4,60.007271287145365,
36,36,18,18,72,54,108,0.67,0.5,0.5,0.5,0.0,0.0,,stimuli/P_36_36_18_18.png,,,,,0,246,246,250,,,,,,,,,,,,,,,,,,,,,,,,,,,1445.991689095128,None,1445.991689095128,None,1446.4749469652888,None,1446.4749469652888,None,35,1446.4749469652888,None,None,,1446.4749469652888,None,,,WANGJIAQI,F,002,2023_Apr_18_0911,untitled,2021.1.4,60.007271287145365,
18,36,18,18,54,36,90,0.6,0.67,0.33,0.5,-0.17,-0.33,,stimuli/P_18_36_18_18.png,,,,,0,247,247,186,,,,,,,,,,,,,,,,,,,,,,,,,,,1454.4965146992472,None,1454.4965146992472,None,1454.9910911923944,None,1454.9910911923944,None,20,1454.9910911923944,None,return,3.182710769244295,1454.9910911923944,None,,,WANGJIAQI,F,002,2023_Apr_18_0911,untitled,2021.1.4,60.007271287145365,
18,0,9,36,18,27,63,1.0,0.0,1.0,0.2,0.8,1.0,,stimuli/P_18_00_09_36.png,,,,,0,248,248,135,,,,,,,,,,,,,,,,,,,,,,,,,,,1458.208914382718,None,1458.208914382718,None,1458.697904382214,None,1458.697904382214,None,35,1458.697904382214,None,return,2.7467657216839143,1458.697904382214,None,,,WANGJIAQI,F,002,2023_Apr_18_0911,untitled,2021.1.4,60.007271287145365,
9,36,0,36,45,9,81,0.56,0.8,0.2,0.0,0.2,0.2,,stimuli/P_09_36_00_36.png,,,,,0,249,249,115,,,,,,,,,,,,,,,,,,,,,,,,,,,1461.4821758425678,None,1461.4821758425678,None,1461.9567535986498,None,1461.9567535986498,None,20,1461.9567535986498,None,return,2.1963447719972464,1461.9567535986498,None,,,WANGJIAQI,F,002,2023_Apr_18_0911,untitled,2021.1.4,60.007271287145365,
36,9,9,0,45,45,54,0.83,0.2,0.8,1.0,-0.2,#NAME?,,stimuli/P_36_09_09_00.png,,,,,0,250,250,212,,,,,,,,,,,,,,,,,,,,,,,,,,,1464.1895050150415,None,1464.1895050150415,None,1464.6698285538077,None,1464.6698285538077,None,60,1464.6698285538077,None,return,7.778541037689138,1464.6698285538077,None,,,WANGJIAQI,F,002,2023_Apr_18_0911,untitled,2021.1.4,60.007271287145365,
36,0,9,36,36,45,81,1.0,0.0,1.0,0.2,0.8,1.0,,stimuli/P_36_00_09_36.png,,,,,0,251,251,199,,,,,,,,,,,,,,,,,,,,,,,,,,,1472.4715472823882,None,1472.4715472823882,None,1472.9496311036855,None,1472.9496311036855,None,46,1472.9496311036855,None,return,3.926506319505279,1472.9496311036855,None,,,WANGJIAQI,F,002,2023_Apr_18_0911,untitled,2021.1.4,60.007271287145365,
9,36,0,9,45,9,54,0.33,0.8,0.2,0.0,0.2,0.2,,stimuli/P_09_36_00_09.png,,,,,0,252,252,113,,,,,,,,,,,,,,,,,,,,,,,,,,,1476.916743040063,None,1476.916743040063,None,1477.3915483519013,None,1477.3915483519013,None,20,1477.3915483519013,None,return,4.694410263669852,1477.3915483519013,None,,,WANGJIAQI,F,002,2023_Apr_18_0911,untitled,2021.1.4,60.007271287145365,
9,9,9,18,18,18,45,0.8,0.5,0.5,0.33,0.17,0.25,,stimuli/P_09_09_09_18.png,,,,,0,253,253,86,,,,,,,,,,,,,,,,,,,,,,,,,,,1482.121428868064,None,1482.121428868064,None,1482.5965385357122,None,1482.5965385357122,None,20,1482.5965385357122,None,return,3.9714263934001792,1482.5965385357122,None,,,WANGJIAQI,F,002,2023_Apr_18_0911,untitled,2021.1.4,60.007271287145365,
18,0,18,36,18,36,72,1.0,0.0,1.0,0.33,0.67,1.0,,stimuli/P_18_00_18_36.png,,,,,0,254,254,139,,,,,,,,,,,,,,,,,,,,,,,,,,,1486.5886104933888,None,1486.5886104933888,None,1487.0752196908506,None,1487.0752196908506,None,20,1487.0752196908506,None,return,2.566264518769458,1487.0752196908506,None,,,WANGJIAQI,F,002,2023_Apr_18_0911,untitled,2021.1.4,60.007271287145365,
36,0,0,18,36,36,54,1.0,0.0,1.0,0.0,1.0,1.0,,stimuli/P_36_00_00_18.png,,,,,0,255,255,194,,,,,,,,,,,,,,,,,,,,,,,,,,,1489.6700447317708,None,1489.6700447317708,None,1490.1815126882211,None,1490.1815126882211,None,60,1490.1815126882211,None,return,3.140292101939849,1490.1815126882211,None,,,WANGJIAQI,F,002,2023_Apr_18_0911,untitled,2021.1.4,60.007271287145365,
,,,,,,,,,,,,,,,,,,,,,,,,,,,,,,,,,,,,,,,,,,,,,,,,,,,,,,,,,,,,,,,,1493.3614740151243,None,,,,,,,,
