trialNumber,mychoice,otherchoice,stay,skip,pointsWon,otherScore,unobtained,choicepos,pos_1,otherscore,allowedkeyresp,trials_2.thisRepN,trials_2.thisTrialN,trials_2.thisN,trials_2.thisIndex,trials.thisRepN,trials.thisTrialN,trials.thisN,trials.thisIndex,image_2.started,image_2.stopped,key_resp_2.keys,key_resp_2.rt,key_resp_2.started,key_resp_2.stopped,key_resp_6.keys,key_resp_6.rt,key_resp_6.started,key_resp_6.stopped,text.started,text.stopped,left_3.started,left_3.stopped,middle_3.started,middle_3.stopped,right_3.started,right_3.stopped,otherleft_1.started,otherleft_1.stopped,othermiddle_1.started,othermiddle_1.stopped,otherright_1.started,otherright_1.stopped,text_2.started,text_2.stopped,left_4.started,left_4.stopped,right_4.started,right_4.stopped,middle_4.started,middle_4.stopped,ISI_3.started,ISI_3.stopped,mypick.started,mypick.stopped,otherpick.started,otherpick.stopped,residal.started,residal.stopped,otherleft_5.started,otherleft_5.stopped,othermiddle_5.started,othermiddle_5.stopped,otherright_5.started,otherright_5.stopped,left_5.started,left_5.stopped,right_5.started,right_5.stopped,middle_5.started,middle_5.stopped,ISI_5.started,ISI_5.stopped,mypick_1.started,mypick_1.stopped,otherpick_1.started,otherpick_1.stopped,residal_1.started,residal_1.stopped,otherleft_6.started,otherleft_6.stopped,othermiddle_6.started,othermiddle_6.stopped,otherright_6.started,otherright_6.stopped,text_3.started,text_3.stopped,rating,ratingrt,totalScore,othertotalScore,unobtainedScore,image_4.started,image_4.stopped,key_resp_3.keys,key_resp_3.rt,key_resp_3.started,key_resp_3.stopped,image_5.started,image_5.stopped,key_resp.keys,key_resp.rt,key_resp.started,key_resp.stopped,otherleft_3.started,otherleft_3.stopped,othermiddle_3.started,othermiddle_3.stopped,otherright_3.started,otherright_3.stopped,text_4.started,text_4.stopped,ISI_2.started,ISI_2.stopped,key_resp_4.keys,key_resp_4.rt,key_resp_4.started,key_resp_4.stopped,otherleft_4.started,otherleft_4.stopped,othermiddle_4.started,othermiddle_4.stopped,otherright_4.started,otherright_4.stopped,text_5.started,text_5.stopped,left.started,left.stopped,right.started,right.stopped,middle.started,middle.stopped,ISI.started,ISI.stopped,mypick_3.started,mypick_3.stopped,otherpick_3.started,otherpick_3.stopped,residal_3.started,residal_3.stopped,otherleft.started,otherleft.stopped,othermiddle.started,othermiddle.stopped,otherright.started,otherright.stopped,right_2.started,right_2.stopped,middle_2.started,middle_2.stopped,left_2.started,left_2.stopped,ISI_4.started,ISI_4.stopped,mypick_4.started,mypick_4.stopped,otherpick_4.started,otherpick_4.stopped,residal_4.started,residal_4.stopped,otherleft_2.started,otherleft_2.stopped,othermiddle_2.started,othermiddle_2.stopped,otherright_2.started,otherright_2.stopped,text_6.started,text_6.stopped,gender,age,participant,date,expName,psychopyVersion,frameRate,
,,,,,,,,,,,,,,,,,,,,35.32663349999348,None,space,11.719447500014212,35.32663349999348,None,,,,,,,,,,,,,,,,,,,,,,,,,,,,,,,,,,,,,,,,,,,,,,,,,,,,,,,,,,,,,,,,,,,,,,,,,,,,,,,,,,,,,,,,,,,,,,,,,,,,,,,,,,,,,,,,,,,,,,,,,,,,,,,,,,,,,,,,,,,,,,,,f,22,chengyi,2022_Apr_12_0839,experiment3,2021.1.4,30.0134009842546,
13,0,0,50,one,0,0,50,,,,,0,0,0,12,,,,,,,,,,,a,1.73012360004941,47.151245400018524,None,47.151245400018524,None,48.93968199996743,None,48.93968199996743,None,48.93968199996743,None,50.90114380000159,51.40461089997552,50.90114380000159,51.40461089997552,50.90114380000159,51.40461089997552,48.93968199996743,None,51.46728304999415,None,51.46728304999415,None,51.46728304999415,None,0.014188950066454709,None,51.46728304999415,None,51.46728304999415,None,51.46728304999415,None,51.46728304999415,None,51.46728304999415,None,51.46728304999415,None,51.47713259997545,None,51.47713259997545,None,51.47713259997545,None,0.004127750056795776,0.5041277500567958,51.47713259997545,None,51.47713259997545,None,51.47713259997545,None,51.47713259997545,None,51.47713259997545,None,51.47713259997545,None,53.46586150000803,53.46586150000803,-0.29999999999999716,11.033,200,0,50,,,,,,,,,,,,,,,,,,,,,,,,,,,,,,,,,,,,,,,,,,,,,,,,,,,,,,,,,,,,,,,,,,,,,,,,,,,,,f,22,chengyi,2022_Apr_12_0839,experiment3,2021.1.4,30.0134009842546,
48,50,200,200,two,50,200,200,,,,,0,1,1,47,,,,,,,,,,,g,3.942875499953516,64.62783660000423,None,64.62783660000423,None,68.61457969999174,None,68.61457969999174,None,68.61457969999174,None,70.56440149998525,71.06532120000338,70.56440149998525,71.06532120000338,70.56440149998525,71.06532120000338,68.61457969999174,None,71.1786554999766,None,71.1786554999766,None,71.1786554999766,None,0.02315610001096502,None,71.1786554999766,None,71.1786554999766,None,71.1786554999766,None,71.1786554999766,None,71.1786554999766,None,71.1786554999766,None,71.1810052000219,None,71.1810052000219,None,71.1810052000219,None,0.013623700069729239,0.5136237000697292,71.1810052000219,None,71.1810052000219,None,71.1810052000219,None,71.1810052000219,None,71.1810052000219,None,71.1810052000219,None,73.18693514999468,None,-6.200000000000003,7.945,250,200,250,,,,,,,,,,,,,,,,,,,,,,,,,,,,,,,,,,,,,,,,,,,,,,,,,,,,,,,,,,,,,,,,,,,,,,,,,,,,,f,22,chengyi,2022_Apr_12_0839,experiment3,2021.1.4,30.0134009842546,
51,-150,0,-200,one,-150,0,-200,,,,,0,2,2,50,,,,,,,,,,,l,4.73857990000397,81.17885789996944,None,81.17885789996944,None,85.97986660001334,None,85.97986660001334,None,85.97986660001334,None,87.91703599999892,88.4441829000134,87.91703599999892,88.4441829000134,87.91703599999892,88.4441829000134,85.97986660001334,None,88.51681084999582,None,88.51681084999582,None,88.51681084999582,None,0.006056350015569478,None,88.51681084999582,None,88.51681084999582,None,88.51681084999582,None,88.51681084999582,None,88.51681084999582,None,88.51681084999582,None,88.53959950001445,None,88.53959950001445,None,88.53959950001445,None,0.025788000028114766,0.5257880000281148,88.53959950001445,None,88.53959950001445,None,88.53959950001445,None,88.53959950001445,None,88.53959950001445,None,88.53959950001445,None,90.53283949999604,90.53283949999604,-1.0,4.308,100,200,50,,,,,,,,,,,,,,,,,,,,,,,,,,,,,,,,,,,,,,,,,,,,,,,,,,,,,,,,,,,,,,,,,,,,,,,,,,,,,f,22,chengyi,2022_Apr_12_0839,experiment3,2021.1.4,30.0134009842546,
22,0,0,200,two,0,0,200,,,,,0,3,3,21,,,,,,,,,,,g,8.322361800004728,94.92472389998147,None,94.92472389998147,None,103.27627630002098,None,103.27627630002098,None,103.27627630002098,None,105.22338260000106,105.74068270000862,105.22338260000106,105.74068270000862,105.22338260000106,105.74068270000862,103.27627630002098,None,105.80684944997775,None,105.80684944997775,None,105.80684944997775,None,0.026858449971769005,None,105.80684944997775,None,105.80684944997775,None,105.80684944997775,None,105.80684944997775,None,105.80684944997775,None,105.80684944997775,None,105.80742719996488,None,105.80742719996488,None,105.80742719996488,None,0.01882294996175915,0.5188229499617592,105.80742719996488,None,105.80742719996488,None,105.80742719996488,None,105.80742719996488,None,105.80742719996488,None,105.80742719996488,None,107.79011100000935,107.79011100000935,-8.0,2.171,100,200,250,,,,,,,,,,,,,,,,,,,,,,,,,,,,,,,,,,,,,,,,,,,,,,,,,,,,,,,,,,,,,,,,,,,,,,,,,,,,,f,22,chengyi,2022_Apr_12_0839,experiment3,2021.1.4,30.0134009842546,
82,0,-150,-150,two,0,-150,-150,,,,,0,4,4,81,,,,,,,,,,,g,2.8565661999746226,110.01993569999468,None,110.01993569999468,None,112.93913499999326,None,112.93913499999326,None,112.93913499999326,None,114.9123513000086,115.41473059996497,114.9123513000086,115.41473059996497,114.9123513000086,115.41473059996497,112.93913499999326,None,115.44777844996425,None,115.44777844996425,None,115.44777844996425,None,0.015922349994070828,None,115.44777844996425,None,115.44777844996425,None,115.44777844996425,None,115.44777844996425,None,115.44777844996425,None,115.44777844996425,None,115.45823180000298,None,115.45823180000298,None,115.45823180000298,None,0.003609549952670932,0.5036095499526709,115.45823180000298,None,115.45823180000298,None,115.45823180000298,None,115.45823180000298,None,115.45823180000298,None,115.45823180000298,None,117.45892030000687,117.45892030000687,2.700000000000003,2.693,100,50,100,,,,,,,,,,,,,,,,,,,,,,,,,,,,,,,,,,,,,,,,,,,,,,,,,,,,,,,,,,,,,,,,,,,,,,,,,,,,,f,22,chengyi,2022_Apr_12_0839,experiment3,2021.1.4,30.0134009842546,
41,200,50,200,one,200,50,200,,,,,0,5,5,40,,,,,,,,,,,l,4.308232399984263,120.22151429997757,None,120.22151429997757,None,124.57036229997175,None,124.57036229997175,None,124.57036229997175,None,126.53629909997107,127.03662729996722,126.53629909997107,127.03662729996722,126.53629909997107,127.03662729996722,124.57036229997175,None,127.0696751499665,None,127.0696751499665,None,127.0696751499665,None,0.02380404993891716,None,127.0696751499665,None,127.0696751499665,None,127.0696751499665,None,127.0696751499665,None,127.0696751499665,None,127.0696751499665,None,127.06898749998072,None,127.06898749998072,None,127.06898749998072,None,0.015844049979932606,0.5158440499799326,127.06898749998072,None,127.06898749998072,None,127.06898749998072,None,127.06898749998072,None,127.06898749998072,None,127.06898749998072,None,129.03629159997217,129.03629159997217,20.900000000000006,5.902,300,100,300,,,,,,,,,,,,,,,,,,,,,,,,,,,,,,,,,,,,,,,,,,,,,,,,,,,,,,,,,,,,,,,,,,,,,,,,,,,,,f,22,chengyi,2022_Apr_12_0839,experiment3,2021.1.4,30.0134009842546,
85,-200,-200,0,one,-200,-200,0,,,,,0,6,6,84,,,,,,,,,,,a,3.7280843000044115,135.00329259998398,None,135.00329259998398,None,138.78446729999268,None,138.78446729999268,None,138.78446729999268,None,140.7112021999783,141.21740039996803,140.7112021999783,141.21740039996803,140.7112021999783,141.21740039996803,138.78446729999268,None,141.28353614999213,None,141.28353614999213,None,141.28353614999213,None,0.025655750010628253,None,141.28353614999213,None,141.28353614999213,None,141.28353614999213,None,141.28353614999213,None,141.28353614999213,None,141.28353614999213,None,141.28280719998293,None,141.28280719998293,None,141.28280719998293,None,0.018296750029549003,0.518296750029549,141.28280719998293,None,141.28280719998293,None,141.28280719998293,None,141.28280719998293,None,141.28280719998293,None,141.28280719998293,None,143.27390440000454,143.27390440000454,-8.899999999999999,6.588,100,-100,300,,,,,,,,,,,,,,,,,,,,,,,,,,,,,,,,,,,,,,,,,,,,,,,,,,,,,,,,,,,,,,,,,,,,,,,,,,,,,f,22,chengyi,2022_Apr_12_0839,experiment3,2021.1.4,30.0134009842546,
86,-200,0,-200,one,-200,0,-200,,,,,0,7,7,85,,,,,,,,,,,g,4.098269599955529,149.9493437000201,None,149.9493437000201,None,154.09913340001367,None,154.09913340001367,None,154.09913340001367,None,156.06389900000067,156.58087269996759,156.06389900000067,156.58087269996759,156.06389900000067,156.58087269996759,154.09913340001367,None,156.61392054996685,None,156.61392054996685,None,156.61392054996685,None,0.027436549949925393,None,156.61392054996685,None,156.61392054996685,None,156.61392054996685,None,156.61392054996685,None,156.61392054996685,None,156.61392054996685,None,156.61297299998114,None,156.61297299998114,None,156.61297299998114,None,0.02065434993710369,0.5206543499371037,156.61297299998114,None,156.61297299998114,None,156.61297299998114,None,156.61297299998114,None,156.61297299998114,None,156.61297299998114,None,158.59721450001234,158.59721450001234,-10.299999999999997,4.053,-100,-100,100,,,,,,,,,,,,,,,,,,,,,,,,,,,,,,,,,,,,,,,,,,,,,,,,,,,,,,,,,,,,,,,,,,,,,,,,,,,,,f,22,chengyi,2022_Apr_12_0839,experiment3,2021.1.4,30.0134009842546,
71,0,-200,0,two,0,-200,0,,,,,0,8,8,70,,,,,,,,,,,g,2.9545186999603175,162.71043289999943,None,162.71043289999943,None,165.68652609997662,None,165.68652609997662,None,165.68652609997662,None,167.64503100002185,168.16207760001998,167.64503100002185,168.16207760001998,167.64503100002185,168.16207760001998,165.68652609997662,None,168.19512545001925,None,168.19512545001925,None,168.19512545001925,None,0.02465884998673573,None,168.19512545001925,None,168.19512545001925,None,168.19512545001925,None,168.19512545001925,None,168.19512545001925,None,168.19512545001925,None,168.19410779996542,None,168.19410779996542,None,168.19410779996542,None,0.017462550080381334,0.5174625500803813,168.19410779996542,None,168.19410779996542,None,168.19410779996542,None,168.19410779996542,None,168.19410779996542,None,168.19410779996542,None,170.16170399996918,170.16170399996918,-3.6000000000000014,2.811,-100,-300,100,,,,,,,,,,,,,,,,,,,,,,,,,,,,,,,,,,,,,,,,,,,,,,,,,,,,,,,,,,,,,,,,,,,,,,,,,,,,,f,22,chengyi,2022_Apr_12_0839,experiment3,2021.1.4,30.0134009842546,
19,0,0,50,two,0,0,50,,,,,0,9,9,18,,,,,,,,,,,g,2.893500000005588,173.03408489999129,None,173.03408489999129,None,175.98016079998342,None,175.98016079998342,None,175.98016079998342,None,177.9271718999953,178.45257490000222,177.9271718999953,178.45257490000222,177.9271718999953,178.45257490000222,175.98016079998342,None,178.48562275000148,None,178.48562275000148,None,178.48562275000148,None,0.019855350023135543,None,178.48562275000148,None,178.48562275000148,None,178.48562275000148,None,178.48562275000148,None,178.48562275000148,None,178.48562275000148,None,178.48950949998107,None,178.48950949998107,None,178.48950949998107,None,0.010479549993760884,0.5104795499937609,178.48950949998107,None,178.48950949998107,None,178.48950949998107,None,178.48950949998107,None,178.48950949998107,None,178.48950949998107,None,180.49269595001823,None,-11.100000000000001,2.518,-100,-300,150,,,,,,,,,,,,,,,,,,,,,,,,,,,,,,,,,,,,,,,,,,,,,,,,,,,,,,,,,,,,,,,,,,,,,,,,,,,,,f,22,chengyi,2022_Apr_12_0839,experiment3,2021.1.4,30.0134009842546,
88,-200,-200,-150,one,-200,-200,-150,,,,,0,10,10,87,,,,,,,,,,,g,2.6816596999997273,183.03274429996964,None,183.03274429996964,None,185.75863619998563,None,185.75863619998563,None,185.75863619998563,None,187.70789560000412,188.208180000016,187.70789560000412,188.208180000016,187.70789560000412,188.208180000016,185.75863619998563,None,188.28544085000175,None,188.28544085000175,None,188.28544085000175,None,0.014337350032292306,None,188.28544085000175,None,188.28544085000175,None,188.28544085000175,None,188.28544085000175,None,188.28544085000175,None,188.28544085000175,None,188.29645959998015,None,188.29645959998015,None,188.29645959998015,None,0.003898549999576062,0.5038985499995761,188.29645959998015,None,188.29645959998015,None,188.29645959998015,None,188.29645959998015,None,188.29645959998015,None,188.29645959998015,None,190.30777955001685,None,-12.799999999999997,2.45,-300,-500,0,,,,,,,,,,,,,,,,,,,,,,,,,,,,,,,,,,,,,,,,,,,,,,,,,,,,,,,,,,,,,,,,,,,,,,,,,,,,,f,22,chengyi,2022_Apr_12_0839,experiment3,2021.1.4,30.0134009842546,
21,50,0,0,two,50,0,0,,,,,0,11,11,20,,,,,,,,,,,g,3.0000006000045687,192.79113169998163,None,192.79113169998163,None,195.82439369999338,None,195.82439369999338,None,195.82439369999338,None,197.81727110000793,None,197.81727110000793,None,197.81727110000793,None,195.82439369999338,None,198.3614327499992,None,198.3614327499992,None,198.3614327499992,None,0.010024150018580258,None,198.3614327499992,None,198.3614327499992,None,198.3614327499992,None,198.3614327499992,None,198.3614327499992,None,198.3614327499992,None,198.3870625999989,None,198.3870625999989,None,198.3870625999989,None,0.029453600058332086,0.5294536000583321,198.3870625999989,None,198.3870625999989,None,198.3870625999989,None,198.3870625999989,None,198.3870625999989,None,198.3870625999989,None,200.33494199998677,200.33494199998677,4.899999999999999,2.563,-250,-500,0,,,,,,,,,,,,,,,,,,,,,,,,,,,,,,,,,,,,,,,,,,,,,,,,,,,,,,,,,,,,,,,,,,,,,,,,,,,,,f,22,chengyi,2022_Apr_12_0839,experiment3,2021.1.4,30.0134009842546,
64,0,0,-200,one,0,0,-200,,,,,0,12,12,63,,,,,,,,,,,g,2.6094257999793626,203.02037300000666,None,203.02037300000666,None,205.6549970000051,None,205.6549970000051,None,205.6549970000051,None,207.6207909999648,208.13765709998552,207.6207909999648,208.13765709998552,207.6207909999648,208.13765709998552,205.6549970000051,None,208.17070494998478,None,208.17070494998478,None,208.17070494998478,None,0.025255550048314035,None,208.17070494998478,None,208.17070494998478,None,208.17070494998478,None,208.17070494998478,None,208.17070494998478,None,208.17070494998478,None,208.16974450001726,None,208.16974450001726,None,208.16974450001726,None,0.018943349947221577,0.5189433499472216,208.16974450001726,None,208.16974450001726,None,208.16974450001726,None,208.16974450001726,None,208.16974450001726,None,208.16974450001726,None,210.15344349999214,210.15344349999214,6.799999999999997,2.772,-250,-500,-200,,,,,,,,,,,,,,,,,,,,,,,,,,,,,,,,,,,,,,,,,,,,,,,,,,,,,,,,,,,,,,,,,,,,,,,,,,,,,f,22,chengyi,2022_Apr_12_0839,experiment3,2021.1.4,30.0134009842546,
30,50,50,0,one,50,50,0,,,,,0,13,13,29,,,,,,,,,,,g,2.8068220000131987,212.987161499972,None,212.987161499972,None,215.84297739999602,None,215.84297739999602,None,215.84297739999602,None,217.82965570001397,None,217.82965570001397,None,217.82965570001397,None,215.84297739999602,None,218.34762694999807,None,218.34762694999807,None,218.34762694999807,None,0.012115649995394051,None,218.34762694999807,None,218.34762694999807,None,218.34762694999807,None,218.34762694999807,None,218.34762694999807,None,218.34762694999807,None,218.38287430000491,None,218.38287430000491,None,218.38287430000491,None,0.021430400025565177,0.5214304000255652,218.38287430000491,None,218.38287430000491,None,218.38287430000491,None,218.38287430000491,None,218.38287430000491,None,218.38287430000491,None,220.3516621000017,220.3516621000017,-1.8999999999999986,2.483,-200,-450,-200,,,,,,,,,,,,,,,,,,,,,,,,,,,,,,,,,,,,,,,,,,,,,,,,,,,,,,,,,,,,,,,,,,,,,,,,,,,,,f,22,chengyi,2022_Apr_12_0839,experiment3,2021.1.4,30.0134009842546,
5,200,50,0,one,200,50,0,,,,,0,14,14,4,,,,,,,,,,,g,2.6601076999795623,222.88770019996446,None,222.88770019996446,None,225.59376999997767,None,225.59376999997767,None,225.59376999997767,None,227.604041100014,None,227.604041100014,None,227.604041100014,None,225.59376999997767,None,228.11689155000494,None,228.11689155000494,None,228.11689155000494,None,0.027251149993389845,None,228.11689155000494,None,228.11689155000494,None,228.11689155000494,None,228.11689155000494,None,228.11689155000494,None,228.11689155000494,None,228.11588140000822,None,228.11588140000822,None,228.11588140000822,None,0.01991235004970804,0.519912350049708,228.11588140000822,None,228.11588140000822,None,228.11588140000822,None,228.11588140000822,None,228.11588140000822,None,228.11588140000822,None,230.0822873999714,230.0822873999714,16.0,5.417,0,-400,-200,,,,,,,,,,,,,,,,,,,,,,,,,,,,,,,,,,,,,,,,,,,,,,,,,,,,,,,,,,,,,,,,,,,,,,,,,,,,,f,22,chengyi,2022_Apr_12_0839,experiment3,2021.1.4,30.0134009842546,
72,-200,0,0,two,-200,0,0,,,,,0,15,15,71,,,,,,,,,,,g,3.26582019997295,235.55312100000447,None,235.55312100000447,None,238.8532480999711,None,238.8532480999711,None,238.8532480999711,None,240.8153011999675,241.34773189999396,240.8153011999675,241.34773189999396,240.8153011999675,241.34773189999396,238.8532480999711,None,241.38077974999322,None,241.38077974999322,None,241.38077974999322,None,0.027383150067180395,None,241.38077974999322,None,241.38077974999322,None,241.38077974999322,None,241.38077974999322,None,241.38077974999322,None,241.38077974999322,None,241.3868687999784,None,241.3868687999784,None,241.3868687999784,None,0.007571549969725311,0.5075715499697253,241.3868687999784,None,241.3868687999784,None,241.3868687999784,None,241.3868687999784,None,241.3868687999784,None,241.3868687999784,None,243.38108099997044,243.38108099997044,-37.2,2.685,-200,-400,-200,,,,,,,,,,,,,,,,,,,,,,,,,,,,,,,,,,,,,,,,,,,,,,,,,,,,,,,,,,,,,,,,,,,,,,,,,,,,,f,22,chengyi,2022_Apr_12_0839,experiment3,2021.1.4,30.0134009842546,
81,-150,-150,-200,two,-150,-150,-200,,,,,0,16,16,80,,,,,,,,,,,g,3.193851199990604,246.12545170000521,None,246.12545170000521,None,249.36697520001326,None,249.36697520001326,None,249.36697520001326,None,251.3272865000181,251.8125897999853,251.3272865000181,251.8125897999853,251.3272865000181,251.8125897999853,249.36697520001326,None,251.91068354998714,None,251.91068354998714,None,251.91068354998714,None,0.01399294997099787,None,251.91068354998714,None,251.91068354998714,None,251.91068354998714,None,251.91068354998714,None,251.91068354998714,None,251.91068354998714,None,251.92805970000336,None,251.92805970000336,None,251.92805970000336,None,0.002439950010739267,0.5024399500107393,251.92805970000336,None,251.92805970000336,None,251.92805970000336,None,251.92805970000336,None,251.92805970000336,None,251.92805970000336,None,253.91246710001724,253.91246710001724,-11.799999999999997,5.548,-350,-550,-400,,,,,,,,,,,,,,,,,,,,,,,,,,,,,,,,,,,,,,,,,,,,,,,,,,,,,,,,,,,,,,,,,,,,,,,,,,,,,f,22,chengyi,2022_Apr_12_0839,experiment3,2021.1.4,30.0134009842546,
49,0,-150,-200,one,0,-150,-200,,,,,0,17,17,48,,,,,,,,,,,g,3.600648400024511,259.52879349997966,None,259.52879349997966,None,263.1933445999748,None,263.1933445999748,None,263.1933445999748,None,265.14300099998945,265.643242799968,265.14300099998945,265.643242799968,265.14300099998945,265.643242799968,263.1933445999748,None,265.70928965001366,None,265.70928965001366,None,265.70928965001366,None,0.026794450008310378,None,265.70928965001366,None,265.70928965001366,None,265.70928965001366,None,265.70928965001366,None,265.70928965001366,None,265.70928965001366,None,265.7085331999697,None,265.7085331999697,None,265.7085331999697,None,0.01966004999121651,0.5196600499912165,265.7085331999697,None,265.7085331999697,None,265.7085331999697,None,265.7085331999697,None,265.7085331999697,None,265.7085331999697,None,267.6761602999759,267.6761602999759,5.100000000000001,3.218,-350,-700,-600,,,,,,,,,,,,,,,,,,,,,,,,,,,,,,,,,,,,,,,,,,,,,,,,,,,,,,,,,,,,,,,,,,,,,,,,,,,,,f,22,chengyi,2022_Apr_12_0839,experiment3,2021.1.4,30.0134009842546,
80,-150,-200,-150,two,-150,-200,-150,,,,,0,18,18,79,,,,,,,,,,,g,3.30741270002909,270.9598898999975,None,270.9598898999975,None,274.3080210000044,None,274.3080210000044,None,274.3080210000044,None,276.25734820001526,276.7955520999967,276.25734820001526,276.7955520999967,276.25734820001526,276.7955520999967,274.3080210000044,None,276.828599949996,None,276.828599949996,None,276.828599949996,None,0.009621050034184009,None,276.828599949996,None,276.828599949996,None,276.828599949996,None,276.828599949996,None,276.828599949996,None,276.828599949996,None,276.8634781999863,None,276.8634781999863,None,276.8634781999863,None,0.022823900042567402,0.5228239000425674,276.8634781999863,None,276.8634781999863,None,276.8634781999863,None,276.8634781999863,None,276.8634781999863,None,276.8634781999863,None,278.83053229999496,278.83053229999496,5.700000000000003,2.336,-500,-900,-750,,,,,,,,,,,,,,,,,,,,,,,,,,,,,,,,,,,,,,,,,,,,,,,,,,,,,,,,,,,,,,,,,,,,,,,,,,,,,f,22,chengyi,2022_Apr_12_0839,experiment3,2021.1.4,30.0134009842546,
17,0,200,0,one,0,200,0,,,,,0,19,19,16,,,,,,,,,,,g,2.362780300027225,281.2405701999669,None,281.2405701999669,None,283.67356769996695,None,283.67356769996695,None,283.67356769996695,None,285.6381530999788,286.138992000022,285.6381530999788,286.138992000022,285.6381530999788,286.138992000022,283.67356769996695,None,286.20550374999874,None,286.20550374999874,None,286.20550374999874,None,0.027055450074840337,None,286.20550374999874,None,286.20550374999874,None,286.20550374999874,None,286.20550374999874,None,286.20550374999874,None,286.20550374999874,None,286.2043989999802,None,286.2043989999802,None,286.2043989999802,None,0.019743349985219538,0.5197433499852195,286.2043989999802,None,286.2043989999802,None,286.2043989999802,None,286.2043989999802,None,286.2043989999802,None,286.2043989999802,None,288.160550999979,288.160550999979,-33.6,2.142,-500,-700,-750,,,,,,,,,,,,,,,,,,,,,,,,,,,,,,,,,,,,,,,,,,,,,,,,,,,,,,,,,,,,,,,,,,,,,,,,,,,,,f,22,chengyi,2022_Apr_12_0839,experiment3,2021.1.4,30.0134009842546,
74,-150,-200,-150,one,-150,-200,-150,,,,,0,20,20,73,,,,,,,,,,,g,2.3086590000311844,290.39033069997095,None,290.39033069997095,None,292.73778899997706,None,292.73778899997706,None,292.73778899997706,None,294.70363379997434,295.21026620001066,294.70363379997434,295.21026620001066,294.70363379997434,295.21026620001066,292.73778899997706,None,295.24331405000993,None,295.24331405000993,None,295.24331405000993,None,0.026625450002029538,None,295.24331405000993,None,295.24331405000993,None,295.24331405000993,None,295.24331405000993,None,295.24331405000993,None,295.24331405000993,None,295.2395524000167,None,295.2395524000167,None,295.2395524000167,None,0.01776205003261566,0.5177620500326157,295.2395524000167,None,295.2395524000167,None,295.2395524000167,None,295.2395524000167,None,295.2395524000167,None,295.2395524000167,None,297.22784820001107,297.22784820001107,5.600000000000001,2.866,-650,-900,-900,,,,,,,,,,,,,,,,,,,,,,,,,,,,,,,,,,,,,,,,,,,,,,,,,,,,,,,,,,,,,,,,,,,,,,,,,,,,,f,22,chengyi,2022_Apr_12_0839,experiment3,2021.1.4,30.0134009842546,
56,0,-200,-150,two,0,-200,-150,,,,,0,21,21,55,,,,,,,,,,,g,2.5941222999827005,300.17754689999856,None,300.17754689999856,None,302.80711649998557,None,302.80711649998557,None,302.80711649998557,None,304.768763399974,305.27992699999595,304.768763399974,305.27992699999595,304.768763399974,305.27992699999595,302.80711649998557,None,305.3129748499952,None,305.3129748499952,None,305.3129748499952,None,0.009341149998363107,None,305.3129748499952,None,305.3129748499952,None,305.3129748499952,None,305.3129748499952,None,305.3129748499952,None,305.3129748499952,None,305.33913570002187,None,305.33913570002187,None,305.33913570002187,None,0.028883500024676323,0.5288835000246763,305.33913570002187,None,305.33913570002187,None,305.33913570002187,None,305.33913570002187,None,305.33913570002187,None,305.33913570002187,None,307.30386069999076,307.30386069999076,17.599999999999994,3.013,-650,-1100,-1050,,,,,,,,,,,,,,,,,,,,,,,,,,,,,,,,,,,,,,,,,,,,,,,,,,,,,,,,,,,,,,,,,,,,,,,,,,,,,f,22,chengyi,2022_Apr_12_0839,experiment3,2021.1.4,30.0134009842546,
37,200,200,0,one,200,200,0,,,,,0,22,22,36,,,,,,,,,,,g,2.899646300007589,310.4058657999849,None,310.4058657999849,None,313.3446661999915,None,313.3446661999915,None,313.3446661999915,None,315.31673700001556,315.8120824000216,315.31673700001556,315.8120824000216,315.31673700001556,315.8120824000216,313.3446661999915,None,315.8451302500209,None,315.8451302500209,None,315.8451302500209,None,0.02275674999691546,None,315.8451302500209,None,315.8451302500209,None,315.8451302500209,None,315.8451302500209,None,315.8451302500209,None,315.8451302500209,None,315.8481971999863,None,315.8481971999863,None,315.8481971999863,None,0.015946650062687695,0.5159466500626877,315.8481971999863,None,315.8481971999863,None,315.8481971999863,None,315.8481971999863,None,315.8481971999863,None,315.8481971999863,None,317.8248209999874,317.8248209999874,-6.700000000000003,1.964,-450,-900,-1050,,,,,,,,,,,,,,,,,,,,,,,,,,,,,,,,,,,,,,,,,,,,,,,,,,,,,,,,,,,,,,,,,,,,,,,,,,,,,f,22,chengyi,2022_Apr_12_0839,experiment3,2021.1.4,30.0134009842546,
42,50,200,200,one,50,200,200,,,,,0,23,23,41,,,,,,,,,,,g,2.445757200010121,319.85007859999314,None,319.85007859999314,None,322.32367890002206,None,322.32367890002206,None,322.32367890002206,None,324.28124500002014,324.8040849000099,324.28124500002014,324.8040849000099,324.28124500002014,324.8040849000099,322.32367890002206,None,324.8371327500092,None,324.8371327500092,None,324.8371327500092,None,0.009538849990349263,None,324.8371327500092,None,324.8371327500092,None,324.8371327500092,None,324.8371327500092,None,324.8371327500092,None,324.8371327500092,None,324.8562191000092,None,324.8562191000092,None,324.8562191000092,None,0.029868600016925484,0.5298686000169255,324.8562191000092,None,324.8562191000092,None,324.8562191000092,None,324.8562191000092,None,324.8562191000092,None,324.8562191000092,None,326.8130652999971,326.8130652999971,-18.1,3.113,-400,-700,-850,,,,,,,,,,,,,,,,,,,,,,,,,,,,,,,,,,,,,,,,,,,,,,,,,,,,,,,,,,,,,,,,,,,,,,,,,,,,,f,22,chengyi,2022_Apr_12_0839,experiment3,2021.1.4,30.0134009842546,
94,-200,-200,-150,two,-200,-200,-150,,,,,0,24,24,93,,,,,,,,,,,g,3.2239946999470703,330.0050936000189,None,330.0050936000189,None,333.27226379996864,None,333.27226379996864,None,333.27226379996864,None,335.25221379997674,None,335.25221379997674,None,335.25221379997674,None,333.27226379996864,None,335.77977735000894,None,335.77977735000894,None,335.77977735000894,None,0.023294250015169382,None,335.77977735000894,None,335.77977735000894,None,335.77977735000894,None,335.77977735000894,None,335.77977735000894,None,335.77977735000894,None,335.78065809997497,None,335.78065809997497,None,335.78065809997497,None,0.013489649980328977,0.513489649980329,335.78065809997497,None,335.78065809997497,None,335.78065809997497,None,335.78065809997497,None,335.78065809997497,None,335.78065809997497,None,337.76269740000134,337.76269740000134,-8.0,2.271,-600,-900,-1000,,,,,,,,,,,,,,,,,,,,,,,,,,,,,,,,,,,,,,,,,,,,,,,,,,,,,,,,,,,,,,,,,,,,,,,,,,,,,f,22,chengyi,2022_Apr_12_0839,experiment3,2021.1.4,30.0134009842546,
78,-150,-150,0,one,-150,-150,0,,,,,0,25,25,77,,,,,,,,,,,g,2.696088000026066,340.0941640000092,None,340.0941640000092,None,342.8250791999744,None,342.8250791999744,None,342.8250791999744,None,344.79600659996504,None,344.79600659996504,None,344.79600659996504,None,342.8250791999744,None,345.327381749975,None,345.327381749975,None,345.327381749975,None,0.025373549957294017,None,345.327381749975,None,345.327381749975,None,345.327381749975,None,345.327381749975,None,345.327381749975,None,345.327381749975,None,345.3260197999771,None,345.3260197999771,None,345.3260197999771,None,0.01799354999093339,0.5179935499909334,345.3260197999771,None,345.3260197999771,None,345.3260197999771,None,345.3260197999771,None,345.3260197999771,None,345.3260197999771,None,347.2940920999972,347.2940920999972,-13.799999999999997,1.835,-750,-1050,-1000,,,,,,,,,,,,,,,,,,,,,,,,,,,,,,,,,,,,,,,,,,,,,,,,,,,,,,,,,,,,,,,,,,,,,,,,,,,,,f,22,chengyi,2022_Apr_12_0839,experiment3,2021.1.4,30.0134009842546,
83,-150,0,-150,two,-150,0,-150,,,,,0,26,26,82,,,,,,,,,,,g,2.15352479997091,349.19450260000303,None,349.19450260000303,None,351.38459009997314,None,351.38459009997314,None,351.38459009997314,None,353.35914050001884,353.8761509999749,353.35914050001884,353.8761509999749,353.35914050001884,353.8761509999749,351.38459009997314,None,353.9091988499742,None,353.9091988499742,None,353.9091988499742,None,0.027172249974682927,None,353.9091988499742,None,353.9091988499742,None,353.9091988499742,None,353.9091988499742,None,353.9091988499742,None,353.9091988499742,None,353.90887149999617,None,353.90887149999617,None,353.90887149999617,None,0.019822249945718795,0.5198222499457188,353.90887149999617,None,353.90887149999617,None,353.90887149999617,None,353.90887149999617,None,353.90887149999617,None,353.90887149999617,None,355.89136820001295,355.89136820001295,-13.200000000000003,2.288,-900,-1050,-1150,,,,,,,,,,,,,,,,,,,,,,,,,,,,,,,,,,,,,,,,,,,,,,,,,,,,,,,,,,,,,,,,,,,,,,,,,,,,,f,22,chengyi,2022_Apr_12_0839,experiment3,2021.1.4,30.0134009842546,
4,50,200,0,one,50,200,0,,,,,0,27,27,3,,,,,,,,,,,g,3.1114802999654785,358.2423800000106,None,358.2423800000106,None,361.4087138000177,None,361.4087138000177,None,361.4087138000177,None,363.37398669996765,363.878896899987,363.37398669996765,363.878896899987,363.37398669996765,363.878896899987,361.4087138000177,None,363.9119447499863,None,363.9119447499863,None,363.9119447499863,None,0.01823914994020015,None,363.9119447499863,None,363.9119447499863,None,363.9119447499863,None,363.9119447499863,None,363.9119447499863,None,363.9119447499863,None,363.9296007999801,None,363.9296007999801,None,363.9296007999801,None,0.005394250038079917,0.5053942500380799,363.9296007999801,None,363.9296007999801,None,363.9296007999801,None,363.9296007999801,None,363.9296007999801,None,363.9296007999801,None,365.91381240001647,365.91381240001647,-14.600000000000001,2.758,-850,-850,-1150,,,,,,,,,,,,,,,,,,,,,,,,,,,,,,,,,,,,,,,,,,,,,,,,,,,,,,,,,,,,,,,,,,,,,,,,,,,,,f,22,chengyi,2022_Apr_12_0839,experiment3,2021.1.4,30.0134009842546,
77,-150,0,-150,one,-150,0,-150,,,,,0,28,28,76,,,,,,,,,,,g,3.218789799953811,368.74027000000933,None,368.74027000000933,None,372.0012171000126,None,372.0012171000126,None,372.0012171000126,None,373.95576470001834,374.47247450001305,373.95576470001834,374.47247450001305,373.95576470001834,374.47247450001305,372.0012171000126,None,374.5055223500123,None,374.5055223500123,None,374.5055223500123,None,0.02408285002456978,None,374.5055223500123,None,374.5055223500123,None,374.5055223500123,None,374.5055223500123,None,374.5055223500123,None,374.5055223500123,None,374.5046386999893,None,374.5046386999893,None,374.5046386999893,None,0.015152750012930483,0.5151527500129305,374.5046386999893,None,374.5046386999893,None,374.5046386999893,None,374.5046386999893,None,374.5046386999893,None,374.5046386999893,None,376.5044488499872,None,-18.1,2.054,-1000,-850,-1300,,,,,,,,,,,,,,,,,,,,,,,,,,,,,,,,,,,,,,,,,,,,,,,,,,,,,,,,,,,,,,,,,,,,,,,,,,,,,f,22,chengyi,2022_Apr_12_0839,experiment3,2021.1.4,30.0134009842546,
55,0,-150,-200,two,0,-150,-200,,,,,0,29,29,54,,,,,,,,,,,g,3.504315600031987,378.5845732999733,None,378.5845732999733,None,382.1376695999643,None,382.1376695999643,None,382.1376695999643,None,384.06768290000036,384.5864378999686,384.06768290000036,384.5864378999686,384.06768290000036,384.5864378999686,382.1376695999643,None,384.65247314998413,None,384.65247314998413,None,384.65247314998413,None,0.027364050038158894,None,384.65247314998413,None,384.65247314998413,None,384.65247314998413,None,384.65247314998413,None,384.65247314998413,None,384.65247314998413,None,384.6528021999984,None,384.6528021999984,None,384.6528021999984,None,0.02031665004324168,0.5203166500432417,384.6528021999984,None,384.6528021999984,None,384.6528021999984,None,384.6528021999984,None,384.6528021999984,None,384.6528021999984,None,386.63570539996726,386.63570539996726,-8.299999999999997,2.669,-1000,-1000,-1500,,,,,,,,,,,,,,,,,,,,,,,,,,,,,,,,,,,,,,,,,,,,,,,,,,,,,,,,,,,,,,,,,,,,,,,,,,,,,f,22,chengyi,2022_Apr_12_0839,experiment3,2021.1.4,30.0134009842546,
75,-150,-150,-200,one,-150,-150,-200,,,,,0,30,30,74,,,,,,,,,,,g,2.7511622000019997,389.36382179998327,None,389.36382179998327,None,392.18255099997623,None,392.18255099997623,None,392.18255099997623,None,394.11785310000414,394.6185920999851,394.11785310000414,394.6185920999851,394.11785310000414,394.6185920999851,392.18255099997623,None,394.69175574997206,None,394.69175574997206,None,394.69175574997206,None,0.016574549954384565,None,394.69175574997206,None,394.69175574997206,None,394.69175574997206,None,394.69175574997206,None,394.69175574997206,None,394.69175574997206,None,394.71814389998326,None,394.71814389998326,None,394.71814389998326,None,0.024968900077510625,0.5249689000775106,394.71814389998326,None,394.71814389998326,None,394.71814389998326,None,394.71814389998326,None,394.71814389998326,None,394.71814389998326,None,396.69970009999815,396.69970009999815,-6.899999999999999,6.133,-1150,-1150,-1700,,,,,,,,,,,,,,,,,,,,,,,,,,,,,,,,,,,,,,,,,,,,,,,,,,,,,,,,,,,,,,,,,,,,,,,,,,,,,f,22,chengyi,2022_Apr_12_0839,experiment3,2021.1.4,30.0134009842546,
12,200,0,50,two,200,0,50,,,,,0,31,31,11,,,,,,,,,,,g,3.402784999983851,402.9173424000037,None,402.9173424000037,None,406.363629999978,None,406.363629999978,None,406.363629999978,None,408.34816449997015,408.83630299998913,408.34816449997015,408.83630299998913,408.34816449997015,408.83630299998913,406.363629999978,None,408.8693508499884,None,408.8693508499884,None,408.8693508499884,None,0.02297165000345558,None,408.8693508499884,None,408.8693508499884,None,408.8693508499884,None,408.8693508499884,None,408.8693508499884,None,408.8693508499884,None,408.8717630999745,None,408.8717630999745,None,408.8717630999745,None,0.012185150058940053,0.51218515005894,408.8717630999745,None,408.8717630999745,None,408.8717630999745,None,408.8717630999745,None,408.8717630999745,None,408.8717630999745,None,410.86492329998873,410.86492329998873,8.0,2.575,-950,-1150,-1650,,,,,,,,,,,,,,,,,,,,,,,,,,,,,,,,,,,,,,,,,,,,,,,,,,,,,,,,,,,,,,,,,,,,,,,,,,,,,f,22,chengyi,2022_Apr_12_0839,experiment3,2021.1.4,30.0134009842546,
3,50,0,200,one,50,0,200,,,,,0,32,32,2,,,,,,,,,,,g,2.2961990000330843,413.53155750001315,None,413.53155750001315,None,415.85834570002044,None,415.85834570002044,None,415.85834570002044,None,417.8308809999726,None,417.8308809999726,None,417.8308809999726,None,415.85834570002044,None,418.36259354999055,None,418.36259354999055,None,418.36259354999055,None,0.02497764996951446,None,418.36259354999055,None,418.36259354999055,None,418.36259354999055,None,418.36259354999055,None,418.36259354999055,None,418.36259354999055,None,418.3624104000046,None,418.3624104000046,None,418.3624104000046,None,0.018252350040711462,0.5182523500407115,418.3624104000046,None,418.3624104000046,None,418.3624104000046,None,418.3624104000046,None,418.3624104000046,None,418.3624104000046,None,420.3473795999889,420.3473795999889,9.799999999999997,1.998,-900,-1150,-1450,,,,,,,,,,,,,,,,,,,,,,,,,,,,,,,,,,,,,,,,,,,,,,,,,,,,,,,,,,,,,,,,,,,,,,,,,,,,,f,22,chengyi,2022_Apr_12_0839,experiment3,2021.1.4,30.0134009842546,
87,0,-200,-200,one,0,-200,-200,,,,,0,33,33,86,,,,,,,,,,,g,2.143171399948187,422.401305700012,None,422.401305700012,None,424.58116230001906,None,424.58116230001906,None,424.58116230001906,None,426.544667500013,427.04432460002135,426.544667500013,427.04432460002135,426.544667500013,427.04432460002135,424.58116230001906,None,427.11114594996906,None,427.11114594996906,None,427.11114594996906,None,0.027485450031235814,None,427.11114594996906,None,427.11114594996906,None,427.11114594996906,None,427.11114594996906,None,427.11114594996906,None,427.11114594996906,None,427.11036709998734,None,427.11036709998734,None,427.11036709998734,None,0.02026584994746372,0.5202658499474637,427.11036709998734,None,427.11036709998734,None,427.11036709998734,None,427.11036709998734,None,427.11036709998734,None,427.11036709998734,None,429.07747129997006,429.07747129997006,16.0,1.798,-900,-1350,-1650,,,,,,,,,,,,,,,,,,,,,,,,,,,,,,,,,,,,,,,,,,,,,,,,,,,,,,,,,,,,,,,,,,,,,,,,,,,,,f,22,chengyi,2022_Apr_12_0839,experiment3,2021.1.4,30.0134009842546,
20,0,50,0,two,0,50,0,,,,,0,34,34,19,,,,,,,,,,,g,2.6270611999789253,430.9584653999773,None,430.9584653999773,None,433.64392359997146,None,433.64392359997146,None,433.64392359997146,None,435.5930144999875,436.09441630000947,435.5930144999875,436.09441630000947,435.5930144999875,436.09441630000947,433.64392359997146,None,436.16019715000874,None,436.16019715000874,None,436.16019715000874,None,0.026394849992357194,None,436.16019715000874,None,436.16019715000874,None,436.16019715000874,None,436.16019715000874,None,436.16019715000874,None,436.16019715000874,None,436.1586457999656,None,436.1586457999656,None,436.1586457999656,None,0.01826714997878298,0.518267149978783,436.1586457999656,None,436.1586457999656,None,436.1586457999656,None,436.1586457999656,None,436.1586457999656,None,436.1586457999656,None,438.1426992000197,438.1426992000197,-29.9,4.052,-900,-1300,-1650,,,,,,,,,,,,,,,,,,,,,,,,,,,,,,,,,,,,,,,,,,,,,,,,,,,,,,,,,,,,,,,,,,,,,,,,,,,,,f,22,chengyi,2022_Apr_12_0839,experiment3,2021.1.4,30.0134009842546,
32,50,200,50,two,50,200,50,,,,,0,35,35,31,,,,,,,,,,,g,2.018811199988704,442.2552479999722,None,442.2552479999722,None,444.2998692999827,None,444.2998692999827,None,444.2998692999827,None,446.2531633999897,446.7634698000038,446.2531633999897,446.7634698000038,446.2531633999897,446.7634698000038,444.2998692999827,None,446.81596894997637,None,446.81596894997637,None,446.81596894997637,None,0.019140449934639037,None,446.81596894997637,None,446.81596894997637,None,446.81596894997637,None,446.81596894997637,None,446.81596894997637,None,446.81596894997637,None,446.8269459999865,None,446.8269459999865,None,446.8269459999865,None,0.004430350032635033,0.504430350032635,446.8269459999865,None,446.8269459999865,None,446.8269459999865,None,446.8269459999865,None,446.8269459999865,None,446.8269459999865,None,448.80774219997693,448.80774219997693,-16.4,10.836,-850,-1100,-1600,,,,,,,,,,,,,,,,,,,,,,,,,,,,,,,,,,,,,,,,,,,,,,,,,,,,,,,,,,,,,,,,,,,,,,,,,,,,,f,22,chengyi,2022_Apr_12_0839,experiment3,2021.1.4,30.0134009842546,
69,-150,0,0,two,-150,0,0,,,,,0,36,36,68,,,,,,,,,,,g,2.6934981000376865,459.7020339000155,None,459.7020339000155,None,462.43792080000276,None,462.43792080000276,None,462.43792080000276,None,464.3744183999952,464.8881895999657,464.3744183999952,464.8881895999657,464.3744183999952,464.8881895999657,462.43792080000276,None,464.9543385499739,None,464.9543385499739,None,464.9543385499739,None,0.026378650043625385,None,464.9543385499739,None,464.9543385499739,None,464.9543385499739,None,464.9543385499739,None,464.9543385499739,None,464.9543385499739,None,464.95390779996524,None,464.95390779996524,None,464.95390779996524,None,0.018406949937343597,0.5184069499373436,464.95390779996524,None,464.95390779996524,None,464.95390779996524,None,464.95390779996524,None,464.95390779996524,None,464.95390779996524,None,466.9209364000126,466.9209364000126,11.100000000000001,4.372,-1000,-1100,-1600,,,,,,,,,,,,,,,,,,,,,,,,,,,,,,,,,,,,,,,,,,,,,,,,,,,,,,,,,,,,,,,,,,,,,,,,,,,,,f,22,chengyi,2022_Apr_12_0839,experiment3,2021.1.4,30.0134009842546,
60,-200,0,-150,two,-200,0,-150,,,,,0,37,37,59,,,,,,,,,,,g,2.2350749999750406,471.3497097999789,None,471.3497097999789,None,473.606561099994,None,473.606561099994,None,473.606561099994,None,475.58191110001644,476.10231759998715,475.58191110001644,476.10231759998715,475.58191110001644,476.10231759998715,473.606561099994,None,476.1353654499864,None,476.1353654499864,None,476.1353654499864,None,0.026363249984569848,None,476.1353654499864,None,476.1353654499864,None,476.1353654499864,None,476.1353654499864,None,476.1353654499864,None,476.1353654499864,None,476.13415850000456,None,476.13415850000456,None,476.13415850000456,None,0.019265549955889583,0.5192655499558896,476.13415850000456,None,476.13415850000456,None,476.13415850000456,None,476.13415850000456,None,476.13415850000456,None,476.13415850000456,None,478.1021790999803,478.1021790999803,-5.100000000000001,3.439,-1200,-1100,-1750,,,,,,,,,,,,,,,,,,,,,,,,,,,,,,,,,,,,,,,,,,,,,,,,,,,,,,,,,,,,,,,,,,,,,,,,,,,,,f,22,chengyi,2022_Apr_12_0839,experiment3,2021.1.4,30.0134009842546,
96,-150,-200,-200,two,-150,-200,-200,,,,,0,38,38,95,,,,,,,,,,,g,2.838802900048904,481.597857100016,None,481.597857100016,None,484.5011520999833,None,484.5011520999833,None,484.5011520999833,None,486.4498432999826,486.9499175999663,486.4498432999826,486.9499175999663,486.4498432999826,486.9499175999663,484.5011520999833,None,487.01783944997004,None,487.01783944997004,None,487.01783944997004,None,0.026511950010899454,None,487.01783944997004,None,487.01783944997004,None,487.01783944997004,None,487.01783944997004,None,487.01783944997004,None,487.01783944997004,None,487.01641529996414,None,487.01641529996414,None,487.01641529996414,None,0.016146549955010414,0.5161465499550104,487.01641529996414,None,487.01641529996414,None,487.01641529996414,None,487.01641529996414,None,487.01641529996414,None,487.01641529996414,None,489.00152789999265,489.00152789999265,-18.4,4.5,-1350,-1300,-1950,,,,,,,,,,,,,,,,,,,,,,,,,,,,,,,,,,,,,,,,,,,,,,,,,,,,,,,,,,,,,,,,,,,,,,,,,,,,,f,22,chengyi,2022_Apr_12_0839,experiment3,2021.1.4,30.0134009842546,
35,50,0,50,two,50,0,50,,,,,0,39,39,34,,,,,,,,,,,g,3.6450036999885924,493.5644272000063,None,493.5644272000063,None,497.2316368999891,None,497.2316368999891,None,497.2316368999891,None,499.197064100008,None,499.197064100008,None,499.197064100008,None,497.2316368999891,None,499.73607094998005,None,499.73607094998005,None,499.73607094998005,None,0.01198855001712218,None,499.73607094998005,None,499.73607094998005,None,499.73607094998005,None,499.73607094998005,None,499.73607094998005,None,499.73607094998005,None,499.7512548000086,None,499.7512548000086,None,499.7512548000086,None,0.002471350017003715,0.5024713500170037,499.7512548000086,None,499.7512548000086,None,499.7512548000086,None,499.7512548000086,None,499.7512548000086,None,499.7512548000086,None,501.74740639998345,501.74740639998345,17.0,5.636,-1300,-1300,-1900,,,,,,,,,,,,,,,,,,,,,,,,,,,,,,,,,,,,,,,,,,,,,,,,,,,,,,,,,,,,,,,,,,,,,,,,,,,,,f,22,chengyi,2022_Apr_12_0839,experiment3,2021.1.4,30.0134009842546,
25,200,50,50,one,200,50,50,,,,,0,40,40,24,,,,,,,,,,,g,2.4823231999762356,507.4438072000048,None,507.4438072000048,None,509.9801587999682,None,509.9801587999682,None,509.9801587999682,None,511.9285307999817,512.416449100012,511.9285307999817,512.416449100012,511.9285307999817,512.416449100012,509.9801587999682,None,512.4914074499859,None,512.4914074499859,None,512.4914074499859,None,0.025167649961076677,None,512.4914074499859,None,512.4914074499859,None,512.4914074499859,None,512.4914074499859,None,512.4914074499859,None,512.4914074499859,None,512.4928919000085,None,512.4928919000085,None,512.4928919000085,None,0.017536449944600463,0.5175364499446005,512.4928919000085,None,512.4928919000085,None,512.4928919000085,None,512.4928919000085,None,512.4928919000085,None,512.4928919000085,None,514.4555785999983,514.4555785999983,8.100000000000001,6.57,-1100,-1250,-1850,,,,,,,,,,,,,,,,,,,,,,,,,,,,,,,,,,,,,,,,,,,,,,,,,,,,,,,,,,,,,,,,,,,,,,,,,,,,,f,22,chengyi,2022_Apr_12_0839,experiment3,2021.1.4,30.0134009842546,
36,50,50,0,two,50,50,0,,,,,0,41,41,35,,,,,,,,,,,g,10.95013710000785,521.1136728000129,None,521.1136728000129,None,532.1308430000208,None,532.1308430000208,None,532.1308430000208,None,534.0996722999844,534.624056199973,534.0996722999844,534.624056199973,534.0996722999844,534.624056199973,532.1308430000208,None,534.6571040499723,None,534.6571040499723,None,534.6571040499723,None,0.02747275005094707,None,534.6571040499723,None,534.6571040499723,None,534.6571040499723,None,534.6571040499723,None,534.6571040499723,None,534.6571040499723,None,534.656605999975,None,534.656605999975,None,534.656605999975,None,0.02044565003598109,0.5204456500359811,534.656605999975,None,534.656605999975,None,534.656605999975,None,534.656605999975,None,534.656605999975,None,534.656605999975,None,536.6403263999964,536.6403263999964,-0.5,3.414,-1050,-1200,-1850,,,,,,,,,,,,,,,,,,,,,,,,,,,,,,,,,,,,,,,,,,,,,,,,,,,,,,,,,,,,,,,,,,,,,,,,,,,,,f,22,chengyi,2022_Apr_12_0839,experiment3,2021.1.4,30.0134009842546,
33,50,50,200,two,50,50,200,,,,,0,42,42,32,,,,,,,,,,,g,3.769556699960958,540.1096075999667,None,540.1096075999667,None,543.9390710999724,None,543.9390710999724,None,543.9390710999724,None,545.8759993999847,546.3883157999953,545.8759993999847,546.3883157999953,545.8759993999847,546.3883157999953,543.9390710999724,None,546.4544292499661,None,546.4544292499661,None,546.4544292499661,None,0.027454250026494265,None,546.4544292499661,None,546.4544292499661,None,546.4544292499661,None,546.4544292499661,None,546.4544292499661,None,546.4544292499661,None,546.4540844999719,None,546.4540844999719,None,546.4540844999719,None,0.01984544994775206,0.5198454499477521,546.4540844999719,None,546.4540844999719,None,546.4540844999719,None,546.4540844999719,None,546.4540844999719,None,546.4540844999719,None,548.4211622999865,548.4211622999865,-9.0,3.747,-1000,-1150,-1650,,,,,,,,,,,,,,,,,,,,,,,,,,,,,,,,,,,,,,,,,,,,,,,,,,,,,,,,,,,,,,,,,,,,,,,,,,,,,f,22,chengyi,2022_Apr_12_0839,experiment3,2021.1.4,30.0134009842546,
63,-150,0,0,one,-150,0,0,,,,,0,43,43,62,,,,,,,,,,,g,4.401897599978838,552.2258338999818,None,552.2258338999818,None,556.6866960999905,None,556.6866960999905,None,556.6866960999905,None,558.6365313999704,559.1692834999994,558.6365313999704,559.1692834999994,558.6365313999704,559.1692834999994,556.6866960999905,None,559.2023313499988,None,559.2023313499988,None,559.2023313499988,None,0.026769249991048127,None,559.2023313499988,None,559.2023313499988,None,559.2023313499988,None,559.2023313499988,None,559.2023313499988,None,559.2023313499988,None,559.2015397999785,None,559.2015397999785,None,559.2015397999785,None,0.019546750059816986,0.519546750059817,559.2015397999785,None,559.2015397999785,None,559.2015397999785,None,559.2015397999785,None,559.2015397999785,None,559.2015397999785,None,561.1832033999963,561.1832033999963,-41.0,2.903,-1150,-1150,-1650,,,,,,,,,,,,,,,,,,,,,,,,,,,,,,,,,,,,,,,,,,,,,,,,,,,,,,,,,,,,,,,,,,,,,,,,,,,,,f,22,chengyi,2022_Apr_12_0839,experiment3,2021.1.4,30.0134009842546,
84,-150,-150,0,two,-150,-150,0,,,,,0,44,44,83,,,,,,,,,,,g,3.025547600002028,564.1678600999876,None,564.1678600999876,None,567.2232024999685,None,567.2232024999685,None,567.2232024999685,None,569.1944488000008,569.7075174999773,569.1944488000008,569.7075174999773,569.1944488000008,569.7075174999773,567.2232024999685,None,569.7405653499766,None,569.7405653499766,None,569.7405653499766,None,0.019011050055269152,None,569.7405653499766,None,569.7405653499766,None,569.7405653499766,None,569.7405653499766,None,569.7405653499766,None,569.7405653499766,None,569.7495327999932,None,569.7495327999932,None,569.7495327999932,None,0.010292149963788688,0.5102921499637887,569.7495327999932,None,569.7495327999932,None,569.7495327999932,None,569.7495327999932,None,569.7495327999932,None,569.7495327999932,None,571.7080204999656,571.7080204999656,-24.4,2.764,-1300,-1300,-1650,,,,,,,,,,,,,,,,,,,,,,,,,,,,,,,,,,,,,,,,,,,,,,,,,,,,,,,,,,,,,,,,,,,,,,,,,,,,,f,22,chengyi,2022_Apr_12_0839,experiment3,2021.1.4,30.0134009842546,
7,0,50,200,two,0,50,200,,,,,0,45,45,6,,,,,,,,,,,g,2.4329447000054643,574.5672575000208,None,574.5672575000208,None,577.0324727999978,None,577.0324727999978,None,577.0324727999978,None,578.9996752999723,579.5214781999821,578.9996752999723,579.5214781999821,578.9996752999723,579.5214781999821,577.0324727999978,None,579.5545260499814,None,579.5545260499814,None,579.5545260499814,None,0.020172149990685284,None,579.5545260499814,None,579.5545260499814,None,579.5545260499814,None,579.5545260499814,None,579.5545260499814,None,579.5545260499814,None,579.5701555999694,None,579.5701555999694,None,579.5701555999694,None,0.007384349999483675,0.5073843499994837,579.5701555999694,None,579.5701555999694,None,579.5701555999694,None,579.5701555999694,None,579.5701555999694,None,579.5701555999694,None,581.5714871499688,None,-23.1,3.621,-1300,-1250,-1450,,,,,,,,,,,,,,,,,,,,,,,,,,,,,,,,,,,,,,,,,,,,,,,,,,,,,,,,,,,,,,,,,,,,,,,,,,,,,f,22,chengyi,2022_Apr_12_0839,experiment3,2021.1.4,30.0134009842546,
18,200,0,0,one,200,0,0,,,,,0,46,46,17,,,,,,,,,,,g,0.9136636999901384,585.2450855000061,None,585.2450855000061,None,586.213878199982,None,586.213878199982,None,586.213878199982,None,588.1795432000072,588.6930366000161,588.1795432000072,588.6930366000161,588.1795432000072,588.6930366000161,586.213878199982,None,588.7260844500154,None,588.7260844500154,None,588.7260844500154,None,0.024520550097804517,None,588.7260844500154,None,588.7260844500154,None,588.7260844500154,None,588.7260844500154,None,588.7260844500154,None,588.7260844500154,None,588.7408220999641,None,588.7408220999641,None,588.7408220999641,None,0.01782584999455139,0.5178258499945514,588.7408220999641,None,588.7408220999641,None,588.7408220999641,None,588.7408220999641,None,588.7408220999641,None,588.7408220999641,None,590.7131832999876,590.7131832999876,-44.1,2.599,-1100,-1250,-1450,,,,,,,,,,,,,,,,,,,,,,,,,,,,,,,,,,,,,,,,,,,,,,,,,,,,,,,,,,,,,,,,,,,,,,,,,,,,,f,22,chengyi,2022_Apr_12_0839,experiment3,2021.1.4,30.0134009842546,
68,0,-150,0,two,0,-150,0,,,,,0,47,47,67,,,,,,,,,,,g,2.1330608999705873,593.3688617000007,None,593.3688617000007,None,595.5368065999937,None,595.5368065999937,None,595.5368065999937,None,597.4785577000002,597.9804517999873,597.4785577000002,597.9804517999873,597.4785577000002,597.9804517999873,595.5368065999937,None,598.0630258499762,None,598.0630258499762,None,598.0630258499762,None,0.027124649961479008,None,598.0630258499762,None,598.0630258499762,None,598.0630258499762,None,598.0630258499762,None,598.0630258499762,None,598.0630258499762,None,598.060313199996,None,598.060313199996,None,598.060313199996,None,0.01991935004480183,0.5199193500448018,598.060313199996,None,598.060313199996,None,598.060313199996,None,598.060313199996,None,598.060313199996,None,598.060313199996,None,600.0441421999712,600.0441421999712,-8.100000000000001,4.194,-1100,-1400,-1450,,,,,,,,,,,,,,,,,,,,,,,,,,,,,,,,,,,,,,,,,,,,,,,,,,,,,,,,,,,,,,,,,,,,,,,,,,,,,f,22,chengyi,2022_Apr_12_0839,experiment3,2021.1.4,30.0134009842546,
11,200,50,0,two,200,50,0,,,,,0,48,48,10,,,,,,,,,,,g,1.4719901000498794,604.3138147999998,None,604.3138147999998,None,605.8316350000096,None,605.8316350000096,None,605.8316350000096,None,607.7933288000058,608.3258223999874,607.7933288000058,608.3258223999874,607.7933288000058,608.3258223999874,605.8316350000096,None,608.3588702499867,None,608.3588702499867,None,608.3588702499867,None,0.02753194997785613,None,608.3588702499867,None,608.3588702499867,None,608.3588702499867,None,608.3588702499867,None,608.3588702499867,None,608.3588702499867,None,608.3584529000218,None,608.3584529000218,None,608.3584529000218,None,0.02034045004984364,0.5203404500498436,608.3584529000218,None,608.3584529000218,None,608.3584529000218,None,608.3584529000218,None,608.3584529000218,None,608.3584529000218,None,610.3320917999954,610.3320917999954,18.799999999999997,3.217,-900,-1350,-1450,,,,,,,,,,,,,,,,,,,,,,,,,,,,,,,,,,,,,,,,,,,,,,,,,,,,,,,,,,,,,,,,,,,,,,,,,,,,,f,22,chengyi,2022_Apr_12_0839,experiment3,2021.1.4,30.0134009842546,
8,0,200,50,two,0,200,50,,,,,0,49,49,7,,,,,,,,,,,g,2.0921745999949053,613.6314971999964,None,613.6314971999964,None,615.7859596000053,None,615.7859596000053,None,615.7859596000053,None,617.7414085000055,618.2470192000037,617.7414085000055,618.2470192000037,617.7414085000055,618.2470192000037,615.7859596000053,None,618.3089099500096,None,618.3089099500096,None,618.3089099500096,None,0.025369149981997907,None,618.3089099500096,None,618.3089099500096,None,618.3089099500096,None,618.3089099500096,None,618.3089099500096,None,618.3089099500096,None,618.3073841999867,None,618.3073841999867,None,618.3073841999867,None,0.016708150040358305,0.5167081500403583,618.3073841999867,None,618.3073841999867,None,618.3073841999867,None,618.3073841999867,None,618.3073841999867,None,618.3073841999867,None,620.2899900000193,620.2899900000193,-47.9,3.831,-900,-1150,-1400,,,,,,,,,,,,,,,,,,,,,,,,,,,,,,,,,,,,,,,,,,,,,,,,,,,,,,,,,,,,,,,,,,,,,,,,,,,,,f,22,chengyi,2022_Apr_12_0839,experiment3,2021.1.4,30.0134009842546,
93,0,-200,-200,two,0,-200,-200,,,,,0,50,50,92,,,,,,,,,,,g,1.4803780000074767,624.1887246000115,None,624.1887246000115,None,625.7132430999773,None,625.7132430999773,None,625.7132430999773,None,627.6546116999816,628.1786349000176,627.6546116999816,628.1786349000176,627.6546116999816,628.1786349000176,625.7132430999773,None,628.2273102499778,None,628.2273102499778,None,628.2273102499778,None,0.017158349975943565,None,628.2273102499778,None,628.2273102499778,None,628.2273102499778,None,628.2273102499778,None,628.2273102499778,None,628.2273102499778,None,628.242318500008,None,628.242318500008,None,628.242318500008,None,0.0011639500153250992,0.5011639500153251,628.242318500008,None,628.242318500008,None,628.242318500008,None,628.242318500008,None,628.242318500008,None,628.242318500008,None,630.2188316999818,630.2188316999818,-36.5,2.369,-900,-1350,-1600,,,,,,,,,,,,,,,,,,,,,,,,,,,,,,,,,,,,,,,,,,,,,,,,,,,,,,,,,,,,,,,,,,,,,,,,,,,,,f,22,chengyi,2022_Apr_12_0839,experiment3,2021.1.4,30.0134009842546,
38,200,0,200,one,200,0,200,,,,,0,51,51,37,,,,,,,,,,,g,1.962829700030852,632.6508689000038,None,632.6508689000038,None,634.6475379000185,None,634.6475379000185,None,634.6475379000185,None,636.6253471999662,637.1401386999642,636.6253471999662,637.1401386999642,636.6253471999662,637.1401386999642,634.6475379000185,None,637.1731865499635,None,637.1731865499635,None,637.1731865499635,None,0.020921949995681643,None,637.1731865499635,None,637.1731865499635,None,637.1731865499635,None,637.1731865499635,None,637.1731865499635,None,637.1731865499635,None,637.2022732999758,None,637.2022732999758,None,637.2022732999758,None,0.00014874996850267053,0.5001487499685027,637.2022732999758,None,637.2022732999758,None,637.2022732999758,None,637.2022732999758,None,637.2022732999758,None,637.2022732999758,None,639.2036249500118,None,27.400000000000006,3.821,-700,-1350,-1400,,,,,,,,,,,,,,,,,,,,,,,,,,,,,,,,,,,,,,,,,,,,,,,,,,,,,,,,,,,,,,,,,,,,,,,,,,,,,f,22,chengyi,2022_Apr_12_0839,experiment3,2021.1.4,30.0134009842546,
61,0,0,-150,one,0,0,-150,,,,,0,52,52,60,,,,,,,,,,,g,1.3605248999665491,643.0535731000127,None,643.0535731000127,None,644.4689902999671,None,644.4689902999671,None,644.4689902999671,None,646.4343250999809,646.944152400014,646.4343250999809,646.944152400014,646.4343250999809,646.944152400014,644.4689902999671,None,646.9772002500133,None,646.9772002500133,None,646.9772002500133,None,0.005067450052592903,None,646.9772002500133,None,646.9772002500133,None,646.9772002500133,None,646.9772002500133,None,646.9772002500133,None,646.9772002500133,None,647.0016307000187,None,647.0016307000187,None,647.0016307000187,None,0.029221000033430755,0.5292210000334308,647.0016307000187,None,647.0016307000187,None,647.0016307000187,None,647.0016307000187,None,647.0016307000187,None,647.0016307000187,None,648.9520091000013,648.9520091000013,-21.1,3.441,-700,-1350,-1550,,,,,,,,,,,,,,,,,,,,,,,,,,,,,,,,,,,,,,,,,,,,,,,,,,,,,,,,,,,,,,,,,,,,,,,,,,,,,f,22,chengyi,2022_Apr_12_0839,experiment3,2021.1.4,30.0134009842546,
79,-200,-150,-150,two,-200,-150,-150,,,,,0,53,53,78,,,,,,,,,,,g,1.2974775999900885,652.5019354000106,None,652.5019354000106,None,653.8344541999977,None,653.8344541999977,None,653.8344541999977,None,655.7847275999957,656.299763899995,655.7847275999957,656.299763899995,655.7847275999957,656.299763899995,653.8344541999977,None,656.3732765500201,None,656.3732765500201,None,656.3732765500201,None,0.01937265007290989,None,656.3732765500201,None,656.3732765500201,None,656.3732765500201,None,656.3732765500201,None,656.3732765500201,None,656.3732765500201,None,656.3829111999949,None,656.3829111999949,None,656.3829111999949,None,0.008213650027755648,0.5082136500277556,656.3829111999949,None,656.3829111999949,None,656.3829111999949,None,656.3829111999949,None,656.3829111999949,None,656.3829111999949,None,658.369911799964,658.369911799964,-7.899999999999999,2.56,-900,-1500,-1700,,,,,,,,,,,,,,,,,,,,,,,,,,,,,,,,,,,,,,,,,,,,,,,,,,,,,,,,,,,,,,,,,,,,,,,,,,,,,f,22,chengyi,2022_Apr_12_0839,experiment3,2021.1.4,30.0134009842546,
53,-200,-150,0,one,-200,-150,0,,,,,0,54,54,52,,,,,,,,,,,g,2.890302700048778,660.9996201000176,None,660.9996201000176,None,663.9502922999673,None,663.9502922999673,None,663.9502922999673,None,665.884859999991,666.3984850000124,665.884859999991,666.3984850000124,665.884859999991,666.3984850000124,663.9502922999673,None,666.4712520500063,None,666.4712520500063,None,666.4712520500063,None,0.01939624996157363,None,666.4712520500063,None,666.4712520500063,None,666.4712520500063,None,666.4712520500063,None,666.4712520500063,None,666.4712520500063,None,666.4896970000118,None,666.4896970000118,None,666.4896970000118,None,0.005947750003542751,0.5059477500035428,666.4896970000118,None,666.4896970000118,None,666.4896970000118,None,666.4896970000118,None,666.4896970000118,None,666.4896970000118,None,668.4817392000114,668.4817392000114,-11.299999999999997,2.651,-1100,-1650,-1700,,,,,,,,,,,,,,,,,,,,,,,,,,,,,,,,,,,,,,,,,,,,,,,,,,,,,,,,,,,,,,,,,,,,,,,,,,,,,f,22,chengyi,2022_Apr_12_0839,experiment3,2021.1.4,30.0134009842546,
59,-200,-150,0,two,-200,-150,0,,,,,0,55,55,58,,,,,,,,,,,g,2.265076500014402,671.1976489999797,None,671.1976489999797,None,673.497843899997,None,673.497843899997,None,673.497843899997,None,675.469070799998,675.9809528000187,675.469070799998,675.9809528000187,675.469070799998,675.9809528000187,673.497843899997,None,676.014000650018,None,676.014000650018,None,676.014000650018,None,0.026425949996337295,None,676.014000650018,None,676.014000650018,None,676.014000650018,None,676.014000650018,None,676.014000650018,None,676.014000650018,None,676.0123165000114,None,676.0123165000114,None,676.0123165000114,None,0.01895945001160726,0.5189594500116073,676.0123165000114,None,676.0123165000114,None,676.0123165000114,None,676.0123165000114,None,676.0123165000114,None,676.0123165000114,None,677.9991134000011,677.9991134000011,-8.200000000000003,2.692,-1300,-1800,-1700,,,,,,,,,,,,,,,,,,,,,,,,,,,,,,,,,,,,,,,,,,,,,,,,,,,,,,,,,,,,,,,,,,,,,,,,,,,,,f,22,chengyi,2022_Apr_12_0839,experiment3,2021.1.4,30.0134009842546,
28,0,50,50,one,0,50,50,,,,,0,56,56,27,,,,,,,,,,,g,2.3314616000279784,680.7631168999942,None,680.7631168999942,None,683.1443519999739,None,683.1443519999739,None,683.1443519999739,None,685.1165688000037,685.6280315999757,685.1165688000037,685.6280315999757,685.1165688000037,685.6280315999757,683.1443519999739,None,685.661079449975,None,685.661079449975,None,685.661079449975,None,0.02718504995573312,None,685.661079449975,None,685.661079449975,None,685.661079449975,None,685.661079449975,None,685.661079449975,None,685.661079449975,None,685.6604437999777,None,685.6604437999777,None,685.6604437999777,None,0.020489250018727034,0.520489250018727,685.6604437999777,None,685.6604437999777,None,685.6604437999777,None,685.6604437999777,None,685.6604437999777,None,685.6604437999777,None,687.6445664999774,687.6445664999774,-39.8,3.199,-1300,-1750,-1650,,,,,,,,,,,,,,,,,,,,,,,,,,,,,,,,,,,,,,,,,,,,,,,,,,,,,,,,,,,,,,,,,,,,,,,,,,,,,f,22,chengyi,2022_Apr_12_0839,experiment3,2021.1.4,30.0134009842546,
57,-150,0,-200,two,-150,0,-200,,,,,0,57,57,56,,,,,,,,,,,g,2.4062873999937437,690.927400799992,None,690.927400799992,None,693.3827749000047,None,693.3827749000047,None,693.3827749000047,None,695.358688200009,695.8767620999715,695.358688200009,695.8767620999715,695.358688200009,695.8767620999715,693.3827749000047,None,695.9098099499708,None,695.9098099499708,None,695.9098099499708,None,0.027290949947200716,None,695.9098099499708,None,695.9098099499708,None,695.9098099499708,None,695.9098099499708,None,695.9098099499708,None,695.9098099499708,None,695.908668500022,None,695.908668500022,None,695.908668500022,None,0.02002014993922785,0.5200201499392278,695.908668500022,None,695.908668500022,None,695.908668500022,None,695.908668500022,None,695.908668500022,None,695.908668500022,None,697.8782970000175,697.8782970000175,-27.9,3.197,-1450,-1750,-1850,,,,,,,,,,,,,,,,,,,,,,,,,,,,,,,,,,,,,,,,,,,,,,,,,,,,,,,,,,,,,,,,,,,,,,,,,,,,,f,22,chengyi,2022_Apr_12_0839,experiment3,2021.1.4,30.0134009842546,
10,50,200,0,two,50,200,0,,,,,0,58,58,9,,,,,,,,,,,g,2.3203403999796137,701.1395762999891,None,701.1395762999891,None,703.48375449999,None,703.48375449999,None,703.48375449999,None,705.4427587999962,705.9745870999759,705.4427587999962,705.9745870999759,705.4427587999962,705.9745870999759,703.48375449999,None,706.0076349499752,None,706.0076349499752,None,706.0076349499752,None,0.026168249954935163,None,706.0076349499752,None,706.0076349499752,None,706.0076349499752,None,706.0076349499752,None,706.0076349499752,None,706.0076349499752,None,706.0071582999662,None,706.0071582999662,None,706.0071582999662,None,0.019171749940142035,0.519171749940142,706.0071582999662,None,706.0071582999662,None,706.0071582999662,None,706.0071582999662,None,706.0071582999662,None,706.0071582999662,None,707.992477199994,707.992477199994,-45.3,3.479,-1400,-1550,-1850,,,,,,,,,,,,,,,,,,,,,,,,,,,,,,,,,,,,,,,,,,,,,,,,,,,,,,,,,,,,,,,,,,,,,,,,,,,,,f,22,chengyi,2022_Apr_12_0839,experiment3,2021.1.4,30.0134009842546,
67,0,0,-150,two,0,0,-150,,,,,0,59,59,66,,,,,,,,,,,g,1.769099599972833,711.5262382000219,None,711.5262382000219,None,713.3452085999888,None,713.3452085999888,None,713.3452085999888,None,715.3224409999675,None,715.3224409999675,None,715.3224409999675,None,713.3452085999888,None,715.8450688500191,None,715.8450688500191,None,715.8450688500191,None,0.019005850015673786,None,715.8450688500191,None,715.8450688500191,None,715.8450688500191,None,715.8450688500191,None,715.8450688500191,None,715.8450688500191,None,715.8625230999896,None,715.8625230999896,None,715.8625230999896,None,0.004931350063998252,0.5049313500639983,715.8625230999896,None,715.8625230999896,None,715.8625230999896,None,715.8625230999896,None,715.8625230999896,None,715.8625230999896,None,717.8550012999913,717.8550012999913,-38.0,3.323,-1400,-1550,-2000,,,,,,,,,,,,,,,,,,,,,,,,,,,,,,,,,,,,,,,,,,,,,,,,,,,,,,,,,,,,,,,,,,,,,,,,,,,,,f,22,chengyi,2022_Apr_12_0839,experiment3,2021.1.4,30.0134009842546,
16,0,0,200,one,0,0,200,,,,,0,60,60,15,,,,,,,,,,,g,0.8023337000049651,721.238490400021,None,721.238490400021,None,722.0871916000033,None,722.0871916000033,None,722.0871916000033,None,724.0568407999817,724.5712838000036,724.0568407999817,724.5712838000036,724.0568407999817,724.5712838000036,722.0871916000033,None,724.6043316500029,None,724.6043316500029,None,724.6043316500029,None,0.026345950027462095,None,724.6043316500029,None,724.6043316500029,None,724.6043316500029,None,724.6043316500029,None,724.6043316500029,None,724.6043316500029,None,724.6036734000081,None,724.6036734000081,None,724.6036734000081,None,0.01945244998205453,0.5194524499820545,724.6036734000081,None,724.6036734000081,None,724.6036734000081,None,724.6036734000081,None,724.6036734000081,None,724.6036734000081,None,726.5701624000212,726.5701624000212,-40.9,3.092,-1400,-1550,-1800,,,,,,,,,,,,,,,,,,,,,,,,,,,,,,,,,,,,,,,,,,,,,,,,,,,,,,,,,,,,,,,,,,,,,,,,,,,,,f,22,chengyi,2022_Apr_12_0839,experiment3,2021.1.4,30.0134009842546,
66,-200,0,0,one,-200,0,0,,,,,0,61,61,65,,,,,,,,,,,a,2.096186899987515,729.7176308999769,None,729.7176308999769,None,731.8324396999669,None,731.8324396999669,None,731.8324396999669,None,733.7984929999802,734.303414999973,733.7984929999802,734.303414999973,733.7984929999802,734.303414999973,731.8324396999669,None,734.3364628499723,None,734.3364628499723,None,734.3364628499723,None,0.024415049992967397,None,734.3364628499723,None,734.3364628499723,None,734.3364628499723,None,734.3364628499723,None,734.3364628499723,None,734.3364628499723,None,734.3381921999971,None,734.3381921999971,None,734.3381921999971,None,0.014795550028793514,0.5147955500287935,734.3381921999971,None,734.3381921999971,None,734.3381921999971,None,734.3381921999971,None,734.3381921999971,None,734.3381921999971,None,736.301748799975,736.301748799975,-47.3,2.582,-1600,-1550,-1800,,,,,,,,,,,,,,,,,,,,,,,,,,,,,,,,,,,,,,,,,,,,,,,,,,,,,,,,,,,,,,,,,,,,,,,,,,,,,f,22,chengyi,2022_Apr_12_0839,experiment3,2021.1.4,30.0134009842546,
70,0,0,-200,two,0,0,-200,,,,,0,62,62,69,,,,,,,,,,,g,1.8203467999701388,738.9724759999663,None,738.9724759999663,None,740.8340424000053,None,740.8340424000053,None,740.8340424000053,None,742.8007902000099,743.3002689999994,742.8007902000099,743.3002689999994,742.8007902000099,743.3002689999994,740.8340424000053,None,743.3333168499987,None,743.3333168499987,None,743.3333168499987,None,0.024897050054278225,None,743.3333168499987,None,743.3333168499987,None,743.3333168499987,None,743.3333168499987,None,743.3333168499987,None,743.3333168499987,None,743.3323856000206,None,743.3323856000206,None,743.3323856000206,None,0.01779775001341477,0.5177977500134148,743.3323856000206,None,743.3323856000206,None,743.3323856000206,None,743.3323856000206,None,743.3323856000206,None,743.3323856000206,None,745.3182857999927,745.3182857999927,-44.1,4.879,-1600,-1550,-2000,,,,,,,,,,,,,,,,,,,,,,,,,,,,,,,,,,,,,,,,,,,,,,,,,,,,,,,,,,,,,,,,,,,,,,,,,,,,,f,22,chengyi,2022_Apr_12_0839,experiment3,2021.1.4,30.0134009842546,
1,0,50,200,one,0,50,200,,,,,0,63,63,0,,,,,,,,,,,g,1.2683392000035383,750.2660278999829,None,750.2660278999829,None,751.5876211000141,None,751.5876211000141,None,751.5876211000141,None,753.5270643999684,754.0335654999944,753.5270643999684,754.0335654999944,753.5270643999684,754.0335654999944,751.5876211000141,None,754.0970965499757,None,754.0970965499757,None,754.0970965499757,None,0.027719149948097765,None,754.0970965499757,None,754.0970965499757,None,754.0970965499757,None,754.0970965499757,None,754.0970965499757,None,754.0970965499757,None,754.0969085000106,None,754.0969085000106,None,754.0969085000106,None,0.02018914994550869,0.5201891499455087,754.0969085000106,None,754.0969085000106,None,754.0969085000106,None,754.0969085000106,None,754.0969085000106,None,754.0969085000106,None,756.080853499996,756.080853499996,-43.8,3.978,-1600,-1500,-1800,,,,,,,,,,,,,,,,,,,,,,,,,,,,,,,,,,,,,,,,,,,,,,,,,,,,,,,,,,,,,,,,,,,,,,,,,,,,,f,22,chengyi,2022_Apr_12_0839,experiment3,2021.1.4,30.0134009842546,
89,-200,-150,-200,one,-200,-150,-200,,,,,0,64,64,88,,,,,,,,,,,g,1.8256477999966592,760.1185012999922,None,760.1185012999922,None,762.0040607000119,None,762.0040607000119,None,762.0040607000119,None,763.9795575999888,764.4794852000196,763.9795575999888,764.4794852000196,763.9795575999888,764.4794852000196,762.0040607000119,None,764.5125330500189,None,764.5125330500189,None,764.5125330500189,None,0.027304250048473477,None,764.5125330500189,None,764.5125330500189,None,764.5125330500189,None,764.5125330500189,None,764.5125330500189,None,764.5125330500189,None,764.5118304999778,None,764.5118304999778,None,764.5118304999778,None,0.02051474998006597,0.520514749980066,764.5118304999778,None,764.5118304999778,None,764.5118304999778,None,764.5118304999778,None,764.5118304999778,None,764.5118304999778,None,766.4955828000093,766.4955828000093,-44.6,2.817,-1800,-1650,-2000,,,,,,,,,,,,,,,,,,,,,,,,,,,,,,,,,,,,,,,,,,,,,,,,,,,,,,,,,,,,,,,,,,,,,,,,,,,,,f,22,chengyi,2022_Apr_12_0839,experiment3,2021.1.4,30.0134009842546,
91,-200,-200,0,two,-200,-200,0,,,,,0,65,65,90,,,,,,,,,,,g,5.302452699979767,769.3939082999714,None,769.3939082999714,None,774.7516104999813,None,774.7516104999813,None,774.7516104999813,None,776.727041199978,None,776.727041199978,None,776.727041199978,None,774.7516104999813,None,777.2597440499696,None,777.2597440499696,None,777.2597440499696,None,0.025130850030109286,None,777.2597440499696,None,777.2597440499696,None,777.2597440499696,None,777.2597440499696,None,777.2597440499696,None,777.2597440499696,None,777.2589735999936,None,777.2589735999936,None,777.2589735999936,None,0.018230649933684617,0.5182306499336846,777.2589735999936,None,777.2589735999936,None,777.2589735999936,None,777.2589735999936,None,777.2589735999936,None,777.2589735999936,None,779.2411805000156,779.2411805000156,-33.7,6.985,-2000,-1850,-2000,,,,,,,,,,,,,,,,,,,,,,,,,,,,,,,,,,,,,,,,,,,,,,,,,,,,,,,,,,,,,,,,,,,,,,,,,,,,,f,22,chengyi,2022_Apr_12_0839,experiment3,2021.1.4,30.0134009842546,
62,0,-150,0,one,0,-150,0,,,,,0,66,66,61,,,,,,,,,,,g,2.4706789000192657,786.2892567999661,None,786.2892567999661,None,788.8079893999966,None,788.8079893999966,None,788.8079893999966,None,790.7803224999807,791.280920899997,790.7803224999807,791.280920899997,790.7803224999807,791.280920899997,788.8079893999966,None,791.3139687499963,None,791.3139687499963,None,791.3139687499963,None,0.020245850028004497,None,791.3139687499963,None,791.3139687499963,None,791.3139687499963,None,791.3139687499963,None,791.3139687499963,None,791.3139687499963,None,791.3311202999903,None,791.3311202999903,None,791.3311202999903,None,0.006666750006843358,0.5066667500068434,791.3311202999903,None,791.3311202999903,None,791.3311202999903,None,791.3311202999903,None,791.3311202999903,None,791.3311202999903,None,793.3071762999753,793.3071762999753,-37.3,4.202,-2000,-2000,-2000,,,,,,,,,,,,,,,,,,,,,,,,,,,,,,,,,,,,,,,,,,,,,,,,,,,,,,,,,,,,,,,,,,,,,,,,,,,,,f,22,chengyi,2022_Apr_12_0839,experiment3,2021.1.4,30.0134009842546,
2,0,200,50,one,0,200,50,,,,,0,67,67,1,,,,,,,,,,,g,3.159895899996627,797.5747516999836,None,797.5747516999836,None,800.7664324999787,None,800.7664324999787,None,800.7664324999787,None,802.7514694000129,None,802.7514694000129,None,802.7514694000129,None,800.7664324999787,None,803.2830336500076,None,803.2830336500076,None,803.2830336500076,None,0.01636955002322793,None,803.2830336500076,None,803.2830336500076,None,803.2830336500076,None,803.2830336500076,None,803.2830336500076,None,803.2830336500076,None,803.3063868000172,None,803.3063868000172,None,803.3063868000172,None,0.0015785500290803611,0.5015785500290804,803.3063868000172,None,803.3063868000172,None,803.3063868000172,None,803.3063868000172,None,803.3063868000172,None,803.3063868000172,None,805.2890605999855,805.2890605999855,7.299999999999997,4.131,-2000,-1800,-1950,,,,,,,,,,,,,,,,,,,,,,,,,,,,,,,,,,,,,,,,,,,,,,,,,,,,,,,,,,,,,,,,,,,,,,,,,,,,,f,22,chengyi,2022_Apr_12_0839,experiment3,2021.1.4,30.0134009842546,
40,200,200,50,one,200,200,50,,,,,0,68,68,39,,,,,,,,,,,g,2.3483975999988616,809.4957960000029,None,809.4957960000029,None,811.9141029000166,None,811.9141029000166,None,811.9141029000166,None,813.8425709999865,814.3775091000134,813.8425709999865,814.3775091000134,813.8425709999865,814.3775091000134,811.9141029000166,None,814.4105569500127,None,814.4105569500127,None,814.4105569500127,None,0.015175750013440847,None,814.4105569500127,None,814.4105569500127,None,814.4105569500127,None,814.4105569500127,None,814.4105569500127,None,814.4105569500127,None,814.4234492999967,None,814.4234492999967,None,814.4234492999967,None,0.003744149988051504,0.5037441499880515,814.4234492999967,None,814.4234492999967,None,814.4234492999967,None,814.4234492999967,None,814.4234492999967,None,814.4234492999967,None,816.4036055000033,816.4036055000033,-48.0,3.455,-1800,-1600,-1900,,,,,,,,,,,,,,,,,,,,,,,,,,,,,,,,,,,,,,,,,,,,,,,,,,,,,,,,,,,,,,,,,,,,,,,,,,,,,f,22,chengyi,2022_Apr_12_0839,experiment3,2021.1.4,30.0134009842546,
27,50,50,200,one,50,50,200,,,,,0,69,69,26,,,,,,,,,,,g,2.934826000011526,819.9360509999678,None,819.9360509999678,None,822.9039813000127,None,822.9039813000127,None,822.9039813000127,None,824.8677572999732,825.4052500000107,824.8677572999732,825.4052500000107,824.8677572999732,825.4052500000107,822.9039813000127,None,825.43829785001,None,825.43829785001,None,825.43829785001,None,0.01718735002214089,None,825.43829785001,None,825.43829785001,None,825.43829785001,None,825.43829785001,None,825.43829785001,None,825.43829785001,None,825.4561885999865,None,825.4561885999865,None,825.4561885999865,None,0.001034350018016994,0.501034350018017,825.4561885999865,None,825.4561885999865,None,825.4561885999865,None,825.4561885999865,None,825.4561885999865,None,825.4561885999865,None,827.4737889499986,None,-41.3,9.401,-1750,-1550,-1700,,,,,,,,,,,,,,,,,,,,,,,,,,,,,,,,,,,,,,,,,,,,,,,,,,,,,,,,,,,,,,,,,,,,,,,,,,,,,f,22,chengyi,2022_Apr_12_0839,experiment3,2021.1.4,30.0134009842546,
92,-200,0,-200,two,-200,0,-200,,,,,0,70,70,91,,,,,,,,,,,g,2.2740194000070915,836.928275000013,None,836.928275000013,None,839.2646213999833,None,839.2646213999833,None,839.2646213999833,None,841.2310309999739,841.7307957999874,841.2310309999739,841.7307957999874,841.2310309999739,841.7307957999874,839.2646213999833,None,841.7638436499867,None,841.7638436499867,None,841.7638436499867,None,0.025842149974778295,None,841.7638436499867,None,841.7638436499867,None,841.7638436499867,None,841.7638436499867,None,841.7638436499867,None,841.7638436499867,None,841.7635369999916,None,841.7635369999916,None,841.7635369999916,None,0.01845424994826317,0.5184542499482632,841.7635369999916,None,841.7635369999916,None,841.7635369999916,None,841.7635369999916,None,841.7635369999916,None,841.7635369999916,None,843.7473579999642,843.7473579999642,-12.700000000000003,5.06,-1950,-1550,-1900,,,,,,,,,,,,,,,,,,,,,,,,,,,,,,,,,,,,,,,,,,,,,,,,,,,,,,,,,,,,,,,,,,,,,,,,,,,,,f,22,chengyi,2022_Apr_12_0839,experiment3,2021.1.4,30.0134009842546,
24,200,0,0,two,200,0,0,,,,,0,71,71,23,,,,,,,,,,,g,8.3384266999783,848.8644942999817,None,848.8644942999817,None,857.2444930999773,None,857.2444930999773,None,857.2444930999773,None,859.2233313000179,None,859.2233313000179,None,859.2233313000179,None,857.2444930999773,None,859.7442857500166,None,859.7442857500166,None,859.7442857500166,None,0.02420745004201308,None,859.7442857500166,None,859.7442857500166,None,859.7442857500166,None,859.7442857500166,None,859.7442857500166,None,859.7442857500166,None,859.7433331999928,None,859.7433331999928,None,859.7433331999928,None,0.015780250017996877,0.5157802500179969,859.7433331999928,None,859.7433331999928,None,859.7433331999928,None,859.7433331999928,None,859.7433331999928,None,859.7433331999928,None,861.7268801999744,861.7268801999744,-33.7,8.444,-1750,-1550,-1900,,,,,,,,,,,,,,,,,,,,,,,,,,,,,,,,,,,,,,,,,,,,,,,,,,,,,,,,,,,,,,,,,,,,,,,,,,,,,f,22,chengyi,2022_Apr_12_0839,experiment3,2021.1.4,30.0134009842546,
14,0,50,0,one,0,50,0,,,,,0,72,72,13,,,,,,,,,,,g,5.184887400013395,870.2422132000211,None,870.2422132000211,None,875.4911616999889,None,875.4911616999889,None,875.4911616999889,None,877.4574088999652,877.9602837999701,877.4574088999652,877.9602837999701,877.4574088999652,877.9602837999701,875.4911616999889,None,877.9933316499694,None,877.9933316499694,None,877.9933316499694,None,0.025257150002289563,None,877.9933316499694,None,877.9933316499694,None,877.9933316499694,None,877.9933316499694,None,877.9933316499694,None,877.9933316499694,None,877.9923195000156,None,877.9923195000156,None,877.9923195000156,None,0.016246049955952913,0.5162460499559529,877.9923195000156,None,877.9923195000156,None,877.9923195000156,None,877.9923195000156,None,877.9923195000156,None,877.9923195000156,None,879.9609933000174,879.9609933000174,-13.799999999999997,5.459,-1750,-1500,-1900,,,,,,,,,,,,,,,,,,,,,,,,,,,,,,,,,,,,,,,,,,,,,,,,,,,,,,,,,,,,,,,,,,,,,,,,,,,,,f,22,chengyi,2022_Apr_12_0839,experiment3,2021.1.4,30.0134009842546,
65,0,-200,0,one,0,-200,0,,,,,0,73,73,64,,,,,,,,,,,g,4.236047699989285,885.4875449999818,None,885.4875449999818,None,889.792154899973,None,889.792154899973,None,889.792154899973,None,891.7440035999753,892.2710592999938,891.7440035999753,892.2710592999938,891.7440035999753,892.2710592999938,889.792154899973,None,892.3041071499931,None,892.3041071499931,None,892.3041071499931,None,0.027461849967949092,None,892.3041071499931,None,892.3041071499931,None,892.3041071499931,None,892.3041071499931,None,892.3041071499931,None,892.3041071499931,None,892.3035317999893,None,892.3035317999893,None,892.3035317999893,None,0.020524550054688007,0.520524550054688,892.3035317999893,None,892.3035317999893,None,892.3035317999893,None,892.3035317999893,None,892.3035317999893,None,892.3035317999893,None,894.2874408999924,894.2874408999924,-7.299999999999997,3.631,-1750,-1700,-1900,,,,,,,,,,,,,,,,,,,,,,,,,,,,,,,,,,,,,,,,,,,,,,,,,,,,,,,,,,,,,,,,,,,,,,,,,,,,,f,22,chengyi,2022_Apr_12_0839,experiment3,2021.1.4,30.0134009842546,
47,200,50,200,two,200,50,200,,,,,0,74,74,46,,,,,,,,,,,g,2.5983051999937743,897.9743488999666,None,897.9743488999666,None,900.6030493999715,None,900.6030493999715,None,900.6030493999715,None,902.569071099977,903.0853358000168,902.569071099977,903.0853358000168,902.569071099977,903.0853358000168,900.6030493999715,None,903.1183836500161,None,903.1183836500161,None,903.1183836500161,None,0.026984550000634044,None,903.1183836500161,None,903.1183836500161,None,903.1183836500161,None,903.1183836500161,None,903.1183836500161,None,903.1183836500161,None,903.1185724000097,None,903.1185724000097,None,903.1185724000097,None,0.019234050007071346,0.5192340500070713,903.1185724000097,None,903.1185724000097,None,903.1185724000097,None,903.1185724000097,None,903.1185724000097,None,903.1185724000097,None,905.1042823999887,905.1042823999887,3.1000000000000014,3.536,-1550,-1650,-1700,,,,,,,,,,,,,,,,,,,,,,,,,,,,,,,,,,,,,,,,,,,,,,,,,,,,,,,,,,,,,,,,,,,,,,,,,,,,,f,22,chengyi,2022_Apr_12_0839,experiment3,2021.1.4,30.0134009842546,
95,-200,-150,-200,two,-200,-150,-200,,,,,0,75,75,94,,,,,,,,,,,g,2.542630599986296,908.7353655999759,None,908.7353655999759,None,911.317746500019,None,911.317746500019,None,911.317746500019,None,913.2600658999872,913.7837057000143,913.2600658999872,913.7837057000143,913.2600658999872,913.7837057000143,911.317746500019,None,913.8167535500136,None,913.8167535500136,None,913.8167535500136,None,0.022330550069455057,None,913.8167535500136,None,913.8167535500136,None,913.8167535500136,None,913.8167535500136,None,913.8167535500136,None,913.8167535500136,None,913.8473449000157,None,913.8473449000157,None,913.8473449000157,None,0.004718750016763806,0.5047187500167638,913.8473449000157,None,913.8473449000157,None,913.8473449000157,None,913.8473449000157,None,913.8473449000157,None,913.8473449000157,None,915.834710199968,915.834710199968,3.5,8.82,-1750,-1800,-1900,,,,,,,,,,,,,,,,,,,,,,,,,,,,,,,,,,,,,,,,,,,,,,,,,,,,,,,,,,,,,,,,,,,,,,,,,,,,,f,22,chengyi,2022_Apr_12_0839,experiment3,2021.1.4,30.0134009842546,
52,-150,-200,0,one,-150,-200,0,,,,,0,76,76,51,,,,,,,,,,,g,5.45727239997359,924.7303128999774,None,924.7303128999774,None,930.2305311000091,None,930.2305311000091,None,930.2305311000091,None,932.1691937000141,932.6905462999712,932.1691937000141,932.6905462999712,932.1691937000141,932.6905462999712,930.2305311000091,None,932.7630620499724,None,932.7630620499724,None,932.7630620499724,None,0.02715275000082329,None,932.7630620499724,None,932.7630620499724,None,932.7630620499724,None,932.7630620499724,None,932.7630620499724,None,932.7630620499724,None,932.7622954999679,None,932.7622954999679,None,932.7622954999679,None,0.020425149938091636,0.5204251499380916,932.7622954999679,None,932.7622954999679,None,932.7622954999679,None,932.7622954999679,None,932.7622954999679,None,932.7622954999679,None,934.727472700004,934.727472700004,-1.0,22.103,-1900,-2000,-1900,,,,,,,,,,,,,,,,,,,,,,,,,,,,,,,,,,,,,,,,,,,,,,,,,,,,,,,,,,,,,,,,,,,,,,,,,,,,,f,22,chengyi,2022_Apr_12_0839,experiment3,2021.1.4,30.0134009842546,
6,200,0,50,one,200,0,50,,,,,0,77,77,5,,,,,,,,,,,g,4.522747099981643,956.9264978999854,None,956.9264978999854,None,961.4826716000098,None,961.4826716000098,None,961.4826716000098,None,963.4404979000101,963.957372099976,963.4404979000101,963.957372099976,963.4404979000101,963.957372099976,961.4826716000098,None,963.9904199499754,None,963.9904199499754,None,963.9904199499754,None,0.025443749967962503,None,963.9904199499754,None,963.9904199499754,None,963.9904199499754,None,963.9904199499754,None,963.9904199499754,None,963.9904199499754,None,963.9897331999964,None,963.9897331999964,None,963.9897331999964,None,0.01780644996324554,0.5178064499632455,963.9897331999964,None,963.9897331999964,None,963.9897331999964,None,963.9897331999964,None,963.9897331999964,None,963.9897331999964,None,965.9739508000202,965.9739508000202,16.0,5.965,-1700,-2000,-1850,,,,,,,,,,,,,,,,,,,,,,,,,,,,,,,,,,,,,,,,,,,,,,,,,,,,,,,,,,,,,,,,,,,,,,,,,,,,,f,22,chengyi,2022_Apr_12_0839,experiment3,2021.1.4,30.0134009842546,
26,50,200,50,one,50,200,50,,,,,0,78,78,25,,,,,,,,,,,g,8.286797099979594,972.0066215000115,None,972.0066215000115,None,980.318212800019,None,980.318212800019,None,980.318212800019,None,982.2907935999683,982.785573399975,982.2907935999683,982.785573399975,982.2907935999683,982.785573399975,980.318212800019,None,982.8186212499743,None,982.8186212499743,None,982.8186212499743,None,0.020463950000703335,None,982.8186212499743,None,982.8186212499743,None,982.8186212499743,None,982.8186212499743,None,982.8186212499743,None,982.8186212499743,None,982.8225710999686,None,982.8225710999686,None,982.8225710999686,None,0.0115943499840796,0.5115943499840796,982.8225710999686,None,982.8225710999686,None,982.8225710999686,None,982.8225710999686,None,982.8225710999686,None,982.8225710999686,None,984.8222528499784,None,14.099999999999994,11.436,-1650,-1800,-1800,,,,,,,,,,,,,,,,,,,,,,,,,,,,,,,,,,,,,,,,,,,,,,,,,,,,,,,,,,,,,,,,,,,,,,,,,,,,,f,22,chengyi,2022_Apr_12_0839,experiment3,2021.1.4,30.0134009842546,
43,200,200,0,two,200,200,0,,,,,0,79,79,42,,,,,,,,,,,g,3.9292888999916613,996.2840371999773,None,996.2840371999773,None,1000.2737924999674,None,1000.2737924999674,None,1000.2737924999674,None,1002.2330186999752,1002.7507593000191,1002.2330186999752,1002.7507593000191,1002.2330186999752,1002.7507593000191,1000.2737924999674,None,1002.7838071500184,None,1002.7838071500184,None,1002.7838071500184,None,0.021403850056231022,None,1002.7838071500184,None,1002.7838071500184,None,1002.7838071500184,None,1002.7838071500184,None,1002.7838071500184,None,1002.7838071500184,None,1002.8040775000118,None,1002.8040775000118,None,1002.8040775000118,None,0.007278250064700842,0.5072782500647008,1002.8040775000118,None,1002.8040775000118,None,1002.8040775000118,None,1002.8040775000118,None,1002.8040775000118,None,1002.8040775000118,None,1004.7835220000125,1004.7835220000125,-6.200000000000003,6.712,-1450,-1600,-1800,,,,,,,,,,,,,,,,,,,,,,,,,,,,,,,,,,,,,,,,,,,,,,,,,,,,,,,,,,,,,,,,,,,,,,,,,,,,,f,22,chengyi,2022_Apr_12_0839,experiment3,2021.1.4,30.0134009842546,
34,0,50,50,two,0,50,50,,,,,0,80,80,33,,,,,,,,,,,g,9.628751099982765,1011.5653710999759,None,1011.5653710999759,None,1021.2283431999967,None,1021.2283431999967,None,1021.2283431999967,None,1023.2127766999765,1023.7120810999768,1023.2127766999765,1023.7120810999768,1023.2127766999765,1023.7120810999768,1021.2283431999967,None,1023.7451289499761,None,1023.7451289499761,None,1023.7451289499761,None,0.027400849969126284,None,1023.7451289499761,None,1023.7451289499761,None,1023.7451289499761,None,1023.7451289499761,None,1023.7451289499761,None,1023.7451289499761,None,1023.7445617999765,None,1023.7445617999765,None,1023.7445617999765,None,0.02063064998947084,0.5206306499894708,1023.7445617999765,None,1023.7445617999765,None,1023.7445617999765,None,1023.7445617999765,None,1023.7445617999765,None,1023.7445617999765,None,1025.7222246999736,1025.7222246999736,10.399999999999999,10.547,-1450,-1550,-1750,,,,,,,,,,,,,,,,,,,,,,,,,,,,,,,,,,,,,,,,,,,,,,,,,,,,,,,,,,,,,,,,,,,,,,,,,,,,,f,22,chengyi,2022_Apr_12_0839,experiment3,2021.1.4,30.0134009842546,
50,0,-200,-150,one,0,-200,-150,,,,,0,81,81,49,,,,,,,,,,,g,8.716515199979767,1036.366370200005,None,1036.366370200005,None,1045.1414714999846,None,1045.1414714999846,None,1045.1414714999846,None,1047.1064568000147,1047.6240703999647,1047.1064568000147,1047.6240703999647,1047.1064568000147,1047.6240703999647,1045.1414714999846,None,1047.657118249964,None,1047.657118249964,None,1047.657118249964,None,0.027236349938903004,None,1047.657118249964,None,1047.657118249964,None,1047.657118249964,None,1047.657118249964,None,1047.657118249964,None,1047.657118249964,None,1047.6568720000214,None,1047.6568720000214,None,1047.6568720000214,None,0.02068394992966205,0.520683949929662,1047.6568720000214,None,1047.6568720000214,None,1047.6568720000214,None,1047.6568720000214,None,1047.6568720000214,None,1047.6568720000214,None,1049.6238973999862,1049.6238973999862,10.399999999999999,5.655,-1450,-1750,-1900,,,,,,,,,,,,,,,,,,,,,,,,,,,,,,,,,,,,,,,,,,,,,,,,,,,,,,,,,,,,,,,,,,,,,,,,,,,,,f,22,chengyi,2022_Apr_12_0839,experiment3,2021.1.4,30.0134009842546,
31,200,50,50,two,200,50,50,,,,,0,82,82,30,,,,,,,,,,,g,10.379855200008024,1055.3375518000103,None,1055.3375518000103,None,1065.7639676000108,None,1065.7639676000108,None,1065.7639676000108,None,1067.7413593999809,1068.2535626000026,1067.7413593999809,1068.2535626000026,1067.7413593999809,1068.2535626000026,1065.7639676000108,None,1068.286610450002,None,1068.286610450002,None,1068.286610450002,None,0.027240749972406775,None,1068.286610450002,None,1068.286610450002,None,1068.286610450002,None,1068.286610450002,None,1068.286610450002,None,1068.286610450002,None,1068.2861066000187,None,1068.2861066000187,None,1068.2861066000187,None,0.020711049961391836,0.5207110499613918,1068.2861066000187,None,1068.2861066000187,None,1068.2861066000187,None,1068.2861066000187,None,1068.2861066000187,None,1068.2861066000187,None,1070.2763534999685,1070.2763534999685,2.3999999999999986,4.945,-1250,-1700,-1850,,,,,,,,,,,,,,,,,,,,,,,,,,,,,,,,,,,,,,,,,,,,,,,,,,,,,,,,,,,,,,,,,,,,,,,,,,,,,f,22,chengyi,2022_Apr_12_0839,experiment3,2021.1.4,30.0134009842546,
15,50,0,0,one,50,0,0,,,,,0,83,83,14,,,,,,,,,,,g,3.1148006999865174,1075.2844786000205,None,1075.2844786000205,None,1078.4356985000195,None,1078.4356985000195,None,1078.4356985000195,None,1080.4016531999805,1080.9025380999665,1080.4016531999805,1080.9025380999665,1080.4016531999805,1080.9025380999665,1078.4356985000195,None,1080.9355859499658,None,1080.9355859499658,None,1080.9355859499658,None,0.018827749940101057,None,1080.9355859499658,None,1080.9355859499658,None,1080.9355859499658,None,1080.9355859499658,None,1080.9355859499658,None,1080.9355859499658,None,1080.954848799971,None,1080.954848799971,None,1080.954848799971,None,0.003996849991381168,0.5039968499913812,1080.954848799971,None,1080.954848799971,None,1080.954848799971,None,1080.954848799971,None,1080.954848799971,None,1080.954848799971,None,1082.928129500011,1082.928129500011,8.899999999999999,17.466,-1200,-1700,-1850,,,,,,,,,,,,,,,,,,,,,,,,,,,,,,,,,,,,,,,,,,,,,,,,,,,,,,,,,,,,,,,,,,,,,,,,,,,,,f,22,chengyi,2022_Apr_12_0839,experiment3,2021.1.4,30.0134009842546,
54,-200,0,-150,one,-200,0,-150,,,,,0,84,84,53,,,,,,,,,,,g,3.4859164000372402,1100.4652185000014,None,1100.4652185000014,None,1103.997319200018,None,1103.997319200018,None,1103.997319200018,None,1105.9628820000216,1106.4627982999664,1105.9628820000216,1106.4627982999664,1105.9628820000216,1106.4627982999664,1103.997319200018,None,1106.5291614499758,None,1106.5291614499758,None,1106.5291614499758,None,0.02754514996195212,None,1106.5291614499758,None,1106.5291614499758,None,1106.5291614499758,None,1106.5291614499758,None,1106.5291614499758,None,1106.5291614499758,None,1106.5285372000071,None,1106.5285372000071,None,1106.5285372000071,None,0.020068650017492473,0.5200686500174925,1106.5285372000071,None,1106.5285372000071,None,1106.5285372000071,None,1106.5285372000071,None,1106.5285372000071,None,1106.5285372000071,None,1108.4959724000073,1108.4959724000073,-6.600000000000001,12.622,-1400,-1700,-2000,,,,,,,,,,,,,,,,,,,,,,,,,,,,,,,,,,,,,,,,,,,,,,,,,,,,,,,,,,,,,,,,,,,,,,,,,,,,,f,22,chengyi,2022_Apr_12_0839,experiment3,2021.1.4,30.0134009842546,
29,50,0,50,one,50,0,50,,,,,0,85,85,28,,,,,,,,,,,g,3.670996800006833,1121.1811305999872,None,1121.1811305999872,None,1124.908863299992,None,1124.908863299992,None,1124.908863299992,None,1126.8753123999923,1127.363251600007,1126.8753123999923,1127.363251600007,1126.8753123999923,1127.363251600007,1124.908863299992,None,1127.4336817500182,None,1127.4336817500182,None,1127.4336817500182,None,0.019209050049539655,None,1127.4336817500182,None,1127.4336817500182,None,1127.4336817500182,None,1127.4336817500182,None,1127.4336817500182,None,1127.4336817500182,None,1127.4527344999951,None,1127.4527344999951,None,1127.4527344999951,None,0.005169050069525838,0.5051690500695258,1127.4527344999951,None,1127.4527344999951,None,1127.4527344999951,None,1127.4527344999951,None,1127.4527344999951,None,1127.4527344999951,None,1129.4249143999768,1129.4249143999768,5.899999999999999,6.846,-1350,-1700,-1950,,,,,,,,,,,,,,,,,,,,,,,,,,,,,,,,,,,,,,,,,,,,,,,,,,,,,,,,,,,,,,,,,,,,,,,,,,,,,f,22,chengyi,2022_Apr_12_0839,experiment3,2021.1.4,30.0134009842546,
58,-150,-200,0,two,-150,-200,0,,,,,0,86,86,57,,,,,,,,,,,g,4.4494394000503235,1136.3264038999914,None,1136.3264038999914,None,1140.8394018000108,None,1140.8394018000108,None,1140.8394018000108,None,1142.8056584000005,1143.3056168999756,1142.8056584000005,1143.3056168999756,1142.8056584000005,1143.3056168999756,1140.8394018000108,None,1143.338664749975,None,1143.338664749975,None,1143.338664749975,None,0.025240550050511956,None,1143.338664749975,None,1143.338664749975,None,1143.338664749975,None,1143.338664749975,None,1143.338664749975,None,1143.338664749975,None,1143.3379032000084,None,1143.3379032000084,None,1143.3379032000084,None,0.01815805002115667,0.5181580500211567,1143.3379032000084,None,1143.3379032000084,None,1143.3379032000084,None,1143.3379032000084,None,1143.3379032000084,None,1143.3379032000084,None,1145.306224400003,1145.306224400003,-0.29999999999999716,15.923,-1500,-1900,-1950,,,,,,,,,,,,,,,,,,,,,,,,,,,,,,,,,,,,,,,,,,,,,,,,,,,,,,,,,,,,,,,,,,,,,,,,,,,,,f,22,chengyi,2022_Apr_12_0839,experiment3,2021.1.4,30.0134009842546,
9,50,0,200,two,50,0,200,,,,,0,87,87,8,,,,,,,,,,,g,5.942724100023042,1161.2902437999728,None,1161.2902437999728,None,1167.2844866999658,None,1167.2844866999658,None,1167.2844866999658,None,1169.2338449999806,1169.7160855999682,1169.2338449999806,1169.7160855999682,1169.2338449999806,1169.7160855999682,1167.2844866999658,None,1169.830482950015,None,1169.830482950015,None,1169.830482950015,None,0.016167150053661317,None,1169.830482950015,None,1169.830482950015,None,1169.830482950015,None,1169.830482950015,None,1169.830482950015,None,1169.830482950015,None,1169.85395650001,None,1169.85395650001,None,1169.85395650001,None,0.031188600056339055,0.531188600056339,1169.85395650001,None,1169.85395650001,None,1169.85395650001,None,1169.85395650001,None,1169.85395650001,None,1169.85395650001,None,1171.8171401,1171.8171401,2.5,3.853,-1450,-1900,-1750,,,,,,,,,,,,,,,,,,,,,,,,,,,,,,,,,,,,,,,,,,,,,,,,,,,,,,,,,,,,,,,,,,,,,,,,,,,,,f,22,chengyi,2022_Apr_12_0839,experiment3,2021.1.4,30.0134009842546,
90,-150,-200,-200,one,-150,-200,-200,,,,,0,88,88,89,,,,,,,,,,,g,8.662642599956598,1175.7606723000063,None,1175.7606723000063,None,1184.4522767000017,None,1184.4522767000017,None,1184.4522767000017,None,1186.431671999977,None,1186.431671999977,None,1186.431671999977,None,1184.4522767000017,None,1186.9635158500053,None,1186.9635158500053,None,1186.9635158500053,None,0.025057349994312972,None,1186.9635158500053,None,1186.9635158500053,None,1186.9635158500053,None,1186.9635158500053,None,1186.9635158500053,None,1186.9635158500053,None,1186.9626635999884,None,1186.9626635999884,None,1186.9626635999884,None,0.01760224997997284,0.5176022499799728,1186.9626635999884,None,1186.9626635999884,None,1186.9626635999884,None,1186.9626635999884,None,1186.9626635999884,None,1186.9626635999884,None,1188.9466332999873,1188.9466332999873,-2.700000000000003,10.37,-1600,-2100,-1950,,,,,,,,,,,,,,,,,,,,,,,,,,,,,,,,,,,,,,,,,,,,,,,,,,,,,,,,,,,,,,,,,,,,,,,,,,,,,f,22,chengyi,2022_Apr_12_0839,experiment3,2021.1.4,30.0134009842546,
23,0,200,0,two,0,200,0,,,,,0,89,89,22,,,,,,,,,,,g,2.204390599974431,1199.3984840000048,None,1199.3984840000048,None,1201.660723900015,None,1201.660723900015,None,1201.660723900015,None,1203.6271744999685,1204.1360870000208,1203.6271744999685,1204.1360870000208,1203.6271744999685,1204.1360870000208,1201.660723900015,None,1204.16913485002,None,1204.16913485002,None,1204.16913485002,None,0.01735935005126521,None,1204.16913485002,None,1204.16913485002,None,1204.16913485002,None,1204.16913485002,None,1204.16913485002,None,1204.16913485002,None,1204.1953537999652,None,1204.1953537999652,None,1204.1953537999652,None,0.0006489500519819558,0.500648950051982,1204.1953537999652,None,1204.1953537999652,None,1204.1953537999652,None,1204.1953537999652,None,1204.1953537999652,None,1204.1953537999652,None,1206.2001339499723,None,2.3999999999999986,9.725,-1600,-1900,-1950,,,,,,,,,,,,,,,,,,,,,,,,,,,,,,,,,,,,,,,,,,,,,,,,,,,,,,,,,,,,,,,,,,,,,,,,,,,,,f,22,chengyi,2022_Apr_12_0839,experiment3,2021.1.4,30.0134009842546,
45,0,200,200,two,0,200,200,,,,,0,90,90,44,,,,,,,,,,,g,7.089881299994886,1215.9709966999944,None,1215.9709966999944,None,1223.1232813000097,None,1223.1232813000097,None,1223.1232813000097,None,1225.0629254999803,1225.5583061000216,1225.0629254999803,1225.5583061000216,1225.0629254999803,1225.5583061000216,1223.1232813000097,None,1225.6225192500162,None,1225.6225192500162,None,1225.6225192500162,None,0.02469165006186813,None,1225.6225192500162,None,1225.6225192500162,None,1225.6225192500162,None,1225.6225192500162,None,1225.6225192500162,None,1225.6225192500162,None,1225.6217729999917,None,1225.6217729999917,None,1225.6217729999917,None,0.017782750073820353,0.5177827500738204,1225.6217729999917,None,1225.6217729999917,None,1225.6217729999917,None,1225.6217729999917,None,1225.6217729999917,None,1225.6217729999917,None,1227.58923589997,1227.58923589997,11.899999999999999,5.591,-1600,-1700,-1750,,,,,,,,,,,,,,,,,,,,,,,,,,,,,,,,,,,,,,,,,,,,,,,,,,,,,,,,,,,,,,,,,,,,,,,,,,,,,f,22,chengyi,2022_Apr_12_0839,experiment3,2021.1.4,30.0134009842546,
39,0,200,200,one,0,200,200,,,,,0,91,91,38,,,,,,,,,,,g,3.04829270002665,1233.2372564999969,None,1233.2372564999969,None,1236.3105234999675,None,1236.3105234999675,None,1236.3105234999675,None,1238.2871823000023,1238.7869022999657,1238.2871823000023,1238.7869022999657,1238.2871823000023,1238.7869022999657,1236.3105234999675,None,1238.819950149965,None,1238.819950149965,None,1238.819950149965,None,0.024036350019741803,None,1238.819950149965,None,1238.819950149965,None,1238.819950149965,None,1238.819950149965,None,1238.819950149965,None,1238.819950149965,None,1238.819261799974,None,1238.819261799974,None,1238.819261799974,None,0.01723604992730543,0.5172360499273054,1238.819261799974,None,1238.819261799974,None,1238.819261799974,None,1238.819261799974,None,1238.819261799974,None,1238.819261799974,None,1240.7865344000165,1240.7865344000165,8.299999999999997,2.853,-1600,-1500,-1550,,,,,,,,,,,,,,,,,,,,,,,,,,,,,,,,,,,,,,,,,,,,,,,,,,,,,,,,,,,,,,,,,,,,,,,,,,,,,f,22,chengyi,2022_Apr_12_0839,experiment3,2021.1.4,30.0134009842546,
46,200,200,50,two,200,200,50,,,,,0,92,92,45,,,,,,,,,,,g,4.233261899964418,1243.6985768000013,None,1243.6985768000013,None,1247.954838500009,None,1247.954838500009,None,1247.954838500009,None,1249.9354907000088,None,1249.9354907000088,None,1249.9354907000088,None,1247.954838500009,None,1250.467613450007,None,1250.467613450007,None,1250.467613450007,None,0.025714549992699176,None,1250.467613450007,None,1250.467613450007,None,1250.467613450007,None,1250.467613450007,None,1250.467613450007,None,1250.467613450007,None,1250.4671945999726,None,1250.4671945999726,None,1250.4671945999726,None,0.019011650059837848,0.5190116500598378,1250.4671945999726,None,1250.4671945999726,None,1250.4671945999726,None,1250.4671945999726,None,1250.4671945999726,None,1250.4671945999726,None,1252.425058999972,1252.425058999972,12.200000000000003,10.494,-1400,-1300,-1500,,,,,,,,,,,,,,,,,,,,,,,,,,,,,,,,,,,,,,,,,,,,,,,,,,,,,,,,,,,,,,,,,,,,,,,,,,,,,f,22,chengyi,2022_Apr_12_0839,experiment3,2021.1.4,30.0134009842546,
44,200,0,200,two,200,0,200,,,,,0,93,93,43,,,,,,,,,,,g,5.5264817999559455,1262.9966068000067,None,1262.9966068000067,None,1268.5811188999796,None,1268.5811188999796,None,1268.5811188999796,None,1270.531993600016,1271.0863023999846,1270.531993600016,1271.0863023999846,1270.531993600016,1271.0863023999846,1268.5811188999796,None,1271.1193502499839,None,1271.1193502499839,None,1271.1193502499839,None,0.01541824999731034,None,1271.1193502499839,None,1271.1193502499839,None,1271.1193502499839,None,1271.1193502499839,None,1271.1193502499839,None,1271.1193502499839,None,1271.1546723999782,None,1271.1546723999782,None,1271.1546723999782,None,0.028669700026512146,0.5286697000265121,1271.1546723999782,None,1271.1546723999782,None,1271.1546723999782,None,1271.1546723999782,None,1271.1546723999782,None,1271.1546723999782,None,1273.113421600021,1273.113421600021,1.0,5.539,-1200,-1300,-1300,,,,,,,,,,,,,,,,,,,,,,,,,,,,,,,,,,,,,,,,,,,,,,,,,,,,,,,,,,,,,,,,,,,,,,,,,,,,,f,22,chengyi,2022_Apr_12_0839,experiment3,2021.1.4,30.0134009842546,
73,-200,-150,-150,one,-200,-150,-150,,,,,0,94,94,72,,,,,,,,,,,g,3.5981714999652468,1278.7764199000085,None,1278.7764199000085,None,1282.4088887000107,None,1282.4088887000107,None,1282.4088887000107,None,1284.3788077000063,1284.894963299972,1284.3788077000063,1284.894963299972,1284.3788077000063,1284.894963299972,1282.4088887000107,None,1284.9280111499713,None,1284.9280111499713,None,1284.9280111499713,None,0.026891050045378506,None,1284.9280111499713,None,1284.9280111499713,None,1284.9280111499713,None,1284.9280111499713,None,1284.9280111499713,None,1284.9280111499713,None,1284.9270368000143,None,1284.9270368000143,None,1284.9270368000143,None,0.019201449933461845,0.5192014499334618,1284.9270368000143,None,1284.9270368000143,None,1284.9270368000143,None,1284.9270368000143,None,1284.9270368000143,None,1284.9270368000143,None,1286.913335899997,1286.913335899997,8.799999999999997,4.45,-1400,-1450,-1450,,,,,,,,,,,,,,,,,,,,,,,,,,,,,,,,,,,,,,,,,,,,,,,,,,,,,,,,,,,,,,,,,,,,,,,,,,,,,f,22,chengyi,2022_Apr_12_0839,experiment3,2021.1.4,30.0134009842546,
