trialNumber,mychoice,otherchoice,stay,skip,pointsWon,otherScore,unobtained,choicepos,pos_1,otherscore,allowedkeyresp,trials_2.thisRepN,trials_2.thisTrialN,trials_2.thisN,trials_2.thisIndex,trials.thisRepN,trials.thisTrialN,trials.thisN,trials.thisIndex,image_2.started,image_2.stopped,key_resp_2.keys,key_resp_2.rt,key_resp_2.started,key_resp_2.stopped,key_resp_6.keys,key_resp_6.rt,key_resp_6.started,key_resp_6.stopped,text.started,text.stopped,left_3.started,left_3.stopped,middle_3.started,middle_3.stopped,right_3.started,right_3.stopped,otherleft_1.started,otherleft_1.stopped,othermiddle_1.started,othermiddle_1.stopped,otherright_1.started,otherright_1.stopped,text_2.started,text_2.stopped,left_4.started,left_4.stopped,right_4.started,right_4.stopped,middle_4.started,middle_4.stopped,ISI_3.started,ISI_3.stopped,mypick.started,mypick.stopped,otherpick.started,otherpick.stopped,residal.started,residal.stopped,otherleft_5.started,otherleft_5.stopped,othermiddle_5.started,othermiddle_5.stopped,otherright_5.started,otherright_5.stopped,left_5.started,left_5.stopped,right_5.started,right_5.stopped,middle_5.started,middle_5.stopped,ISI_5.started,ISI_5.stopped,mypick_1.started,mypick_1.stopped,otherpick_1.started,otherpick_1.stopped,residal_1.started,residal_1.stopped,otherleft_6.started,otherleft_6.stopped,othermiddle_6.started,othermiddle_6.stopped,otherright_6.started,otherright_6.stopped,text_3.started,text_3.stopped,rating,ratingrt,totalScore,othertotalScore,unobtainedScore,image_4.started,image_4.stopped,key_resp_3.keys,key_resp_3.rt,key_resp_3.started,key_resp_3.stopped,image_5.started,image_5.stopped,key_resp.keys,key_resp.rt,key_resp.started,key_resp.stopped,otherleft_3.started,otherleft_3.stopped,othermiddle_3.started,othermiddle_3.stopped,otherright_3.started,otherright_3.stopped,text_4.started,text_4.stopped,ISI_2.started,ISI_2.stopped,key_resp_4.keys,key_resp_4.rt,key_resp_4.started,key_resp_4.stopped,otherleft_4.started,otherleft_4.stopped,othermiddle_4.started,othermiddle_4.stopped,otherright_4.started,otherright_4.stopped,text_5.started,text_5.stopped,left.started,left.stopped,right.started,right.stopped,middle.started,middle.stopped,ISI.started,ISI.stopped,mypick_3.started,mypick_3.stopped,otherpick_3.started,otherpick_3.stopped,residal_3.started,residal_3.stopped,otherleft.started,otherleft.stopped,othermiddle.started,othermiddle.stopped,otherright.started,otherright.stopped,right_2.started,right_2.stopped,middle_2.started,middle_2.stopped,left_2.started,left_2.stopped,ISI_4.started,ISI_4.stopped,mypick_4.started,mypick_4.stopped,otherpick_4.started,otherpick_4.stopped,residal_4.started,residal_4.stopped,otherleft_2.started,otherleft_2.stopped,othermiddle_2.started,othermiddle_2.stopped,otherright_2.started,otherright_2.stopped,text_6.started,text_6.stopped,image_3.started,image_3.stopped,key_resp_9.keys,key_resp_9.rt,key_resp_9.started,key_resp_9.stopped,gender,age,participant,date,expName,psychopyVersion,frameRate,
,,,,,,,,,,,,,,,,,,,,41.98138339999423,None,space,16.112354000011692,41.98138339999423,None,,,,,,,,,,,,,,,,,,,,,,,,,,,,,,,,,,,,,,,,,,,,,,,,,,,,,,,,,,,,,,,,,,,,,,,,,,,,,,,,,,,,,,,,,,,,,,,,,,,,,,,,,,,,,,,,,,,,,,,,,,,,,,,,,,,,,,,,,,,,,,,,,,,,,,f,19,dongqing,2022_Apr_14_1752,experiment3,2021.1.4,59.34675835822856,
79,-200,-150,-150,two,-200,-150,-150,,,,,0,0,0,78,,,,,,,,,,,l,6.672540400002617,58.20821579999756,None,58.20821579999756,None,64.9061653999961,None,64.9061653999961,None,64.9061653999961,None,66.91190999999526,None,66.91190999999526,None,66.91190999999526,None,64.9061653999961,None,67.43266877999412,None,67.43266877999412,None,67.43266877999412,None,0.014037879998795688,None,67.43266877999412,None,67.43266877999412,None,67.43266877999412,None,67.43266877999412,None,67.43266877999412,None,67.43266877999412,None,67.44360249998863,None,67.44360249998863,None,67.44360249998863,None,0.005496379992109723,0.5054963799921097,67.44360249998863,None,67.44360249998863,None,67.44360249998863,None,67.44360249998863,None,67.44360249998863,None,67.44360249998863,None,69.43148849999125,69.43148849999125,0.0,3.433,0,-150,-150,,,,,,,,,,,,,,,,,,,,,,,,,,,,,,,,,,,,,,,,,,,,,,,,,,,,,,,,,,,,,,,,,,,,,,,,,,,,,,,,,,,f,19,dongqing,2022_Apr_14_1752,experiment3,2021.1.4,59.34675835822856,
62,0,-150,0,one,0,-150,0,,,,,0,1,1,61,,,,,,,,,,,a,5.281812000001082,72.96476379998785,None,72.96476379998785,None,78.30596230000083,None,78.30596230000083,None,78.30596230000083,None,80.27818429999752,80.78526520000014,80.27818429999752,80.78526520000014,80.27818429999752,80.78526520000014,78.30596230000083,None,80.81850897999828,None,80.81850897999828,None,80.81850897999828,None,0.00980988000810612,None,80.81850897999828,None,80.81850897999828,None,80.81850897999828,None,80.81850897999828,None,80.81850897999828,None,80.81850897999828,None,80.8305063000007,None,80.8305063000007,None,80.8305063000007,None,1.5380006516352296e-05,0.5000153800065164,80.8305063000007,None,80.8305063000007,None,80.8305063000007,None,80.8305063000007,None,80.8305063000007,None,80.8305063000007,None,82.84144068999885,None,2.799999999999997,6.76,0,-300,-150,,,,,,,,,,,,,,,,,,,,,,,,,,,,,,,,,,,,,,,,,,,,,,,,,,,,,,,,,,,,,,,,,,,,,,,,,,,,,,,,,,,f,19,dongqing,2022_Apr_14_1752,experiment3,2021.1.4,59.34675835822856,
28,0,50,50,one,0,50,50,,,,,0,2,2,27,,,,,,,,,,,g,3.471594600006938,89.65379669998947,None,89.65379669998947,None,93.15611529999296,None,93.15611529999296,None,93.15611529999296,None,95.15532049999456,None,95.15532049999456,None,95.15532049999456,None,93.15611529999296,None,95.65708968999533,None,95.65708968999533,None,95.65708968999533,None,0.010972090007271618,None,95.65708968999533,None,95.65708968999533,None,95.65708968999533,None,95.65708968999533,None,95.65708968999533,None,95.65708968999533,None,95.69225919999008,None,95.69225919999008,None,95.69225919999008,None,0.01147077999485191,0.5114707799948519,95.69225919999008,None,95.69225919999008,None,95.69225919999008,None,95.69225919999008,None,95.69225919999008,None,95.69225919999008,None,97.66862379999657,97.66862379999657,0.20000000000000284,6.192,0,-250,-100,,,,,,,,,,,,,,,,,,,,,,,,,,,,,,,,,,,,,,,,,,,,,,,,,,,,,,,,,,,,,,,,,,,,,,,,,,,,,,,,,,,f,19,dongqing,2022_Apr_14_1752,experiment3,2021.1.4,59.34675835822856,
20,0,50,0,two,0,50,0,,,,,0,3,3,19,,,,,,,,,,,g,2.4325764999957755,103.99040519999107,None,103.99040519999107,None,106.44084759999532,None,106.44084759999532,None,106.44084759999532,None,108.43170239999017,None,108.43170239999017,None,108.43170239999017,None,106.44084759999532,None,108.94383468998566,None,108.94383468998566,None,108.94383468998566,None,0.004075689997989684,None,108.94383468998566,None,108.94383468998566,None,108.94383468998566,None,108.94383468998566,None,108.94383468998566,None,108.94383468998566,None,108.96072639999329,None,108.96072639999329,None,108.96072639999329,None,0.01341147998755332,0.5134114799875533,108.96072639999329,None,108.96072639999329,None,108.96072639999329,None,108.96072639999329,None,108.96072639999329,None,108.96072639999329,None,110.93985959999554,110.93985959999554,-0.10000000000000142,6.608,0,-200,-100,,,,,,,,,,,,,,,,,,,,,,,,,,,,,,,,,,,,,,,,,,,,,,,,,,,,,,,,,,,,,,,,,,,,,,,,,,,,,,,,,,,f,19,dongqing,2022_Apr_14_1752,experiment3,2021.1.4,59.34675835822856,
10,50,200,0,two,50,200,0,,,,,0,4,4,9,,,,,,,,,,,l,3.4113610000058543,117.66961629998696,None,117.66961629998696,None,121.10920619999524,None,121.10920619999524,None,121.10920619999524,None,123.08810719999019,123.60222939999949,123.08810719999019,123.60222939999949,123.08810719999019,123.60222939999949,121.10920619999524,None,123.61885128999856,None,123.61885128999856,None,123.61885128999856,None,0.01078199001494795,None,123.61885128999856,None,123.61885128999856,None,123.61885128999856,None,123.61885128999856,None,123.61885128999856,None,123.61885128999856,None,123.63624949999212,None,123.63624949999212,None,123.63624949999212,None,0.014838880000752397,0.5148388800007524,123.63624949999212,None,123.63624949999212,None,123.63624949999212,None,123.63624949999212,None,123.63624949999212,None,123.63624949999212,None,125.62010779998673,125.62010779998673,0.0,3.296,50,0,-100,,,,,,,,,,,,,,,,,,,,,,,,,,,,,,,,,,,,,,,,,,,,,,,,,,,,,,,,,,,,,,,,,,,,,,,,,,,,,,,,,,,f,19,dongqing,2022_Apr_14_1752,experiment3,2021.1.4,59.34675835822856,
31,200,50,50,two,200,50,50,,,,,0,5,5,30,,,,,,,,,,,g,2.775595799990697,128.97638089999964,None,128.97638089999964,None,131.76958849999937,None,131.76958849999937,None,131.76958849999937,None,133.75133699999424,134.25470019999193,133.75133699999424,134.25470019999193,133.75133699999424,134.25470019999193,131.76958849999937,None,134.28794397999008,None,134.28794397999008,None,134.28794397999008,None,0.0088607799843885,None,134.28794397999008,None,134.28794397999008,None,134.28794397999008,None,134.28794397999008,None,134.28794397999008,None,134.28794397999008,None,134.31551619998936,None,134.31551619998936,None,134.31551619998936,None,0.0052081699832342565,0.5052081699832343,134.31551619998936,None,134.31551619998936,None,134.31551619998936,None,134.31551619998936,None,134.31551619998936,None,134.31551619998936,None,136.30801169999177,136.30801169999177,0.20000000000000284,6.032,250,50,-50,,,,,,,,,,,,,,,,,,,,,,,,,,,,,,,,,,,,,,,,,,,,,,,,,,,,,,,,,,,,,,,,,,,,,,,,,,,,,,,,,,,f,19,dongqing,2022_Apr_14_1752,experiment3,2021.1.4,59.34675835822856,
63,-150,0,0,one,-150,0,0,,,,,0,6,6,62,,,,,,,,,,,a,1.68995649999124,142.40500559999782,None,142.40500559999782,None,144.1433565999905,None,144.1433565999905,None,144.1433565999905,None,146.1202525999979,146.63066559999424,146.1202525999979,146.63066559999424,146.1202525999979,146.63066559999424,144.1433565999905,None,146.64728748999332,None,146.64728748999332,None,146.64728748999332,None,0.011353690002579242,None,146.64728748999332,None,146.64728748999332,None,146.64728748999332,None,146.64728748999332,None,146.64728748999332,None,146.64728748999332,None,146.6614794999914,None,146.6614794999914,None,146.6614794999914,None,0.01619337999727577,0.5161933799972758,146.6614794999914,None,146.6614794999914,None,146.6614794999914,None,146.6614794999914,None,146.6614794999914,None,146.6614794999914,None,148.64817929999845,148.64817929999845,0.0,4.638,100,50,-50,,,,,,,,,,,,,,,,,,,,,,,,,,,,,,,,,,,,,,,,,,,,,,,,,,,,,,,,,,,,,,,,,,,,,,,,,,,,,,,,,,,f,19,dongqing,2022_Apr_14_1752,experiment3,2021.1.4,59.34675835822856,
15,50,0,0,one,50,0,0,,,,,0,7,7,14,,,,,,,,,,,g,3.3691609000088647,153.34622259999742,None,153.34622259999742,None,156.76115449999634,None,156.76115449999634,None,156.76115449999634,None,158.73686079999607,159.24120479999692,158.73686079999607,159.24120479999692,158.73686079999607,159.24120479999692,156.76115449999634,None,159.257826689996,None,159.257826689996,None,159.257826689996,None,0.011014689996954985,None,159.257826689996,None,159.257826689996,None,159.257826689996,None,159.257826689996,None,159.257826689996,None,159.257826689996,None,159.2766544999904,None,159.2766544999904,None,159.2766544999904,None,0.013802479996229522,0.5138024799962295,159.2766544999904,None,159.2766544999904,None,159.2766544999904,None,159.2766544999904,None,159.2766544999904,None,159.2766544999904,None,161.2625471999927,161.2625471999927,1.0,10.103,150,50,-50,,,,,,,,,,,,,,,,,,,,,,,,,,,,,,,,,,,,,,,,,,,,,,,,,,,,,,,,,,,,,,,,,,,,,,,,,,,,,,,,,,,f,19,dongqing,2022_Apr_14_1752,experiment3,2021.1.4,59.34675835822856,
58,-150,-200,0,two,-150,-200,0,,,,,0,8,8,57,,,,,,,,,,,a,2.7426853999932064,171.43481199999223,None,171.43481199999223,None,174.22686099998828,None,174.22686099998828,None,174.22686099998828,None,176.2065561999916,176.70897329998843,176.2065561999916,176.70897329998843,176.2065561999916,176.70897329998843,174.22686099998828,None,176.7255951899875,None,176.7255951899875,None,176.7255951899875,None,0.00892348999332171,None,176.7255951899875,None,176.7255951899875,None,176.7255951899875,None,176.7255951899875,None,176.7255951899875,None,176.7255951899875,None,176.74346869999135,None,176.74346869999135,None,176.74346869999135,None,0.01461157998710405,0.514611579987104,176.74346869999135,None,176.74346869999135,None,176.74346869999135,None,176.74346869999135,None,176.74346869999135,None,176.74346869999135,None,178.71637389999523,178.71637389999523,0.0,3.247,0,-150,-50,,,,,,,,,,,,,,,,,,,,,,,,,,,,,,,,,,,,,,,,,,,,,,,,,,,,,,,,,,,,,,,,,,,,,,,,,,,,,,,,,,,f,19,dongqing,2022_Apr_14_1752,experiment3,2021.1.4,59.34675835822856,
94,-200,-200,-150,two,-200,-200,-150,,,,,0,9,9,93,,,,,,,,,,,l,2.594112300008419,182.06420599999547,None,182.06420599999547,None,184.69457119998697,None,184.69457119998697,None,184.69457119998697,None,186.68985499998962,None,186.68985499998962,None,186.68985499998962,None,184.69457119998697,None,187.20085918999538,None,187.20085918999538,None,187.20085918999538,None,0.0031546899990644306,None,187.20085918999538,None,187.20085918999538,None,187.20085918999538,None,187.20085918999538,None,187.20085918999538,None,187.20085918999538,None,187.24058499999228,None,187.24058499999228,None,187.24058499999228,None,0.0006918799917912111,0.5006918799917912,187.24058499999228,None,187.24058499999228,None,187.24058499999228,None,187.24058499999228,None,187.24058499999228,None,187.24058499999228,None,189.23772330000065,189.23772330000065,0.20000000000000284,3.323,-200,-350,-200,,,,,,,,,,,,,,,,,,,,,,,,,,,,,,,,,,,,,,,,,,,,,,,,,,,,,,,,,,,,,,,,,,,,,,,,,,,,,,,,,,,f,19,dongqing,2022_Apr_14_1752,experiment3,2021.1.4,59.34675835822856,
2,0,200,50,one,0,200,50,,,,,0,10,10,1,,,,,,,,,,,g,1.8129982999962522,192.67180409999855,None,192.67180409999855,None,194.5298640999972,None,194.5298640999972,None,194.5298640999972,None,196.51135609998892,197.02095249999547,196.51135609998892,197.02095249999547,196.51135609998892,197.02095249999547,194.5298640999972,None,197.05419627999362,None,197.05419627999362,None,197.05419627999362,None,0.0078002800000831485,None,197.05419627999362,None,197.05419627999362,None,197.05419627999362,None,197.05419627999362,None,197.05419627999362,None,197.05419627999362,None,197.09944199999154,None,197.09944199999154,None,197.09944199999154,None,0.011820860003354028,0.511820860003354,197.09944199999154,None,197.09944199999154,None,197.09944199999154,None,197.09944199999154,None,197.09944199999154,None,197.09944199999154,None,199.0720653999888,199.0720653999888,-0.10000000000000142,4.117,-200,-150,-150,,,,,,,,,,,,,,,,,,,,,,,,,,,,,,,,,,,,,,,,,,,,,,,,,,,,,,,,,,,,,,,,,,,,,,,,,,,,,,,,,,,f,19,dongqing,2022_Apr_14_1752,experiment3,2021.1.4,59.34675835822856,
32,50,200,50,two,50,200,50,,,,,0,11,11,31,,,,,,,,,,,g,6.405657900002552,203.28939379999065,None,203.28939379999065,None,209.728557800001,None,209.728557800001,None,209.728557800001,None,211.70227619999787,212.21860559999186,211.70227619999787,212.21860559999186,211.70227619999787,212.21860559999186,209.728557800001,None,212.23522748999093,None,212.23522748999093,None,212.23522748999093,None,0.007985289994394407,None,212.23522748999093,None,212.23522748999093,None,212.23522748999093,None,212.23522748999093,None,212.23522748999093,None,212.23522748999093,None,212.27683029999025,None,212.27683029999025,None,212.27683029999025,None,0.007433380000293255,0.5074333800002933,212.27683029999025,None,212.27683029999025,None,212.27683029999025,None,212.27683029999025,None,212.27683029999025,None,212.27683029999025,None,214.26074909999443,214.26074909999443,-0.29999999999999716,4.448,-150,50,-100,,,,,,,,,,,,,,,,,,,,,,,,,,,,,,,,,,,,,,,,,,,,,,,,,,,,,,,,,,,,,,,,,,,,,,,,,,,,,,,,,,,f,19,dongqing,2022_Apr_14_1752,experiment3,2021.1.4,59.34675835822856,
35,50,0,50,two,50,0,50,,,,,0,12,12,34,,,,,,,,,,,a,1.8950495000026422,218.80648659999133,None,218.80648659999133,None,220.7215630999999,None,220.7215630999999,None,220.7215630999999,None,222.70157349998772,223.20880509998824,222.70157349998772,223.20880509998824,222.70157349998772,223.20880509998824,220.7215630999999,None,223.2254269899873,None,223.2254269899873,None,223.2254269899873,None,0.0024138899898389354,None,223.2254269899873,None,223.2254269899873,None,223.2254269899873,None,223.2254269899873,None,223.2254269899873,None,223.2254269899873,None,223.24704499999643,None,223.24704499999643,None,223.24704499999643,None,0.010146579996217042,0.510146579996217,223.24704499999643,None,223.24704499999643,None,223.24704499999643,None,223.24704499999643,None,223.24704499999643,None,223.24704499999643,None,225.23414539999794,225.23414539999794,0.20000000000000284,3.793,-100,50,-50,,,,,,,,,,,,,,,,,,,,,,,,,,,,,,,,,,,,,,,,,,,,,,,,,,,,,,,,,,,,,,,,,,,,,,,,,,,,,,,,,,,f,19,dongqing,2022_Apr_14_1752,experiment3,2021.1.4,59.34675835822856,
53,-200,-150,0,one,-200,-150,0,,,,,0,13,13,52,,,,,,,,,,,l,1.9629981000034604,229.102429999999,None,229.102429999999,None,231.0847439999925,None,231.0847439999925,None,231.0847439999925,None,233.07521129999077,233.59210959999473,233.07521129999077,233.59210959999473,233.07521129999077,233.59210959999473,231.0847439999925,None,233.6087314899938,None,233.6087314899938,None,233.6087314899938,None,0.0026677899877540767,None,233.6087314899938,None,233.6087314899938,None,233.6087314899938,None,233.6087314899938,None,233.6087314899938,None,233.6087314899938,None,233.6424885999877,None,233.6424885999877,None,233.6424885999877,None,0.016150469993590377,0.5161504699935904,233.6424885999877,None,233.6424885999877,None,233.6424885999877,None,233.6424885999877,None,233.6424885999877,None,233.6424885999877,None,235.63754060000065,235.63754060000065,0.0,2.714,-300,-100,-50,,,,,,,,,,,,,,,,,,,,,,,,,,,,,,,,,,,,,,,,,,,,,,,,,,,,,,,,,,,,,,,,,,,,,,,,,,,,,,,,,,,f,19,dongqing,2022_Apr_14_1752,experiment3,2021.1.4,59.34675835822856,
17,0,200,0,one,0,200,0,,,,,0,14,14,16,,,,,,,,,,,g,1.820655599993188,238.43390720000025,None,238.43390720000025,None,240.29797699999472,None,240.29797699999472,None,240.29797699999472,None,242.27684579999186,None,242.27684579999186,None,242.27684579999186,None,240.29797699999472,None,242.81255297999013,None,242.81255297999013,None,242.81255297999013,None,0.016593280000961386,None,242.81255297999013,None,242.81255297999013,None,242.81255297999013,None,242.81255297999013,None,242.81255297999013,None,242.81255297999013,None,242.834108199997,None,242.834108199997,None,242.834108199997,None,0.0015685799880884588,0.5015685799880885,242.834108199997,None,242.834108199997,None,242.834108199997,None,242.834108199997,None,242.834108199997,None,242.834108199997,None,244.84012249999796,244.84012249999796,0.0,5.699,-300,100,-50,,,,,,,,,,,,,,,,,,,,,,,,,,,,,,,,,,,,,,,,,,,,,,,,,,,,,,,,,,,,,,,,,,,,,,,,,,,,,,,,,,,f,19,dongqing,2022_Apr_14_1752,experiment3,2021.1.4,59.34675835822856,
56,0,-200,-150,two,0,-200,-150,,,,,0,15,15,55,,,,,,,,,,,g,2.6201541000045836,250.62683209999523,None,250.62683209999523,None,253.2713580999989,None,253.2713580999989,None,253.2713580999989,None,255.24597799999174,255.75985899999796,255.24597799999174,255.75985899999796,255.24597799999174,255.75985899999796,253.2713580999989,None,255.77648088999703,None,255.77648088999703,None,255.77648088999703,None,0.01127179000468459,None,255.77648088999703,None,255.77648088999703,None,255.77648088999703,None,255.77648088999703,None,255.77648088999703,None,255.77648088999703,None,255.7925244999933,None,255.7925244999933,None,255.7925244999933,None,0.01594007998937741,0.5159400799893774,255.7925244999933,None,255.7925244999933,None,255.7925244999933,None,255.7925244999933,None,255.7925244999933,None,255.7925244999933,None,257.7755118999921,257.7755118999921,0.0,6.096,-300,-100,-200,,,,,,,,,,,,,,,,,,,,,,,,,,,,,,,,,,,,,,,,,,,,,,,,,,,,,,,,,,,,,,,,,,,,,,,,,,,,,,,,,,,f,19,dongqing,2022_Apr_14_1752,experiment3,2021.1.4,59.34675835822856,
7,0,50,200,two,0,50,200,,,,,0,16,16,6,,,,,,,,,,,a,2.9986893000022974,263.9579308999964,None,263.9579308999964,None,266.9991011999955,None,266.9991011999955,None,266.9991011999955,None,268.9740078999894,269.48364229999424,268.9740078999894,269.48364229999424,268.9740078999894,269.48364229999424,266.9991011999955,None,269.51688607999245,None,269.51688607999245,None,269.51688607999245,None,0.008861279988195747,None,269.51688607999245,None,269.51688607999245,None,269.51688607999245,None,269.51688607999245,None,269.51688607999245,None,269.51688607999245,None,269.5340606999962,None,269.5340606999962,None,269.5340606999962,None,0.01622107000730466,0.5162210700073047,269.5340606999962,None,269.5340606999962,None,269.5340606999962,None,269.5340606999962,None,269.5340606999962,None,269.5340606999962,None,271.50825939999777,271.50825939999777,0.0,4.438,-300,-50,0,,,,,,,,,,,,,,,,,,,,,,,,,,,,,,,,,,,,,,,,,,,,,,,,,,,,,,,,,,,,,,,,,,,,,,,,,,,,,,,,,,,f,19,dongqing,2022_Apr_14_1752,experiment3,2021.1.4,59.34675835822856,
86,-200,0,-200,one,-200,0,-200,,,,,0,17,17,85,,,,,,,,,,,l,1.2015506999887293,276.02185449999524,None,276.02185449999524,None,277.2515335999924,None,277.2515335999924,None,277.2515335999924,None,279.24522579999757,None,279.24522579999757,None,279.24522579999757,None,277.2515335999924,None,279.7712522799877,None,279.7712522799877,None,279.7712522799877,None,0.014215279996278696,None,279.7712522799877,None,279.7712522799877,None,279.7712522799877,None,279.7712522799877,None,279.7712522799877,None,279.7712522799877,None,279.78853159998835,None,279.78853159998835,None,279.78853159998835,None,0.01515656997798942,0.5151565699779894,279.78853159998835,None,279.78853159998835,None,279.78853159998835,None,279.78853159998835,None,279.78853159998835,None,279.78853159998835,None,281.796027599994,281.796027599994,-0.20000000000000284,3.163,-500,-50,-200,,,,,,,,,,,,,,,,,,,,,,,,,,,,,,,,,,,,,,,,,,,,,,,,,,,,,,,,,,,,,,,,,,,,,,,,,,,,,,,,,,,f,19,dongqing,2022_Apr_14_1752,experiment3,2021.1.4,59.34675835822856,
43,200,200,0,two,200,200,0,,,,,0,18,18,42,,,,,,,,,,,l,2.598555299991858,285.029251999993,None,285.029251999993,None,287.6447438999894,None,287.6447438999894,None,287.6447438999894,None,289.63145259999146,290.13569129999087,289.63145259999146,290.13569129999087,289.63145259999146,290.13569129999087,287.6447438999894,None,290.15231318998997,None,290.15231318998997,None,290.15231318998997,None,0.011213289995794185,None,290.15231318998997,None,290.15231318998997,None,290.15231318998997,None,290.15231318998997,None,290.15231318998997,None,290.15231318998997,None,290.17983559999266,None,290.17983559999266,None,290.17983559999266,None,0.011006479995558038,0.511006479995558,290.17983559999266,None,290.17983559999266,None,290.17983559999266,None,290.17983559999266,None,290.17983559999266,None,290.17983559999266,None,292.15354549999756,292.15354549999756,0.10000000000000142,3.478,-300,150,-200,,,,,,,,,,,,,,,,,,,,,,,,,,,,,,,,,,,,,,,,,,,,,,,,,,,,,,,,,,,,,,,,,,,,,,,,,,,,,,,,,,,f,19,dongqing,2022_Apr_14_1752,experiment3,2021.1.4,59.34675835822856,
59,-200,-150,0,two,-200,-150,0,,,,,0,19,19,58,,,,,,,,,,,l,3.2579070000065258,295.7417979999882,None,295.7417979999882,None,299.0291513999982,None,299.0291513999982,None,299.0291513999982,None,301.0111038999894,301.52329169999575,301.0111038999894,301.52329169999575,301.0111038999894,301.52329169999575,299.0291513999982,None,301.55653547999395,None,301.55653547999395,None,301.55653547999395,None,0.007977579996804707,None,301.55653547999395,None,301.55653547999395,None,301.55653547999395,None,301.55653547999395,None,301.55653547999395,None,301.55653547999395,None,301.58598409999104,None,301.58598409999104,None,301.58598409999104,None,0.008417570003075525,0.5084175700030755,301.58598409999104,None,301.58598409999104,None,301.58598409999104,None,301.58598409999104,None,301.58598409999104,None,301.58598409999104,None,303.5693617999932,303.5693617999932,0.10000000000000142,7.719,-500,0,-200,,,,,,,,,,,,,,,,,,,,,,,,,,,,,,,,,,,,,,,,,,,,,,,,,,,,,,,,,,,,,,,,,,,,,,,,,,,,,,,,,,,f,19,dongqing,2022_Apr_14_1752,experiment3,2021.1.4,59.34675835822856,
87,0,-200,-200,one,0,-200,-200,,,,,0,20,20,86,,,,,,,,,,,l,1.3259139000001596,311.3511256999918,None,311.3511256999918,None,312.7185175999912,None,312.7185175999912,None,312.7185175999912,None,314.698876999988,315.20194469999115,314.698876999988,315.20194469999115,314.698876999988,315.20194469999115,312.7185175999912,None,315.21856658999025,None,315.21856658999025,None,315.21856658999025,None,0.006102289989939891,None,315.21856658999025,None,315.21856658999025,None,315.21856658999025,None,315.21856658999025,None,315.21856658999025,None,315.21856658999025,None,315.23571949999314,None,315.23571949999314,None,315.23571949999314,None,0.01237887998286169,0.5123788799828617,315.23571949999314,None,315.23571949999314,None,315.23571949999314,None,315.23571949999314,None,315.23571949999314,None,315.23571949999314,None,317.2160739999963,317.2160739999963,1.2999999999999972,8.343,-500,-200,-400,,,,,,,,,,,,,,,,,,,,,,,,,,,,,,,,,,,,,,,,,,,,,,,,,,,,,,,,,,,,,,,,,,,,,,,,,,,,,,,,,,,f,19,dongqing,2022_Apr_14_1752,experiment3,2021.1.4,59.34675835822856,
57,-150,0,-200,two,-150,0,-200,,,,,0,21,21,56,,,,,,,,,,,a,3.0755498000071384,325.6886993999942,None,325.6886993999942,None,328.7918051999877,None,328.7918051999877,None,328.7918051999877,None,330.7618661999877,331.279661099994,330.7618661999877,331.279661099994,330.7618661999877,331.279661099994,328.7918051999877,None,331.3129048799922,None,331.3129048799922,None,331.3129048799922,None,0.010806379985297099,None,331.3129048799922,None,331.3129048799922,None,331.3129048799922,None,331.3129048799922,None,331.3129048799922,None,331.3129048799922,None,331.32943839998916,None,331.32943839998916,None,331.32943839998916,None,0.014524169993819669,0.5145241699938197,331.32943839998916,None,331.32943839998916,None,331.32943839998916,None,331.32943839998916,None,331.32943839998916,None,331.32943839998916,None,333.3124353999883,333.3124353999883,0.10000000000000142,3.115,-650,-200,-600,,,,,,,,,,,,,,,,,,,,,,,,,,,,,,,,,,,,,,,,,,,,,,,,,,,,,,,,,,,,,,,,,,,,,,,,,,,,,,,,,,,f,19,dongqing,2022_Apr_14_1752,experiment3,2021.1.4,59.34675835822856,
93,0,-200,-200,two,0,-200,-200,,,,,0,22,22,92,,,,,,,,,,,l,1.3547288999980083,336.4863514999888,None,336.4863514999888,None,337.87042459999793,None,337.87042459999793,None,337.87042459999793,None,339.85275349998847,340.36019799999485,339.85275349998847,340.36019799999485,339.85275349998847,340.36019799999485,337.87042459999793,None,340.37681988999395,None,340.37681988999395,None,340.37681988999395,None,0.008869989978848025,None,340.37681988999395,None,340.37681988999395,None,340.37681988999395,None,340.37681988999395,None,340.37681988999395,None,340.37681988999395,None,340.39435689999664,None,340.39435689999664,None,340.39435689999664,None,0.015032880008220673,0.5150328800082207,340.39435689999664,None,340.39435689999664,None,340.39435689999664,None,340.39435689999664,None,340.39435689999664,None,340.39435689999664,None,342.3756566999946,342.3756566999946,-0.7000000000000028,3.74,-650,-400,-800,,,,,,,,,,,,,,,,,,,,,,,,,,,,,,,,,,,,,,,,,,,,,,,,,,,,,,,,,,,,,,,,,,,,,,,,,,,,,,,,,,,f,19,dongqing,2022_Apr_14_1752,experiment3,2021.1.4,59.34675835822856,
69,-150,0,0,two,-150,0,0,,,,,0,23,23,68,,,,,,,,,,,g,5.625090100002126,346.1987553999934,None,346.1987553999934,None,351.85601589998987,None,351.85601589998987,None,351.85601589998987,None,353.8362851999991,354.3400846999866,353.8362851999991,354.3400846999866,353.8362851999991,354.3400846999866,351.85601589998987,None,354.3567065899857,None,354.3567065899857,None,354.3567065899857,None,0.011327689993777312,None,354.3567065899857,None,354.3567065899857,None,354.3567065899857,None,354.3567065899857,None,354.3567065899857,None,354.3567065899857,None,354.39093039999716,None,354.39093039999716,None,354.39093039999716,None,0.0031226799765136093,0.5031226799765136,354.39093039999716,None,354.39093039999716,None,354.39093039999716,None,354.39093039999716,None,354.39093039999716,None,354.39093039999716,None,356.39665579999564,356.39665579999564,-16.299999999999997,4.194,-800,-400,-800,,,,,,,,,,,,,,,,,,,,,,,,,,,,,,,,,,,,,,,,,,,,,,,,,,,,,,,,,,,,,,,,,,,,,,,,,,,,,,,,,,,f,19,dongqing,2022_Apr_14_1752,experiment3,2021.1.4,59.34675835822856,
39,0,200,200,one,0,200,200,,,,,0,24,24,38,,,,,,,,,,,a,4.394211399994674,360.66348679999646,None,360.66348679999646,None,365.1027810999949,None,365.1027810999949,None,365.1027810999949,None,367.0846782000008,367.5970667999936,367.0846782000008,367.5970667999936,367.0846782000008,367.5970667999936,365.1027810999949,None,367.63031057999183,None,367.63031057999183,None,367.63031057999183,None,0.01146847999189049,None,367.63031057999183,None,367.63031057999183,None,367.63031057999183,None,367.63031057999183,None,367.63031057999183,None,367.63031057999183,None,367.67405839999265,None,367.67405839999265,None,367.67405839999265,None,0.007431170000927523,0.5074311700009275,367.67405839999265,None,367.67405839999265,None,367.67405839999265,None,367.67405839999265,None,367.67405839999265,None,367.67405839999265,None,369.65339739999035,369.65339739999035,-3.0,4.992,-800,-200,-600,,,,,,,,,,,,,,,,,,,,,,,,,,,,,,,,,,,,,,,,,,,,,,,,,,,,,,,,,,,,,,,,,,,,,,,,,,,,,,,,,,,f,19,dongqing,2022_Apr_14_1752,experiment3,2021.1.4,59.34675835822856,
38,200,0,200,one,200,0,200,,,,,0,25,25,37,,,,,,,,,,,g,1.322624899999937,374.72492369999236,None,374.72492369999236,None,376.093950999988,None,376.093950999988,None,376.093950999988,None,378.068984499987,378.5788043999928,378.068984499987,378.5788043999928,378.068984499987,378.5788043999928,376.093950999988,None,378.612048179991,None,378.612048179991,None,378.612048179991,None,0.00962158000038471,None,378.612048179991,None,378.612048179991,None,378.612048179991,None,378.612048179991,None,378.612048179991,None,378.612048179991,None,378.6395960999944,None,378.6395960999944,None,378.6395960999944,None,0.0069403700035763904,0.5069403700035764,378.6395960999944,None,378.6395960999944,None,378.6395960999944,None,378.6395960999944,None,378.6395960999944,None,378.6395960999944,None,380.6242450999998,380.6242450999998,4.200000000000003,2.957,-600,-200,-400,,,,,,,,,,,,,,,,,,,,,,,,,,,,,,,,,,,,,,,,,,,,,,,,,,,,,,,,,,,,,,,,,,,,,,,,,,,,,,,,,,,f,19,dongqing,2022_Apr_14_1752,experiment3,2021.1.4,59.34675835822856,
9,50,0,200,two,50,0,200,,,,,0,26,26,8,,,,,,,,,,,l,2.8738527999958023,383.68820340000093,None,383.68820340000093,None,386.5865347999934,None,386.5865347999934,None,386.5865347999934,None,388.57316329999594,389.0837499999907,388.57316329999594,389.0837499999907,388.57316329999594,389.0837499999907,386.5865347999934,None,389.1003718899898,None,389.1003718899898,None,389.1003718899898,None,0.00839298999926541,None,389.1003718899898,None,389.1003718899898,None,389.1003718899898,None,389.1003718899898,None,389.1003718899898,None,389.1003718899898,None,389.13047689999803,None,389.13047689999803,None,389.13047689999803,None,0.004694880000897683,0.5046948800008977,389.13047689999803,None,389.13047689999803,None,389.13047689999803,None,389.13047689999803,None,389.13047689999803,None,389.13047689999803,None,391.1197950999922,391.1197950999922,2.0,3.185,-550,-200,-200,,,,,,,,,,,,,,,,,,,,,,,,,,,,,,,,,,,,,,,,,,,,,,,,,,,,,,,,,,,,,,,,,,,,,,,,,,,,,,,,,,,f,19,dongqing,2022_Apr_14_1752,experiment3,2021.1.4,59.34675835822856,
96,-150,-200,-200,two,-150,-200,-200,,,,,0,27,27,95,,,,,,,,,,,a,4.105046800003038,394.4012679999869,None,394.4012679999869,None,398.53528639998694,None,398.53528639998694,None,398.53528639998694,None,400.5192376999912,401.030964199992,400.5192376999912,401.030964199992,400.5192376999912,401.030964199992,398.53528639998694,None,401.0475860899911,None,401.0475860899911,None,401.0475860899911,None,0.01127629000984598,None,401.0475860899911,None,401.0475860899911,None,401.0475860899911,None,401.0475860899911,None,401.0475860899911,None,401.0475860899911,None,401.06818779998866,None,401.06818779998866,None,401.06818779998866,None,0.014014879998285323,0.5140148799982853,401.06818779998866,None,401.06818779998866,None,401.06818779998866,None,401.06818779998866,None,401.06818779998866,None,401.06818779998866,None,403.0499005999882,403.0499005999882,3.3999999999999986,3.582,-700,-400,-400,,,,,,,,,,,,,,,,,,,,,,,,,,,,,,,,,,,,,,,,,,,,,,,,,,,,,,,,,,,,,,,,,,,,,,,,,,,,,,,,,,,f,19,dongqing,2022_Apr_14_1752,experiment3,2021.1.4,59.34675835822856,
78,-150,-150,0,one,-150,-150,0,,,,,0,28,28,77,,,,,,,,,,,g,2.1155160999915097,406.7136935999879,None,406.7136935999879,None,408.85073819999525,None,408.85073819999525,None,408.85073819999525,None,410.8310628999898,411.34624719999556,410.8310628999898,411.34624719999556,410.8310628999898,411.34624719999556,408.85073819999525,None,411.37949097999376,None,411.37949097999376,None,411.37949097999376,None,0.01594647999445442,None,411.37949097999376,None,411.37949097999376,None,411.37949097999376,None,411.37949097999376,None,411.37949097999376,None,411.37949097999376,None,411.3975225999893,None,411.3975225999893,None,411.3975225999893,None,0.000877079990459606,0.5008770799904596,411.3975225999893,None,411.3975225999893,None,411.3975225999893,None,411.3975225999893,None,411.3975225999893,None,411.3975225999893,None,413.3809149000008,413.3809149000008,-0.29999999999999716,2.836,-850,-550,-400,,,,,,,,,,,,,,,,,,,,,,,,,,,,,,,,,,,,,,,,,,,,,,,,,,,,,,,,,,,,,,,,,,,,,,,,,,,,,,,,,,,f,19,dongqing,2022_Apr_14_1752,experiment3,2021.1.4,59.34675835822856,
42,50,200,200,one,50,200,200,,,,,0,29,29,41,,,,,,,,,,,g,2.0262800000054995,416.2780955999915,None,416.2780955999915,None,418.35118259998853,None,418.35118259998853,None,418.35118259998853,None,420.3441055000003,None,420.3441055000003,None,420.3441055000003,None,418.35118259998853,None,420.84651318998806,None,420.84651318998806,None,420.84651318998806,None,0.009919189993524924,None,420.84651318998806,None,420.84651318998806,None,420.84651318998806,None,420.84651318998806,None,420.84651318998806,None,420.84651318998806,None,420.86789559999306,None,420.86789559999306,None,420.86789559999306,None,0.013625380001030862,0.5136253800010309,420.86789559999306,None,420.86789559999306,None,420.86789559999306,None,420.86789559999306,None,420.86789559999306,None,420.86789559999306,None,422.85592319999705,422.85592319999705,-0.20000000000000284,3.145,-800,-350,-200,,,,,,,,,,,,,,,,,,,,,,,,,,,,,,,,,,,,,,,,,,,,,,,,,,,,,,,,,,,,,,,,,,,,,,,,,,,,,,,,,,,f,19,dongqing,2022_Apr_14_1752,experiment3,2021.1.4,59.34675835822856,
30,50,50,0,one,50,50,0,,,,,0,30,30,29,,,,,,,,,,,l,2.0677215000032447,426.08187650000036,None,426.08187650000036,None,428.1965937999921,None,428.1965937999921,None,428.1965937999921,None,430.15891030000057,430.6619204999879,430.15891030000057,430.6619204999879,430.15891030000057,430.6619204999879,428.1965937999921,None,430.6958426899961,None,430.6958426899961,None,430.6958426899961,None,0.0017139900010079145,None,430.6958426899961,None,430.6958426899961,None,430.6958426899961,None,430.6958426899961,None,430.6958426899961,None,430.6958426899961,None,430.73189809999894,None,430.73189809999894,None,430.73189809999894,None,0.002770579987554811,0.5027705799875548,430.73189809999894,None,430.73189809999894,None,430.73189809999894,None,430.73189809999894,None,430.73189809999894,None,430.73189809999894,None,432.71780939999735,432.71780939999735,0.29999999999999716,5.895,-750,-300,-200,,,,,,,,,,,,,,,,,,,,,,,,,,,,,,,,,,,,,,,,,,,,,,,,,,,,,,,,,,,,,,,,,,,,,,,,,,,,,,,,,,,f,19,dongqing,2022_Apr_14_1752,experiment3,2021.1.4,59.34675835822856,
95,-200,-150,-200,two,-200,-150,-200,,,,,0,31,31,94,,,,,,,,,,,a,1.5232072999933735,438.6850749000005,None,438.6850749000005,None,440.22838989998854,None,440.22838989998854,None,440.22838989998854,None,442.22299359999306,None,442.22299359999306,None,442.22299359999306,None,440.22838989998854,None,442.74480977999633,None,442.74480977999633,None,442.74480977999633,None,0.00986917999398429,None,442.74480977999633,None,442.74480977999633,None,442.74480977999633,None,442.74480977999633,None,442.74480977999633,None,442.74480977999633,None,442.7861561999889,None,442.7861561999889,None,442.7861561999889,None,0.006812569990870543,0.5068125699908705,442.7861561999889,None,442.7861561999889,None,442.7861561999889,None,442.7861561999889,None,442.7861561999889,None,442.7861561999889,None,444.77316229999997,444.77316229999997,-0.10000000000000142,3.53,-950,-450,-400,,,,,,,,,,,,,,,,,,,,,,,,,,,,,,,,,,,,,,,,,,,,,,,,,,,,,,,,,,,,,,,,,,,,,,,,,,,,,,,,,,,f,19,dongqing,2022_Apr_14_1752,experiment3,2021.1.4,59.34675835822856,
88,-200,-200,-150,one,-200,-200,-150,,,,,0,32,32,87,,,,,,,,,,,l,1.3452279999910388,448.3648500999989,None,448.3648500999989,None,449.75259129999904,None,449.75259129999904,None,449.75259129999904,None,451.7377445999882,452.238276899996,451.7377445999882,452.238276899996,451.7377445999882,452.238276899996,449.75259129999904,None,452.2548987899951,None,452.2548987899951,None,452.2548987899951,None,0.006936389996553771,None,452.2548987899951,None,452.2548987899951,None,452.2548987899951,None,452.2548987899951,None,452.2548987899951,None,452.2548987899951,None,452.27302059999784,None,452.27302059999784,None,452.27302059999784,None,0.013329679990420118,0.5133296799904201,452.27302059999784,None,452.27302059999784,None,452.27302059999784,None,452.27302059999784,None,452.27302059999784,None,452.27302059999784,None,454.25584099999105,454.25584099999105,-0.20000000000000284,2.706,-1150,-650,-550,,,,,,,,,,,,,,,,,,,,,,,,,,,,,,,,,,,,,,,,,,,,,,,,,,,,,,,,,,,,,,,,,,,,,,,,,,,,,,,,,,,f,19,dongqing,2022_Apr_14_1752,experiment3,2021.1.4,59.34675835822856,
3,50,0,200,one,50,0,200,,,,,0,33,33,2,,,,,,,,,,,l,0.8887343000096735,457.0450770999887,None,457.0450770999887,None,457.9574231000006,None,457.9574231000006,None,457.9574231000006,None,459.93606239999644,460.435475899998,459.93606239999644,460.435475899998,459.93606239999644,460.435475899998,457.9574231000006,None,460.4697012899866,None,460.4697012899866,None,460.4697012899866,None,0.01113478999468498,None,460.4697012899866,None,460.4697012899866,None,460.4697012899866,None,460.4697012899866,None,460.4697012899866,None,460.4697012899866,None,460.48853759998747,None,460.48853759998747,None,460.48853759998747,None,0.012350580000202172,0.5123505800002022,460.48853759998747,None,460.48853759998747,None,460.48853759998747,None,460.48853759998747,None,460.48853759998747,None,460.48853759998747,None,462.4734623999975,462.4734623999975,0.29999999999999716,3.047,-1100,-650,-350,,,,,,,,,,,,,,,,,,,,,,,,,,,,,,,,,,,,,,,,,,,,,,,,,,,,,,,,,,,,,,,,,,,,,,,,,,,,,,,,,,,f,19,dongqing,2022_Apr_14_1752,experiment3,2021.1.4,59.34675835822856,
47,200,50,200,two,200,50,200,,,,,0,34,34,46,,,,,,,,,,,a,2.8769982999947388,465.59405989998777,None,465.59405989998777,None,468.50272479999694,None,468.50272479999694,None,468.50272479999694,None,470.48409629998787,470.98559810000006,470.48409629998787,470.98559810000006,470.48409629998787,470.98559810000006,468.50272479999694,None,471.00221998999916,None,471.00221998999916,None,471.00221998999916,None,0.010745890001999214,None,471.00221998999916,None,471.00221998999916,None,471.00221998999916,None,471.00221998999916,None,471.00221998999916,None,471.00221998999916,None,471.0243347999931,None,471.0243347999931,None,471.0243347999931,None,0.016269280007691123,0.5162692800076911,471.0243347999931,None,471.0243347999931,None,471.0243347999931,None,471.0243347999931,None,471.0243347999931,None,471.0243347999931,None,473.0018981999892,473.0018981999892,2.799999999999997,2.783,-900,-600,-150,,,,,,,,,,,,,,,,,,,,,,,,,,,,,,,,,,,,,,,,,,,,,,,,,,,,,,,,,,,,,,,,,,,,,,,,,,,,,,,,,,,f,19,dongqing,2022_Apr_14_1752,experiment3,2021.1.4,59.34675835822856,
82,0,-150,-150,two,0,-150,-150,,,,,0,35,35,81,,,,,,,,,,,l,2.371433699998306,475.86881939999876,None,475.86881939999876,None,478.27008729999943,None,478.27008729999943,None,478.27008729999943,None,480.2621729999955,480.76528159999,480.2621729999955,480.76528159999,480.2621729999955,480.76528159999,478.27008729999943,None,480.7819034899891,None,480.7819034899891,None,480.7819034899891,None,0.011116490000858903,None,480.7819034899891,None,480.7819034899891,None,480.7819034899891,None,480.7819034899891,None,480.7819034899891,None,480.7819034899891,None,480.7978895999986,None,480.7978895999986,None,480.7978895999986,None,0.0160127799899783,0.5160127799899783,480.7978895999986,None,480.7978895999986,None,480.7978895999986,None,480.7978895999986,None,480.7978895999986,None,480.7978895999986,None,482.7765841999935,482.7765841999935,1.5,2.755,-900,-750,-300,,,,,,,,,,,,,,,,,,,,,,,,,,,,,,,,,,,,,,,,,,,,,,,,,,,,,,,,,,,,,,,,,,,,,,,,,,,,,,,,,,,f,19,dongqing,2022_Apr_14_1752,experiment3,2021.1.4,59.34675835822856,
36,50,50,0,two,50,50,0,,,,,0,36,36,35,,,,,,,,,,,g,1.846921200005454,485.6548588999867,None,485.6548588999867,None,487.5486167999916,None,487.5486167999916,None,487.5486167999916,None,489.53201089998765,490.0325635999907,489.53201089998765,490.0325635999907,489.53201089998765,490.0325635999907,487.5486167999916,None,490.0491854899898,None,490.0491854899898,None,490.0491854899898,None,0.011272989999270067,None,490.0491854899898,None,490.0491854899898,None,490.0491854899898,None,490.0491854899898,None,490.0491854899898,None,490.0491854899898,None,490.0663607999886,None,490.0663607999886,None,490.0663607999886,None,0.01639387999603059,0.5163938799960306,490.0663607999886,None,490.0663607999886,None,490.0663607999886,None,490.0663607999886,None,490.0663607999886,None,490.0663607999886,None,492.04520399999456,492.04520399999456,1.0,2.534,-850,-700,-300,,,,,,,,,,,,,,,,,,,,,,,,,,,,,,,,,,,,,,,,,,,,,,,,,,,,,,,,,,,,,,,,,,,,,,,,,,,,,,,,,,,f,19,dongqing,2022_Apr_14_1752,experiment3,2021.1.4,59.34675835822856,
49,0,-150,-200,one,0,-150,-200,,,,,0,37,37,48,,,,,,,,,,,a,2.048065900002257,494.66401359999145,None,494.66401359999145,None,496.7308413999999,None,496.7308413999999,None,496.7308413999999,None,498.72798159999365,None,498.72798159999365,None,498.72798159999365,None,496.7308413999999,None,499.24841377999405,None,499.24841377999405,None,499.24841377999405,None,0.00600057998963166,None,499.24841377999405,None,499.24841377999405,None,499.24841377999405,None,499.24841377999405,None,499.24841377999405,None,499.24841377999405,None,499.2716262999893,None,499.2716262999893,None,499.2716262999893,None,0.007773269986500964,0.507773269986501,499.2716262999893,None,499.2716262999893,None,499.2716262999893,None,499.2716262999893,None,499.2716262999893,None,499.2716262999893,None,501.2638850999938,501.2638850999938,0.6000000000000014,3.192,-850,-850,-500,,,,,,,,,,,,,,,,,,,,,,,,,,,,,,,,,,,,,,,,,,,,,,,,,,,,,,,,,,,,,,,,,,,,,,,,,,,,,,,,,,,f,19,dongqing,2022_Apr_14_1752,experiment3,2021.1.4,59.34675835822856,
50,0,-200,-150,one,0,-200,-150,,,,,0,38,38,49,,,,,,,,,,,g,2.296023199989577,504.5555844999908,None,504.5555844999908,None,506.8790619999927,None,506.8790619999927,None,506.8790619999927,None,508.8632729999954,509.3774933999957,508.8632729999954,509.3774933999957,508.8632729999954,509.3774933999957,506.8790619999927,None,509.41073717999393,None,509.41073717999393,None,509.41073717999393,None,0.016574080000282265,None,509.41073717999393,None,509.41073717999393,None,509.41073717999393,None,509.41073717999393,None,509.41073717999393,None,509.41073717999393,None,509.4176621999941,None,509.4176621999941,None,509.4176621999941,None,0.009064779995242134,0.5090647799952421,509.4176621999941,None,509.4176621999941,None,509.4176621999941,None,509.4176621999941,None,509.4176621999941,None,509.4176621999941,None,511.394375399992,511.394375399992,0.29999999999999716,3.788,-850,-1050,-650,,,,,,,,,,,,,,,,,,,,,,,,,,,,,,,,,,,,,,,,,,,,,,,,,,,,,,,,,,,,,,,,,,,,,,,,,,,,,,,,,,,f,19,dongqing,2022_Apr_14_1752,experiment3,2021.1.4,59.34675835822856,
84,-150,-150,0,two,-150,-150,0,,,,,0,39,39,83,,,,,,,,,,,l,1.8028769999946235,515.2642766999925,None,515.2642766999925,None,517.0894531999948,None,517.0894531999948,None,517.0894531999948,None,519.0745257999952,519.5858813999948,519.0745257999952,519.5858813999948,519.0745257999952,519.5858813999948,517.0894531999948,None,519.6025032899939,None,519.6025032899939,None,519.6025032899939,None,0.01110418997996021,None,519.6025032899939,None,519.6025032899939,None,519.6025032899939,None,519.6025032899939,None,519.6025032899939,None,519.6025032899939,None,519.6181851000001,None,519.6181851000001,None,519.6181851000001,None,0.004145989994867705,0.5041459899948677,519.6181851000001,None,519.6181851000001,None,519.6181851000001,None,519.6181851000001,None,519.6181851000001,None,519.6181851000001,None,521.6066889999929,521.6066889999929,0.29999999999999716,2.971,-1000,-1200,-650,,,,,,,,,,,,,,,,,,,,,,,,,,,,,,,,,,,,,,,,,,,,,,,,,,,,,,,,,,,,,,,,,,,,,,,,,,,,,,,,,,,f,19,dongqing,2022_Apr_14_1752,experiment3,2021.1.4,59.34675835822856,
75,-150,-150,-200,one,-150,-150,-200,,,,,0,40,40,74,,,,,,,,,,,g,2.619546999994782,524.6430255999876,None,524.6430255999876,None,527.2932644999964,None,527.2932644999964,None,527.2932644999964,None,529.2757410999911,529.7897595999966,529.2757410999911,529.7897595999966,529.2757410999911,529.7897595999966,527.2932644999964,None,529.8063814899957,None,529.8063814899957,None,529.8063814899957,None,0.008837290006340481,None,529.8063814899957,None,529.8063814899957,None,529.8063814899957,None,529.8063814899957,None,529.8063814899957,None,529.8063814899957,None,529.8212026999972,None,529.8212026999972,None,529.8212026999972,None,0.014969679992645979,0.514969679992646,529.8212026999972,None,529.8212026999972,None,529.8212026999972,None,529.8212026999972,None,529.8212026999972,None,529.8212026999972,None,531.80491359999,531.80491359999,0.5,2.86,-1150,-1350,-850,,,,,,,,,,,,,,,,,,,,,,,,,,,,,,,,,,,,,,,,,,,,,,,,,,,,,,,,,,,,,,,,,,,,,,,,,,,,,,,,,,,f,19,dongqing,2022_Apr_14_1752,experiment3,2021.1.4,59.34675835822856,
6,200,0,50,one,200,0,50,,,,,0,41,41,5,,,,,,,,,,,l,1.7835544000117807,534.7267078999866,None,534.7267078999866,None,536.5338307999918,None,536.5338307999918,None,536.5338307999918,None,538.5252430999972,None,538.5252430999972,None,538.5252430999972,None,536.5338307999918,None,539.0575506799971,None,539.0575506799971,None,539.0575506799971,None,0.010903679998591542,None,539.0575506799971,None,539.0575506799971,None,539.0575506799971,None,539.0575506799971,None,539.0575506799971,None,539.0575506799971,None,539.0799984999903,None,539.0799984999903,None,539.0799984999903,None,0.012317369983065873,0.5123173699830659,539.0799984999903,None,539.0799984999903,None,539.0799984999903,None,539.0799984999903,None,539.0799984999903,None,539.0799984999903,None,541.0651087999868,541.0651087999868,1.2000000000000028,2.746,-950,-1350,-800,,,,,,,,,,,,,,,,,,,,,,,,,,,,,,,,,,,,,,,,,,,,,,,,,,,,,,,,,,,,,,,,,,,,,,,,,,,,,,,,,,,f,19,dongqing,2022_Apr_14_1752,experiment3,2021.1.4,59.34675835822856,
92,-200,0,-200,two,-200,0,-200,,,,,0,42,42,91,,,,,,,,,,,a,1.3950485999957891,543.881069799987,None,543.881069799987,None,545.310636899987,None,545.310636899987,None,545.310636899987,None,547.3029746999964,547.8047034999909,547.3029746999964,547.8047034999909,547.3029746999964,547.8047034999909,545.310636899987,None,547.82132538999,None,547.82132538999,None,547.82132538999,None,0.001926390003063716,None,547.82132538999,None,547.82132538999,None,547.82132538999,None,547.82132538999,None,547.82132538999,None,547.82132538999,None,547.8549914999894,None,547.8549914999894,None,547.8549914999894,None,0.004546280004433356,0.5045462800044334,547.8549914999894,None,547.8549914999894,None,547.8549914999894,None,547.8549914999894,None,547.8549914999894,None,547.8549914999894,None,549.8422372999921,549.8422372999921,-8.0,2.274,-1150,-1350,-1000,,,,,,,,,,,,,,,,,,,,,,,,,,,,,,,,,,,,,,,,,,,,,,,,,,,,,,,,,,,,,,,,,,,,,,,,,,,,,,,,,,,f,19,dongqing,2022_Apr_14_1752,experiment3,2021.1.4,59.34675835822856,
73,-200,-150,-150,one,-200,-150,-150,,,,,0,43,43,72,,,,,,,,,,,l,2.3478165000124136,552.2220186999912,None,552.2220186999912,None,554.6047794999904,None,554.6047794999904,None,554.6047794999904,None,556.5885238999908,557.1044060999993,556.5885238999908,557.1044060999993,556.5885238999908,557.1044060999993,554.6047794999904,None,557.1376498799975,None,557.1376498799975,None,557.1376498799975,None,0.013997180009027943,None,557.1376498799975,None,557.1376498799975,None,557.1376498799975,None,557.1376498799975,None,557.1376498799975,None,557.1376498799975,None,557.1483619999926,None,557.1483619999926,None,557.1483619999926,None,0.002658579993294552,0.5026585799932946,557.1483619999926,None,557.1483619999926,None,557.1483619999926,None,557.1483619999926,None,557.1483619999926,None,557.1483619999926,None,559.1498275899954,None,-5.200000000000003,3.255,-1350,-1500,-1150,,,,,,,,,,,,,,,,,,,,,,,,,,,,,,,,,,,,,,,,,,,,,,,,,,,,,,,,,,,,,,,,,,,,,,,,,,,,,,,,,,,f,19,dongqing,2022_Apr_14_1752,experiment3,2021.1.4,59.34675835822856,
40,200,200,50,one,200,200,50,,,,,0,44,44,39,,,,,,,,,,,a,1.458938899988425,562.4753226999892,None,562.4753226999892,None,563.9698468999995,None,563.9698468999995,None,563.9698468999995,None,565.9574001000001,566.4651221999957,565.9574001000001,566.4651221999957,565.9574001000001,566.4651221999957,563.9698468999995,None,566.4817440899948,None,566.4817440899948,None,566.4817440899948,None,0.011385689998860471,None,566.4817440899948,None,566.4817440899948,None,566.4817440899948,None,566.4817440899948,None,566.4817440899948,None,566.4817440899948,None,566.4977179999987,None,566.4977179999987,None,566.4977179999987,None,0.015006479996372946,0.515006479996373,566.4977179999987,None,566.4977179999987,None,566.4977179999987,None,566.4977179999987,None,566.4977179999987,None,566.4977179999987,None,568.4856688,568.4856688,0.0,2.149,-1150,-1300,-1100,,,,,,,,,,,,,,,,,,,,,,,,,,,,,,,,,,,,,,,,,,,,,,,,,,,,,,,,,,,,,,,,,,,,,,,,,,,,,,,,,,,f,19,dongqing,2022_Apr_14_1752,experiment3,2021.1.4,59.34675835822856,
5,200,50,0,one,200,50,0,,,,,0,45,45,4,,,,,,,,,,,g,2.278102399999625,570.7171969999908,None,570.7171969999908,None,573.0356288999901,None,573.0356288999901,None,573.0356288999901,None,574.9983566999872,575.5138115999871,574.9983566999872,575.5138115999871,574.9983566999872,575.5138115999871,573.0356288999901,None,575.5470553799853,None,575.5470553799853,None,575.5470553799853,None,0.016066379990661517,None,575.5470553799853,None,575.5470553799853,None,575.5470553799853,None,575.5470553799853,None,575.5470553799853,None,575.5470553799853,None,575.5737699999881,None,575.5737699999881,None,575.5737699999881,None,0.00017967999156098813,0.500179679991561,575.5737699999881,None,575.5737699999881,None,575.5737699999881,None,575.5737699999881,None,575.5737699999881,None,575.5737699999881,None,577.5629917999904,577.5629917999904,1.7000000000000028,6.422,-950,-1250,-1100,,,,,,,,,,,,,,,,,,,,,,,,,,,,,,,,,,,,,,,,,,,,,,,,,,,,,,,,,,,,,,,,,,,,,,,,,,,,,,,,,,,f,19,dongqing,2022_Apr_14_1752,experiment3,2021.1.4,59.34675835822856,
66,-200,0,0,one,-200,0,0,,,,,0,46,46,65,,,,,,,,,,,l,1.3052177000063239,584.0468349000002,None,584.0468349000002,None,585.393233499999,None,585.393233499999,None,585.393233499999,None,587.3800038999907,587.8850449999882,587.3800038999907,587.8850449999882,587.3800038999907,587.8850449999882,585.393233499999,None,587.9182887799864,None,587.9182887799864,None,587.9182887799864,None,0.015965279992087744,None,587.9182887799864,None,587.9182887799864,None,587.9182887799864,None,587.9182887799864,None,587.9182887799864,None,587.9182887799864,None,587.937826399997,None,587.937826399997,None,587.937826399997,None,0.001069679987267591,0.5010696799872676,587.937826399997,None,587.937826399997,None,587.937826399997,None,587.937826399997,None,587.937826399997,None,587.937826399997,None,589.9274268000008,589.9274268000008,-8.299999999999997,3.07,-1150,-1250,-1100,,,,,,,,,,,,,,,,,,,,,,,,,,,,,,,,,,,,,,,,,,,,,,,,,,,,,,,,,,,,,,,,,,,,,,,,,,,,,,,,,,,f,19,dongqing,2022_Apr_14_1752,experiment3,2021.1.4,59.34675835822856,
27,50,50,200,one,50,50,200,,,,,0,47,47,26,,,,,,,,,,,a,1.6330463999911444,593.0781983999914,None,593.0781983999914,None,594.7495521999954,None,594.7495521999954,None,594.7495521999954,None,596.742994699991,None,596.742994699991,None,596.742994699991,None,594.7495521999954,None,597.2849541799981,None,597.2849541799981,None,597.2849541799981,None,0.004499179995036684,None,597.2849541799981,None,597.2849541799981,None,597.2849541799981,None,597.2849541799981,None,597.2849541799981,None,597.2849541799981,None,597.3307258999994,None,597.3307258999994,None,597.3307258999994,None,0.007012859990936704,0.5070128599909367,597.3307258999994,None,597.3307258999994,None,597.3307258999994,None,597.3307258999994,None,597.3307258999994,None,597.3307258999994,None,599.3306175999896,599.3306175999896,0.7000000000000028,2.702,-1100,-1200,-900,,,,,,,,,,,,,,,,,,,,,,,,,,,,,,,,,,,,,,,,,,,,,,,,,,,,,,,,,,,,,,,,,,,,,,,,,,,,,,,,,,,f,19,dongqing,2022_Apr_14_1752,experiment3,2021.1.4,59.34675835822856,
48,50,200,200,two,50,200,200,,,,,0,48,48,47,,,,,,,,,,,g,2.2263914000068326,602.0961042999988,None,602.0961042999988,None,604.3525582000002,None,604.3525582000002,None,604.3525582000002,None,606.3600084999925,None,606.3600084999925,None,606.3600084999925,None,604.3525582000002,None,606.8588879899922,None,606.8588879899922,None,606.8588879899922,None,0.010312190002878197,None,606.8588879899922,None,606.8588879899922,None,606.8588879899922,None,606.8588879899922,None,606.8588879899922,None,606.8588879899922,None,606.8730496999924,None,606.8730496999924,None,606.8730496999924,None,0.016281880001770332,0.5162818800017703,606.8730496999924,None,606.8730496999924,None,606.8730496999924,None,606.8730496999924,None,606.8730496999924,None,606.8730496999924,None,608.8565938999964,608.8565938999964,-2.299999999999997,2.358,-1050,-1000,-700,,,,,,,,,,,,,,,,,,,,,,,,,,,,,,,,,,,,,,,,,,,,,,,,,,,,,,,,,,,,,,,,,,,,,,,,,,,,,,,,,,,f,19,dongqing,2022_Apr_14_1752,experiment3,2021.1.4,59.34675835822856,
60,-200,0,-150,two,-200,0,-150,,,,,0,49,49,59,,,,,,,,,,,a,1.3528394000022672,611.2769502999872,None,611.2769502999872,None,612.6753369999933,None,612.6753369999933,None,612.6753369999933,None,614.6557415999996,615.1562585999927,614.6557415999996,615.1562585999927,614.6557415999996,615.1562585999927,612.6753369999933,None,615.1728804899918,None,615.1728804899918,None,615.1728804899918,None,0.008814889995846897,None,615.1728804899918,None,615.1728804899918,None,615.1728804899918,None,615.1728804899918,None,615.1728804899918,None,615.1728804899918,None,615.1904166999884,None,615.1904166999884,None,615.1904166999884,None,0.015135679990635253,0.5151356799906353,615.1904166999884,None,615.1904166999884,None,615.1904166999884,None,615.1904166999884,None,615.1904166999884,None,615.1904166999884,None,617.1865839999955,617.1865839999955,-13.0,2.381,-1250,-1000,-850,,,,,,,,,,,,,,,,,,,,,,,,,,,,,,,,,,,,,,,,,,,,,,,,,,,,,,,,,,,,,,,,,,,,,,,,,,,,,,,,,,,f,19,dongqing,2022_Apr_14_1752,experiment3,2021.1.4,59.34675835822856,
51,-150,0,-200,one,-150,0,-200,,,,,0,50,50,50,,,,,,,,,,,l,1.8140970999957062,619.6428980999917,None,619.6428980999917,None,621.4839425999962,None,621.4839425999962,None,621.4839425999962,None,623.4837827999872,None,623.4837827999872,None,623.4837827999872,None,621.4839425999962,None,623.9822440899894,None,623.9822440899894,None,623.9822440899894,None,0.004033990000607446,None,623.9822440899894,None,623.9822440899894,None,623.9822440899894,None,623.9822440899894,None,623.9822440899894,None,623.9822440899894,None,624.0224221999961,None,624.0224221999961,None,624.0224221999961,None,0.015161969990003854,0.5151619699900039,624.0224221999961,None,624.0224221999961,None,624.0224221999961,None,624.0224221999961,None,624.0224221999961,None,624.0224221999961,None,625.9921177999931,625.9921177999931,-2.799999999999997,1.843,-1400,-1000,-1050,,,,,,,,,,,,,,,,,,,,,,,,,,,,,,,,,,,,,,,,,,,,,,,,,,,,,,,,,,,,,,,,,,,,,,,,,,,,,,,,,,,f,19,dongqing,2022_Apr_14_1752,experiment3,2021.1.4,59.34675835822856,
8,0,200,50,two,0,200,50,,,,,0,51,51,7,,,,,,,,,,,a,2.252206400007708,627.9287954999891,None,627.9287954999891,None,630.2137695999991,None,630.2137695999991,None,630.2137695999991,None,632.2056407999917,None,632.2056407999917,None,632.2056407999917,None,630.2137695999991,None,632.719594189986,None,632.719594189986,None,632.719594189986,None,0.009661689982749522,None,632.719594189986,None,632.719594189986,None,632.719594189986,None,632.719594189986,None,632.719594189986,None,632.719594189986,None,632.7401246999943,None,632.7401246999943,None,632.7401246999943,None,0.0125871799828019,0.5125871799828019,632.7401246999943,None,632.7401246999943,None,632.7401246999943,None,632.7401246999943,None,632.7401246999943,None,632.7401246999943,None,634.7358972999937,634.7358972999937,0.0,2.374,-1400,-800,-1000,,,,,,,,,,,,,,,,,,,,,,,,,,,,,,,,,,,,,,,,,,,,,,,,,,,,,,,,,,,,,,,,,,,,,,,,,,,,,,,,,,,f,19,dongqing,2022_Apr_14_1752,experiment3,2021.1.4,59.34675835822856,
41,200,50,200,one,200,50,200,,,,,0,52,52,40,,,,,,,,,,,l,1.6172310999972979,637.1763181999995,None,637.1763181999995,None,638.8238623999932,None,638.8238623999932,None,638.8238623999932,None,640.812107699996,641.326679699996,640.812107699996,641.326679699996,640.812107699996,641.326679699996,638.8238623999932,None,641.3433015899951,None,641.3433015899951,None,641.3433015899951,None,0.0019097899930784479,None,641.3433015899951,None,641.3433015899951,None,641.3433015899951,None,641.3433015899951,None,641.3433015899951,None,641.3433015899951,None,641.3750620999926,None,641.3750620999926,None,641.3750620999926,None,0.003842980004264973,0.503842980004265,641.3750620999926,None,641.3750620999926,None,641.3750620999926,None,641.3750620999926,None,641.3750620999926,None,641.3750620999926,None,643.355819599994,643.355819599994,2.3999999999999986,3.772,-1200,-750,-800,,,,,,,,,,,,,,,,,,,,,,,,,,,,,,,,,,,,,,,,,,,,,,,,,,,,,,,,,,,,,,,,,,,,,,,,,,,,,,,,,,,f,19,dongqing,2022_Apr_14_1752,experiment3,2021.1.4,59.34675835822856,
91,-200,-200,0,two,-200,-200,0,,,,,0,53,53,90,,,,,,,,,,,a,2.4112465999933193,647.2088435999904,None,647.2088435999904,None,649.6611642999924,None,649.6611642999924,None,649.6611642999924,None,651.6371706999926,652.1604239000008,651.6371706999926,652.1604239000008,651.6371706999926,652.1604239000008,649.6611642999924,None,652.1770457899999,None,652.1770457899999,None,652.1770457899999,None,0.010639090003678575,None,652.1770457899999,None,652.1770457899999,None,652.1770457899999,None,652.1770457899999,None,652.1770457899999,None,652.1770457899999,None,652.1902745999978,None,652.1902745999978,None,652.1902745999978,None,0.0034615900076460093,0.503461590007646,652.1902745999978,None,652.1902745999978,None,652.1902745999978,None,652.1902745999978,None,652.1902745999978,None,652.1902745999978,None,654.1818039999926,654.1818039999926,2.200000000000003,2.002,-1400,-950,-800,,,,,,,,,,,,,,,,,,,,,,,,,,,,,,,,,,,,,,,,,,,,,,,,,,,,,,,,,,,,,,,,,,,,,,,,,,,,,,,,,,,f,19,dongqing,2022_Apr_14_1752,experiment3,2021.1.4,59.34675835822856,
55,0,-150,-200,two,0,-150,-200,,,,,0,54,54,54,,,,,,,,,,,l,1.6820958000025712,656.2471829999995,None,656.2471829999995,None,657.979364999992,None,657.979364999992,None,657.979364999992,None,659.9707328999939,None,659.9707328999939,None,659.9707328999939,None,657.979364999992,None,660.4797077899872,None,660.4797077899872,None,660.4797077899872,None,0.00013868999667465687,None,660.4797077899872,None,660.4797077899872,None,660.4797077899872,None,660.4797077899872,None,660.4797077899872,None,660.4797077899872,None,660.5020742999914,None,660.5020742999914,None,660.5020742999914,None,0.008348079994902946,0.508348079994903,660.5020742999914,None,660.5020742999914,None,660.5020742999914,None,660.5020742999914,None,660.5020742999914,None,660.5020742999914,None,662.4814434,662.4814434,1.2999999999999972,3.841,-1400,-1100,-1000,,,,,,,,,,,,,,,,,,,,,,,,,,,,,,,,,,,,,,,,,,,,,,,,,,,,,,,,,,,,,,,,,,,,,,,,,,,,,,,,,,,f,19,dongqing,2022_Apr_14_1752,experiment3,2021.1.4,59.34675835822856,
81,-150,-150,-200,two,-150,-150,-200,,,,,0,55,55,80,,,,,,,,,,,g,0.9387202999932924,666.4151035999967,None,666.4151035999967,None,667.3803712999943,None,667.3803712999943,None,667.3803712999943,None,669.3768189999973,None,669.3768189999973,None,669.3768189999973,None,667.3803712999943,None,669.8963465899884,None,669.8963465899884,None,669.8963465899884,None,0.010524389988859184,None,669.8963465899884,None,669.8963465899884,None,669.8963465899884,None,669.8963465899884,None,669.8963465899884,None,669.8963465899884,None,669.9093986999942,None,669.9093986999942,None,669.9093986999942,None,0.016005779994884506,0.5160057799948845,669.9093986999942,None,669.9093986999942,None,669.9093986999942,None,669.9093986999942,None,669.9093986999942,None,669.9093986999942,None,671.8962115999893,671.8962115999893,1.5,2.31,-1550,-1250,-1200,,,,,,,,,,,,,,,,,,,,,,,,,,,,,,,,,,,,,,,,,,,,,,,,,,,,,,,,,,,,,,,,,,,,,,,,,,,,,,,,,,,f,19,dongqing,2022_Apr_14_1752,experiment3,2021.1.4,59.34675835822856,
44,200,0,200,two,200,0,200,,,,,0,56,56,43,,,,,,,,,,,a,2.2136039000033634,674.2967503999971,None,674.2967503999971,None,676.5588043999887,None,676.5588043999887,None,676.5588043999887,None,678.5280621999991,679.0429569999978,678.5280621999991,679.0429569999978,678.5280621999991,679.0429569999978,676.5588043999887,None,679.076200779996,None,679.076200779996,None,679.076200779996,None,0.014319280002382584,None,679.076200779996,None,679.076200779996,None,679.076200779996,None,679.076200779996,None,679.076200779996,None,679.076200779996,None,679.1058779999876,None,679.1058779999876,None,679.1058779999876,None,0.012612569989869371,0.5126125699898694,679.1058779999876,None,679.1058779999876,None,679.1058779999876,None,679.1058779999876,None,679.1058779999876,None,679.1058779999876,None,681.0763418999995,681.0763418999995,1.3999999999999986,3.251,-1350,-1250,-1000,,,,,,,,,,,,,,,,,,,,,,,,,,,,,,,,,,,,,,,,,,,,,,,,,,,,,,,,,,,,,,,,,,,,,,,,,,,,,,,,,,,f,19,dongqing,2022_Apr_14_1752,experiment3,2021.1.4,59.34675835822856,
70,0,0,-200,two,0,0,-200,,,,,0,57,57,69,,,,,,,,,,,l,1.149866200008546,684.4167197999923,None,684.4167197999923,None,685.5902105999994,None,685.5902105999994,None,685.5902105999994,None,687.5746756000008,688.0766307999875,687.5746756000008,688.0766307999875,687.5746756000008,688.0766307999875,685.5902105999994,None,688.0932526899866,None,688.0932526899866,None,688.0932526899866,None,0.011525489986524917,None,688.0932526899866,None,688.0932526899866,None,688.0932526899866,None,688.0932526899866,None,688.0932526899866,None,688.0932526899866,None,688.1197759999923,None,688.1197759999923,None,688.1197759999923,None,0.01493017999746371,0.5149301799974637,688.1197759999923,None,688.1197759999923,None,688.1197759999923,None,688.1197759999923,None,688.1197759999923,None,688.1197759999923,None,690.1339158899951,None,0.8999999999999986,2.934,-1350,-1250,-1200,,,,,,,,,,,,,,,,,,,,,,,,,,,,,,,,,,,,,,,,,,,,,,,,,,,,,,,,,,,,,,,,,,,,,,,,,,,,,,,,,,,f,19,dongqing,2022_Apr_14_1752,experiment3,2021.1.4,59.34675835822856,
34,0,50,50,two,0,50,50,,,,,0,58,58,33,,,,,,,,,,,g,1.1152140000049258,693.1428293999925,None,693.1428293999925,None,694.2949288999953,None,694.2949288999953,None,694.2949288999953,None,696.2781312000006,None,696.2781312000006,None,696.2781312000006,None,694.2949288999953,None,696.7902864899967,None,696.7902864899967,None,696.7902864899967,None,0.00939758999447804,None,696.7902864899967,None,696.7902864899967,None,696.7902864899967,None,696.7902864899967,None,696.7902864899967,None,696.7902864899967,None,696.8053882999957,None,696.8053882999957,None,696.8053882999957,None,0.015610779999406077,0.5156107799994061,696.8053882999957,None,696.8053882999957,None,696.8053882999957,None,696.8053882999957,None,696.8053882999957,None,696.8053882999957,None,698.7781235000002,698.7781235000002,-1.7000000000000028,3.443,-1350,-1200,-1150,,,,,,,,,,,,,,,,,,,,,,,,,,,,,,,,,,,,,,,,,,,,,,,,,,,,,,,,,,,,,,,,,,,,,,,,,,,,,,,,,,,f,19,dongqing,2022_Apr_14_1752,experiment3,2021.1.4,59.34675835822856,
90,-150,-200,-200,one,-150,-200,-200,,,,,0,59,59,89,,,,,,,,,,,a,1.1492159999907017,702.3430737999879,None,702.3430737999879,None,703.5242716999928,None,703.5242716999928,None,703.5242716999928,None,705.505281699996,706.023068399998,705.505281699996,706.023068399998,705.505281699996,706.023068399998,703.5242716999928,None,706.0563121799962,None,706.0563121799962,None,706.0563121799962,None,0.01611798000521958,None,706.0563121799962,None,706.0563121799962,None,706.0563121799962,None,706.0563121799962,None,706.0563121799962,None,706.0563121799962,None,706.0814442999981,None,706.0814442999981,None,706.0814442999981,None,0.000655180003377609,0.5006551800033776,706.0814442999981,None,706.0814442999981,None,706.0814442999981,None,706.0814442999981,None,706.0814442999981,None,706.0814442999981,None,708.0573004999897,708.0573004999897,0.8999999999999986,2.377,-1500,-1400,-1350,,,,,,,,,,,,,,,,,,,,,,,,,,,,,,,,,,,,,,,,,,,,,,,,,,,,,,,,,,,,,,,,,,,,,,,,,,,,,,,,,,,f,19,dongqing,2022_Apr_14_1752,experiment3,2021.1.4,59.34675835822856,
67,0,0,-150,two,0,0,-150,,,,,0,60,60,66,,,,,,,,,,,g,1.3902284999930998,710.512687399998,None,710.512687399998,None,711.9361196999962,None,711.9361196999962,None,711.9361196999962,None,713.9314947999956,None,713.9314947999956,None,713.9314947999956,None,711.9361196999962,None,714.437688689986,None,714.437688689986,None,714.437688689986,None,0.010758989985333756,None,714.437688689986,None,714.437688689986,None,714.437688689986,None,714.437688689986,None,714.437688689986,None,714.437688689986,None,714.4698617999966,None,714.4698617999966,None,714.4698617999966,None,0.01419327998883091,0.5141932799888309,714.4698617999966,None,714.4698617999966,None,714.4698617999966,None,714.4698617999966,None,714.4698617999966,None,714.4698617999966,None,716.4437302000006,716.4437302000006,0.5,2.443,-1500,-1400,-1500,,,,,,,,,,,,,,,,,,,,,,,,,,,,,,,,,,,,,,,,,,,,,,,,,,,,,,,,,,,,,,,,,,,,,,,,,,,,,,,,,,,f,19,dongqing,2022_Apr_14_1752,experiment3,2021.1.4,59.34675835822856,
11,200,50,0,two,200,50,0,,,,,0,61,61,10,,,,,,,,,,,a,0.954320100005134,718.9696880999982,None,718.9696880999982,None,719.9601113999961,None,719.9601113999961,None,719.9601113999961,None,721.935138899993,722.4342659999966,721.935138899993,722.4342659999966,721.935138899993,722.4342659999966,719.9601113999961,None,722.4679177899976,None,722.4679177899976,None,722.4679177899976,None,0.0009394899971084669,None,722.4679177899976,None,722.4679177899976,None,722.4679177899976,None,722.4679177899976,None,722.4679177899976,None,722.4679177899976,None,722.4961202999984,None,722.4961202999984,None,722.4961202999984,None,0.002383879997069016,0.502383879997069,722.4961202999984,None,722.4961202999984,None,722.4961202999984,None,722.4961202999984,None,722.4961202999984,None,722.4961202999984,None,724.4923050999932,724.4923050999932,3.799999999999997,2.864,-1300,-1350,-1500,,,,,,,,,,,,,,,,,,,,,,,,,,,,,,,,,,,,,,,,,,,,,,,,,,,,,,,,,,,,,,,,,,,,,,,,,,,,,,,,,,,f,19,dongqing,2022_Apr_14_1752,experiment3,2021.1.4,59.34675835822856,
83,-150,0,-150,two,-150,0,-150,,,,,0,62,62,82,,,,,,,,,,,l,1.4360748000035528,727.4171418999904,None,727.4171418999904,None,728.8750183999946,None,728.8750183999946,None,728.8750183999946,None,730.8689064999926,None,730.8689064999926,None,730.8689064999926,None,728.8750183999946,None,731.3873899899933,None,731.3873899899933,None,731.3873899899933,None,0.001227789995027706,None,731.3873899899933,None,731.3873899899933,None,731.3873899899933,None,731.3873899899933,None,731.3873899899933,None,731.3873899899933,None,731.4123897999962,None,731.4123897999962,None,731.4123897999962,None,0.005242379993433133,0.5052423799934331,731.4123897999962,None,731.4123897999962,None,731.4123897999962,None,731.4123897999962,None,731.4123897999962,None,731.4123897999962,None,733.4011888999958,733.4011888999958,-3.0,3.835,-1450,-1350,-1650,,,,,,,,,,,,,,,,,,,,,,,,,,,,,,,,,,,,,,,,,,,,,,,,,,,,,,,,,,,,,,,,,,,,,,,,,,,,,,,,,,,f,19,dongqing,2022_Apr_14_1752,experiment3,2021.1.4,59.34675835822856,
76,0,-150,-150,one,0,-150,-150,,,,,0,63,63,75,,,,,,,,,,,g,1.442117300000973,737.3109842999984,None,737.3109842999984,None,738.8013207999902,None,738.8013207999902,None,738.8013207999902,None,740.7801999999938,741.2831389999919,740.7801999999938,741.2831389999919,740.7801999999938,741.2831389999919,738.8013207999902,None,741.299760889991,None,741.299760889991,None,741.299760889991,None,8.228998922277242e-05,None,741.299760889991,None,741.299760889991,None,741.299760889991,None,741.299760889991,None,741.299760889991,None,741.299760889991,None,741.3406097999978,None,741.3406097999978,None,741.3406097999978,None,0.0002308799885213375,0.5002308799885213,741.3406097999978,None,741.3406097999978,None,741.3406097999978,None,741.3406097999978,None,741.3406097999978,None,741.3406097999978,None,743.3325405999931,743.3325405999931,2.1000000000000014,4.552,-1450,-1500,-1800,,,,,,,,,,,,,,,,,,,,,,,,,,,,,,,,,,,,,,,,,,,,,,,,,,,,,,,,,,,,,,,,,,,,,,,,,,,,,,,,,,,f,19,dongqing,2022_Apr_14_1752,experiment3,2021.1.4,59.34675835822856,
68,0,-150,0,two,0,-150,0,,,,,0,64,64,67,,,,,,,,,,,l,1.6057068000081927,747.9460610999959,None,747.9460610999959,None,749.579173399994,None,749.579173399994,None,749.579173399994,None,751.5762146999914,None,751.5762146999914,None,751.5762146999914,None,749.579173399994,None,752.096308779993,None,752.096308779993,None,752.096308779993,None,0.015752979990793392,None,752.096308779993,None,752.096308779993,None,752.096308779993,None,752.096308779993,None,752.096308779993,None,752.096308779993,None,752.1094977999892,None,752.1094977999892,None,752.1094977999892,None,0.0003906800120603293,0.5003906800120603,752.1094977999892,None,752.1094977999892,None,752.1094977999892,None,752.1094977999892,None,752.1094977999892,None,752.1094977999892,None,754.107958499997,754.107958499997,0.7000000000000028,2.273,-1450,-1650,-1800,,,,,,,,,,,,,,,,,,,,,,,,,,,,,,,,,,,,,,,,,,,,,,,,,,,,,,,,,,,,,,,,,,,,,,,,,,,,,,,,,,,f,19,dongqing,2022_Apr_14_1752,experiment3,2021.1.4,59.34675835822856,
64,0,0,-200,one,0,0,-200,,,,,0,65,65,63,,,,,,,,,,,g,1.8989029000076698,756.4693335999909,None,756.4693335999909,None,758.4077050999913,None,758.4077050999913,None,758.4077050999913,None,760.3813386999973,760.8935148999881,760.3813386999973,760.8935148999881,760.3813386999973,760.8935148999881,758.4077050999913,None,760.9101367899872,None,760.9101367899872,None,760.9101367899872,None,0.011542189997271635,None,760.9101367899872,None,760.9101367899872,None,760.9101367899872,None,760.9101367899872,None,760.9101367899872,None,760.9101367899872,None,760.9272296999989,None,760.9272296999989,None,760.9272296999989,None,0.01373597998463083,0.5137359799846308,760.9272296999989,None,760.9272296999989,None,760.9272296999989,None,760.9272296999989,None,760.9272296999989,None,760.9272296999989,None,762.9126701999921,762.9126701999921,0.8999999999999986,2.721,-1450,-1650,-2000,,,,,,,,,,,,,,,,,,,,,,,,,,,,,,,,,,,,,,,,,,,,,,,,,,,,,,,,,,,,,,,,,,,,,,,,,,,,,,,,,,,f,19,dongqing,2022_Apr_14_1752,experiment3,2021.1.4,59.34675835822856,
12,200,0,50,two,200,0,50,,,,,0,66,66,11,,,,,,,,,,,l,1.4474881999922218,765.7128174999962,None,765.7128174999962,None,767.1933983999916,None,767.1933983999916,None,767.1933983999916,None,769.1809003999952,769.6831772999867,769.1809003999952,769.6831772999867,769.1809003999952,769.6831772999867,767.1933983999916,None,769.7164210799849,None,769.7164210799849,None,769.7164210799849,None,0.015122779994271696,None,769.7164210799849,None,769.7164210799849,None,769.7164210799849,None,769.7164210799849,None,769.7164210799849,None,769.7164210799849,None,769.7411432999943,None,769.7411432999943,None,769.7411432999943,None,0.013463769981171936,0.5134637699811719,769.7411432999943,None,769.7411432999943,None,769.7411432999943,None,769.7411432999943,None,769.7411432999943,None,769.7411432999943,None,771.7264900999871,771.7264900999871,0.10000000000000142,2.999,-1250,-1650,-1950,,,,,,,,,,,,,,,,,,,,,,,,,,,,,,,,,,,,,,,,,,,,,,,,,,,,,,,,,,,,,,,,,,,,,,,,,,,,,,,,,,,f,19,dongqing,2022_Apr_14_1752,experiment3,2021.1.4,59.34675835822856,
25,200,50,50,one,200,50,50,,,,,0,67,67,24,,,,,,,,,,,g,1.4489900000044145,774.7855859999981,None,774.7855859999981,None,776.2675986999966,None,776.2675986999966,None,776.2675986999966,None,778.2491602999944,None,778.2491602999944,None,778.2491602999944,None,776.2675986999966,None,778.7776197899963,None,778.7776197899963,None,778.7776197899963,None,0.0048632899997755885,None,778.7776197899963,None,778.7776197899963,None,778.7776197899963,None,778.7776197899963,None,778.7776197899963,None,778.7776197899963,None,778.7956690999999,None,778.7956690999999,None,778.7956690999999,None,0.012422479994711466,0.5124224799947115,778.7956690999999,None,778.7956690999999,None,778.7956690999999,None,778.7956690999999,None,778.7956690999999,None,778.7956690999999,None,780.7895962999901,780.7895962999901,0.6000000000000014,2.546,-1050,-1600,-1900,,,,,,,,,,,,,,,,,,,,,,,,,,,,,,,,,,,,,,,,,,,,,,,,,,,,,,,,,,,,,,,,,,,,,,,,,,,,,,,,,,,f,19,dongqing,2022_Apr_14_1752,experiment3,2021.1.4,59.34675835822856,
21,50,0,0,two,50,0,0,,,,,0,68,68,20,,,,,,,,,,,l,1.3936574999970617,783.3992543999921,None,783.3992543999921,None,784.8458204999915,None,784.8458204999915,None,784.8458204999915,None,786.839035099998,None,786.839035099998,None,786.839035099998,None,784.8458204999915,None,787.3509484899856,None,787.3509484899856,None,787.3509484899856,None,0.01181478999205865,None,787.3509484899856,None,787.3509484899856,None,787.3509484899856,None,787.3509484899856,None,787.3509484899856,None,787.3509484899856,None,787.3680194999906,None,787.3680194999906,None,787.3680194999906,None,0.0014865899865981191,0.5014865899865981,787.3680194999906,None,787.3680194999906,None,787.3680194999906,None,787.3680194999906,None,787.3680194999906,None,787.3680194999906,None,789.3694502899904,None,0.20000000000000284,2.497,-1000,-1600,-1900,,,,,,,,,,,,,,,,,,,,,,,,,,,,,,,,,,,,,,,,,,,,,,,,,,,,,,,,,,,,,,,,,,,,,,,,,,,,,,,,,,,f,19,dongqing,2022_Apr_14_1752,experiment3,2021.1.4,59.34675835822856,
65,0,-200,0,one,0,-200,0,,,,,0,69,69,64,,,,,,,,,,,g,1.1650312999991002,791.9743132999865,None,791.9743132999865,None,793.1671073999896,None,793.1671073999896,None,793.1671073999896,None,795.1371222999878,795.6393676000007,795.1371222999878,795.6393676000007,795.1371222999878,795.6393676000007,793.1671073999896,None,795.6906046799879,None,795.6906046799879,None,795.6906046799879,None,0.015311579991248436,None,795.6906046799879,None,795.6906046799879,None,795.6906046799879,None,795.6906046799879,None,795.6906046799879,None,795.6906046799879,None,795.7004163999954,None,795.7004163999954,None,795.7004163999954,None,0.004123580001760274,0.5041235800017603,795.7004163999954,None,795.7004163999954,None,795.7004163999954,None,795.7004163999954,None,795.7004163999954,None,795.7004163999954,None,797.692321399998,797.692321399998,1.2000000000000028,2.561,-1000,-1800,-1900,,,,,,,,,,,,,,,,,,,,,,,,,,,,,,,,,,,,,,,,,,,,,,,,,,,,,,,,,,,,,,,,,,,,,,,,,,,,,,,,,,,f,19,dongqing,2022_Apr_14_1752,experiment3,2021.1.4,59.34675835822856,
45,0,200,200,two,0,200,200,,,,,0,70,70,44,,,,,,,,,,,l,1.4851983999978984,800.3204428999888,None,800.3204428999888,None,801.8445773999993,None,801.8445773999993,None,801.8445773999993,None,803.8189780999965,None,803.8189780999965,None,803.8189780999965,None,801.8445773999993,None,804.3551958799974,None,804.3551958799974,None,804.3551958799974,None,0.01439758000196889,None,804.3551958799974,None,804.3551958799974,None,804.3551958799974,None,804.3551958799974,None,804.3551958799974,None,804.3551958799974,None,804.3688810999884,None,804.3688810999884,None,804.3688810999884,None,0.0018273799942107871,0.5018273799942108,804.3688810999884,None,804.3688810999884,None,804.3688810999884,None,804.3688810999884,None,804.3688810999884,None,804.3688810999884,None,806.353384099988,806.353384099988,0.6000000000000014,2.315,-1000,-1600,-1700,,,,,,,,,,,,,,,,,,,,,,,,,,,,,,,,,,,,,,,,,,,,,,,,,,,,,,,,,,,,,,,,,,,,,,,,,,,,,,,,,,,f,19,dongqing,2022_Apr_14_1752,experiment3,2021.1.4,59.34675835822856,
26,50,200,50,one,50,200,50,,,,,0,71,71,25,,,,,,,,,,,g,1.4992154999927152,808.7339191999927,None,808.7339191999927,None,810.2708446999895,None,810.2708446999895,None,810.2708446999895,None,812.2561878999986,812.7670909000008,812.2561878999986,812.7670909000008,812.2561878999986,812.7670909000008,810.2708446999895,None,812.7837127899999,None,812.7837127899999,None,812.7837127899999,None,0.008580189998610877,None,812.7837127899999,None,812.7837127899999,None,812.7837127899999,None,812.7837127899999,None,812.7837127899999,None,812.7837127899999,None,812.8147736999963,None,812.8147736999963,None,812.8147736999963,None,0.007462779991328716,0.5074627799913287,812.8147736999963,None,812.8147736999963,None,812.8147736999963,None,812.8147736999963,None,812.8147736999963,None,812.8147736999963,None,814.8007422999945,814.8007422999945,0.7000000000000028,2.268,-950,-1400,-1650,,,,,,,,,,,,,,,,,,,,,,,,,,,,,,,,,,,,,,,,,,,,,,,,,,,,,,,,,,,,,,,,,,,,,,,,,,,,,,,,,,,f,19,dongqing,2022_Apr_14_1752,experiment3,2021.1.4,59.34675835822856,
54,-200,0,-150,one,-200,0,-150,,,,,0,72,72,53,,,,,,,,,,,l,0.9422971000021789,817.1605509999936,None,817.1605509999936,None,818.1537451999902,None,818.1537451999902,None,818.1537451999902,None,820.1278892999981,820.6351960999891,820.1278892999981,820.6351960999891,820.1278892999981,820.6351960999891,818.1537451999902,None,820.6684398799873,None,820.6684398799873,None,820.6684398799873,None,0.016429979994427413,None,820.6684398799873,None,820.6684398799873,None,820.6684398799873,None,820.6684398799873,None,820.6684398799873,None,820.6684398799873,None,820.6829461999878,None,820.6829461999878,None,820.6829461999878,None,0.0021387799934018403,0.5021387799934018,820.6829461999878,None,820.6829461999878,None,820.6829461999878,None,820.6829461999878,None,820.6829461999878,None,820.6829461999878,None,822.6666977999994,822.6666977999994,-3.0,3.475,-1150,-1400,-1800,,,,,,,,,,,,,,,,,,,,,,,,,,,,,,,,,,,,,,,,,,,,,,,,,,,,,,,,,,,,,,,,,,,,,,,,,,,,,,,,,,,f,19,dongqing,2022_Apr_14_1752,experiment3,2021.1.4,59.34675835822856,
18,200,0,0,one,200,0,0,,,,,0,73,73,17,,,,,,,,,,,a,1.1867066999984672,826.213986799994,None,826.213986799994,None,827.4409829999931,None,827.4409829999931,None,827.4409829999931,None,829.4223021999933,829.9330551999883,829.4223021999933,829.9330551999883,829.4223021999933,829.9330551999883,827.4409829999931,None,829.9496770899874,None,829.9496770899874,None,829.9496770899874,None,0.0006084899941924959,None,829.9496770899874,None,829.9496770899874,None,829.9496770899874,None,829.9496770899874,None,829.9496770899874,None,829.9496770899874,None,829.9712665999978,None,829.9712665999978,None,829.9712665999978,None,0.008209979991079308,0.5082099799910793,829.9712665999978,None,829.9712665999978,None,829.9712665999978,None,829.9712665999978,None,829.9712665999978,None,829.9712665999978,None,831.9703081999905,831.9703081999905,0.7000000000000028,2.02,-950,-1400,-1800,,,,,,,,,,,,,,,,,,,,,,,,,,,,,,,,,,,,,,,,,,,,,,,,,,,,,,,,,,,,,,,,,,,,,,,,,,,,,,,,,,,f,19,dongqing,2022_Apr_14_1752,experiment3,2021.1.4,59.34675835822856,
46,200,200,50,two,200,200,50,,,,,0,74,74,45,,,,,,,,,,,g,0.8963207000051625,834.069380099987,None,834.069380099987,None,834.9892528999917,None,834.9892528999917,None,834.9892528999917,None,836.9805537999928,None,836.9805537999928,None,836.9805537999928,None,834.9892528999917,None,837.4900265899938,None,837.4900265899938,None,837.4900265899938,None,0.011194489998160861,None,837.4900265899938,None,837.4900265899938,None,837.4900265899938,None,837.4900265899938,None,837.4900265899938,None,837.4900265899938,None,837.5039061999996,None,837.5039061999996,None,837.5039061999996,None,0.00411338999401778,0.5041133899940178,837.5039061999996,None,837.5039061999996,None,837.5039061999996,None,837.5039061999996,None,837.5039061999996,None,837.5039061999996,None,839.5063856999914,839.5063856999914,1.0,3.114,-750,-1200,-1750,,,,,,,,,,,,,,,,,,,,,,,,,,,,,,,,,,,,,,,,,,,,,,,,,,,,,,,,,,,,,,,,,,,,,,,,,,,,,,,,,,,f,19,dongqing,2022_Apr_14_1752,experiment3,2021.1.4,59.34675835822856,
23,0,200,0,two,0,200,0,,,,,0,75,75,22,,,,,,,,,,,a,1.1663257000036538,842.6853654000006,None,842.6853654000006,None,843.8952342999983,None,843.8952342999983,None,843.8952342999983,None,845.8626624999888,846.3777559999871,845.8626624999888,846.3777559999871,845.8626624999888,846.3777559999871,843.8952342999983,None,846.3943778899862,None,846.3943778899862,None,846.3943778899862,None,0.010659389998181723,None,846.3943778899862,None,846.3943778899862,None,846.3943778899862,None,846.3943778899862,None,846.3943778899862,None,846.3943778899862,None,846.4081959999894,None,846.4081959999894,None,846.4081959999894,None,0.015825279988348484,0.5158252799883485,846.4081959999894,None,846.4081959999894,None,846.4081959999894,None,846.4081959999894,None,846.4081959999894,None,846.4081959999894,None,848.394984899991,848.394984899991,0.7000000000000028,2.303,-750,-1000,-1750,,,,,,,,,,,,,,,,,,,,,,,,,,,,,,,,,,,,,,,,,,,,,,,,,,,,,,,,,,,,,,,,,,,,,,,,,,,,,,,,,,,f,19,dongqing,2022_Apr_14_1752,experiment3,2021.1.4,59.34675835822856,
29,50,0,50,one,50,0,50,,,,,0,76,76,28,,,,,,,,,,,l,0.9900141999969492,850.7752107999986,None,850.7752107999986,None,851.8024707999866,None,851.8024707999866,None,851.8024707999866,None,853.7907730000006,None,853.7907730000006,None,853.7907730000006,None,851.8024707999866,None,854.3083754899868,None,854.3083754899868,None,854.3083754899868,None,0.011492990000988357,None,854.3083754899868,None,854.3083754899868,None,854.3083754899868,None,854.3083754899868,None,854.3083754899868,None,854.3083754899868,None,854.3249417999905,None,854.3249417999905,None,854.3249417999905,None,0.014525580001645721,0.5145255800016457,854.3249417999905,None,854.3249417999905,None,854.3249417999905,None,854.3249417999905,None,854.3249417999905,None,854.3249417999905,None,856.3197894999903,856.3197894999903,0.8999999999999986,3.566,-700,-1000,-1700,,,,,,,,,,,,,,,,,,,,,,,,,,,,,,,,,,,,,,,,,,,,,,,,,,,,,,,,,,,,,,,,,,,,,,,,,,,,,,,,,,,f,19,dongqing,2022_Apr_14_1752,experiment3,2021.1.4,59.34675835822856,
19,0,0,50,two,0,0,50,,,,,0,77,77,18,,,,,,,,,,,a,1.2011104999983218,859.9561217999872,None,859.9561217999872,None,861.1964898999868,None,861.1964898999868,None,861.1964898999868,None,863.1947919999948,None,863.1947919999948,None,863.1947919999948,None,861.1964898999868,None,863.7128788799921,None,863.7128788799921,None,863.7128788799921,None,0.012091579992556944,None,863.7128788799921,None,863.7128788799921,None,863.7128788799921,None,863.7128788799921,None,863.7128788799921,None,863.7128788799921,None,863.7509556999867,None,863.7509556999867,None,863.7509556999867,None,0.009489769989158958,0.509489769989159,863.7509556999867,None,863.7509556999867,None,863.7509556999867,None,863.7509556999867,None,863.7509556999867,None,863.7509556999867,None,865.7271017999883,865.7271017999883,0.6000000000000014,2.627,-700,-1000,-1650,,,,,,,,,,,,,,,,,,,,,,,,,,,,,,,,,,,,,,,,,,,,,,,,,,,,,,,,,,,,,,,,,,,,,,,,,,,,,,,,,,,f,19,dongqing,2022_Apr_14_1752,experiment3,2021.1.4,59.34675835822856,
14,0,50,0,one,0,50,0,,,,,0,78,78,13,,,,,,,,,,,g,5.644285400005174,868.4352377999894,None,868.4352377999894,None,874.1290178999916,None,874.1290178999916,None,874.1290178999916,None,876.109619099996,876.6222467999905,876.109619099996,876.6222467999905,876.109619099996,876.6222467999905,874.1290178999916,None,876.6388686899896,None,876.6388686899896,None,876.6388686899896,None,0.010932189994491637,None,876.6388686899896,None,876.6388686899896,None,876.6388686899896,None,876.6388686899896,None,876.6388686899896,None,876.6388686899896,None,876.6544442999875,None,876.6544442999875,None,876.6544442999875,None,0.016374379993067123,0.5163743799930671,876.6544442999875,None,876.6544442999875,None,876.6544442999875,None,876.6544442999875,None,876.6544442999875,None,876.6544442999875,None,878.6395876999886,878.6395876999886,1.2000000000000028,2.749,-700,-950,-1650,,,,,,,,,,,,,,,,,,,,,,,,,,,,,,,,,,,,,,,,,,,,,,,,,,,,,,,,,,,,,,,,,,,,,,,,,,,,,,,,,,,f,19,dongqing,2022_Apr_14_1752,experiment3,2021.1.4,59.34675835822856,
1,0,50,200,one,0,50,200,,,,,0,79,79,0,,,,,,,,,,,l,1.455284000010579,881.4535121999943,None,881.4535121999943,None,882.947273400001,None,882.947273400001,None,882.947273400001,None,884.9200347999868,885.4355287999933,884.9200347999868,885.4355287999933,884.9200347999868,885.4355287999933,882.947273400001,None,885.4521506899924,None,885.4521506899924,None,885.4521506899924,None,0.011609889988903888,None,885.4521506899924,None,885.4521506899924,None,885.4521506899924,None,885.4521506899924,None,885.4521506899924,None,885.4521506899924,None,885.4694297999959,None,885.4694297999959,None,885.4694297999959,None,0.01421917999687139,0.5142191799968714,885.4694297999959,None,885.4694297999959,None,885.4694297999959,None,885.4694297999959,None,885.4694297999959,None,885.4694297999959,None,887.4547476000007,887.4547476000007,0.6000000000000014,2.695,-700,-900,-1450,,,,,,,,,,,,,,,,,,,,,,,,,,,,,,,,,,,,,,,,,,,,,,,,,,,,,,,,,,,,,,,,,,,,,,,,,,,,,,,,,,,f,19,dongqing,2022_Apr_14_1752,experiment3,2021.1.4,59.34675835822856,
80,-150,-200,-150,two,-150,-200,-150,,,,,0,80,80,79,,,,,,,,,,,a,1.6605227999971248,890.2084519999917,None,890.2084519999917,None,891.8968798999995,None,891.8968798999995,None,891.8968798999995,None,893.8890342999948,None,893.8890342999948,None,893.8890342999948,None,891.8968798999995,None,894.4014450899864,None,894.4014450899864,None,894.4014450899864,None,0.011100389994680882,None,894.4014450899864,None,894.4014450899864,None,894.4014450899864,None,894.4014450899864,None,894.4014450899864,None,894.4014450899864,None,894.4261767999997,None,894.4261767999997,None,894.4261767999997,None,0.015824179994524457,0.5158241799945245,894.4261767999997,None,894.4261767999997,None,894.4261767999997,None,894.4261767999997,None,894.4261767999997,None,894.4261767999997,None,896.4019912999938,896.4019912999938,0.7000000000000028,2.46,-850,-1100,-1600,,,,,,,,,,,,,,,,,,,,,,,,,,,,,,,,,,,,,,,,,,,,,,,,,,,,,,,,,,,,,,,,,,,,,,,,,,,,,,,,,,,f,19,dongqing,2022_Apr_14_1752,experiment3,2021.1.4,59.34675835822856,
89,-200,-150,-200,one,-200,-150,-200,,,,,0,81,81,88,,,,,,,,,,,l,1.450634099994204,898.9362357999926,None,898.9362357999926,None,900.4175973999954,None,900.4175973999954,None,900.4175973999954,None,902.4043363999954,None,902.4043363999954,None,902.4043363999954,None,900.4175973999954,None,902.941836479996,None,902.941836479996,None,902.941836479996,None,0.009220079984515905,None,902.941836479996,None,902.941836479996,None,902.941836479996,None,902.941836479996,None,902.941836479996,None,902.941836479996,None,902.9767810999911,None,902.9767810999911,None,902.9767810999911,None,0.007451769997715019,0.507451769997715,902.9767810999911,None,902.9767810999911,None,902.9767810999911,None,902.9767810999911,None,902.9767810999911,None,902.9767810999911,None,904.9504237999936,904.9504237999936,-1.2000000000000028,2.469,-1050,-1250,-1800,,,,,,,,,,,,,,,,,,,,,,,,,,,,,,,,,,,,,,,,,,,,,,,,,,,,,,,,,,,,,,,,,,,,,,,,,,,,,,,,,,,f,19,dongqing,2022_Apr_14_1752,experiment3,2021.1.4,59.34675835822856,
16,0,0,200,one,0,0,200,,,,,0,82,82,15,,,,,,,,,,,a,1.8892669999913778,907.501409199991,None,907.501409199991,None,909.4374552999943,None,909.4374552999943,None,909.4374552999943,None,911.4328383999964,None,911.4328383999964,None,911.4328383999964,None,909.4374552999943,None,911.9707397799968,None,911.9707397799968,None,911.9707397799968,None,0.011044880011468194,None,911.9707397799968,None,911.9707397799968,None,911.9707397799968,None,911.9707397799968,None,911.9707397799968,None,911.9707397799968,None,911.9849647999945,None,911.9849647999945,None,911.9849647999945,None,0.0016554799949517474,0.5016554799949517,911.9849647999945,None,911.9849647999945,None,911.9849647999945,None,911.9849647999945,None,911.9849647999945,None,911.9849647999945,None,913.9826262999995,913.9826262999995,1.0,1.817,-1050,-1250,-1600,,,,,,,,,,,,,,,,,,,,,,,,,,,,,,,,,,,,,,,,,,,,,,,,,,,,,,,,,,,,,,,,,,,,,,,,,,,,,,,,,,,f,19,dongqing,2022_Apr_14_1752,experiment3,2021.1.4,59.34675835822856,
71,0,-200,0,two,0,-200,0,,,,,0,83,83,70,,,,,,,,,,,g,1.1777221000083955,915.8645284999948,None,915.8645284999948,None,917.0846458999877,None,917.0846458999877,None,917.0846458999877,None,919.0634812999924,919.5793222999928,919.0634812999924,919.5793222999928,919.0634812999924,919.5793222999928,917.0846458999877,None,919.612566079991,None,919.612566079991,None,919.612566079991,None,0.006431379995774478,None,919.612566079991,None,919.612566079991,None,919.612566079991,None,919.612566079991,None,919.612566079991,None,919.612566079991,None,919.6329362999968,None,919.6329362999968,None,919.6329362999968,None,0.010963369990349747,0.5109633699903497,919.6329362999968,None,919.6329362999968,None,919.6329362999968,None,919.6329362999968,None,919.6329362999968,None,919.6329362999968,None,921.614247599995,921.614247599995,1.2000000000000028,2.338,-1050,-1450,-1600,,,,,,,,,,,,,,,,,,,,,,,,,,,,,,,,,,,,,,,,,,,,,,,,,,,,,,,,,,,,,,,,,,,,,,,,,,,,,,,,,,,f,19,dongqing,2022_Apr_14_1752,experiment3,2021.1.4,59.34675835822856,
24,200,0,0,two,200,0,0,,,,,0,84,84,23,,,,,,,,,,,a,1.3045496999984607,924.0574067999987,None,924.0574067999987,None,925.3970563999901,None,925.3970563999901,None,925.3970563999901,None,927.4087043999898,None,927.4087043999898,None,927.4087043999898,None,925.3970563999901,None,927.8997653899875,None,927.8997653899875,None,927.8997653899875,None,0.0013214899809099734,None,927.8997653899875,None,927.8997653899875,None,927.8997653899875,None,927.8997653899875,None,927.8997653899875,None,927.8997653899875,None,927.942779399993,None,927.942779399993,None,927.942779399993,None,0.0019084799860138446,0.5019084799860138,927.942779399993,None,927.942779399993,None,927.942779399993,None,927.942779399993,None,927.942779399993,None,927.942779399993,None,929.943067789996,None,0.8999999999999986,2.321,-850,-1450,-1600,,,,,,,,,,,,,,,,,,,,,,,,,,,,,,,,,,,,,,,,,,,,,,,,,,,,,,,,,,,,,,,,,,,,,,,,,,,,,,,,,,,f,19,dongqing,2022_Apr_14_1752,experiment3,2021.1.4,59.34675835822856,
61,0,0,-150,one,0,0,-150,,,,,0,85,85,60,,,,,,,,,,,l,1.39710250000644,932.3141158999933,None,932.3141158999933,None,933.7380469999916,None,933.7380469999916,None,933.7380469999916,None,935.7163212999876,936.2271185999998,935.7163212999876,936.2271185999998,935.7163212999876,936.2271185999998,933.7380469999916,None,936.2437404899989,None,936.2437404899989,None,936.2437404899989,None,0.0106976899842266,None,936.2437404899989,None,936.2437404899989,None,936.2437404899989,None,936.2437404899989,None,936.2437404899989,None,936.2437404899989,None,936.258640199987,None,936.258640199987,None,936.258640199987,None,0.015949780005030334,0.5159497800050303,936.258640199987,None,936.258640199987,None,936.258640199987,None,936.258640199987,None,936.258640199987,None,936.258640199987,None,938.2715039999894,938.2715039999894,0.0,3.413,-850,-1450,-1750,,,,,,,,,,,,,,,,,,,,,,,,,,,,,,,,,,,,,,,,,,,,,,,,,,,,,,,,,,,,,,,,,,,,,,,,,,,,,,,,,,,f,19,dongqing,2022_Apr_14_1752,experiment3,2021.1.4,59.34675835822856,
13,0,0,50,one,0,0,50,,,,,0,86,86,12,,,,,,,,,,,a,1.8717900999909034,941.7529919999943,None,941.7529919999943,None,943.6428022999899,None,943.6428022999899,None,943.6428022999899,None,945.6277826000005,None,945.6277826000005,None,945.6277826000005,None,943.6428022999899,None,946.142202589997,None,946.142202589997,None,946.142202589997,None,0.009366990008857101,None,946.142202589997,None,946.142202589997,None,946.142202589997,None,946.142202589997,None,946.142202589997,None,946.142202589997,None,946.1562919999997,None,946.1562919999997,None,946.1562919999997,None,0.015856979982345365,0.5158569799823454,946.1562919999997,None,946.1562919999997,None,946.1562919999997,None,946.1562919999997,None,946.1562919999997,None,946.1562919999997,None,948.1420443999959,948.1420443999959,1.0,2.252,-850,-1450,-1700,,,,,,,,,,,,,,,,,,,,,,,,,,,,,,,,,,,,,,,,,,,,,,,,,,,,,,,,,,,,,,,,,,,,,,,,,,,,,,,,,,,f,19,dongqing,2022_Apr_14_1752,experiment3,2021.1.4,59.34675835822856,
74,-150,-200,-150,one,-150,-200,-150,,,,,0,87,87,73,,,,,,,,,,,g,0.9165671000082511,950.4652867999976,None,950.4652867999976,None,951.4188686999987,None,951.4188686999987,None,951.4188686999987,None,953.4091558999935,953.9091093999887,953.4091558999935,953.9091093999887,953.4091558999935,953.9091093999887,951.4188686999987,None,953.9423531799869,None,953.9423531799869,None,953.9423531799869,None,0.014568779995897785,None,953.9423531799869,None,953.9423531799869,None,953.9423531799869,None,953.9423531799869,None,953.9423531799869,None,953.9423531799869,None,953.9529978999926,None,953.9529978999926,None,953.9529978999926,None,0.006272079990594648,0.5062720799905946,953.9529978999926,None,953.9529978999926,None,953.9529978999926,None,953.9529978999926,None,953.9529978999926,None,953.9529978999926,None,955.9543376999936,955.9543376999936,1.0,2.876,-1000,-1650,-1850,,,,,,,,,,,,,,,,,,,,,,,,,,,,,,,,,,,,,,,,,,,,,,,,,,,,,,,,,,,,,,,,,,,,,,,,,,,,,,,,,,,f,19,dongqing,2022_Apr_14_1752,experiment3,2021.1.4,59.34675835822856,
85,-200,-200,0,one,-200,-200,0,,,,,0,88,88,84,,,,,,,,,,,l,1.4212563000037335,958.9209252,None,958.9209252,None,960.3769580999942,None,960.3769580999942,None,960.3769580999942,None,962.3642811999889,962.8716525999916,962.3642811999889,962.8716525999916,962.3642811999889,962.8716525999916,960.3769580999942,None,962.8882744899907,None,962.8882744899907,None,962.8882744899907,None,0.001588089988217689,None,962.8882744899907,None,962.8882744899907,None,962.8882744899907,None,962.8882744899907,None,962.8882744899907,None,962.8882744899907,None,962.9242439999944,None,962.9242439999944,None,962.9242439999944,None,0.003990679993876256,0.5039906799938763,962.9242439999944,None,962.9242439999944,None,962.9242439999944,None,962.9242439999944,None,962.9242439999944,None,962.9242439999944,None,964.9043610999943,964.9043610999943,0.10000000000000142,2.417,-1200,-1850,-1850,,,,,,,,,,,,,,,,,,,,,,,,,,,,,,,,,,,,,,,,,,,,,,,,,,,,,,,,,,,,,,,,,,,,,,,,,,,,,,,,,,,f,19,dongqing,2022_Apr_14_1752,experiment3,2021.1.4,59.34675835822856,
77,-150,0,-150,one,-150,0,-150,,,,,0,89,89,76,,,,,,,,,,,a,1.299663600002532,967.4192886999954,None,967.4192886999954,None,968.7434106000001,None,968.7434106000001,None,968.7434106000001,None,970.7278604999883,971.242539599989,970.7278604999883,971.242539599989,970.7278604999883,971.242539599989,968.7434106000001,None,971.2757833799872,None,971.2757833799872,None,971.2757833799872,None,0.01499477998004295,None,971.2757833799872,None,971.2757833799872,None,971.2757833799872,None,971.2757833799872,None,971.2757833799872,None,971.2757833799872,None,971.2899667999882,None,971.2899667999882,None,971.2899667999882,None,0.0008316799794556573,0.5008316799794557,971.2899667999882,None,971.2899667999882,None,971.2899667999882,None,971.2899667999882,None,971.2899667999882,None,971.2899667999882,None,973.2910823999991,973.2910823999991,-4.200000000000003,2.456,-1350,-1850,-2000,,,,,,,,,,,,,,,,,,,,,,,,,,,,,,,,,,,,,,,,,,,,,,,,,,,,,,,,,,,,,,,,,,,,,,,,,,,,,,,,,,,f,19,dongqing,2022_Apr_14_1752,experiment3,2021.1.4,59.34675835822856,
72,-200,0,0,two,-200,0,0,,,,,0,90,90,71,,,,,,,,,,,g,1.2185124000097858,975.8369223999907,None,975.8369223999907,None,977.0791370999941,None,977.0791370999941,None,977.0791370999941,None,979.075639799994,None,979.075639799994,None,979.075639799994,None,977.0791370999941,None,979.5959613899919,None,979.5959613899919,None,979.5959613899919,None,0.004881289991317317,None,979.5959613899919,None,979.5959613899919,None,979.5959613899919,None,979.5959613899919,None,979.5959613899919,None,979.5959613899919,None,979.6462952000002,None,979.6462952000002,None,979.6462952000002,None,0.0016163800028152764,0.5016163800028153,979.6462952000002,None,979.6462952000002,None,979.6462952000002,None,979.6462952000002,None,979.6462952000002,None,979.6462952000002,None,981.6355116999912,981.6355116999912,-13.100000000000001,2.062,-1550,-1850,-2000,,,,,,,,,,,,,,,,,,,,,,,,,,,,,,,,,,,,,,,,,,,,,,,,,,,,,,,,,,,,,,,,,,,,,,,,,,,,,,,,,,,f,19,dongqing,2022_Apr_14_1752,experiment3,2021.1.4,59.34675835822856,
52,-150,-200,0,one,-150,-200,0,,,,,0,91,91,51,,,,,,,,,,,a,1.9714146999904187,983.7843714999908,None,983.7843714999908,None,985.780193499988,None,985.780193499988,None,985.780193499988,None,987.7494330999907,988.2519834999985,987.7494330999907,988.2519834999985,987.7494330999907,988.2519834999985,985.780193499988,None,988.2839924899905,None,988.2839924899905,None,988.2839924899905,None,0.009072589993593283,None,988.2839924899905,None,988.2839924899905,None,988.2839924899905,None,988.2839924899905,None,988.2839924899905,None,988.2839924899905,None,988.3007843999949,None,988.3007843999949,None,988.3007843999949,None,0.014213579997885972,0.514213579997886,988.3007843999949,None,988.3007843999949,None,988.3007843999949,None,988.3007843999949,None,988.3007843999949,None,988.3007843999949,None,990.2941537999868,990.2941537999868,2.0,3.036,-1700,-2050,-2000,,,,,,,,,,,,,,,,,,,,,,,,,,,,,,,,,,,,,,,,,,,,,,,,,,,,,,,,,,,,,,,,,,,,,,,,,,,,,,,,,,,f,19,dongqing,2022_Apr_14_1752,experiment3,2021.1.4,59.34675835822856,
22,0,0,200,two,0,0,200,,,,,0,92,92,21,,,,,,,,,,,g,1.979386799997883,993.4222105999943,None,993.4222105999943,None,995.4475444999989,None,995.4475444999989,None,995.4475444999989,None,997.4137451999995,997.9145283999969,997.4137451999995,997.9145283999969,997.4137451999995,997.9145283999969,995.4475444999989,None,997.9691404799989,None,997.9691404799989,None,997.9691404799989,None,0.012691380004980601,None,997.9691404799989,None,997.9691404799989,None,997.9691404799989,None,997.9691404799989,None,997.9691404799989,None,997.9691404799989,None,997.9876289999956,None,997.9876289999956,None,997.9876289999956,None,0.013967670005513355,0.5139676700055134,997.9876289999956,None,997.9876289999956,None,997.9876289999956,None,997.9876289999956,None,997.9876289999956,None,997.9876289999956,None,999.9678456999973,999.9678456999973,0.5,4.363,-1700,-2050,-1800,,,,,,,,,,,,,,,,,,,,,,,,,,,,,,,,,,,,,,,,,,,,,,,,,,,,,,,,,,,,,,,,,,,,,,,,,,,,,,,,,,,f,19,dongqing,2022_Apr_14_1752,experiment3,2021.1.4,59.34675835822856,
33,50,50,200,two,50,50,200,,,,,0,93,93,32,,,,,,,,,,,a,1.378429899996263,1004.4551143999997,None,1004.4551143999997,None,1005.8815190999885,None,1005.8815190999885,None,1005.8815190999885,None,1007.8642725999962,None,1007.8642725999962,None,1007.8642725999962,None,1005.8815190999885,None,1008.3733014899932,None,1008.3733014899932,None,1008.3733014899932,None,0.0034236899955431,None,1008.3733014899932,None,1008.3733014899932,None,1008.3733014899932,None,1008.3733014899932,None,1008.3733014899932,None,1008.3733014899932,None,1008.4418238999933,None,1008.4418238999933,None,1008.4418238999933,None,0.0056597699876874685,0.5056597699876875,1008.4418238999933,None,1008.4418238999933,None,1008.4418238999933,None,1008.4418238999933,None,1008.4418238999933,None,1008.4418238999933,None,1010.4219393999956,1010.4219393999956,-1.2999999999999972,3.003,-1650,-2000,-1600,,,,,,,,,,,,,,,,,,,,,,,,,,,,,,,,,,,,,,,,,,,,,,,,,,,,,,,,,,,,,,,,,,,,,,,,,,,,,,,,,,,f,19,dongqing,2022_Apr_14_1752,experiment3,2021.1.4,59.34675835822856,
4,50,200,0,one,50,200,0,,,,,0,94,94,3,,,,,,,,,,,l,1.367848599998979,1013.5312904999882,None,1013.5312904999882,None,1014.9354028999951,None,1014.9354028999951,None,1014.9354028999951,None,1016.9281967999996,None,1016.9281967999996,None,1016.9281967999996,None,1014.9354028999951,None,1017.4568546899987,None,1017.4568546899987,None,1017.4568546899987,None,0.010688189999200404,None,1017.4568546899987,None,1017.4568546899987,None,1017.4568546899987,None,1017.4568546899987,None,1017.4568546899987,None,1017.4568546899987,None,1017.4704530999879,None,1017.4704530999879,None,1017.4704530999879,None,0.0014291900006355718,0.5014291900006356,1017.4704530999879,None,1017.4704530999879,None,1017.4704530999879,None,1017.4704530999879,None,1017.4704530999879,None,1017.4704530999879,None,1019.471662099997,1019.471662099997,-0.7999999999999972,1.823,-1600,-1800,-1600,,,,,,,,,,,,,,,,,,,,,,,,,,,,,,,,,,,,,,,,,,,,,,,,,,,,,,,,,,,,,,,,,,,,,,,,,,,,,,,,,,,f,19,dongqing,2022_Apr_14_1752,experiment3,2021.1.4,59.34675835822856,
