trialNumber,mychoice,otherchoice,stay,skip,pointsWon,otherScore,unobtained,choicepos,pos_1,otherscore,allowedkeyresp,trials_2.thisRepN,trials_2.thisTrialN,trials_2.thisN,trials_2.thisIndex,trials.thisRepN,trials.thisTrialN,trials.thisN,trials.thisIndex,image_2.started,image_2.stopped,key_resp_2.keys,key_resp_2.rt,key_resp_2.started,key_resp_2.stopped,key_resp_6.keys,key_resp_6.rt,key_resp_6.started,key_resp_6.stopped,text.started,text.stopped,left_3.started,left_3.stopped,middle_3.started,middle_3.stopped,right_3.started,right_3.stopped,otherleft_1.started,otherleft_1.stopped,othermiddle_1.started,othermiddle_1.stopped,otherright_1.started,otherright_1.stopped,text_2.started,text_2.stopped,left_4.started,left_4.stopped,right_4.started,right_4.stopped,middle_4.started,middle_4.stopped,ISI_3.started,ISI_3.stopped,mypick.started,mypick.stopped,otherpick.started,otherpick.stopped,residal.started,residal.stopped,otherleft_5.started,otherleft_5.stopped,othermiddle_5.started,othermiddle_5.stopped,otherright_5.started,otherright_5.stopped,left_5.started,left_5.stopped,right_5.started,right_5.stopped,middle_5.started,middle_5.stopped,ISI_5.started,ISI_5.stopped,mypick_1.started,mypick_1.stopped,otherpick_1.started,otherpick_1.stopped,residal_1.started,residal_1.stopped,otherleft_6.started,otherleft_6.stopped,othermiddle_6.started,othermiddle_6.stopped,otherright_6.started,otherright_6.stopped,text_3.started,text_3.stopped,rating,ratingrt,totalScore,othertotalScore,unobtainedScore,image_4.started,image_4.stopped,key_resp_3.keys,key_resp_3.rt,key_resp_3.started,key_resp_3.stopped,image_5.started,image_5.stopped,key_resp.keys,key_resp.rt,key_resp.started,key_resp.stopped,otherleft_3.started,otherleft_3.stopped,othermiddle_3.started,othermiddle_3.stopped,otherright_3.started,otherright_3.stopped,text_4.started,text_4.stopped,ISI_2.started,ISI_2.stopped,key_resp_4.keys,key_resp_4.rt,key_resp_4.started,key_resp_4.stopped,otherleft_4.started,otherleft_4.stopped,othermiddle_4.started,othermiddle_4.stopped,otherright_4.started,otherright_4.stopped,text_5.started,text_5.stopped,left.started,left.stopped,right.started,right.stopped,middle.started,middle.stopped,ISI.started,ISI.stopped,mypick_3.started,mypick_3.stopped,otherpick_3.started,otherpick_3.stopped,residal_3.started,residal_3.stopped,otherleft.started,otherleft.stopped,othermiddle.started,othermiddle.stopped,otherright.started,otherright.stopped,right_2.started,right_2.stopped,middle_2.started,middle_2.stopped,left_2.started,left_2.stopped,ISI_4.started,ISI_4.stopped,mypick_4.started,mypick_4.stopped,otherpick_4.started,otherpick_4.stopped,residal_4.started,residal_4.stopped,otherleft_2.started,otherleft_2.stopped,othermiddle_2.started,othermiddle_2.stopped,otherright_2.started,otherright_2.stopped,text_6.started,text_6.stopped,image_3.started,image_3.stopped,key_resp_9.keys,key_resp_9.rt,key_resp_9.started,key_resp_9.stopped,gender,age,participant,date,expName,psychopyVersion,frameRate,
,,,,,,,,,,,,,,,,,,,,49.10575069999322,None,space,14.281672499957494,49.10575069999322,None,,,,,,,,,,,,,,,,,,,,,,,,,,,,,,,,,,,,,,,,,,,,,,,,,,,,,,,,,,,,,,,,,,,,,,,,,,,,,,,,,,,,,,,,,,,,,,,,,,,,,,,,,,,,,,,,,,,,,,,,,,,,,,,,,,,,,,,,,,,,,,,,,,,,,,f,21,heyuxin,2022_Apr_13_2106,experiment3,2021.1.4,60.43274684437281,
81,-150,-150,-200,two,-150,-150,-200,,,,,0,0,0,80,,,,,,,,,,,a,1.3056047999998555,63.53187700000126,None,63.53187700000126,None,64.8783813000191,None,64.8783813000191,None,64.8783813000191,None,66.85022060002666,67.37251360004302,66.85022060002666,67.37251360004302,66.85022060002666,67.37251360004302,64.8783813000191,None,67.40617212003562,None,67.40617212003562,None,67.40617212003562,None,0.009515120065771043,None,67.40617212003562,None,67.40617212003562,None,67.40617212003562,None,67.40617212003562,None,67.40617212003562,None,67.40617212003562,None,67.42316650005523,None,67.42316650005523,None,67.42316650005523,None,0.014096179977059364,0.5140961799770594,67.42316650005523,None,67.42316650005523,None,67.42316650005523,None,67.42316650005523,None,67.42316650005523,None,67.42316650005523,None,69.40015560004395,69.40015560004395,-0.20000000000000284,3.714,50,-150,-200,,,,,,,,,,,,,,,,,,,,,,,,,,,,,,,,,,,,,,,,,,,,,,,,,,,,,,,,,,,,,,,,,,,,,,,,,,,,,,,,,,,f,21,heyuxin,2022_Apr_13_2106,experiment3,2021.1.4,60.43274684437281,
62,0,-150,0,one,0,-150,0,,,,,0,1,1,61,,,,,,,,,,,g,2.160498399985954,73.2298090000404,None,73.2298090000404,None,75.41864199994598,None,75.41864199994598,None,75.41864199994598,None,77.39763999998104,77.90733189997263,77.39763999998104,77.90733189997263,77.39763999998104,77.90733189997263,75.41864199994598,None,77.92416115996893,None,77.92416115996893,None,77.92416115996893,None,0.004935760051012039,None,77.92416115996893,None,77.92416115996893,None,77.92416115996893,None,77.92416115996893,None,77.92416115996893,None,77.92416115996893,None,77.94296619994566,None,77.94296619994566,None,77.94296619994566,None,0.010684020002372563,0.5106840200023726,77.94296619994566,None,77.94296619994566,None,77.94296619994566,None,77.94296619994566,None,77.94296619994566,None,77.94296619994566,None,79.93101519998163,79.93101519998163,7.100000000000001,2.489,50,-300,-200,,,,,,,,,,,,,,,,,,,,,,,,,,,,,,,,,,,,,,,,,,,,,,,,,,,,,,,,,,,,,,,,,,,,,,,,,,,,,,,,,,,f,21,heyuxin,2022_Apr_13_2106,experiment3,2021.1.4,60.43274684437281,
96,-150,-200,-200,two,-150,-200,-200,,,,,0,2,2,95,,,,,,,,,,,l,1.8509951999876648,82.4809989000205,None,82.4809989000205,None,84.36617209995165,None,84.36617209995165,None,84.36617209995165,None,86.34621919994242,86.85573379998095,86.34621919994242,86.85573379998095,86.34621919994242,86.85573379998095,84.36617209995165,None,86.87256305997725,None,86.87256305997725,None,86.87256305997725,None,0.010528260027058423,None,86.87256305997725,None,86.87256305997725,None,86.87256305997725,None,86.87256305997725,None,86.87256305997725,None,86.87256305997725,None,86.9028536999831,None,86.9028536999831,None,86.9028536999831,None,0.01359571993816644,0.5135957199381664,86.9028536999831,None,86.9028536999831,None,86.9028536999831,None,86.9028536999831,None,86.9028536999831,None,86.9028536999831,None,88.87905909994151,88.87905909994151,16.200000000000003,4.063,-100,-500,-400,,,,,,,,,,,,,,,,,,,,,,,,,,,,,,,,,,,,,,,,,,,,,,,,,,,,,,,,,,,,,,,,,,,,,,,,,,,,,,,,,,,f,21,heyuxin,2022_Apr_13_2106,experiment3,2021.1.4,60.43274684437281,
8,0,200,50,two,0,200,50,,,,,0,3,3,7,,,,,,,,,,,g,4.432463299948722,93.0311126000015,None,93.0311126000015,None,97.50460450001992,None,97.50460450001992,None,97.50460450001992,None,99.4781450999435,99.99307800002862,99.4781450999435,99.99307800002862,99.4781450999435,99.99307800002862,97.50460450001992,None,100.00990726002492,None,100.00990726002492,None,100.00990726002492,None,0.010850160149857402,None,100.00990726002492,None,100.00990726002492,None,100.00990726002492,None,100.00990726002492,None,100.00990726002492,None,100.00990726002492,None,100.02297179994639,None,100.02297179994639,None,100.02297179994639,None,0.016691519995220006,0.51669151999522,100.02297179994639,None,100.02297179994639,None,100.02297179994639,None,100.02297179994639,None,100.02297179994639,None,100.02297179994639,None,102.00766390003264,102.00766390003264,-12.0,3.703,-100,-300,-350,,,,,,,,,,,,,,,,,,,,,,,,,,,,,,,,,,,,,,,,,,,,,,,,,,,,,,,,,,,,,,,,,,,,,,,,,,,,,,,,,,,f,21,heyuxin,2022_Apr_13_2106,experiment3,2021.1.4,60.43274684437281,
43,200,200,0,two,200,200,0,,,,,0,4,4,42,,,,,,,,,,,g,3.2359319999814034,105.79212320002262,None,105.79212320002262,None,109.07602259994019,None,109.07602259994019,None,109.07602259994019,None,111.04203629994299,111.55569169996306,111.04203629994299,111.55569169996306,111.04203629994299,111.55569169996306,109.07602259994019,None,111.57252095995936,None,111.57252095995936,None,111.57252095995936,None,0.01148446009028703,None,111.57252095995936,None,111.57252095995936,None,111.57252095995936,None,111.57252095995936,None,111.57252095995936,None,111.57252095995936,None,111.58615180000197,None,111.58615180000197,None,111.58615180000197,None,0.0001589599996805191,0.5001589599996805,111.58615180000197,None,111.58615180000197,None,111.58615180000197,None,111.58615180000197,None,111.58615180000197,None,111.58615180000197,None,113.58033469994552,113.58033469994552,-0.6000000000000014,2.765,100,-100,-350,,,,,,,,,,,,,,,,,,,,,,,,,,,,,,,,,,,,,,,,,,,,,,,,,,,,,,,,,,,,,,,,,,,,,,,,,,,,,,,,,,,f,21,heyuxin,2022_Apr_13_2106,experiment3,2021.1.4,60.43274684437281,
63,-150,0,0,one,-150,0,0,,,,,0,5,5,62,,,,,,,,,,,l,1.5777816999470815,116.40947930002585,None,116.40947930002585,None,118.01392769999802,None,118.01392769999802,None,118.01392769999802,None,119.9993744000094,120.51037319994066,119.9993744000094,120.51037319994066,119.9993744000094,120.51037319994066,118.01392769999802,None,120.52720245993696,None,120.52720245993696,None,120.52720245993696,None,0.00658015999943018,None,120.52720245993696,None,120.52720245993696,None,120.52720245993696,None,120.52720245993696,None,120.52720245993696,None,120.52720245993696,None,120.54531830002088,None,120.54531830002088,None,120.54531830002088,None,0.012392319971695542,0.5123923199716955,120.54531830002088,None,120.54531830002088,None,120.54531830002088,None,120.54531830002088,None,120.54531830002088,None,120.54531830002088,None,122.53198059997521,122.53198059997521,-28.7,3.553,-50,-100,-350,,,,,,,,,,,,,,,,,,,,,,,,,,,,,,,,,,,,,,,,,,,,,,,,,,,,,,,,,,,,,,,,,,,,,,,,,,,,,,,,,,,f,21,heyuxin,2022_Apr_13_2106,experiment3,2021.1.4,60.43274684437281,
76,0,-150,-150,one,0,-150,-150,,,,,0,6,6,75,,,,,,,,,,,l,1.6598706000950187,126.1451280999463,None,126.1451280999463,None,127.82759829994757,None,127.82759829994757,None,127.82759829994757,None,129.80284549994394,130.30261490005068,129.80284549994394,130.30261490005068,129.80284549994394,130.30261490005068,127.82759829994757,None,130.33617926000153,None,130.33617926000153,None,130.33617926000153,None,0.011766460025683045,None,130.33617926000153,None,130.33617926000153,None,130.33617926000153,None,130.33617926000153,None,130.33617926000153,None,130.33617926000153,None,130.3525260000024,None,130.3525260000024,None,130.3525260000024,None,0.014948819880373776,0.5149488198803738,130.3525260000024,None,130.3525260000024,None,130.3525260000024,None,130.3525260000024,None,130.3525260000024,None,130.3525260000024,None,132.3295014000032,132.3295014000032,10.399999999999999,3.038,-50,-250,-500,,,,,,,,,,,,,,,,,,,,,,,,,,,,,,,,,,,,,,,,,,,,,,,,,,,,,,,,,,,,,,,,,,,,,,,,,,,,,,,,,,,f,21,heyuxin,2022_Apr_13_2106,experiment3,2021.1.4,60.43274684437281,
92,-200,0,-200,two,-200,0,-200,,,,,0,7,7,91,,,,,,,,,,,a,1.7516531000146642,135.455259499955,None,135.455259499955,None,137.2412124000257,None,137.2412124000257,None,137.2412124000257,None,139.2329996000044,139.73428930004593,139.2329996000044,139.73428930004593,139.2329996000044,139.73428930004593,137.2412124000257,None,139.75111856004224,None,139.75111856004224,None,139.75111856004224,None,0.0003595600137487054,None,139.75111856004224,None,139.75111856004224,None,139.75111856004224,None,139.75111856004224,None,139.75111856004224,None,139.75111856004224,None,139.79639909998514,None,139.79639909998514,None,139.79639909998514,None,0.016310480190441012,0.516310480190441,139.79639909998514,None,139.79639909998514,None,139.79639909998514,None,139.79639909998514,None,139.79639909998514,None,139.79639909998514,None,141.7522696000524,141.7522696000524,-40.2,3.226,-250,-250,-700,,,,,,,,,,,,,,,,,,,,,,,,,,,,,,,,,,,,,,,,,,,,,,,,,,,,,,,,,,,,,,,,,,,,,,,,,,,,,,,,,,,f,21,heyuxin,2022_Apr_13_2106,experiment3,2021.1.4,60.43274684437281,
26,50,200,50,one,50,200,50,,,,,0,8,8,25,,,,,,,,,,,g,1.5191117000067607,145.08147510001436,None,145.08147510001436,None,146.63175109995063,None,146.63175109995063,None,146.63175109995063,None,148.61036159994546,149.11521359998733,148.61036159994546,149.11521359998733,148.61036159994546,149.11521359998733,146.63175109995063,None,149.13204285998364,None,149.13204285998364,None,149.13204285998364,None,0.010742560029029846,None,149.13204285998364,None,149.13204285998364,None,149.13204285998364,None,149.13204285998364,None,149.13204285998364,None,149.13204285998364,None,149.14935930003412,None,149.14935930003412,None,149.14935930003412,None,0.015150520019233227,0.5151505200192332,149.14935930003412,None,149.14935930003412,None,149.14935930003412,None,149.14935930003412,None,149.14935930003412,None,149.14935930003412,None,151.14314409997314,151.14314409997314,-31.3,3.083,-200,-50,-650,,,,,,,,,,,,,,,,,,,,,,,,,,,,,,,,,,,,,,,,,,,,,,,,,,,,,,,,,,,,,,,,,,,,,,,,,,,,,,,,,,,f,21,heyuxin,2022_Apr_13_2106,experiment3,2021.1.4,60.43274684437281,
67,0,0,-150,two,0,0,-150,,,,,0,9,9,66,,,,,,,,,,,l,3.2000031999778003,154.28796139999758,None,154.28796139999758,None,157.51816430001054,None,157.51816430001054,None,157.51816430001054,None,159.50827290001325,160.01343779999297,159.50827290001325,160.01343779999297,159.50827290001325,160.01343779999297,157.51816430001054,None,160.03026705998928,None,160.03026705998928,None,160.03026705998928,None,0.009396860026754439,None,160.03026705998928,None,160.03026705998928,None,160.03026705998928,None,160.03026705998928,None,160.03026705998928,None,160.03026705998928,None,160.04492090002168,None,160.04492090002168,None,160.04492090002168,None,0.015077519929036498,0.5150775199290365,160.04492090002168,None,160.04492090002168,None,160.04492090002168,None,160.04492090002168,None,160.04492090002168,None,160.04492090002168,None,162.0409502000548,162.0409502000548,35.900000000000006,3.584,-200,-50,-800,,,,,,,,,,,,,,,,,,,,,,,,,,,,,,,,,,,,,,,,,,,,,,,,,,,,,,,,,,,,,,,,,,,,,,,,,,,,,,,,,,,f,21,heyuxin,2022_Apr_13_2106,experiment3,2021.1.4,60.43274684437281,
14,0,50,0,one,0,50,0,,,,,0,10,10,13,,,,,,,,,,,g,2.1382974000880495,165.69315479998477,None,165.69315479998477,None,167.86188740003854,None,167.86188740003854,None,167.86188740003854,None,169.8469479000196,None,169.8469479000196,None,169.8469479000196,None,167.86188740003854,None,170.3616856600391,None,170.3616856600391,None,170.3616856600391,None,0.009401460061781108,None,170.3616856600391,None,170.3616856600391,None,170.3616856600391,None,170.3616856600391,None,170.3616856600391,None,170.3616856600391,None,170.37798190000467,None,170.37798190000467,None,170.37798190000467,None,0.01382262003608048,0.5138226200360805,170.37798190000467,None,170.37798190000467,None,170.37798190000467,None,170.37798190000467,None,170.37798190000467,None,170.37798190000467,None,172.36647789995186,172.36647789995186,-13.200000000000003,2.789,-200,0,-800,,,,,,,,,,,,,,,,,,,,,,,,,,,,,,,,,,,,,,,,,,,,,,,,,,,,,,,,,,,,,,,,,,,,,,,,,,,,,,,,,,,f,21,heyuxin,2022_Apr_13_2106,experiment3,2021.1.4,60.43274684437281,
88,-200,-200,-150,one,-200,-200,-150,,,,,0,11,11,87,,,,,,,,,,,l,1.274296100018546,175.2366196999792,None,175.2366196999792,None,176.53058829996735,None,176.53058829996735,None,176.53058829996735,None,178.51108419999946,179.0265112000052,178.51108419999946,179.0265112000052,178.51108419999946,179.0265112000052,176.53058829996735,None,179.0433404600015,None,179.0433404600015,None,179.0433404600015,None,0.007536060060374439,None,179.0433404600015,None,179.0433404600015,None,179.0433404600015,None,179.0433404600015,None,179.0433404600015,None,179.0433404600015,None,179.06075790000614,None,179.06075790000614,None,179.06075790000614,None,0.013101920019835234,0.5131019200198352,179.06075790000614,None,179.06075790000614,None,179.06075790000614,None,179.06075790000614,None,179.06075790000614,None,179.06075790000614,None,181.04502990003675,181.04502990003675,15.299999999999997,2.45,-400,-200,-950,,,,,,,,,,,,,,,,,,,,,,,,,,,,,,,,,,,,,,,,,,,,,,,,,,,,,,,,,,,,,,,,,,,,,,,,,,,,,,,,,,,f,21,heyuxin,2022_Apr_13_2106,experiment3,2021.1.4,60.43274684437281,
23,0,200,0,two,0,200,0,,,,,0,12,12,22,,,,,,,,,,,g,2.6103684999980032,183.5592992999591,None,183.5592992999591,None,186.2106582999695,None,186.2106582999695,None,186.2106582999695,None,188.19270050001796,188.6932212000247,188.19270050001796,188.6932212000247,188.19270050001796,188.6932212000247,186.2106582999695,None,188.71005046002102,None,188.71005046002102,None,188.71005046002102,None,0.011596560012549162,None,188.71005046002102,None,188.71005046002102,None,188.71005046002102,None,188.71005046002102,None,188.71005046002102,None,188.71005046002102,None,188.72260730003472,None,188.72260730003472,None,188.72260730003472,None,0.0002634600969031453,0.5002634600969031,188.72260730003472,None,188.72260730003472,None,188.72260730003472,None,188.72260730003472,None,188.72260730003472,None,188.72260730003472,None,190.7242651599925,None,-49.0,3.936,-400,0,-950,,,,,,,,,,,,,,,,,,,,,,,,,,,,,,,,,,,,,,,,,,,,,,,,,,,,,,,,,,,,,,,,,,,,,,,,,,,,,,,,,,,f,21,heyuxin,2022_Apr_13_2106,experiment3,2021.1.4,60.43274684437281,
75,-150,-150,-200,one,-150,-150,-200,,,,,0,13,13,74,,,,,,,,,,,a,1.0081680000294,194.71284699998796,None,194.71284699998796,None,195.75979210005607,None,195.75979210005607,None,195.75979210005607,None,197.73970609996468,198.23945650004316,197.73970609996468,198.23945650004316,197.73970609996468,198.23945650004316,195.75979210005607,None,198.2729631600203,None,198.2729631600203,None,198.2729631600203,None,0.010478359996341169,None,198.2729631600203,None,198.2729631600203,None,198.2729631600203,None,198.2729631600203,None,198.2729631600203,None,198.2729631600203,None,198.2871442999458,None,198.2871442999458,None,198.2871442999458,None,0.015524519956670702,0.5155245199566707,198.2871442999458,None,198.2871442999458,None,198.2871442999458,None,198.2871442999458,None,198.2871442999458,None,198.2871442999458,None,200.27165080001578,200.27165080001578,12.299999999999997,3.836,-550,-150,-1150,,,,,,,,,,,,,,,,,,,,,,,,,,,,,,,,,,,,,,,,,,,,,,,,,,,,,,,,,,,,,,,,,,,,,,,,,,,,,,,,,,,f,21,heyuxin,2022_Apr_13_2106,experiment3,2021.1.4,60.43274684437281,
5,200,50,0,one,200,50,0,,,,,0,14,14,4,,,,,,,,,,,g,1.220467200037092,204.16634090000298,None,204.16634090000298,None,205.41768509999383,None,205.41768509999383,None,205.41768509999383,None,207.40060980001,207.9075387000339,207.40060980001,207.9075387000339,207.40060980001,207.9075387000339,205.41768509999383,None,207.92436796003022,None,207.92436796003022,None,207.92436796003022,None,0.0033364600967615843,None,207.92436796003022,None,207.92436796003022,None,207.92436796003022,None,207.92436796003022,None,207.92436796003022,None,207.92436796003022,None,207.9428430000553,None,207.9428430000553,None,207.9428430000553,None,0.013086020015180111,0.5130860200151801,207.9428430000553,None,207.9428430000553,None,207.9428430000553,None,207.9428430000553,None,207.9428430000553,None,207.9428430000553,None,209.93724869994912,209.93724869994912,49.7,2.731,-350,-100,-1150,,,,,,,,,,,,,,,,,,,,,,,,,,,,,,,,,,,,,,,,,,,,,,,,,,,,,,,,,,,,,,,,,,,,,,,,,,,,,,,,,,,f,21,heyuxin,2022_Apr_13_2106,experiment3,2021.1.4,60.43274684437281,
22,0,0,200,two,0,0,200,,,,,0,15,15,21,,,,,,,,,,,l,2.1456030000699684,212.7593134000199,None,212.7593134000199,None,214.92915179999545,None,214.92915179999545,None,214.92915179999545,None,216.90264430001844,217.40321400004905,216.90264430001844,217.40321400004905,216.90264430001844,217.40321400004905,214.92915179999545,None,217.43598295999692,None,217.43598295999692,None,217.43598295999692,None,0.011632260051555932,None,217.43598295999692,None,217.43598295999692,None,217.43598295999692,None,217.43598295999692,None,217.43598295999692,None,217.43598295999692,None,217.45054620003793,None,217.45054620003793,None,217.45054620003793,None,0.00011606002226471901,0.5001160600222647,217.45054620003793,None,217.45054620003793,None,217.45054620003793,None,217.45054620003793,None,217.45054620003793,None,217.45054620003793,None,219.45386046003551,None,25.0,2.751,-350,-100,-950,,,,,,,,,,,,,,,,,,,,,,,,,,,,,,,,,,,,,,,,,,,,,,,,,,,,,,,,,,,,,,,,,,,,,,,,,,,,,,,,,,,f,21,heyuxin,2022_Apr_13_2106,experiment3,2021.1.4,60.43274684437281,
65,0,-200,0,one,0,-200,0,,,,,0,16,16,64,,,,,,,,,,,a,1.2700460000196472,222.25397029996384,None,222.25397029996384,None,223.55685829999857,None,223.55685829999857,None,223.55685829999857,None,225.5340441999724,226.03505389997736,225.5340441999724,226.03505389997736,225.5340441999724,226.03505389997736,223.55685829999857,None,226.06766636001413,None,226.06766636001413,None,226.06766636001413,None,0.011683859978802502,None,226.06766636001413,None,226.06766636001413,None,226.06766636001413,None,226.06766636001413,None,226.06766636001413,None,226.06766636001413,None,226.0836585999932,None,226.0836585999932,None,226.0836585999932,None,0.015390419983305037,0.515390419983305,226.0836585999932,None,226.0836585999932,None,226.0836585999932,None,226.0836585999932,None,226.0836585999932,None,226.0836585999932,None,228.07056410005316,228.07056410005316,35.599999999999994,2.463,-350,-300,-950,,,,,,,,,,,,,,,,,,,,,,,,,,,,,,,,,,,,,,,,,,,,,,,,,,,,,,,,,,,,,,,,,,,,,,,,,,,,,,,,,,,f,21,heyuxin,2022_Apr_13_2106,experiment3,2021.1.4,60.43274684437281,
72,-200,0,0,two,-200,0,0,,,,,0,17,17,71,,,,,,,,,,,g,1.9490596998948604,230.6012656999519,None,230.6012656999519,None,232.5847744999919,None,232.5847744999919,None,232.5847744999919,None,234.5662147999974,235.06567140005063,234.5662147999974,235.06567140005063,234.5662147999974,235.06567140005063,232.5847744999919,None,235.09868105996867,None,235.09868105996867,None,235.09868105996867,None,0.01141606003511697,None,235.09868105996867,None,235.09868105996867,None,235.09868105996867,None,235.09868105996867,None,235.09868105996867,None,235.09868105996867,None,235.1122070000274,None,235.1122070000274,None,235.1122070000274,None,0.016483519808389246,0.5164835198083892,235.1122070000274,None,235.1122070000274,None,235.1122070000274,None,235.1122070000274,None,235.1122070000274,None,235.1122070000274,None,237.09609100001398,237.09609100001398,-50.0,2.823,-550,-300,-950,,,,,,,,,,,,,,,,,,,,,,,,,,,,,,,,,,,,,,,,,,,,,,,,,,,,,,,,,,,,,,,,,,,,,,,,,,,,,,,,,,,f,21,heyuxin,2022_Apr_13_2106,experiment3,2021.1.4,60.43274684437281,
73,-200,-150,-150,one,-200,-150,-150,,,,,0,18,18,72,,,,,,,,,,,a,1.662552300025709,239.9877668999834,None,239.9877668999834,None,241.66880999994464,None,241.66880999994464,None,241.66880999994464,None,243.6487220999552,244.14917380001862,243.6487220999552,244.14917380001862,243.6487220999552,244.14917380001862,241.66880999994464,None,244.18113105995582,None,244.18113105995582,None,244.18113105995582,None,0.0014547599712386727,None,244.18113105995582,None,244.18113105995582,None,244.18113105995582,None,244.18113105995582,None,244.18113105995582,None,244.18113105995582,None,244.20142769999802,None,244.20142769999802,None,244.20142769999802,None,0.009507620008662343,0.5095076200086623,244.20142769999802,None,244.20142769999802,None,244.20142769999802,None,244.20142769999802,None,244.20142769999802,None,244.20142769999802,None,246.19703879998997,246.19703879998997,-43.1,2.358,-750,-450,-1100,,,,,,,,,,,,,,,,,,,,,,,,,,,,,,,,,,,,,,,,,,,,,,,,,,,,,,,,,,,,,,,,,,,,,,,,,,,,,,,,,,,f,21,heyuxin,2022_Apr_13_2106,experiment3,2021.1.4,60.43274684437281,
20,0,50,0,two,0,50,0,,,,,0,19,19,19,,,,,,,,,,,g,1.3270879000192508,248.61939979996532,None,248.61939979996532,None,249.96805400005542,None,249.96805400005542,None,249.96805400005542,None,251.9472240000032,252.44725289999042,251.9472240000032,252.44725289999042,251.9472240000032,252.44725289999042,249.96805400005542,None,252.47939995997586,None,252.47939995997586,None,252.47939995997586,None,0.011443260009400547,None,252.47939995997586,None,252.47939995997586,None,252.47939995997586,None,252.47939995997586,None,252.47939995997586,None,252.47939995997586,None,252.49841979995836,None,252.49841979995836,None,252.49841979995836,None,0.011632819892838597,0.5116328198928386,252.49841979995836,None,252.49841979995836,None,252.49841979995836,None,252.49841979995836,None,252.49841979995836,None,252.49841979995836,None,254.4802265999606,254.4802265999606,-8.100000000000001,3.018,-750,-400,-1100,,,,,,,,,,,,,,,,,,,,,,,,,,,,,,,,,,,,,,,,,,,,,,,,,,,,,,,,,,,,,,,,,,,,,,,,,,,,,,,,,,,f,21,heyuxin,2022_Apr_13_2106,experiment3,2021.1.4,60.43274684437281,
83,-150,0,-150,two,-150,0,-150,,,,,0,20,20,82,,,,,,,,,,,l,1.5306254000170156,257.57858279999346,None,257.57858279999346,None,259.13368580001406,None,259.13368580001406,None,259.13368580001406,None,261.11073780001607,261.6102814000333,261.11073780001607,261.6102814000333,261.11073780001607,261.6102814000333,259.13368580001406,None,261.64370805998334,None,261.64370805998334,None,261.64370805998334,None,0.011747160111553967,None,261.64370805998334,None,261.64370805998334,None,261.64370805998334,None,261.64370805998334,None,261.64370805998334,None,261.64370805998334,None,261.66100710001774,None,261.66100710001774,None,261.66100710001774,None,0.014918219996616244,0.5149182199966162,261.66100710001774,None,261.66100710001774,None,261.66100710001774,None,261.66100710001774,None,261.66100710001774,None,261.66100710001774,None,263.6467789999442,263.6467789999442,-36.6,2.953,-900,-400,-1250,,,,,,,,,,,,,,,,,,,,,,,,,,,,,,,,,,,,,,,,,,,,,,,,,,,,,,,,,,,,,,,,,,,,,,,,,,,,,,,,,,,f,21,heyuxin,2022_Apr_13_2106,experiment3,2021.1.4,60.43274684437281,
12,200,0,50,two,200,0,50,,,,,0,21,21,11,,,,,,,,,,,a,1.2804874000139534,266.66320680000354,None,266.66320680000354,None,267.98639740003273,None,267.98639740003273,None,267.98639740003273,None,269.96053449995816,270.4752981000347,269.96053449995816,270.4752981000347,269.96053449995816,270.4752981000347,267.98639740003273,None,270.492127360031,None,270.492127360031,None,270.492127360031,None,0.0075368600664660335,None,270.492127360031,None,270.492127360031,None,270.492127360031,None,270.492127360031,None,270.492127360031,None,270.492127360031,None,270.51128029997926,None,270.51128029997926,None,270.51128029997926,None,0.012891120044514537,0.5128911200445145,270.51128029997926,None,270.51128029997926,None,270.51128029997926,None,270.51128029997926,None,270.51128029997926,None,270.51128029997926,None,272.49124590004794,272.49124590004794,45.400000000000006,2.66,-700,-400,-1200,,,,,,,,,,,,,,,,,,,,,,,,,,,,,,,,,,,,,,,,,,,,,,,,,,,,,,,,,,,,,,,,,,,,,,,,,,,,,,,,,,,f,21,heyuxin,2022_Apr_13_2106,experiment3,2021.1.4,60.43274684437281,
28,0,50,50,one,0,50,50,,,,,0,22,22,27,,,,,,,,,,,a,1.0161043000407517,275.23342009994667,None,275.23342009994667,None,276.2739319000393,None,276.2739319000393,None,276.2739319000393,None,278.2577342999866,278.7572179000126,278.2577342999866,278.7572179000126,278.2577342999866,278.7572179000126,276.2739319000393,None,278.79087642000525,None,278.79087642000525,None,278.79087642000525,None,0.009890920016914606,None,278.79087642000525,None,278.79087642000525,None,278.79087642000525,None,278.79087642000525,None,278.79087642000525,None,278.79087642000525,None,278.8093905999558,None,278.8093905999558,None,278.8093905999558,None,0.013197280117310584,0.5131972801173106,278.8093905999558,None,278.8093905999558,None,278.8093905999558,None,278.8093905999558,None,278.8093905999558,None,278.8093905999558,None,280.7932083000196,280.7932083000196,0.0,2.621,-700,-350,-1150,,,,,,,,,,,,,,,,,,,,,,,,,,,,,,,,,,,,,,,,,,,,,,,,,,,,,,,,,,,,,,,,,,,,,,,,,,,,,,,,,,,f,21,heyuxin,2022_Apr_13_2106,experiment3,2021.1.4,60.43274684437281,
66,-200,0,0,one,-200,0,0,,,,,0,23,23,65,,,,,,,,,,,a,1.1017721999669448,283.4749855999835,None,283.4749855999835,None,284.6089652000228,None,284.6089652000228,None,284.6089652000228,None,286.6001871000044,None,286.6001871000044,None,286.6001871000044,None,284.6089652000228,None,287.107327860035,None,287.107327860035,None,287.107327860035,None,0.010564860072918236,None,287.107327860035,None,287.107327860035,None,287.107327860035,None,287.107327860035,None,287.107327860035,None,287.107327860035,None,287.12110730004497,None,287.12110730004497,None,287.12110730004497,None,0.016543220030143857,0.5165432200301439,287.12110730004497,None,287.12110730004497,None,287.12110730004497,None,287.12110730004497,None,287.12110730004497,None,287.12110730004497,None,289.1047825999558,289.1047825999558,-43.8,2.585,-900,-350,-1150,,,,,,,,,,,,,,,,,,,,,,,,,,,,,,,,,,,,,,,,,,,,,,,,,,,,,,,,,,,,,,,,,,,,,,,,,,,,,,,,,,,f,21,heyuxin,2022_Apr_13_2106,experiment3,2021.1.4,60.43274684437281,
85,-200,-200,0,one,-200,-200,0,,,,,0,24,24,84,,,,,,,,,,,l,1.073717400082387,291.75777639995795,None,291.75777639995795,None,292.8735428999644,None,292.8735428999644,None,292.8735428999644,None,294.8381942999549,295.3377139000222,294.8381942999549,295.3377139000222,294.8381942999549,295.3377139000222,292.8735428999644,None,295.3706333599519,None,295.3706333599519,None,295.3706333599519,None,0.008847260032780468,None,295.3706333599519,None,295.3706333599519,None,295.3706333599519,None,295.3706333599519,None,295.3706333599519,None,295.3706333599519,None,295.38681639998686,None,295.38681639998686,None,295.38681639998686,None,0.013344419887289405,0.5133444198872894,295.38681639998686,None,295.38681639998686,None,295.38681639998686,None,295.38681639998686,None,295.38681639998686,None,295.38681639998686,None,297.3901852000272,297.3901852000272,41.099999999999994,2.523,-1100,-550,-1150,,,,,,,,,,,,,,,,,,,,,,,,,,,,,,,,,,,,,,,,,,,,,,,,,,,,,,,,,,,,,,,,,,,,,,,,,,,,,,,,,,,f,21,heyuxin,2022_Apr_13_2106,experiment3,2021.1.4,60.43274684437281,
91,-200,-200,0,two,-200,-200,0,,,,,0,25,25,90,,,,,,,,,,,g,1.198817899916321,299.9978830999462,None,299.9978830999462,None,301.22289049997926,None,301.22289049997926,None,301.22289049997926,None,303.2023534999462,303.70817240001634,303.2023534999462,303.70817240001634,303.2023534999462,303.70817240001634,301.22289049997926,None,303.74183092000897,None,303.74183092000897,None,303.74183092000897,None,0.015479619964025915,None,303.74183092000897,None,303.74183092000897,None,303.74183092000897,None,303.74183092000897,None,303.74183092000897,None,303.74183092000897,None,303.7717899000272,None,303.7717899000272,None,303.7717899000272,None,0.01250557997263968,0.5125055799726397,303.7717899000272,None,303.7717899000272,None,303.7717899000272,None,303.7717899000272,None,303.7717899000272,None,303.7717899000272,None,305.7383438999532,305.7383438999532,42.5,2.098,-1300,-750,-1150,,,,,,,,,,,,,,,,,,,,,,,,,,,,,,,,,,,,,,,,,,,,,,,,,,,,,,,,,,,,,,,,,,,,,,,,,,,,,,,,,,,f,21,heyuxin,2022_Apr_13_2106,experiment3,2021.1.4,60.43274684437281,
82,0,-150,-150,two,0,-150,-150,,,,,0,26,26,81,,,,,,,,,,,l,1.2711544000776485,307.91752569994424,None,307.91752569994424,None,309.2192811999703,None,309.2192811999703,None,309.2192811999703,None,311.2064334000461,None,311.2064334000461,None,311.2064334000461,None,309.2192811999703,None,311.7180516599445,None,311.7180516599445,None,311.7180516599445,None,0.01175985997542739,None,311.7180516599445,None,311.7180516599445,None,311.7180516599445,None,311.7180516599445,None,311.7180516599445,None,311.7180516599445,None,311.7324656000128,None,311.7324656000128,None,311.7324656000128,None,0.01593062002211809,0.5159306200221181,311.7324656000128,None,311.7324656000128,None,311.7324656000128,None,311.7324656000128,None,311.7324656000128,None,311.7324656000128,None,313.7093536000466,313.7093536000466,49.7,2.798,-1300,-900,-1300,,,,,,,,,,,,,,,,,,,,,,,,,,,,,,,,,,,,,,,,,,,,,,,,,,,,,,,,,,,,,,,,,,,,,,,,,,,,,,,,,,,f,21,heyuxin,2022_Apr_13_2106,experiment3,2021.1.4,60.43274684437281,
60,-200,0,-150,two,-200,0,-150,,,,,0,27,27,59,,,,,,,,,,,g,1.640466000069864,316.58765560004395,None,316.58765560004395,None,318.264448300004,None,318.264448300004,None,318.264448300004,None,320.24354649998713,320.74879580002744,320.24354649998713,320.74879580002744,320.24354649998713,320.74879580002744,318.264448300004,None,320.76562506002375,None,320.76562506002375,None,320.76562506002375,None,0.011908860062249005,None,320.76562506002375,None,320.76562506002375,None,320.76562506002375,None,320.76562506002375,None,320.76562506002375,None,320.76562506002375,None,320.78027780004777,None,320.78027780004777,None,320.78027780004777,None,5.460111424326897e-06,0.5000054601114243,320.78027780004777,None,320.78027780004777,None,320.78027780004777,None,320.78027780004777,None,320.78027780004777,None,320.78027780004777,None,322.76796560001094,322.76796560001094,-41.6,2.817,-1500,-900,-1450,,,,,,,,,,,,,,,,,,,,,,,,,,,,,,,,,,,,,,,,,,,,,,,,,,,,,,,,,,,,,,,,,,,,,,,,,,,,,,,,,,,f,21,heyuxin,2022_Apr_13_2106,experiment3,2021.1.4,60.43274684437281,
64,0,0,-200,one,0,0,-200,,,,,0,28,28,63,,,,,,,,,,,a,1.1180962000507861,325.65812130004633,None,325.65812130004633,None,326.79936589999124,329.2973473999882,326.79936589999124,329.2973473999882,326.79936589999124,329.2973473999882,328.8064429999795,None,328.8064429999795,None,328.8064429999795,None,326.79936589999124,329.2973473999882,329.3141766599845,None,329.3141766599845,None,329.3141766599845,None,0.011001860024407506,None,329.3141766599845,None,329.3141766599845,None,329.3141766599845,None,329.3141766599845,None,329.3141766599845,None,329.3141766599845,None,329.33231239998713,None,329.33231239998713,None,329.33231239998713,None,0.01295681984629482,0.5129568198462948,329.33231239998713,None,329.33231239998713,None,329.33231239998713,None,329.33231239998713,None,329.33231239998713,None,329.33231239998713,None,331.3214702999685,331.3214702999685,31.799999999999997,2.467,-1500,-900,-1650,,,,,,,,,,,,,,,,,,,,,,,,,,,,,,,,,,,,,,,,,,,,,,,,,,,,,,,,,,,,,,,,,,,,,,,,,,,,,,,,,,,f,21,heyuxin,2022_Apr_13_2106,experiment3,2021.1.4,60.43274684437281,
71,0,-200,0,two,0,-200,0,,,,,0,29,29,70,,,,,,,,,,,a,1.4857390000252053,333.8492952999659,None,333.8492952999659,None,335.37106929998845,None,335.37106929998845,None,335.37106929998845,None,337.35827059997246,None,337.35827059997246,None,337.35827059997246,None,335.37106929998845,None,337.8864006200107,None,337.8864006200107,None,337.8864006200107,None,0.008664619992487133,None,337.8864006200107,None,337.8864006200107,None,337.8864006200107,None,337.8864006200107,None,337.8864006200107,None,337.8864006200107,None,337.90678259998094,None,337.90678259998094,None,337.90678259998094,None,0.010996880126185715,0.5109968801261857,337.90678259998094,None,337.90678259998094,None,337.90678259998094,None,337.90678259998094,None,337.90678259998094,None,337.90678259998094,None,339.89755620004144,339.89755620004144,49.7,2.928,-1500,-1100,-1650,,,,,,,,,,,,,,,,,,,,,,,,,,,,,,,,,,,,,,,,,,,,,,,,,,,,,,,,,,,,,,,,,,,,,,,,,,,,,,,,,,,f,21,heyuxin,2022_Apr_13_2106,experiment3,2021.1.4,60.43274684437281,
27,50,50,200,one,50,50,200,,,,,0,30,30,26,,,,,,,,,,,g,1.5117586000123993,342.8944661000278,None,342.8944661000278,None,344.43767190002836,None,344.43767190002836,None,344.43767190002836,None,346.4120659000473,346.9362120999722,346.4120659000473,346.9362120999722,346.4120659000473,346.9362120999722,344.43767190002836,None,346.9698706199648,None,346.9698706199648,None,346.9698706199648,None,0.01419312006328255,None,346.9698706199648,None,346.9698706199648,None,346.9698706199648,None,346.9698706199648,None,346.9698706199648,None,346.9698706199648,None,346.99597899999935,None,346.99597899999935,None,346.99597899999935,None,0.015692080021835864,0.5156920800218359,346.99597899999935,None,346.99597899999935,None,346.99597899999935,None,346.99597899999935,None,346.99597899999935,None,346.99597899999935,None,348.9799391999841,348.9799391999841,-0.20000000000000284,2.818,-1450,-1050,-1450,,,,,,,,,,,,,,,,,,,,,,,,,,,,,,,,,,,,,,,,,,,,,,,,,,,,,,,,,,,,,,,,,,,,,,,,,,,,,,,,,,,f,21,heyuxin,2022_Apr_13_2106,experiment3,2021.1.4,60.43274684437281,
53,-200,-150,0,one,-200,-150,0,,,,,0,31,31,52,,,,,,,,,,,g,1.7486886999104172,351.86624999996275,None,351.86624999996275,None,353.65202949999366,None,353.65202949999366,None,353.65202949999366,None,355.6347477999516,356.14589769998565,355.6347477999516,356.14589769998565,355.6347477999516,356.14589769998565,353.65202949999366,None,356.1795562199783,None,356.1795562199783,None,356.1795562199783,None,0.007765420014038682,None,356.1795562199783,None,356.1795562199783,None,356.1795562199783,None,356.1795562199783,None,356.1795562199783,None,356.1795562199783,None,356.23939290002454,None,356.23939290002454,None,356.23939290002454,None,0.011971339932642877,0.5119713399326429,356.23939290002454,None,356.23939290002454,None,356.23939290002454,None,356.23939290002454,None,356.23939290002454,None,356.23939290002454,None,358.1937341999728,358.1937341999728,-24.8,2.952,-1650,-1200,-1450,,,,,,,,,,,,,,,,,,,,,,,,,,,,,,,,,,,,,,,,,,,,,,,,,,,,,,,,,,,,,,,,,,,,,,,,,,,,,,,,,,,f,21,heyuxin,2022_Apr_13_2106,experiment3,2021.1.4,60.43274684437281,
87,0,-200,-200,one,0,-200,-200,,,,,0,32,32,86,,,,,,,,,,,l,1.2632245999993756,361.2607638000045,None,361.2607638000045,None,362.5431512000505,None,362.5431512000505,None,362.5431512000505,None,364.5237719999859,365.02364310005214,364.5237719999859,365.02364310005214,364.5237719999859,365.02364310005214,362.5431512000505,None,365.05683475995903,None,365.05683475995903,None,365.05683475995903,None,0.011613660026341677,None,365.05683475995903,None,365.05683475995903,None,365.05683475995903,None,365.05683475995903,None,365.05683475995903,None,365.05683475995903,None,365.0722103000153,None,365.0722103000153,None,365.0722103000153,None,0.00013826007489115,0.5001382600748911,365.0722103000153,None,365.0722103000153,None,365.0722103000153,None,365.0722103000153,None,365.0722103000153,None,365.0722103000153,None,367.05800890002865,367.05800890002865,50.0,2.758,-1650,-1400,-1650,,,,,,,,,,,,,,,,,,,,,,,,,,,,,,,,,,,,,,,,,,,,,,,,,,,,,,,,,,,,,,,,,,,,,,,,,,,,,,,,,,,f,21,heyuxin,2022_Apr_13_2106,experiment3,2021.1.4,60.43274684437281,
35,50,0,50,two,50,0,50,,,,,0,33,33,34,,,,,,,,,,,a,1.9084670000011101,369.89576600003056,None,369.89576600003056,None,371.854547200026,None,371.854547200026,None,371.854547200026,None,373.82753240002785,None,373.82753240002785,None,373.82753240002785,None,371.854547200026,None,374.33958165994846,None,374.33958165994846,None,374.33958165994846,None,0.009304560022428632,None,374.33958165994846,None,374.33958165994846,None,374.33958165994846,None,374.33958165994846,None,374.33958165994846,None,374.33958165994846,None,374.3554067000514,None,374.3554067000514,None,374.3554067000514,None,0.015965819940902293,0.5159658199409023,374.3554067000514,None,374.3554067000514,None,374.3554067000514,None,374.3554067000514,None,374.3554067000514,None,374.3554067000514,None,376.3374947999837,376.3374947999837,43.3,2.459,-1600,-1400,-1600,,,,,,,,,,,,,,,,,,,,,,,,,,,,,,,,,,,,,,,,,,,,,,,,,,,,,,,,,,,,,,,,,,,,,,,,,,,,,,,,,,,f,21,heyuxin,2022_Apr_13_2106,experiment3,2021.1.4,60.43274684437281,
29,50,0,50,one,50,0,50,,,,,0,34,34,28,,,,,,,,,,,a,1.4341381000122055,378.8869625000516,None,378.8869625000516,None,380.37080200004857,None,380.37080200004857,None,380.37080200004857,None,382.3572934999829,None,382.3572934999829,None,382.3572934999829,None,380.37080200004857,None,382.8703019599896,None,382.8703019599896,None,382.8703019599896,None,0.012014060048386455,None,382.8703019599896,None,382.8703019599896,None,382.8703019599896,None,382.8703019599896,None,382.8703019599896,None,382.8703019599896,None,382.8862249000231,None,382.8862249000231,None,382.8862249000231,None,0.01511121983639896,0.515111219836399,382.8862249000231,None,382.8862249000231,None,382.8862249000231,None,382.8862249000231,None,382.8862249000231,None,382.8862249000231,None,384.87116039998364,384.87116039998364,27.5,2.712,-1550,-1400,-1550,,,,,,,,,,,,,,,,,,,,,,,,,,,,,,,,,,,,,,,,,,,,,,,,,,,,,,,,,,,,,,,,,,,,,,,,,,,,,,,,,,,f,21,heyuxin,2022_Apr_13_2106,experiment3,2021.1.4,60.43274684437281,
40,200,200,50,one,200,200,50,,,,,0,35,35,39,,,,,,,,,,,g,1.4421811000211164,387.6470011000056,None,387.6470011000056,None,389.1262374999933,None,389.1262374999933,None,389.1262374999933,None,391.10208029998466,391.6017859999556,391.10208029998466,391.6017859999556,391.10208029998466,391.6017859999556,389.1262374999933,None,391.6353701599408,None,391.6353701599408,None,391.6353701599408,None,0.010853960062377155,None,391.6353701599408,None,391.6353701599408,None,391.6353701599408,None,391.6353701599408,None,391.6353701599408,None,391.6353701599408,None,391.6491570000071,None,391.6491570000071,None,391.6491570000071,None,0.016597119974903762,0.5165971199749038,391.6491570000071,None,391.6491570000071,None,391.6491570000071,None,391.6491570000071,None,391.6491570000071,None,391.6491570000071,None,393.6437710999744,393.6437710999744,49.5,2.845,-1350,-1200,-1500,,,,,,,,,,,,,,,,,,,,,,,,,,,,,,,,,,,,,,,,,,,,,,,,,,,,,,,,,,,,,,,,,,,,,,,,,,,,,,,,,,,f,21,heyuxin,2022_Apr_13_2106,experiment3,2021.1.4,60.43274684437281,
41,200,50,200,one,200,50,200,,,,,0,36,36,40,,,,,,,,,,,g,1.6248866999521852,396.5508219000185,None,396.5508219000185,None,398.2023315000115,None,398.2023315000115,None,398.2023315000115,None,400.1958585999673,None,400.1958585999673,None,400.1958585999673,None,398.2023315000115,None,400.7020889600506,None,400.7020889600506,None,400.7020889600506,None,0.0012220600619912148,None,400.7020889600506,None,400.7020889600506,None,400.7020889600506,None,400.7020889600506,None,400.7020889600506,None,400.7020889600506,None,400.7245600000024,None,400.7245600000024,None,400.7245600000024,None,0.008612820063717663,0.5086128200637177,400.7245600000024,None,400.7245600000024,None,400.7245600000024,None,400.7245600000024,None,400.7245600000024,None,400.7245600000024,None,402.70285010000225,402.70285010000225,49.900000000000006,3.215,-1150,-1150,-1300,,,,,,,,,,,,,,,,,,,,,,,,,,,,,,,,,,,,,,,,,,,,,,,,,,,,,,,,,,,,,,,,,,,,,,,,,,,,,,,,,,,f,21,heyuxin,2022_Apr_13_2106,experiment3,2021.1.4,60.43274684437281,
42,50,200,200,one,50,200,200,,,,,0,37,37,41,,,,,,,,,,,l,2.1040382999926805,406.0003184999805,None,406.0003184999805,None,408.1419835999841,None,408.1419835999841,None,408.1419835999841,None,410.11498199997004,410.6151417000219,410.11498199997004,410.6151417000219,410.11498199997004,410.6151417000219,408.1419835999841,None,410.6518999599619,None,410.6518999599619,None,410.6518999599619,None,0.0010941600194200873,None,410.6518999599619,None,410.6518999599619,None,410.6518999599619,None,410.6518999599619,None,410.6518999599619,None,410.6518999599619,None,410.68616669997573,None,410.68616669997573,None,410.68616669997573,None,0.0021338199730962515,0.5021338199730963,410.68616669997573,None,410.68616669997573,None,410.68616669997573,None,410.68616669997573,None,410.68616669997573,None,410.68616669997573,None,412.66608350002207,412.66608350002207,22.0,3.04,-1100,-950,-1100,,,,,,,,,,,,,,,,,,,,,,,,,,,,,,,,,,,,,,,,,,,,,,,,,,,,,,,,,,,,,,,,,,,,,,,,,,,,,,,,,,,f,21,heyuxin,2022_Apr_13_2106,experiment3,2021.1.4,60.43274684437281,
45,0,200,200,two,0,200,200,,,,,0,38,38,44,,,,,,,,,,,l,1.5096313999965787,415.7911958999466,None,415.7911958999466,None,417.3357341999654,None,417.3357341999654,None,417.3357341999654,None,419.31303830002435,419.8127145000035,419.31303830002435,419.8127145000035,419.31303830002435,419.8127145000035,417.3357341999654,None,419.86537591998933,None,419.86537591998933,None,419.86537591998933,None,0.016464219894260168,None,419.86537591998933,None,419.86537591998933,None,419.86537591998933,None,419.86537591998933,None,419.86537591998933,None,419.86537591998933,None,419.87454680004157,None,419.87454680004157,None,419.87454680004157,None,0.007589919958263636,0.5075899199582636,419.87454680004157,None,419.87454680004157,None,419.87454680004157,None,419.87454680004157,None,419.87454680004157,None,419.87454680004157,None,421.8652359000407,421.8652359000407,-50.0,2.903,-1100,-750,-900,,,,,,,,,,,,,,,,,,,,,,,,,,,,,,,,,,,,,,,,,,,,,,,,,,,,,,,,,,,,,,,,,,,,,,,,,,,,,,,,,,,f,21,heyuxin,2022_Apr_13_2106,experiment3,2021.1.4,60.43274684437281,
79,-200,-150,-150,two,-200,-150,-150,,,,,0,39,39,78,,,,,,,,,,,a,1.0497973000165075,424.83458240004256,None,424.83458240004256,None,425.92323139996734,None,425.92323139996734,None,425.92323139996734,None,427.8949308999581,428.39524520002306,427.8949308999581,428.39524520002306,427.8949308999581,428.39524520002306,425.92323139996734,None,428.4282553599449,None,428.4282553599449,None,428.4282553599449,None,0.01091205992270261,None,428.4282553599449,None,428.4282553599449,None,428.4282553599449,None,428.4282553599449,None,428.4282553599449,None,428.4282553599449,None,428.44829500000924,None,428.44829500000924,None,428.44829500000924,None,0.010556019959039986,0.51055601995904,428.44829500000924,None,428.44829500000924,None,428.44829500000924,None,428.44829500000924,None,428.44829500000924,None,428.44829500000924,None,430.4386854999466,430.4386854999466,-10.5,2.524,-1300,-900,-1050,,,,,,,,,,,,,,,,,,,,,,,,,,,,,,,,,,,,,,,,,,,,,,,,,,,,,,,,,,,,,,,,,,,,,,,,,,,,,,,,,,,f,21,heyuxin,2022_Apr_13_2106,experiment3,2021.1.4,60.43274684437281,
39,0,200,200,one,0,200,200,,,,,0,40,40,38,,,,,,,,,,,a,3.4688948000548407,433.02727630001027,None,433.02727630001027,None,436.5128519999562,None,436.5128519999562,None,436.5128519999562,None,438.4937116999645,438.9974231000524,438.4937116999645,438.9974231000524,438.4937116999645,438.9974231000524,436.5128519999562,None,439.03108162004503,None,439.03108162004503,None,439.03108162004503,None,0.013378220028243959,None,439.03108162004503,None,439.03108162004503,None,439.03108162004503,None,439.03108162004503,None,439.03108162004503,None,439.03108162004503,None,439.04432800004724,None,439.04432800004724,None,439.04432800004724,None,0.003623519907705486,0.5036235199077055,439.04432800004724,None,439.04432800004724,None,439.04432800004724,None,439.04432800004724,None,439.04432800004724,None,439.04432800004724,None,441.0364127999637,441.0364127999637,-40.3,2.856,-1300,-700,-850,,,,,,,,,,,,,,,,,,,,,,,,,,,,,,,,,,,,,,,,,,,,,,,,,,,,,,,,,,,,,,,,,,,,,,,,,,,,,,,,,,,f,21,heyuxin,2022_Apr_13_2106,experiment3,2021.1.4,60.43274684437281,
89,-200,-150,-200,one,-200,-150,-200,,,,,0,41,41,88,,,,,,,,,,,g,1.2582995999837294,443.9716252000071,None,443.9716252000071,None,445.26912720000837,None,445.26912720000837,None,445.26912720000837,None,447.2423046999611,447.7575074000051,447.2423046999611,447.7575074000051,447.2423046999611,447.7575074000051,445.26912720000837,None,447.77433666000144,None,447.77433666000144,None,447.77433666000144,None,0.011117759975604713,None,447.77433666000144,None,447.77433666000144,None,447.77433666000144,None,447.77433666000144,None,447.77433666000144,None,447.77433666000144,None,447.7879176000133,None,447.7879176000133,None,447.7879176000133,None,0.01669682003557682,0.5166968200355768,447.7879176000133,None,447.7879176000133,None,447.7879176000133,None,447.7879176000133,None,447.7879176000133,None,447.7879176000133,None,449.78819380002096,449.78819380002096,-8.0,3.773,-1500,-850,-1050,,,,,,,,,,,,,,,,,,,,,,,,,,,,,,,,,,,,,,,,,,,,,,,,,,,,,,,,,,,,,,,,,,,,,,,,,,,,,,,,,,,f,21,heyuxin,2022_Apr_13_2106,experiment3,2021.1.4,60.43274684437281,
19,0,0,50,two,0,0,50,,,,,0,42,42,18,,,,,,,,,,,l,1.4368933000368997,453.6667063999921,None,453.6667063999921,None,455.15293219999876,None,455.15293219999876,None,455.15293219999876,None,457.1410924999509,None,457.1410924999509,None,457.1410924999509,None,455.15293219999876,None,457.65579416004476,None,457.65579416004476,None,457.65579416004476,None,0.009471560129895806,None,457.65579416004476,None,457.65579416004476,None,457.65579416004476,None,457.65579416004476,None,457.65579416004476,None,457.65579416004476,None,457.6704803999746,None,457.6704803999746,None,457.6704803999746,None,0.015094920061528683,0.5150949200615287,457.6704803999746,None,457.6704803999746,None,457.6704803999746,None,457.6704803999746,None,457.6704803999746,None,457.6704803999746,None,459.6544658000348,459.6544658000348,50.0,3.392,-1500,-850,-1000,,,,,,,,,,,,,,,,,,,,,,,,,,,,,,,,,,,,,,,,,,,,,,,,,,,,,,,,,,,,,,,,,,,,,,,,,,,,,,,,,,,f,21,heyuxin,2022_Apr_13_2106,experiment3,2021.1.4,60.43274684437281,
94,-200,-200,-150,two,-200,-200,-150,,,,,0,43,43,93,,,,,,,,,,,g,1.4894776999717578,463.111274600029,None,463.111274600029,None,464.63166049995925,None,464.63166049995925,None,464.63166049995925,None,466.603674700018,467.1051031999523,466.603674700018,467.1051031999523,466.603674700018,467.1051031999523,464.63166049995925,None,467.13786106004846,None,467.13786106004846,None,467.13786106004846,None,0.009386960067786276,None,467.13786106004846,None,467.13786106004846,None,467.13786106004846,None,467.13786106004846,None,467.13786106004846,None,467.13786106004846,None,467.15839110000525,None,467.15839110000525,None,467.15839110000525,None,0.00989451992791146,0.5098945199279115,467.15839110000525,None,467.15839110000525,None,467.15839110000525,None,467.15839110000525,None,467.15839110000525,None,467.15839110000525,None,469.1395201999694,469.1395201999694,-0.29999999999999716,3.231,-1700,-1050,-1150,,,,,,,,,,,,,,,,,,,,,,,,,,,,,,,,,,,,,,,,,,,,,,,,,,,,,,,,,,,,,,,,,,,,,,,,,,,,,,,,,,,f,21,heyuxin,2022_Apr_13_2106,experiment3,2021.1.4,60.43274684437281,
15,50,0,0,one,50,0,0,,,,,0,44,44,14,,,,,,,,,,,l,2.5480185000924394,472.4542329000542,None,472.4542329000542,None,475.02087929996196,None,475.02087929996196,None,475.02087929996196,None,477.0121412000153,477.5179315999849,477.0121412000153,477.5179315999849,477.0121412000153,477.5179315999849,475.02087929996196,None,477.5347608599812,None,477.5347608599812,None,477.5347608599812,None,0.011941359960474074,None,477.5347608599812,None,477.5347608599812,None,477.5347608599812,None,477.5347608599812,None,477.5347608599812,None,477.5347608599812,None,477.55135520000476,None,477.55135520000476,None,477.55135520000476,None,0.014361819950863719,0.5143618199508637,477.55135520000476,None,477.55135520000476,None,477.55135520000476,None,477.55135520000476,None,477.55135520000476,None,477.55135520000476,None,479.5340403999435,479.5340403999435,17.5,2.711,-1650,-1050,-1150,,,,,,,,,,,,,,,,,,,,,,,,,,,,,,,,,,,,,,,,,,,,,,,,,,,,,,,,,,,,,,,,,,,,,,,,,,,,,,,,,,,f,21,heyuxin,2022_Apr_13_2106,experiment3,2021.1.4,60.43274684437281,
51,-150,0,-200,one,-150,0,-200,,,,,0,45,45,50,,,,,,,,,,,l,1.3905334000010043,482.31133349996526,None,482.31133349996526,None,483.7373566000024,None,483.7373566000024,None,483.7373566000024,None,485.7301781999413,486.23292580002453,485.7301781999413,486.23292580002453,485.7301781999413,486.23292580002453,483.7373566000024,None,486.24975506002085,None,486.24975506002085,None,486.24975506002085,None,0.008995960117317736,None,486.24975506002085,None,486.24975506002085,None,486.24975506002085,None,486.24975506002085,None,486.24975506002085,None,486.24975506002085,None,486.264648100012,None,486.264648100012,None,486.264648100012,None,0.014839819981716573,0.5148398199817166,486.264648100012,None,486.264648100012,None,486.264648100012,None,486.264648100012,None,486.264648100012,None,486.264648100012,None,488.2511539000552,488.2511539000552,-14.399999999999999,3.106,-1800,-1050,-1350,,,,,,,,,,,,,,,,,,,,,,,,,,,,,,,,,,,,,,,,,,,,,,,,,,,,,,,,,,,,,,,,,,,,,,,,,,,,,,,,,,,f,21,heyuxin,2022_Apr_13_2106,experiment3,2021.1.4,60.43274684437281,
7,0,50,200,two,0,50,200,,,,,0,46,46,6,,,,,,,,,,,a,1.5946341000963002,491.4218517000554,None,491.4218517000554,None,493.03926909994334,None,493.03926909994334,None,493.03926909994334,None,495.0176773000276,495.5204309000401,495.0176773000276,495.5204309000401,495.0176773000276,495.5204309000401,493.03926909994334,None,495.5540894200327,None,495.5540894200327,None,495.5540894200327,None,0.016377220046706498,None,495.5540894200327,None,495.5540894200327,None,495.5540894200327,None,495.5540894200327,None,495.5540894200327,None,495.5540894200327,None,495.559473900008,None,495.559473900008,None,495.559473900008,None,0.008200620068237185,0.5082006200682372,495.559473900008,None,495.559473900008,None,495.559473900008,None,495.559473900008,None,495.559473900008,None,495.559473900008,None,497.54941770003643,497.54941770003643,-50.0,3.328,-1800,-1000,-1150,,,,,,,,,,,,,,,,,,,,,,,,,,,,,,,,,,,,,,,,,,,,,,,,,,,,,,,,,,,,,,,,,,,,,,,,,,,,,,,,,,,f,21,heyuxin,2022_Apr_13_2106,experiment3,2021.1.4,60.43274684437281,
86,-200,0,-200,one,-200,0,-200,,,,,0,47,47,85,,,,,,,,,,,g,1.0620707001071423,500.94036630005576,None,500.94036630005576,None,502.0359999999637,None,502.0359999999637,None,502.0359999999637,None,504.01362179999705,504.5184886000352,504.01362179999705,504.5184886000352,504.01362179999705,504.5184886000352,502.0359999999637,None,504.5521471200278,None,504.5521471200278,None,504.5521471200278,None,0.0140652199042961,None,504.5521471200278,None,504.5521471200278,None,504.5521471200278,None,504.5521471200278,None,504.5521471200278,None,504.5521471200278,None,504.56160310003906,None,504.56160310003906,None,504.56160310003906,None,0.003379320027306676,0.5033793200273067,504.56160310003906,None,504.56160310003906,None,504.56160310003906,None,504.56160310003906,None,504.56160310003906,None,504.56160310003906,None,506.5500776000554,506.5500776000554,-35.8,2.982,-2000,-1000,-1350,,,,,,,,,,,,,,,,,,,,,,,,,,,,,,,,,,,,,,,,,,,,,,,,,,,,,,,,,,,,,,,,,,,,,,,,,,,,,,,,,,,f,21,heyuxin,2022_Apr_13_2106,experiment3,2021.1.4,60.43274684437281,
70,0,0,-200,two,0,0,-200,,,,,0,48,48,69,,,,,,,,,,,l,1.207763300044462,509.59506960003637,None,509.59506960003637,None,510.83019390003756,None,510.83019390003756,None,510.83019390003756,None,512.8123434999725,513.3277248999802,512.8123434999725,513.3277248999802,512.8123434999725,513.3277248999802,510.83019390003756,None,513.3445541599765,None,513.3445541599765,None,513.3445541599765,None,0.008408760069869459,None,513.3445541599765,None,513.3445541599765,None,513.3445541599765,None,513.3445541599765,None,513.3445541599765,None,513.3445541599765,None,513.3611058000242,None,513.3611058000242,None,513.3611058000242,None,0.014413419994525611,0.5144134199945256,513.3611058000242,None,513.3611058000242,None,513.3611058000242,None,513.3611058000242,None,513.3611058000242,None,513.3611058000242,None,515.3459017999703,515.3459017999703,-0.5,4.236,-2000,-1000,-1550,,,,,,,,,,,,,,,,,,,,,,,,,,,,,,,,,,,,,,,,,,,,,,,,,,,,,,,,,,,,,,,,,,,,,,,,,,,,,,,,,,,f,21,heyuxin,2022_Apr_13_2106,experiment3,2021.1.4,60.43274684437281,
69,-150,0,0,two,-150,0,0,,,,,0,49,49,68,,,,,,,,,,,g,1.3617343999212608,519.6477830000222,None,519.6477830000222,None,521.0437432000181,None,521.0437432000181,None,521.0437432000181,None,523.0276128000114,523.5279040000169,523.0276128000114,523.5279040000169,523.0276128000114,523.5279040000169,521.0437432000181,None,523.5447332600131,None,523.5447332600131,None,523.5447332600131,None,0.010260060080327094,None,523.5447332600131,None,523.5447332600131,None,523.5447332600131,None,523.5447332600131,None,523.5447332600131,None,523.5447332600131,None,523.5620813999558,None,523.5620813999558,None,523.5620813999558,None,0.014756520045921206,0.5147565200459212,523.5620813999558,None,523.5620813999558,None,523.5620813999558,None,523.5620813999558,None,523.5620813999558,None,523.5620813999558,None,525.5548000000417,525.5548000000417,-39.4,2.917,-2150,-1000,-1550,,,,,,,,,,,,,,,,,,,,,,,,,,,,,,,,,,,,,,,,,,,,,,,,,,,,,,,,,,,,,,,,,,,,,,,,,,,,,,,,,,,f,21,heyuxin,2022_Apr_13_2106,experiment3,2021.1.4,60.43274684437281,
50,0,-200,-150,one,0,-200,-150,,,,,0,50,50,49,,,,,,,,,,,g,1.2848985999589786,528.5341795999557,None,528.5341795999557,None,529.8481330999639,None,529.8481330999639,None,529.8481330999639,None,531.8438671999611,532.3451357999584,531.8438671999611,532.3451357999584,531.8438671999611,532.3451357999584,529.8481330999639,None,532.3787943199509,None,532.3787943199509,None,532.3787943199509,None,0.015329619869589806,None,532.3787943199509,None,532.3787943199509,None,532.3787943199509,None,532.3787943199509,None,532.3787943199509,None,532.3787943199509,None,532.3957388999406,None,532.3957388999406,None,532.3957388999406,None,0.00038411992136389017,0.5003841199213639,532.3957388999406,None,532.3957388999406,None,532.3957388999406,None,532.3957388999406,None,532.3957388999406,None,532.3957388999406,None,534.3984398600412,None,49.3,2.875,-2150,-1200,-1700,,,,,,,,,,,,,,,,,,,,,,,,,,,,,,,,,,,,,,,,,,,,,,,,,,,,,,,,,,,,,,,,,,,,,,,,,,,,,,,,,,,f,21,heyuxin,2022_Apr_13_2106,experiment3,2021.1.4,60.43274684437281,
93,0,-200,-200,two,0,-200,-200,,,,,0,51,51,92,,,,,,,,,,,l,1.2444909999612719,537.322788599995,None,537.322788599995,None,538.5894044999732,None,538.5894044999732,None,538.5894044999732,None,540.5735001999419,541.072676199954,540.5735001999419,541.072676199954,540.5735001999419,541.072676199954,538.5894044999732,None,541.0895054599503,None,541.0895054599503,None,541.0895054599503,None,0.009289860026910901,None,541.0895054599503,None,541.0895054599503,None,541.0895054599503,None,541.0895054599503,None,541.0895054599503,None,541.0895054599503,None,541.1056963000447,None,541.1056963000447,None,541.1056963000447,None,0.01530241989530623,0.5153024198953062,541.1056963000447,None,541.1056963000447,None,541.1056963000447,None,541.1056963000447,None,541.1056963000447,None,541.1056963000447,None,543.1005584000377,543.1005584000377,49.2,2.447,-2150,-1400,-1900,,,,,,,,,,,,,,,,,,,,,,,,,,,,,,,,,,,,,,,,,,,,,,,,,,,,,,,,,,,,,,,,,,,,,,,,,,,,,,,,,,,f,21,heyuxin,2022_Apr_13_2106,experiment3,2021.1.4,60.43274684437281,
74,-150,-200,-150,one,-150,-200,-150,,,,,0,52,52,73,,,,,,,,,,,l,1.2430068999528885,545.6164430000354,None,545.6164430000354,None,546.9071977999993,None,546.9071977999993,None,546.9071977999993,None,548.8889912000159,549.3876663000556,548.8889912000159,549.3876663000556,548.8889912000159,549.3876663000556,546.9071977999993,None,549.4220151600427,None,549.4220151600427,None,549.4220151600427,None,0.010652260039933026,None,549.4220151600427,None,549.4220151600427,None,549.4220151600427,None,549.4220151600427,None,549.4220151600427,None,549.4220151600427,None,549.438958600047,None,549.438958600047,None,549.438958600047,None,0.015849719988182187,0.5158497199881822,549.438958600047,None,549.438958600047,None,549.438958600047,None,549.438958600047,None,549.438958600047,None,549.438958600047,None,551.4223361000186,551.4223361000186,20.099999999999994,2.736,-2300,-1600,-2050,,,,,,,,,,,,,,,,,,,,,,,,,,,,,,,,,,,,,,,,,,,,,,,,,,,,,,,,,,,,,,,,,,,,,,,,,,,,,,,,,,,f,21,heyuxin,2022_Apr_13_2106,experiment3,2021.1.4,60.43274684437281,
17,0,200,0,one,0,200,0,,,,,0,53,53,16,,,,,,,,,,,g,1.3878983999602497,554.2221128999954,None,554.2221128999954,None,555.6527492000023,None,555.6527492000023,None,555.6527492000023,None,557.6364741999423,558.1476812999463,557.6364741999423,558.1476812999463,557.6364741999423,558.1476812999463,555.6527492000023,None,558.1645105599425,None,558.1645105599425,None,558.1645105599425,None,0.010867259930819273,None,558.1645105599425,None,558.1645105599425,None,558.1645105599425,None,558.1645105599425,None,558.1645105599425,None,558.1645105599425,None,558.178064799984,None,558.178064799984,None,558.178064799984,None,0.003783160005696118,0.5037831600056961,558.178064799984,None,558.178064799984,None,558.178064799984,None,558.178064799984,None,558.178064799984,None,558.178064799984,None,560.1704782999586,560.1704782999586,-13.200000000000003,3.393,-2300,-1400,-2050,,,,,,,,,,,,,,,,,,,,,,,,,,,,,,,,,,,,,,,,,,,,,,,,,,,,,,,,,,,,,,,,,,,,,,,,,,,,,,,,,,,f,21,heyuxin,2022_Apr_13_2106,experiment3,2021.1.4,60.43274684437281,
24,200,0,0,two,200,0,0,,,,,0,54,54,23,,,,,,,,,,,g,1.6114242000039667,563.6267942000413,None,563.6267942000413,None,565.2632403000025,None,565.2632403000025,None,565.2632403000025,None,567.2349071999779,567.7355114000384,567.2349071999779,567.7355114000384,567.2349071999779,567.7355114000384,565.2632403000025,None,567.7680441600503,None,567.7680441600503,None,567.7680441600503,None,0.008480560150928795,None,567.7680441600503,None,567.7680441600503,None,567.7680441600503,None,567.7680441600503,None,567.7680441600503,None,567.7680441600503,None,567.7871026999783,None,567.7871026999783,None,567.7871026999783,None,0.011437420034781098,0.5114374200347811,567.7871026999783,None,567.7871026999783,None,567.7871026999783,None,567.7871026999783,None,567.7871026999783,None,567.7871026999783,None,569.7755441999761,569.7755441999761,40.599999999999994,2.818,-2100,-1400,-2050,,,,,,,,,,,,,,,,,,,,,,,,,,,,,,,,,,,,,,,,,,,,,,,,,,,,,,,,,,,,,,,,,,,,,,,,,,,,,,,,,,,f,21,heyuxin,2022_Apr_13_2106,experiment3,2021.1.4,60.43274684437281,
30,50,50,0,one,50,50,0,,,,,0,55,55,29,,,,,,,,,,,l,1.1578365999739617,572.6578201999655,None,572.6578201999655,None,573.8378369000275,None,573.8378369000275,None,573.8378369000275,None,575.8170035999501,576.3269961000187,575.8170035999501,576.3269961000187,575.8170035999501,576.3269961000187,573.8378369000275,None,576.343825360015,None,576.343825360015,None,576.343825360015,None,0.005692159989848733,None,576.343825360015,None,576.343825360015,None,576.343825360015,None,576.343825360015,None,576.343825360015,None,576.343825360015,None,576.3739069999428,None,576.3739069999428,None,576.3739069999428,None,0.00635812000837177,0.5063581200083718,576.3739069999428,None,576.3739069999428,None,576.3739069999428,None,576.3739069999428,None,576.3739069999428,None,576.3739069999428,None,578.3512258999981,578.3512258999981,32.2,2.959,-2050,-1350,-2050,,,,,,,,,,,,,,,,,,,,,,,,,,,,,,,,,,,,,,,,,,,,,,,,,,,,,,,,,,,,,,,,,,,,,,,,,,,,,,,,,,,f,21,heyuxin,2022_Apr_13_2106,experiment3,2021.1.4,60.43274684437281,
1,0,50,200,one,0,50,200,,,,,0,56,56,0,,,,,,,,,,,g,3.9351135999895632,581.3996736999834,None,581.3996736999834,None,585.3637709999457,None,585.3637709999457,None,585.3637709999457,None,587.3478620999958,587.8470939999679,587.3478620999958,587.8470939999679,587.3478620999958,587.8470939999679,585.3637709999457,None,587.8639232599642,None,587.8639232599642,None,587.8639232599642,None,0.009429660043679178,None,587.8639232599642,None,587.8639232599642,None,587.8639232599642,None,587.8639232599642,None,587.8639232599642,None,587.8639232599642,None,587.8792769999709,None,587.8792769999709,None,587.8792769999709,None,0.015623019891791046,0.515623019891791,587.8792769999709,None,587.8792769999709,None,587.8792769999709,None,587.8792769999709,None,587.8792769999709,None,587.8792769999709,None,589.865829700022,589.865829700022,0.10000000000000142,2.541,-2050,-1300,-1850,,,,,,,,,,,,,,,,,,,,,,,,,,,,,,,,,,,,,,,,,,,,,,,,,,,,,,,,,,,,,,,,,,,,,,,,,,,,,,,,,,,f,21,heyuxin,2022_Apr_13_2106,experiment3,2021.1.4,60.43274684437281,
49,0,-150,-200,one,0,-150,-200,,,,,0,57,57,48,,,,,,,,,,,g,1.2020356999710202,592.4803706000093,None,592.4803706000093,None,593.7161110000452,None,593.7161110000452,None,593.7161110000452,None,595.6966168000363,596.1961127000395,595.6966168000363,596.1961127000395,595.6966168000363,596.1961127000395,593.7161110000452,None,596.2129419600358,None,596.2129419600358,None,596.2129419600358,None,0.011376860085874796,None,596.2129419600358,None,596.2129419600358,None,596.2129419600358,None,596.2129419600358,None,596.2129419600358,None,596.2129419600358,None,596.2289050000254,None,596.2289050000254,None,596.2289050000254,None,0.016615019994787872,0.5166150199947879,596.2289050000254,None,596.2289050000254,None,596.2289050000254,None,596.2289050000254,None,596.2289050000254,None,596.2289050000254,None,598.203912399942,598.203912399942,50.0,2.996,-2050,-1450,-2050,,,,,,,,,,,,,,,,,,,,,,,,,,,,,,,,,,,,,,,,,,,,,,,,,,,,,,,,,,,,,,,,,,,,,,,,,,,,,,,,,,,f,21,heyuxin,2022_Apr_13_2106,experiment3,2021.1.4,60.43274684437281,
52,-150,-200,0,one,-150,-200,0,,,,,0,58,58,51,,,,,,,,,,,a,1.0647120999637991,601.3671770000365,None,601.3671770000365,None,602.4808759000152,None,602.4808759000152,None,602.4808759000152,None,604.4436462000012,604.9519572999561,604.4436462000012,604.9519572999561,604.4436462000012,604.9519572999561,602.4808759000152,None,604.9856158199486,None,604.9856158199486,None,604.9856158199486,None,0.014534119865857065,None,604.9856158199486,None,604.9856158199486,None,604.9856158199486,None,604.9856158199486,None,604.9856158199486,None,604.9856158199486,None,604.9985232000472,None,604.9985232000472,None,604.9985232000472,None,0.0012542199110612273,0.5012542199110612,604.9985232000472,None,604.9985232000472,None,604.9985232000472,None,604.9985232000472,None,604.9985232000472,None,604.9985232000472,None,606.9987387999427,606.9987387999427,13.700000000000003,2.582,-2200,-1650,-2050,,,,,,,,,,,,,,,,,,,,,,,,,,,,,,,,,,,,,,,,,,,,,,,,,,,,,,,,,,,,,,,,,,,,,,,,,,,,,,,,,,,f,21,heyuxin,2022_Apr_13_2106,experiment3,2021.1.4,60.43274684437281,
57,-150,0,-200,two,-150,0,-200,,,,,0,59,59,56,,,,,,,,,,,g,1.2139673000201583,609.6950660999864,None,609.6950660999864,None,610.9305461000185,None,610.9305461000185,None,610.9305461000185,None,612.9113528999733,613.4178161999444,612.9113528999733,613.4178161999444,612.9113528999733,613.4178161999444,610.9305461000185,None,613.4346454599406,None,613.4346454599406,None,613.4346454599406,None,0.0030439600814133883,None,613.4346454599406,None,613.4346454599406,None,613.4346454599406,None,613.4346454599406,None,613.4346454599406,None,613.4346454599406,None,613.4719851999544,None,613.4719851999544,None,613.4719851999544,None,0.0028087198734283447,0.5028087198734283,613.4719851999544,None,613.4719851999544,None,613.4719851999544,None,613.4719851999544,None,613.4719851999544,None,613.4719851999544,None,615.4741695999401,615.4741695999401,-16.799999999999997,2.994,-2350,-1650,-2250,,,,,,,,,,,,,,,,,,,,,,,,,,,,,,,,,,,,,,,,,,,,,,,,,,,,,,,,,,,,,,,,,,,,,,,,,,,,,,,,,,,f,21,heyuxin,2022_Apr_13_2106,experiment3,2021.1.4,60.43274684437281,
47,200,50,200,two,200,50,200,,,,,0,60,60,46,,,,,,,,,,,l,1.2654807000653818,618.5342436999781,None,618.5342436999781,None,619.8473311000271,None,619.8473311000271,None,619.8473311000271,None,621.8255520999664,622.3395811000373,621.8255520999664,622.3395811000373,621.8255520999664,622.3395811000373,619.8473311000271,None,622.3564103600336,None,622.3564103600336,None,622.3564103600336,None,0.0116175600560382,None,622.3564103600336,None,622.3564103600336,None,622.3564103600336,None,622.3564103600336,None,622.3564103600336,None,622.3564103600336,None,622.3721494999481,None,622.3721494999481,None,622.3721494999481,None,0.015626020031049848,0.5156260200310498,622.3721494999481,None,622.3721494999481,None,622.3721494999481,None,622.3721494999481,None,622.3721494999481,None,622.3721494999481,None,624.3420322999591,624.3420322999591,41.0,2.443,-2150,-1600,-2050,,,,,,,,,,,,,,,,,,,,,,,,,,,,,,,,,,,,,,,,,,,,,,,,,,,,,,,,,,,,,,,,,,,,,,,,,,,,,,,,,,,f,21,heyuxin,2022_Apr_13_2106,experiment3,2021.1.4,60.43274684437281,
36,50,50,0,two,50,50,0,,,,,0,61,61,35,,,,,,,,,,,l,1.4375349999172613,626.8783534000395,None,626.8783534000395,None,628.3476620999863,None,628.3476620999863,None,628.3476620999863,None,630.3235178999603,630.8387500999961,630.3235178999603,630.8387500999961,630.3235178999603,630.8387500999961,628.3476620999863,None,630.8555793599924,None,630.8555793599924,None,630.8555793599924,None,0.007855060044676065,None,630.8555793599924,None,630.8555793599924,None,630.8555793599924,None,630.8555793599924,None,630.8555793599924,None,630.8555793599924,None,630.8708910000278,None,630.8708910000278,None,630.8708910000278,None,0.01416911999695003,0.51416911999695,630.8708910000278,None,630.8708910000278,None,630.8708910000278,None,630.8708910000278,None,630.8708910000278,None,630.8708910000278,None,632.8659604999702,632.8659604999702,43.400000000000006,2.99,-2100,-1550,-2050,,,,,,,,,,,,,,,,,,,,,,,,,,,,,,,,,,,,,,,,,,,,,,,,,,,,,,,,,,,,,,,,,,,,,,,,,,,,,,,,,,,f,21,heyuxin,2022_Apr_13_2106,experiment3,2021.1.4,60.43274684437281,
48,50,200,200,two,50,200,200,,,,,0,62,62,47,,,,,,,,,,,a,1.814340499928221,635.932233999949,None,635.932233999949,None,637.7723869000329,None,637.7723869000329,None,637.7723869000329,None,639.7619693999877,None,639.7619693999877,None,639.7619693999877,None,637.7723869000329,None,640.2720217599533,None,640.2720217599533,None,640.2720217599533,None,0.00878626003395766,None,640.2720217599533,None,640.2720217599533,None,640.2720217599533,None,640.2720217599533,None,640.2720217599533,None,640.2720217599533,None,640.2902810999658,None,640.2902810999658,None,640.2902810999658,None,0.015466119977645576,0.5154661199776456,640.2902810999658,None,640.2902810999658,None,640.2902810999658,None,640.2902810999658,None,640.2902810999658,None,640.2902810999658,None,642.269099200028,642.269099200028,7.200000000000003,2.943,-2050,-1350,-1850,,,,,,,,,,,,,,,,,,,,,,,,,,,,,,,,,,,,,,,,,,,,,,,,,,,,,,,,,,,,,,,,,,,,,,,,,,,,,,,,,,,f,21,heyuxin,2022_Apr_13_2106,experiment3,2021.1.4,60.43274684437281,
21,50,0,0,two,50,0,0,,,,,0,63,63,20,,,,,,,,,,,g,0.9809816000051796,645.3878775000339,None,645.3878775000339,None,646.4010058999993,None,646.4010058999993,None,646.4010058999993,None,648.3846608999884,None,648.3846608999884,None,648.3846608999884,None,646.4010058999993,None,648.9012306599877,None,648.9012306599877,None,648.9012306599877,None,0.011652860091999173,None,648.9012306599877,None,648.9012306599877,None,648.9012306599877,None,648.9012306599877,None,648.9012306599877,None,648.9012306599877,None,648.9183409999823,None,648.9183409999823,None,648.9183409999823,None,7.925997488200665e-05,0.500079259974882,648.9183409999823,None,648.9183409999823,None,648.9183409999823,None,648.9183409999823,None,648.9183409999823,None,648.9183409999823,None,650.9218203599564,None,14.400000000000006,2.875,-2000,-1350,-1850,,,,,,,,,,,,,,,,,,,,,,,,,,,,,,,,,,,,,,,,,,,,,,,,,,,,,,,,,,,,,,,,,,,,,,,,,,,,,,,,,,,f,21,heyuxin,2022_Apr_13_2106,experiment3,2021.1.4,60.43274684437281,
6,200,0,50,one,200,0,50,,,,,0,64,64,5,,,,,,,,,,,l,1.5476240999996662,653.8837861999637,None,653.8837861999637,None,655.4729858000064,None,655.4729858000064,None,655.4729858000064,None,657.45933959994,657.9675583000062,657.45933959994,657.9675583000062,657.45933959994,657.9675583000062,655.4729858000064,None,657.9843875600025,None,657.9843875600025,None,657.9843875600025,None,0.0008156601106747985,None,657.9843875600025,None,657.9843875600025,None,657.9843875600025,None,657.9843875600025,None,657.9843875600025,None,657.9843875600025,None,658.0101894000545,None,658.0101894000545,None,658.0101894000545,None,0.007987719844095409,0.5079877198440954,658.0101894000545,None,658.0101894000545,None,658.0101894000545,None,658.0101894000545,None,658.0101894000545,None,658.0101894000545,None,659.9844544000225,659.9844544000225,50.0,2.568,-1800,-1350,-1800,,,,,,,,,,,,,,,,,,,,,,,,,,,,,,,,,,,,,,,,,,,,,,,,,,,,,,,,,,,,,,,,,,,,,,,,,,,,,,,,,,,f,21,heyuxin,2022_Apr_13_2106,experiment3,2021.1.4,60.43274684437281,
18,200,0,0,one,200,0,0,,,,,0,65,65,17,,,,,,,,,,,g,1.2895863000303507,662.6650264000054,None,662.6650264000054,None,663.9932369999588,None,663.9932369999588,None,663.9932369999588,None,665.9673899000045,666.4814826999791,665.9673899000045,666.4814826999791,665.9673899000045,666.4814826999791,663.9932369999588,None,666.4983119599754,None,666.4983119599754,None,666.4983119599754,None,0.011780360015109181,None,666.4983119599754,None,666.4983119599754,None,666.4983119599754,None,666.4983119599754,None,666.4983119599754,None,666.4983119599754,None,666.5150561999762,None,666.5150561999762,None,666.5150561999762,None,0.015014920034445822,0.5150149200344458,666.5150561999762,None,666.5150561999762,None,666.5150561999762,None,666.5150561999762,None,666.5150561999762,None,666.5150561999762,None,668.4995164000429,668.4995164000429,44.400000000000006,2.649,-1600,-1350,-1800,,,,,,,,,,,,,,,,,,,,,,,,,,,,,,,,,,,,,,,,,,,,,,,,,,,,,,,,,,,,,,,,,,,,,,,,,,,,,,,,,,,f,21,heyuxin,2022_Apr_13_2106,experiment3,2021.1.4,60.43274684437281,
78,-150,-150,0,one,-150,-150,0,,,,,0,66,66,77,,,,,,,,,,,a,0.5646513999672607,671.2142594000325,None,671.2142594000325,None,671.8002068999922,None,671.8002068999922,None,671.8002068999922,None,673.7799036999932,674.280191799975,673.7799036999932,674.280191799975,673.7799036999932,674.280191799975,671.8002068999922,None,674.3133217599941,None,674.3133217599941,None,674.3133217599941,None,0.011418660054914653,None,674.3133217599941,None,674.3133217599941,None,674.3133217599941,None,674.3133217599941,None,674.3133217599941,None,674.3133217599941,None,674.3479861000087,None,674.3479861000087,None,674.3479861000087,None,0.005193719989620149,0.5051937199896201,674.3479861000087,None,674.3479861000087,None,674.3479861000087,None,674.3479861000087,None,674.3479861000087,None,674.3479861000087,None,676.34068569995,676.34068569995,0.10000000000000142,3.53,-1750,-1500,-1800,,,,,,,,,,,,,,,,,,,,,,,,,,,,,,,,,,,,,,,,,,,,,,,,,,,,,,,,,,,,,,,,,,,,,,,,,,,,,,,,,,,f,21,heyuxin,2022_Apr_13_2106,experiment3,2021.1.4,60.43274684437281,
80,-150,-200,-150,two,-150,-200,-150,,,,,0,67,67,79,,,,,,,,,,,g,1.3066631000256166,679.9329524999484,None,679.9329524999484,None,681.2638384000165,None,681.2638384000165,None,681.2638384000165,None,683.2542222000193,None,683.2542222000193,None,683.2542222000193,None,681.2638384000165,None,683.7639543599914,None,683.7639543599914,None,683.7639543599914,None,0.008379459963180125,None,683.7639543599914,None,683.7639543599914,None,683.7639543599914,None,683.7639543599914,None,683.7639543599914,None,683.7639543599914,None,683.7808659999864,None,683.7808659999864,None,683.7808659999864,None,0.013362020021304488,0.5133620200213045,683.7808659999864,None,683.7808659999864,None,683.7808659999864,None,683.7808659999864,None,683.7808659999864,None,683.7808659999864,None,685.7632952999556,685.7632952999556,8.799999999999997,2.705,-1900,-1700,-1950,,,,,,,,,,,,,,,,,,,,,,,,,,,,,,,,,,,,,,,,,,,,,,,,,,,,,,,,,,,,,,,,,,,,,,,,,,,,,,,,,,,f,21,heyuxin,2022_Apr_13_2106,experiment3,2021.1.4,60.43274684437281,
59,-200,-150,0,two,-200,-150,0,,,,,0,68,68,58,,,,,,,,,,,a,1.1591825999785215,688.5346892999951,None,688.5346892999951,None,689.7329222999979,None,689.7329222999979,None,689.7329222999979,None,691.710624499945,692.2099710999755,691.710624499945,692.2099710999755,691.710624499945,692.2099710999755,689.7329222999979,None,692.2447272600373,None,692.2447272600373,None,692.2447272600373,None,0.010022960021160543,None,692.2447272600373,None,692.2447272600373,None,692.2447272600373,None,692.2447272600373,None,692.2447272600373,None,692.2447272600373,None,692.2599331999663,None,692.2599331999663,None,692.2599331999663,None,0.01641661999747157,0.5164166199974716,692.2599331999663,None,692.2599331999663,None,692.2599331999663,None,692.2599331999663,None,692.2599331999663,None,692.2599331999663,None,694.2358019000385,694.2358019000385,-0.29999999999999716,2.69,-2100,-1850,-1950,,,,,,,,,,,,,,,,,,,,,,,,,,,,,,,,,,,,,,,,,,,,,,,,,,,,,,,,,,,,,,,,,,,,,,,,,,,,,,,,,,,f,21,heyuxin,2022_Apr_13_2106,experiment3,2021.1.4,60.43274684437281,
34,0,50,50,two,0,50,50,,,,,0,69,69,33,,,,,,,,,,,g,1.994132399908267,697.0081547000445,None,697.0081547000445,None,699.0451774999965,None,699.0451774999965,None,699.0451774999965,None,701.0270852999529,701.5270713999635,701.0270852999529,701.5270713999635,701.0270852999529,701.5270713999635,699.0451774999965,None,701.559451359976,None,701.559451359976,None,701.559451359976,None,0.011591560090892017,None,701.559451359976,None,701.559451359976,None,701.559451359976,None,701.559451359976,None,701.559451359976,None,701.559451359976,None,701.5760268999729,None,701.5760268999729,None,701.5760268999729,None,0.014996220008470118,0.5149962200084701,701.5760268999729,None,701.5760268999729,None,701.5760268999729,None,701.5760268999729,None,701.5760268999729,None,701.5760268999729,None,703.5628747999435,703.5628747999435,-0.6000000000000014,3.404,-2100,-1800,-1900,,,,,,,,,,,,,,,,,,,,,,,,,,,,,,,,,,,,,,,,,,,,,,,,,,,,,,,,,,,,,,,,,,,,,,,,,,,,,,,,,,,f,21,heyuxin,2022_Apr_13_2106,experiment3,2021.1.4,60.43274684437281,
90,-150,-200,-200,one,-150,-200,-200,,,,,0,70,70,89,,,,,,,,,,,l,1.756675299955532,707.0424980999669,None,707.0424980999669,None,708.8346679999959,None,708.8346679999959,None,708.8346679999959,None,710.8066154000117,711.3110136999749,710.8066154000117,711.3110136999749,710.8066154000117,711.3110136999749,708.8346679999959,None,711.3516138599487,None,711.3516138599487,None,711.3516138599487,None,0.006546359974890947,None,711.3516138599487,None,711.3516138599487,None,711.3516138599487,None,711.3516138599487,None,711.3516138599487,None,711.3516138599487,None,711.370730399969,None,711.370730399969,None,711.370730399969,None,0.010991919785737991,0.510991919785738,711.370730399969,None,711.370730399969,None,711.370730399969,None,711.370730399969,None,711.370730399969,None,711.370730399969,None,713.3522820000071,713.3522820000071,4.5,2.859,-2250,-2000,-2100,,,,,,,,,,,,,,,,,,,,,,,,,,,,,,,,,,,,,,,,,,,,,,,,,,,,,,,,,,,,,,,,,,,,,,,,,,,,,,,,,,,f,21,heyuxin,2022_Apr_13_2106,experiment3,2021.1.4,60.43274684437281,
61,0,0,-150,one,0,0,-150,,,,,0,71,71,60,,,,,,,,,,,g,1.9392833000747487,716.3471876999829,None,716.3471876999829,None,718.3080148999579,None,718.3080148999579,None,718.3080148999579,None,720.2917653999757,720.7987498999573,720.2917653999757,720.7987498999573,720.2917653999757,720.7987498999573,718.3080148999579,None,720.8155791599536,None,720.8155791599536,None,720.8155791599536,None,0.011692159925587475,None,720.8155791599536,None,720.8155791599536,None,720.8155791599536,None,720.8155791599536,None,720.8155791599536,None,720.8155791599536,None,720.8554198000347,None,720.8554198000347,None,720.8554198000347,None,0.016166180022992194,0.5161661800229922,720.8554198000347,None,720.8554198000347,None,720.8554198000347,None,720.8554198000347,None,720.8554198000347,None,720.8554198000347,None,722.8219443999697,722.8219443999697,-0.29999999999999716,4.565,-2250,-2000,-2250,,,,,,,,,,,,,,,,,,,,,,,,,,,,,,,,,,,,,,,,,,,,,,,,,,,,,,,,,,,,,,,,,,,,,,,,,,,,,,,,,,,f,21,heyuxin,2022_Apr_13_2106,experiment3,2021.1.4,60.43274684437281,
16,0,0,200,one,0,0,200,,,,,0,72,72,15,,,,,,,,,,,a,1.7517312999116257,727.4692869000137,None,727.4692869000137,None,729.2511571999639,None,729.2511571999639,None,729.2511571999639,None,731.2365599999903,731.7492601999547,731.2365599999903,731.7492601999547,731.2365599999903,731.7492601999547,729.2511571999639,None,731.7829187199472,None,731.7829187199472,None,731.7829187199472,None,0.012334319879300892,None,731.7829187199472,None,731.7829187199472,None,731.7829187199472,None,731.7829187199472,None,731.7829187199472,None,731.7829187199472,None,731.8059375999728,None,731.8059375999728,None,731.8059375999728,None,0.00957477989140898,0.509574779891409,731.8059375999728,None,731.8059375999728,None,731.8059375999728,None,731.8059375999728,None,731.8059375999728,None,731.8059375999728,None,733.7843855000101,733.7843855000101,0.20000000000000284,3.126,-2250,-2000,-2050,,,,,,,,,,,,,,,,,,,,,,,,,,,,,,,,,,,,,,,,,,,,,,,,,,,,,,,,,,,,,,,,,,,,,,,,,,,,,,,,,,,f,21,heyuxin,2022_Apr_13_2106,experiment3,2021.1.4,60.43274684437281,
10,50,200,0,two,50,200,0,,,,,0,73,73,9,,,,,,,,,,,g,1.5083939000032842,737.0015049000503,None,737.0015049000503,None,738.5522277000127,None,738.5522277000127,None,738.5522277000127,None,740.5442278999835,None,740.5442278999835,None,740.5442278999835,None,738.5522277000127,None,741.0616258600028,None,741.0616258600028,None,741.0616258600028,None,0.011230260133743286,None,741.0616258600028,None,741.0616258600028,None,741.0616258600028,None,741.0616258600028,None,741.0616258600028,None,741.0616258600028,None,741.079749800032,None,741.079749800032,None,741.079749800032,None,0.015079019940458238,0.5150790199404582,741.079749800032,None,741.079749800032,None,741.079749800032,None,741.079749800032,None,741.079749800032,None,741.079749800032,None,743.067786199972,743.067786199972,-9.399999999999999,2.257,-2200,-1800,-2050,,,,,,,,,,,,,,,,,,,,,,,,,,,,,,,,,,,,,,,,,,,,,,,,,,,,,,,,,,,,,,,,,,,,,,,,,,,,,,,,,,,f,21,heyuxin,2022_Apr_13_2106,experiment3,2021.1.4,60.43274684437281,
55,0,-150,-200,two,0,-150,-200,,,,,0,74,74,54,,,,,,,,,,,l,1.2090841999743134,745.3854975999566,None,745.3854975999566,None,746.6181454999605,None,746.6181454999605,None,746.6181454999605,None,748.5995815000497,749.0988372999709,748.5995815000497,749.0988372999709,748.5995815000497,749.0988372999709,746.6181454999605,None,749.132181959995,None,749.132181959995,None,749.132181959995,None,0.011209059972316027,None,749.132181959995,None,749.132181959995,None,749.132181959995,None,749.132181959995,None,749.132181959995,None,749.132181959995,None,749.1453904999653,None,749.1453904999653,None,749.1453904999653,None,0.016509320004843175,0.5165093200048432,749.1453904999653,None,749.1453904999653,None,749.1453904999653,None,749.1453904999653,None,749.1453904999653,None,749.1453904999653,None,751.133139600046,751.133139600046,41.2,2.971,-2200,-1950,-2250,,,,,,,,,,,,,,,,,,,,,,,,,,,,,,,,,,,,,,,,,,,,,,,,,,,,,,,,,,,,,,,,,,,,,,,,,,,,,,,,,,,f,21,heyuxin,2022_Apr_13_2106,experiment3,2021.1.4,60.43274684437281,
25,200,50,50,one,200,50,50,,,,,0,75,75,24,,,,,,,,,,,a,1.1283620999893174,754.1884298999794,None,754.1884298999794,None,755.3388188000536,None,755.3388188000536,None,755.3388188000536,None,757.3144602000248,757.8232415999519,757.3144602000248,757.8232415999519,757.3144602000248,757.8232415999519,755.3388188000536,None,757.8569001199444,None,757.8569001199444,None,757.8569001199444,None,0.004993819980882108,None,757.8569001199444,None,757.8569001199444,None,757.8569001199444,None,757.8569001199444,None,757.8569001199444,None,757.8569001199444,None,757.923097299994,None,757.923097299994,None,757.923097299994,None,0.011331339832395315,0.5113313398323953,757.923097299994,None,757.923097299994,None,757.923097299994,None,757.923097299994,None,757.923097299994,None,757.923097299994,None,759.8809116999619,759.8809116999619,49.3,2.508,-2000,-1900,-2200,,,,,,,,,,,,,,,,,,,,,,,,,,,,,,,,,,,,,,,,,,,,,,,,,,,,,,,,,,,,,,,,,,,,,,,,,,,,,,,,,,,f,21,heyuxin,2022_Apr_13_2106,experiment3,2021.1.4,60.43274684437281,
4,50,200,0,one,50,200,0,,,,,0,76,76,3,,,,,,,,,,,a,2.4878598999930546,762.5057088000467,None,762.5057088000467,None,765.0188204000005,None,765.0188204000005,None,765.0188204000005,None,766.9967155000195,767.5116412000498,766.9967155000195,767.5116412000498,766.9967155000195,767.5116412000498,765.0188204000005,None,767.528470460046,None,767.528470460046,None,767.528470460046,None,0.011892960174009204,None,767.528470460046,None,767.528470460046,None,767.528470460046,None,767.528470460046,None,767.528470460046,None,767.528470460046,None,767.5426779999398,None,767.5426779999398,None,767.5426779999398,None,0.0001067600678652525,0.5001067600678653,767.5426779999398,None,767.5426779999398,None,767.5426779999398,None,767.5426779999398,None,767.5426779999398,None,767.5426779999398,None,769.5445815999992,769.5445815999992,6.100000000000001,3.925,-1950,-1700,-2200,,,,,,,,,,,,,,,,,,,,,,,,,,,,,,,,,,,,,,,,,,,,,,,,,,,,,,,,,,,,,,,,,,,,,,,,,,,,,,,,,,,f,21,heyuxin,2022_Apr_13_2106,experiment3,2021.1.4,60.43274684437281,
9,50,0,200,two,50,0,200,,,,,0,77,77,8,,,,,,,,,,,l,1.165279300068505,773.5338878999464,None,773.5338878999464,None,774.7363373000408,None,774.7363373000408,None,774.7363373000408,None,776.7166111000115,777.2313771999907,776.7166111000115,777.2313771999907,776.7166111000115,777.2313771999907,774.7363373000408,None,777.2482064599869,None,777.2482064599869,None,777.2482064599869,None,0.0034313600044697523,None,777.2482064599869,None,777.2482064599869,None,777.2482064599869,None,777.2482064599869,None,777.2482064599869,None,777.2482064599869,None,777.2674125999911,None,777.2674125999911,None,777.2674125999911,None,0.010625720024108887,0.5106257200241089,777.2674125999911,None,777.2674125999911,None,777.2674125999911,None,777.2674125999911,None,777.2674125999911,None,777.2674125999911,None,779.2446048000129,779.2446048000129,5.799999999999997,2.286,-1900,-1700,-2000,,,,,,,,,,,,,,,,,,,,,,,,,,,,,,,,,,,,,,,,,,,,,,,,,,,,,,,,,,,,,,,,,,,,,,,,,,,,,,,,,,,f,21,heyuxin,2022_Apr_13_2106,experiment3,2021.1.4,60.43274684437281,
32,50,200,50,two,50,200,50,,,,,0,78,78,31,,,,,,,,,,,g,1.3289243000326678,781.6145225999644,None,781.6145225999644,None,782.9759343999904,None,782.9759343999904,None,782.9759343999904,None,784.9665857000509,None,784.9665857000509,None,784.9665857000509,None,782.9759343999904,None,785.4761656600283,None,785.4761656600283,None,785.4761656600283,None,0.01178246014751494,None,785.4761656600283,None,785.4761656600283,None,785.4761656600283,None,785.4761656600283,None,785.4761656600283,None,785.4761656600283,None,785.4904626000207,None,785.4904626000207,None,785.4904626000207,None,0.0001227600732818246,0.5001227600732818,785.4904626000207,None,785.4904626000207,None,785.4904626000207,None,785.4904626000207,None,785.4904626000207,None,785.4904626000207,None,787.4911712999456,787.4911712999456,-12.200000000000003,2.758,-1850,-1500,-1950,,,,,,,,,,,,,,,,,,,,,,,,,,,,,,,,,,,,,,,,,,,,,,,,,,,,,,,,,,,,,,,,,,,,,,,,,,,,,,,,,,,f,21,heyuxin,2022_Apr_13_2106,experiment3,2021.1.4,60.43274684437281,
31,200,50,50,two,200,50,50,,,,,0,79,79,30,,,,,,,,,,,l,2.249043899937533,790.3152523000026,None,790.3152523000026,None,792.5939669000218,None,792.5939669000218,None,792.5939669000218,None,794.5743548000464,795.0891935999971,794.5743548000464,795.0891935999971,794.5743548000464,795.0891935999971,792.5939669000218,None,795.1060228599933,None,795.1060228599933,None,795.1060228599933,None,0.01087075995747,None,795.1060228599933,None,795.1060228599933,None,795.1060228599933,None,795.1060228599933,None,795.1060228599933,None,795.1060228599933,None,795.1228486000327,None,795.1228486000327,None,795.1228486000327,None,0.016420120024122298,0.5164201200241223,795.1228486000327,None,795.1228486000327,None,795.1228486000327,None,795.1228486000327,None,795.1228486000327,None,795.1228486000327,None,797.105328500038,797.105328500038,49.0,2.47,-1650,-1450,-1900,,,,,,,,,,,,,,,,,,,,,,,,,,,,,,,,,,,,,,,,,,,,,,,,,,,,,,,,,,,,,,,,,,,,,,,,,,,,,,,,,,,f,21,heyuxin,2022_Apr_13_2106,experiment3,2021.1.4,60.43274684437281,
44,200,0,200,two,200,0,200,,,,,0,80,80,43,,,,,,,,,,,g,0.9934253999963403,799.6462160999654,None,799.6462160999654,None,800.6670328000328,None,800.6670328000328,None,800.6670328000328,None,802.6547582000494,803.1585597000085,802.6547582000494,803.1585597000085,802.6547582000494,803.1585597000085,800.6670328000328,None,803.1753889600047,None,803.1753889600047,None,803.1753889600047,None,0.00898905994836241,None,803.1753889600047,None,803.1753889600047,None,803.1753889600047,None,803.1753889600047,None,803.1753889600047,None,803.1753889600047,None,803.1897767999908,None,803.1897767999908,None,803.1897767999908,None,0.00046336010564118624,0.5004633601056412,803.1897767999908,None,803.1897767999908,None,803.1897767999908,None,803.1897767999908,None,803.1897767999908,None,803.1897767999908,None,805.1805146000115,805.1805146000115,45.7,2.85,-1450,-1450,-1700,,,,,,,,,,,,,,,,,,,,,,,,,,,,,,,,,,,,,,,,,,,,,,,,,,,,,,,,,,,,,,,,,,,,,,,,,,,,,,,,,,,f,21,heyuxin,2022_Apr_13_2106,experiment3,2021.1.4,60.43274684437281,
11,200,50,0,two,200,50,0,,,,,0,81,81,10,,,,,,,,,,,g,2.675331699894741,808.0962279000087,None,808.0962279000087,None,810.7904248000123,None,810.7904248000123,None,810.7904248000123,None,812.7792613999918,813.2859118999913,812.7792613999918,813.2859118999913,812.7792613999918,813.2859118999913,810.7904248000123,None,813.3027411599876,None,813.3027411599876,None,813.3027411599876,None,0.011677860049530864,None,813.3027411599876,None,813.3027411599876,None,813.3027411599876,None,813.3027411599876,None,813.3027411599876,None,813.3027411599876,None,813.3171705999412,None,813.3171705999412,None,813.3171705999412,None,0.0005132600199431181,0.5005132600199431,813.3171705999412,None,813.3171705999412,None,813.3171705999412,None,813.3171705999412,None,813.3171705999412,None,813.3171705999412,None,815.3193191000028,815.3193191000028,38.5,2.496,-1250,-1400,-1700,,,,,,,,,,,,,,,,,,,,,,,,,,,,,,,,,,,,,,,,,,,,,,,,,,,,,,,,,,,,,,,,,,,,,,,,,,,,,,,,,,,f,21,heyuxin,2022_Apr_13_2106,experiment3,2021.1.4,60.43274684437281,
68,0,-150,0,two,0,-150,0,,,,,0,82,82,67,,,,,,,,,,,l,0.9822907999623567,817.910426300019,None,817.910426300019,None,818.9239669999806,None,818.9239669999806,None,818.9239669999806,None,820.9056347999722,821.4097092000302,820.9056347999722,821.4097092000302,820.9056347999722,821.4097092000302,818.9239669999806,None,821.4265384600264,None,821.4265384600264,None,821.4265384600264,None,0.006598060019314289,None,821.4265384600264,None,821.4265384600264,None,821.4265384600264,None,821.4265384600264,None,821.4265384600264,None,821.4265384600264,None,821.4428288999479,None,821.4428288999479,None,821.4428288999479,None,0.016225420054979622,0.5162254200549796,821.4428288999479,None,821.4428288999479,None,821.4428288999479,None,821.4428288999479,None,821.4428288999479,None,821.4428288999479,None,823.4191497999709,823.4191497999709,36.8,2.276,-1250,-1550,-1700,,,,,,,,,,,,,,,,,,,,,,,,,,,,,,,,,,,,,,,,,,,,,,,,,,,,,,,,,,,,,,,,,,,,,,,,,,,,,,,,,,,f,21,heyuxin,2022_Apr_13_2106,experiment3,2021.1.4,60.43274684437281,
77,-150,0,-150,one,-150,0,-150,,,,,0,83,83,76,,,,,,,,,,,a,1.0825583999976516,825.7838532000314,None,825.7838532000314,None,826.9062036999967,None,826.9062036999967,None,826.9062036999967,None,828.8833286999725,829.3890156999696,828.8833286999725,829.3890156999696,828.8833286999725,829.3890156999696,826.9062036999967,None,829.4058449599659,None,829.4058449599659,None,829.4058449599659,None,0.006068159942515194,None,829.4058449599659,None,829.4058449599659,None,829.4058449599659,None,829.4058449599659,None,829.4058449599659,None,829.4058449599659,None,829.4212580999592,None,829.4212580999592,None,829.4212580999592,None,0.015617519966326654,0.5156175199663267,829.4212580999592,None,829.4212580999592,None,829.4212580999592,None,829.4212580999592,None,829.4212580999592,None,829.4212580999592,None,831.4022050000494,831.4022050000494,0.0,3.163,-1400,-1550,-1850,,,,,,,,,,,,,,,,,,,,,,,,,,,,,,,,,,,,,,,,,,,,,,,,,,,,,,,,,,,,,,,,,,,,,,,,,,,,,,,,,,,f,21,heyuxin,2022_Apr_13_2106,experiment3,2021.1.4,60.43274684437281,
3,50,0,200,one,50,0,200,,,,,0,84,84,2,,,,,,,,,,,g,0.8356770999962464,834.6830473999726,None,834.6830473999726,None,835.5755076999776,None,835.5755076999776,None,835.5755076999776,None,837.5501509000314,838.0593095000368,837.5501509000314,838.0593095000368,837.5501509000314,838.0593095000368,835.5755076999776,None,838.076138760033,None,838.076138760033,None,838.076138760033,None,0.011588960071094334,None,838.076138760033,None,838.076138760033,None,838.076138760033,None,838.076138760033,None,838.076138760033,None,838.076138760033,None,838.0880653000204,None,838.0880653000204,None,838.0880653000204,None,0.004850160097703338,0.5048501600977033,838.0880653000204,None,838.0880653000204,None,838.0880653000204,None,838.0880653000204,None,838.0880653000204,None,838.0880653000204,None,840.0808233999414,840.0808233999414,4.600000000000001,2.523,-1350,-1550,-1650,,,,,,,,,,,,,,,,,,,,,,,,,,,,,,,,,,,,,,,,,,,,,,,,,,,,,,,,,,,,,,,,,,,,,,,,,,,,,,,,,,,f,21,heyuxin,2022_Apr_13_2106,experiment3,2021.1.4,60.43274684437281,
2,0,200,50,one,0,200,50,,,,,0,85,85,1,,,,,,,,,,,a,2.035758599988185,842.6801121999742,None,842.6801121999742,None,844.7572979000397,None,844.7572979000397,None,844.7572979000397,None,846.7323839999735,847.2459548000479,846.7323839999735,847.2459548000479,846.7323839999735,847.2459548000479,844.7572979000397,None,847.2627840600442,None,847.2627840600442,None,847.2627840600442,None,0.011230260017327964,None,847.2627840600442,None,847.2627840600442,None,847.2627840600442,None,847.2627840600442,None,847.2627840600442,None,847.2627840600442,None,847.2776254999917,None,847.2776254999917,None,847.2776254999917,None,0.0001564600970596075,0.5001564600970596,847.2776254999917,None,847.2776254999917,None,847.2776254999917,None,847.2776254999917,None,847.2776254999917,None,847.2776254999917,None,849.2785923000192,849.2785923000192,0.20000000000000284,2.487,-1350,-1350,-1600,,,,,,,,,,,,,,,,,,,,,,,,,,,,,,,,,,,,,,,,,,,,,,,,,,,,,,,,,,,,,,,,,,,,,,,,,,,,,,,,,,,f,21,heyuxin,2022_Apr_13_2106,experiment3,2021.1.4,60.43274684437281,
56,0,-200,-150,two,0,-200,-150,,,,,0,86,86,55,,,,,,,,,,,g,1.0851850000908598,851.8281619000481,None,851.8281619000481,None,852.9445599999744,None,852.9445599999744,None,852.9445599999744,None,854.9292197000468,855.4280323999701,854.9292197000468,855.4280323999701,854.9292197000468,855.4280323999701,852.9445599999744,None,855.4448616599664,None,855.4448616599664,None,855.4448616599664,None,0.011823859997093678,None,855.4448616599664,None,855.4448616599664,None,855.4448616599664,None,855.4448616599664,None,855.4448616599664,None,855.4448616599664,None,855.4719858999597,None,855.4719858999597,None,855.4719858999597,None,0.014260419993661344,0.5142604199936613,855.4719858999597,None,855.4719858999597,None,855.4719858999597,None,855.4719858999597,None,855.4719858999597,None,855.4719858999597,None,857.4461432000389,857.4461432000389,49.3,2.429,-1350,-1550,-1750,,,,,,,,,,,,,,,,,,,,,,,,,,,,,,,,,,,,,,,,,,,,,,,,,,,,,,,,,,,,,,,,,,,,,,,,,,,,,,,,,,,f,21,heyuxin,2022_Apr_13_2106,experiment3,2021.1.4,60.43274684437281,
54,-200,0,-150,one,-200,0,-150,,,,,0,87,87,53,,,,,,,,,,,l,1.1183906000806019,859.9630275999662,None,859.9630275999662,None,861.1183230000315,None,861.1183230000315,None,861.1183230000315,None,863.1100086000515,None,863.1100086000515,None,863.1100086000515,None,861.1183230000315,None,863.6253943599993,None,863.6253943599993,None,863.6253943599993,None,0.008043860085308552,None,863.6253943599993,None,863.6253943599993,None,863.6253943599993,None,863.6253943599993,None,863.6253943599993,None,863.6253943599993,None,863.6467607000377,None,863.6467607000377,None,863.6467607000377,None,0.009676520014181733,0.5096765200141817,863.6467607000377,None,863.6467607000377,None,863.6467607000377,None,863.6467607000377,None,863.6467607000377,None,863.6467607000377,None,865.6485015000217,865.6485015000217,-24.9,2.401,-1550,-1550,-1900,,,,,,,,,,,,,,,,,,,,,,,,,,,,,,,,,,,,,,,,,,,,,,,,,,,,,,,,,,,,,,,,,,,,,,,,,,,,,,,,,,,f,21,heyuxin,2022_Apr_13_2106,experiment3,2021.1.4,60.43274684437281,
46,200,200,50,two,200,200,50,,,,,0,88,88,45,,,,,,,,,,,l,1.7424304999876767,868.1171400999883,None,868.1171400999883,None,869.8851215000032,None,869.8851215000032,None,869.8851215000032,None,871.8664430000354,872.3751843000064,871.8664430000354,872.3751843000064,871.8664430000354,872.3751843000064,869.8851215000032,None,872.4088428199989,None,872.4088428199989,None,872.4088428199989,None,0.012239319970831275,None,872.4088428199989,None,872.4088428199989,None,872.4088428199989,None,872.4088428199989,None,872.4088428199989,None,872.4088428199989,None,872.4217036999762,None,872.4217036999762,None,872.4217036999762,None,0.0012831200147047639,0.5012831200147048,872.4217036999762,None,872.4217036999762,None,872.4217036999762,None,872.4217036999762,None,872.4217036999762,None,872.4217036999762,None,874.4090533000417,874.4090533000417,-0.29999999999999716,2.493,-1350,-1350,-1850,,,,,,,,,,,,,,,,,,,,,,,,,,,,,,,,,,,,,,,,,,,,,,,,,,,,,,,,,,,,,,,,,,,,,,,,,,,,,,,,,,,f,21,heyuxin,2022_Apr_13_2106,experiment3,2021.1.4,60.43274684437281,
37,200,200,0,one,200,200,0,,,,,0,89,89,36,,,,,,,,,,,g,1.243260300019756,876.9659855000209,None,876.9659855000209,None,878.2418319999706,None,878.2418319999706,None,878.2418319999706,None,880.2251565000042,880.7231119000353,880.2251565000042,880.7231119000353,880.2251565000042,880.7231119000353,878.2418319999706,None,880.7399411600315,None,880.7399411600315,None,880.7399411600315,None,0.011676660156808794,None,880.7399411600315,None,880.7399411600315,None,880.7399411600315,None,880.7399411600315,None,880.7399411600315,None,880.7399411600315,None,880.755271699978,None,880.755271699978,None,880.755271699978,None,0.015519320033490658,0.5155193200334907,880.755271699978,None,880.755271699978,None,880.755271699978,None,880.755271699978,None,880.755271699978,None,880.755271699978,None,882.7413323000073,882.7413323000073,39.0,2.593,-1150,-1150,-1850,,,,,,,,,,,,,,,,,,,,,,,,,,,,,,,,,,,,,,,,,,,,,,,,,,,,,,,,,,,,,,,,,,,,,,,,,,,,,,,,,,,f,21,heyuxin,2022_Apr_13_2106,experiment3,2021.1.4,60.43274684437281,
13,0,0,50,one,0,0,50,,,,,0,90,90,12,,,,,,,,,,,l,1.1585245999740437,885.3961863999721,None,885.3961863999721,None,886.5821278999792,None,886.5821278999792,None,886.5821278999792,None,888.5685797999613,889.0719937999966,888.5685797999613,889.0719937999966,888.5685797999613,889.0719937999966,886.5821278999792,None,889.0888230599928,None,889.0888230599928,None,889.0888230599928,None,0.0066534599754959345,None,889.0888230599928,None,889.0888230599928,None,889.0888230599928,None,889.0888230599928,None,889.0888230599928,None,889.0888230599928,None,889.108200000017,None,889.108200000017,None,889.108200000017,None,0.011478719883598387,0.5114787198835984,889.108200000017,None,889.108200000017,None,889.108200000017,None,889.108200000017,None,889.108200000017,None,889.108200000017,None,891.0990745000308,891.0990745000308,10.399999999999999,2.65,-1150,-1150,-1800,,,,,,,,,,,,,,,,,,,,,,,,,,,,,,,,,,,,,,,,,,,,,,,,,,,,,,,,,,,,,,,,,,,,,,,,,,,,,,,,,,,f,21,heyuxin,2022_Apr_13_2106,experiment3,2021.1.4,60.43274684437281,
38,200,0,200,one,200,0,200,,,,,0,91,91,37,,,,,,,,,,,g,1.311552400002256,893.8251272999914,None,893.8251272999914,None,895.1551540000364,None,895.1551540000364,None,895.1551540000364,None,897.1427194999997,None,897.1427194999997,None,897.1427194999997,None,895.1551540000364,None,897.6548683599801,None,897.6548683599801,None,897.6548683599801,None,0.009085959987714887,None,897.6548683599801,None,897.6548683599801,None,897.6548683599801,None,897.6548683599801,None,897.6548683599801,None,897.6548683599801,None,897.669454399962,None,897.669454399962,None,897.669454399962,None,0.015870319912210107,0.5158703199122101,897.669454399962,None,897.669454399962,None,897.669454399962,None,897.669454399962,None,897.669454399962,None,897.669454399962,None,899.6541459000437,899.6541459000437,42.400000000000006,2.679,-950,-1150,-1600,,,,,,,,,,,,,,,,,,,,,,,,,,,,,,,,,,,,,,,,,,,,,,,,,,,,,,,,,,,,,,,,,,,,,,,,,,,,,,,,,,,f,21,heyuxin,2022_Apr_13_2106,experiment3,2021.1.4,60.43274684437281,
58,-150,-200,0,two,-150,-200,0,,,,,0,92,92,57,,,,,,,,,,,l,1.328488599974662,902.3931536000455,None,902.3931536000455,None,903.7490037999814,None,903.7490037999814,None,903.7490037999814,None,905.7358812999446,906.2394932999741,905.7358812999446,906.2394932999741,905.7358812999446,906.2394932999741,903.7490037999814,None,906.2563225599704,None,906.2563225599704,None,906.2563225599704,None,0.004739659954793751,None,906.2563225599704,None,906.2563225599704,None,906.2563225599704,None,906.2563225599704,None,906.2563225599704,None,906.2563225599704,None,906.272597800009,None,906.272597800009,None,906.272597800009,None,0.014086519950069487,0.5140865199500695,906.272597800009,None,906.272597800009,None,906.272597800009,None,906.272597800009,None,906.272597800009,None,906.272597800009,None,908.2622895999812,908.2622895999812,16.099999999999994,3.312,-1100,-1350,-1600,,,,,,,,,,,,,,,,,,,,,,,,,,,,,,,,,,,,,,,,,,,,,,,,,,,,,,,,,,,,,,,,,,,,,,,,,,,,,,,,,,,f,21,heyuxin,2022_Apr_13_2106,experiment3,2021.1.4,60.43274684437281,
84,-150,-150,0,two,-150,-150,0,,,,,0,93,93,83,,,,,,,,,,,g,1.4128255000105128,911.6454161000438,None,911.6454161000438,None,913.0855108000105,None,913.0855108000105,None,913.0855108000105,None,915.076924999943,915.5824837000109,915.076924999943,915.5824837000109,915.076924999943,915.5824837000109,913.0855108000105,None,915.5993129600072,None,915.5993129600072,None,915.5993129600072,None,0.009292359929531813,None,915.5993129600072,None,915.5993129600072,None,915.5993129600072,None,915.5993129600072,None,915.5993129600072,None,915.5993129600072,None,915.6157237000298,None,915.6157237000298,None,915.6157237000298,None,0.013505019946023822,0.5135050199460238,915.6157237000298,None,915.6157237000298,None,915.6157237000298,None,915.6157237000298,None,915.6157237000298,None,915.6157237000298,None,917.6008649000432,917.6008649000432,-0.20000000000000284,2.237,-1250,-1500,-1600,,,,,,,,,,,,,,,,,,,,,,,,,,,,,,,,,,,,,,,,,,,,,,,,,,,,,,,,,,,,,,,,,,,,,,,,,,,,,,,,,,,f,21,heyuxin,2022_Apr_13_2106,experiment3,2021.1.4,60.43274684437281,
