trialNumber,mychoice,otherchoice,stay,skip,pointsWon,otherScore,unobtained,choicepos,pos_1,otherscore,allowedkeyresp,trials_2.thisRepN,trials_2.thisTrialN,trials_2.thisN,trials_2.thisIndex,trials.thisRepN,trials.thisTrialN,trials.thisN,trials.thisIndex,image_2.started,image_2.stopped,key_resp_2.keys,key_resp_2.rt,key_resp_2.started,key_resp_2.stopped,key_resp_6.keys,key_resp_6.rt,key_resp_6.started,key_resp_6.stopped,text.started,text.stopped,left_3.started,left_3.stopped,middle_3.started,middle_3.stopped,right_3.started,right_3.stopped,otherleft_1.started,otherleft_1.stopped,othermiddle_1.started,othermiddle_1.stopped,otherright_1.started,otherright_1.stopped,text_2.started,text_2.stopped,left_4.started,left_4.stopped,right_4.started,right_4.stopped,middle_4.started,middle_4.stopped,ISI_3.started,ISI_3.stopped,mypick.started,mypick.stopped,otherpick.started,otherpick.stopped,residal.started,residal.stopped,otherleft_5.started,otherleft_5.stopped,othermiddle_5.started,othermiddle_5.stopped,otherright_5.started,otherright_5.stopped,left_5.started,left_5.stopped,right_5.started,right_5.stopped,middle_5.started,middle_5.stopped,ISI_5.started,ISI_5.stopped,mypick_1.started,mypick_1.stopped,otherpick_1.started,otherpick_1.stopped,residal_1.started,residal_1.stopped,otherleft_6.started,otherleft_6.stopped,othermiddle_6.started,othermiddle_6.stopped,otherright_6.started,otherright_6.stopped,text_3.started,text_3.stopped,rating,ratingrt,totalScore,othertotalScore,unobtainedScore,image_4.started,image_4.stopped,key_resp_3.keys,key_resp_3.rt,key_resp_3.started,key_resp_3.stopped,image_5.started,image_5.stopped,key_resp.keys,key_resp.rt,key_resp.started,key_resp.stopped,otherleft_3.started,otherleft_3.stopped,othermiddle_3.started,othermiddle_3.stopped,otherright_3.started,otherright_3.stopped,text_4.started,text_4.stopped,ISI_2.started,ISI_2.stopped,key_resp_4.keys,key_resp_4.rt,key_resp_4.started,key_resp_4.stopped,otherleft_4.started,otherleft_4.stopped,othermiddle_4.started,othermiddle_4.stopped,otherright_4.started,otherright_4.stopped,text_5.started,text_5.stopped,left.started,left.stopped,right.started,right.stopped,middle.started,middle.stopped,ISI.started,ISI.stopped,mypick_3.started,mypick_3.stopped,otherpick_3.started,otherpick_3.stopped,residal_3.started,residal_3.stopped,otherleft.started,otherleft.stopped,othermiddle.started,othermiddle.stopped,otherright.started,otherright.stopped,right_2.started,right_2.stopped,middle_2.started,middle_2.stopped,left_2.started,left_2.stopped,ISI_4.started,ISI_4.stopped,mypick_4.started,mypick_4.stopped,otherpick_4.started,otherpick_4.stopped,residal_4.started,residal_4.stopped,otherleft_2.started,otherleft_2.stopped,othermiddle_2.started,othermiddle_2.stopped,otherright_2.started,otherright_2.stopped,text_6.started,text_6.stopped,image_3.started,image_3.stopped,key_resp_9.keys,key_resp_9.rt,key_resp_9.started,key_resp_9.stopped,gender,age,participant,date,expName,psychopyVersion,frameRate,
,,,,,,,,,,,,,,,,,,,,46.93058430001838,None,space,15.62250190001214,46.93058430001838,None,,,,,,,,,,,,,,,,,,,,,,,,,,,,,,,,,,,,,,,,,,,,,,,,,,,,,,,,,,,,,,,,,,,,,,,,,,,,,,,,,,,,,,,,,,,,,,,,,,,,,,,,,,,,,,,,,,,,,,,,,,,,,,,,,,,,,,,,,,,,,,,,,,,,,,f,38,HQH,2022_Apr_12_1054,experiment3,2021.1.4,30.226904302521522,
60,-200,0,-150,two,-200,0,-150,,,,,0,0,0,59,,,,,,,,,,,g,2.141798899974674,62.63388610002585,None,62.63388610002585,None,64.81682050001109,None,64.81682050001109,None,64.81682050001109,None,66.78281880001305,67.28694730001735,66.78281880001305,67.28694730001735,66.78281880001305,67.28694730001735,64.81682050001109,None,67.32033120001434,None,67.32033120001434,None,67.32033120001434,None,0.010976299992762506,None,67.32033120001434,None,67.32033120001434,None,67.32033120001434,None,67.32033120001434,None,67.32033120001434,None,67.32033120001434,None,67.33482470002491,None,67.33482470002491,None,67.33482470002491,None,0.0015396999660879374,0.5015396999660879,67.33482470002491,None,67.33482470002491,None,67.33482470002491,None,67.33482470002491,None,67.33482470002491,None,67.33482470002491,None,69.34720710000256,None,0.8999999999999986,22.928,0,0,-150,,,,,,,,,,,,,,,,,,,,,,,,,,,,,,,,,,,,,,,,,,,,,,,,,,,,,,,,,,,,,,,,,,,,,,,,,,,,,,,,,,,f,38,HQH,2022_Apr_12_1054,experiment3,2021.1.4,30.226904302521522,
7,0,50,200,two,0,50,200,,,,,0,1,1,6,,,,,,,,,,,g,4.081037399999332,92.35743510001339,None,92.35743510001339,None,96.47585290001007,None,96.47585290001007,None,96.47585290001007,None,98.43053010001313,98.95958010002505,98.43053010001313,98.95958010002505,98.43053010001313,98.95958010002505,96.47585290001007,None,98.99296400002204,None,98.99296400002204,None,98.99296400002204,None,0.01976599998306483,None,98.99296400002204,None,98.99296400002204,None,98.99296400002204,None,98.99296400002204,None,98.99296400002204,None,98.99296400002204,None,98.99628349998966,None,98.99628349998966,None,98.99628349998966,None,0.011340799974277616,0.5113407999742776,98.99628349998966,None,98.99628349998966,None,98.99628349998966,None,98.99628349998966,None,98.99628349998966,None,98.99628349998966,None,100.97720249998383,100.97720249998383,0.7000000000000028,7.595,0,50,50,,,,,,,,,,,,,,,,,,,,,,,,,,,,,,,,,,,,,,,,,,,,,,,,,,,,,,,,,,,,,,,,,,,,,,,,,,,,,,,,,,,f,38,HQH,2022_Apr_12_1054,experiment3,2021.1.4,30.226904302521522,
66,-200,0,0,one,-200,0,0,,,,,0,2,2,65,,,,,,,,,,,a,2.3230784000479616,108.64546030003112,None,108.64546030003112,None,111.011977999995,None,111.011977999995,None,111.011977999995,None,112.97320280002896,113.48174070002278,112.97320280002896,113.48174070002278,112.97320280002896,113.48174070002278,111.011977999995,None,113.51512460001977,None,113.51512460001977,None,113.51512460001977,None,0.01734650001162663,None,113.51512460001977,None,113.51512460001977,None,113.51512460001977,None,113.51512460001977,None,113.51512460001977,None,113.51512460001977,None,113.52668000000995,None,113.52668000000995,None,113.52668000000995,None,0.0036865000147372484,0.5036865000147372,113.52668000000995,None,113.52668000000995,None,113.52668000000995,None,113.52668000000995,None,113.52668000000995,None,113.52668000000995,None,115.52275830000872,115.52275830000872,-35.9,5.369,-200,50,50,,,,,,,,,,,,,,,,,,,,,,,,,,,,,,,,,,,,,,,,,,,,,,,,,,,,,,,,,,,,,,,,,,,,,,,,,,,,,,,,,,,f,38,HQH,2022_Apr_12_1054,experiment3,2021.1.4,30.226904302521522,
65,0,-200,0,one,0,-200,0,,,,,0,3,3,64,,,,,,,,,,,a,5.1145646999939345,120.95008949999465,None,120.95008949999465,None,126.12276340002427,None,126.12276340002427,None,126.12276340002427,None,128.09234840003774,128.57913670002017,128.09234840003774,128.57913670002017,128.09234840003774,128.57913670002017,126.12276340002427,None,128.6379265999887,None,128.6379265999887,None,128.6379265999887,None,0.027615099970716983,None,128.6379265999887,None,128.6379265999887,None,128.6379265999887,None,128.6379265999887,None,128.6379265999887,None,128.6379265999887,None,128.6352179000387,None,128.6352179000387,None,128.6352179000387,None,0.020466300018597394,0.5204663000185974,128.6352179000387,None,128.6352179000387,None,128.6352179000387,None,128.6352179000387,None,128.6352179000387,None,128.6352179000387,None,130.60366660001455,130.60366660001455,40.2,4.523,-200,-150,50,,,,,,,,,,,,,,,,,,,,,,,,,,,,,,,,,,,,,,,,,,,,,,,,,,,,,,,,,,,,,,,,,,,,,,,,,,,,,,,,,,,f,38,HQH,2022_Apr_12_1054,experiment3,2021.1.4,30.226904302521522,
13,0,0,50,one,0,0,50,,,,,0,4,4,12,,,,,,,,,,,g,4.363710600009654,135.2087823000038,None,135.2087823000038,None,139.63444910000544,None,139.63444910000544,None,139.63444910000544,None,141.60221829998773,None,141.60221829998773,None,141.60221829998773,None,139.63444910000544,None,142.133811600029,None,142.133811600029,None,142.133811600029,None,0.02551940007833764,None,142.133811600029,None,142.133811600029,None,142.133811600029,None,142.133811600029,None,142.133811600029,None,142.133811600029,None,142.13244800001848,None,142.13244800001848,None,142.13244800001848,None,0.018988800060469657,0.5189888000604697,142.13244800001848,None,142.13244800001848,None,142.13244800001848,None,142.13244800001848,None,142.13244800001848,None,142.13244800001848,None,144.0994937000214,144.0994937000214,0.5,3.052,-200,-150,100,,,,,,,,,,,,,,,,,,,,,,,,,,,,,,,,,,,,,,,,,,,,,,,,,,,,,,,,,,,,,,,,,,,,,,,,,,,,,,,,,,,f,38,HQH,2022_Apr_12_1054,experiment3,2021.1.4,30.226904302521522,
90,-150,-200,-200,one,-150,-200,-200,,,,,0,5,5,89,,,,,,,,,,,a,4.305901599989738,147.21731470001396,None,147.21731470001396,None,151.5819265000173,None,151.5819265000173,None,151.5819265000173,None,153.52175409998745,154.02512820000993,153.52175409998745,154.02512820000993,153.52175409998745,154.02512820000993,151.5819265000173,None,154.09255440002306,None,154.09255440002306,None,154.09255440002306,None,0.018439700070302933,None,154.09255440002306,None,154.09255440002306,None,154.09255440002306,None,154.09255440002306,None,154.09255440002306,None,154.09255440002306,None,154.09638290002476,None,154.09638290002476,None,154.09638290002476,None,0.011148000077810138,0.5111480000778101,154.09638290002476,None,154.09638290002476,None,154.09638290002476,None,154.09638290002476,None,154.09638290002476,None,154.09638290002476,None,156.08118169999216,156.08118169999216,18.099999999999994,6.376,-350,-350,-100,,,,,,,,,,,,,,,,,,,,,,,,,,,,,,,,,,,,,,,,,,,,,,,,,,,,,,,,,,,,,,,,,,,,,,,,,,,,,,,,,,,f,38,HQH,2022_Apr_12_1054,experiment3,2021.1.4,30.226904302521522,
83,-150,0,-150,two,-150,0,-150,,,,,0,6,6,82,,,,,,,,,,,l,4.204110999999102,162.520328100014,None,162.520328100014,None,166.75041690003127,None,166.75041690003127,None,166.75041690003127,None,168.71189179999055,169.22813410003437,168.71189179999055,169.22813410003437,168.71189179999055,169.22813410003437,166.75041690003127,None,169.26151800003134,None,169.26151800003134,None,169.26151800003134,None,0.025751299981493503,None,169.26151800003134,None,169.26151800003134,None,169.26151800003134,None,169.26151800003134,None,169.26151800003134,None,169.26151800003134,None,169.26082940003835,None,169.26082940003835,None,169.26082940003835,None,0.01861510006710887,0.5186151000671089,169.26082940003835,None,169.26082940003835,None,169.26082940003835,None,169.26082940003835,None,169.26082940003835,None,169.26082940003835,None,171.2274352000095,171.2274352000095,-39.8,2.665,-500,-350,-250,,,,,,,,,,,,,,,,,,,,,,,,,,,,,,,,,,,,,,,,,,,,,,,,,,,,,,,,,,,,,,,,,,,,,,,,,,,,,,,,,,,f,38,HQH,2022_Apr_12_1054,experiment3,2021.1.4,30.226904302521522,
84,-150,-150,0,two,-150,-150,0,,,,,0,7,7,83,,,,,,,,,,,g,5.990726499992888,173.94864270003745,None,173.94864270003745,None,179.96850200003246,None,179.96850200003246,None,179.96850200003246,None,181.94245580001734,182.44247439998435,181.94245580001734,182.44247439998435,181.94245580001734,182.44247439998435,179.96850200003246,None,182.47585829998133,None,182.47585829998133,None,182.47585829998133,None,0.025522499985527247,None,182.47585829998133,None,182.47585829998133,None,182.47585829998133,None,182.47585829998133,None,182.47585829998133,None,182.47585829998133,None,182.47534589999123,None,182.47534589999123,None,182.47534589999123,None,0.017912200011778623,0.5179122000117786,182.47534589999123,None,182.47534589999123,None,182.47534589999123,None,182.47534589999123,None,182.47534589999123,None,182.47534589999123,None,184.47510750002692,None,-0.7999999999999972,2.184,-650,-500,-250,,,,,,,,,,,,,,,,,,,,,,,,,,,,,,,,,,,,,,,,,,,,,,,,,,,,,,,,,,,,,,,,,,,,,,,,,,,,,,,,,,,f,38,HQH,2022_Apr_12_1054,experiment3,2021.1.4,30.226904302521522,
76,0,-150,-150,one,0,-150,-150,,,,,0,8,8,75,,,,,,,,,,,a,6.032243399997242,186.6860677000368,None,186.6860677000368,None,192.77382800000487,None,192.77382800000487,None,192.77382800000487,None,194.7396533000283,195.2397096999921,194.7396533000283,195.2397096999921,194.7396533000283,195.2397096999921,192.77382800000487,None,195.27309359998907,None,195.27309359998907,None,195.27309359998907,None,0.025795100023970008,None,195.27309359998907,None,195.27309359998907,None,195.27309359998907,None,195.27309359998907,None,195.27309359998907,None,195.27309359998907,None,195.27244229998905,None,195.27244229998905,None,195.27244229998905,None,0.019497400033287704,0.5194974000332877,195.27244229998905,None,195.27244229998905,None,195.27244229998905,None,195.27244229998905,None,195.27244229998905,None,195.27244229998905,None,197.24271520000184,197.24271520000184,30.799999999999997,7.635,-650,-650,-400,,,,,,,,,,,,,,,,,,,,,,,,,,,,,,,,,,,,,,,,,,,,,,,,,,,,,,,,,,,,,,,,,,,,,,,,,,,,,,,,,,,f,38,HQH,2022_Apr_12_1054,experiment3,2021.1.4,30.226904302521522,
41,200,50,200,one,200,50,200,,,,,0,9,9,40,,,,,,,,,,,a,5.021002699970268,204.9552429000032,None,204.9552429000032,None,210.02007830003276,None,210.02007830003276,None,210.02007830003276,None,211.9861311999848,212.486468099989,211.9861311999848,212.486468099989,211.9861311999848,212.486468099989,210.02007830003276,None,212.51985199998597,None,212.51985199998597,None,212.51985199998597,None,0.02506130002439022,None,212.51985199998597,None,212.51985199998597,None,212.51985199998597,None,212.51985199998597,None,212.51985199998597,None,212.51985199998597,None,212.5191160000395,None,212.5191160000395,None,212.5191160000395,None,0.018163899949286133,0.5181638999492861,212.5191160000395,None,212.5191160000395,None,212.5191160000395,None,212.5191160000395,None,212.5191160000395,None,212.5191160000395,None,214.50895960000344,214.50895960000344,43.8,2.869,-450,-600,-200,,,,,,,,,,,,,,,,,,,,,,,,,,,,,,,,,,,,,,,,,,,,,,,,,,,,,,,,,,,,,,,,,,,,,,,,,,,,,,,,,,,f,38,HQH,2022_Apr_12_1054,experiment3,2021.1.4,30.226904302521522,
73,-200,-150,-150,one,-200,-150,-150,,,,,0,10,10,72,,,,,,,,,,,a,5.336965699971188,217.47139900003094,None,217.47139900003094,None,222.86762099998305,None,222.86762099998305,None,222.86762099998305,None,224.83488510001916,225.33394550002413,224.83488510001916,225.33394550002413,224.83488510001916,225.33394550002413,222.86762099998305,None,225.3673294000211,None,225.3673294000211,None,225.3673294000211,None,0.025671200070064515,None,225.3673294000211,None,225.3673294000211,None,225.3673294000211,None,225.3673294000211,None,225.3673294000211,None,225.3673294000211,None,225.36634539999068,None,225.36634539999068,None,225.36634539999068,None,0.01850120007293299,0.518501200072933,225.36634539999068,None,225.36634539999068,None,225.36634539999068,None,225.36634539999068,None,225.36634539999068,None,225.36634539999068,None,227.35053400002653,227.35053400002653,-10.899999999999999,4.563,-650,-750,-350,,,,,,,,,,,,,,,,,,,,,,,,,,,,,,,,,,,,,,,,,,,,,,,,,,,,,,,,,,,,,,,,,,,,,,,,,,,,,,,,,,,f,38,HQH,2022_Apr_12_1054,experiment3,2021.1.4,30.226904302521522,
37,200,200,0,one,200,200,0,,,,,0,11,11,36,,,,,,,,,,,g,5.672655100002885,231.99047560000326,None,231.99047560000326,None,237.6913775000139,None,237.6913775000139,None,237.6913775000139,None,239.64814040000783,240.17287100001704,239.64814040000783,240.17287100001704,239.64814040000783,240.17287100001704,237.6913775000139,None,240.20625490001402,None,240.20625490001402,None,240.20625490001402,None,0.010680600011255592,None,240.20625490001402,None,240.20625490001402,None,240.20625490001402,None,240.20625490001402,None,240.20625490001402,None,240.20625490001402,None,240.2211828000145,None,240.2211828000145,None,240.2211828000145,None,0.032554500037804246,0.5325545000378042,240.2211828000145,None,240.2211828000145,None,240.2211828000145,None,240.2211828000145,None,240.2211828000145,None,240.2211828000145,None,242.18044369999552,242.18044369999552,0.10000000000000142,3.719,-450,-550,-350,,,,,,,,,,,,,,,,,,,,,,,,,,,,,,,,,,,,,,,,,,,,,,,,,,,,,,,,,,,,,,,,,,,,,,,,,,,,,,,,,,,f,38,HQH,2022_Apr_12_1054,experiment3,2021.1.4,30.226904302521522,
6,200,0,50,one,200,0,50,,,,,0,12,12,5,,,,,,,,,,,g,5.780866399989463,245.99365329998545,None,245.99365329998545,None,251.80735140002798,None,251.80735140002798,None,251.80735140002798,None,253.77846830000635,254.2803247999982,253.77846830000635,254.2803247999982,253.77846830000635,254.2803247999982,251.80735140002798,None,254.31370869999517,None,254.31370869999517,None,254.31370869999517,None,0.025171800050884485,None,254.31370869999517,None,254.31370869999517,None,254.31370869999517,None,254.31370869999517,None,254.31370869999517,None,254.31370869999517,None,254.31443780002883,None,254.31443780002883,None,254.31443780002883,None,0.014815900009125471,0.5148159000091255,254.31443780002883,None,254.31443780002883,None,254.31443780002883,None,254.31443780002883,None,254.31443780002883,None,254.31443780002883,None,256.29320200002985,256.29320200002985,46.3,2.311,-250,-550,-300,,,,,,,,,,,,,,,,,,,,,,,,,,,,,,,,,,,,,,,,,,,,,,,,,,,,,,,,,,,,,,,,,,,,,,,,,,,,,,,,,,,f,38,HQH,2022_Apr_12_1054,experiment3,2021.1.4,30.226904302521522,
91,-200,-200,0,two,-200,-200,0,,,,,0,13,13,90,,,,,,,,,,,g,7.5700366999953985,258.68439519999083,None,258.68439519999083,None,266.30960159999086,None,266.30960159999086,None,266.30960159999086,None,268.25906690000556,268.75907130003907,268.25906690000556,268.75907130003907,268.25906690000556,268.75907130003907,266.30960159999086,None,268.8273738000309,None,268.8273738000309,None,268.8273738000309,None,0.02498150005703792,None,268.8273738000309,None,268.8273738000309,None,268.8273738000309,None,268.8273738000309,None,268.8273738000309,None,268.8273738000309,None,268.8402780999895,None,268.8402780999895,None,268.8402780999895,None,0.010548500053118914,0.5105485000531189,268.8402780999895,None,268.8402780999895,None,268.8402780999895,None,268.8402780999895,None,268.8402780999895,None,268.8402780999895,None,270.8085208000266,270.8085208000266,5.799999999999997,4.499,-450,-750,-300,,,,,,,,,,,,,,,,,,,,,,,,,,,,,,,,,,,,,,,,,,,,,,,,,,,,,,,,,,,,,,,,,,,,,,,,,,,,,,,,,,,f,38,HQH,2022_Apr_12_1054,experiment3,2021.1.4,30.226904302521522,
11,200,50,0,two,200,50,0,,,,,0,14,14,10,,,,,,,,,,,g,2.623748100013472,275.3918946000049,None,275.3918946000049,None,278.057043400011,None,278.057043400011,None,278.057043400011,None,280.023374899989,280.5397365000099,280.023374899989,280.5397365000099,280.023374899989,280.5397365000099,278.057043400011,None,280.57312040000687,None,280.57312040000687,None,280.57312040000687,None,0.027139500016346574,None,280.57312040000687,None,280.57312040000687,None,280.57312040000687,None,280.57312040000687,None,280.57312040000687,None,280.57312040000687,None,280.5731853999896,None,280.5731853999896,None,280.5731853999896,None,0.02057489997241646,0.5205748999724165,280.5731853999896,None,280.5731853999896,None,280.5731853999896,None,280.5731853999896,None,280.5731853999896,None,280.5731853999896,None,282.5453325000126,282.5453325000126,34.7,1.957,-250,-700,-300,,,,,,,,,,,,,,,,,,,,,,,,,,,,,,,,,,,,,,,,,,,,,,,,,,,,,,,,,,,,,,,,,,,,,,,,,,,,,,,,,,,f,38,HQH,2022_Apr_12_1054,experiment3,2021.1.4,30.226904302521522,
96,-150,-200,-200,two,-150,-200,-200,,,,,0,15,15,95,,,,,,,,,,,g,4.905381699965801,284.5592123999959,None,284.5592123999959,None,289.5065680000116,None,289.5065680000116,None,289.5065680000116,None,291.4723610000219,292.00435060000746,291.4723610000219,292.00435060000746,291.4723610000219,292.00435060000746,289.5065680000116,None,292.03773450000443,None,292.03773450000443,None,292.03773450000443,None,0.027293599967379123,None,292.03773450000443,None,292.03773450000443,None,292.03773450000443,None,292.03773450000443,None,292.03773450000443,None,292.03773450000443,None,292.03754779999144,None,292.03754779999144,None,292.03754779999144,None,0.020406700030434877,0.5204067000304349,292.03754779999144,None,292.03754779999144,None,292.03754779999144,None,292.03754779999144,None,292.03754779999144,None,292.03754779999144,None,294.0211597000016,294.0211597000016,-8.0,7.387,-400,-900,-500,,,,,,,,,,,,,,,,,,,,,,,,,,,,,,,,,,,,,,,,,,,,,,,,,,,,,,,,,,,,,,,,,,,,,,,,,,,,,,,,,,,f,38,HQH,2022_Apr_12_1054,experiment3,2021.1.4,30.226904302521522,
18,200,0,0,one,200,0,0,,,,,0,16,16,17,,,,,,,,,,,g,4.876855699985754,301.5200038999901,None,301.5200038999901,None,306.4517317999853,None,306.4517317999853,None,306.4517317999853,None,308.401113800006,308.9184093000367,308.401113800006,308.9184093000367,308.401113800006,308.9184093000367,306.4517317999853,None,308.9517932000337,None,308.9517932000337,None,308.9517932000337,None,0.025808700069319457,None,308.9517932000337,None,308.9517932000337,None,308.9517932000337,None,308.9517932000337,None,308.9517932000337,None,308.9517932000337,None,308.9507804000168,None,308.9507804000168,None,308.9507804000168,None,0.018579800031147897,0.5185798000311479,308.9507804000168,None,308.9507804000168,None,308.9507804000168,None,308.9507804000168,None,308.9507804000168,None,308.9507804000168,None,310.9173057000153,310.9173057000153,49.900000000000006,5.168,-200,-900,-500,,,,,,,,,,,,,,,,,,,,,,,,,,,,,,,,,,,,,,,,,,,,,,,,,,,,,,,,,,,,,,,,,,,,,,,,,,,,,,,,,,,f,38,HQH,2022_Apr_12_1054,experiment3,2021.1.4,30.226904302521522,
31,200,50,50,two,200,50,50,,,,,0,17,17,30,,,,,,,,,,,g,1.7313923999899998,316.15068359998986,None,316.15068359998986,None,317.9079009999987,None,317.9079009999987,None,317.9079009999987,None,319.8819605000317,320.398471100023,319.8819605000317,320.398471100023,319.8819605000317,320.398471100023,317.9079009999987,None,320.43185500002,None,320.43185500002,None,320.43185500002,None,0.02740540000377223,None,320.43185500002,None,320.43185500002,None,320.43185500002,None,320.43185500002,None,320.43185500002,None,320.43185500002,None,320.431637200003,None,320.431637200003,None,320.431637200003,None,0.020508000045083463,0.5205080000450835,320.431637200003,None,320.431637200003,None,320.431637200003,None,320.431637200003,None,320.431637200003,None,320.431637200003,None,322.4157704000245,322.4157704000245,24.400000000000006,6.264,0,-850,-450,,,,,,,,,,,,,,,,,,,,,,,,,,,,,,,,,,,,,,,,,,,,,,,,,,,,,,,,,,,,,,,,,,,,,,,,,,,,,,,,,,,f,38,HQH,2022_Apr_12_1054,experiment3,2021.1.4,30.226904302521522,
68,0,-150,0,two,0,-150,0,,,,,0,18,18,67,,,,,,,,,,,g,1.5391451999894343,328.765249899996,None,328.765249899996,None,330.3283358000335,None,330.3283358000335,None,330.3283358000335,None,332.29631990002235,332.7986423000111,332.29631990002235,332.7986423000111,332.29631990002235,332.7986423000111,330.3283358000335,None,332.8320262000081,None,332.8320262000081,None,332.8320262000081,None,0.025350700016133487,None,332.8320262000081,None,332.8320262000081,None,332.8320262000081,None,332.8320262000081,None,332.8320262000081,None,332.8320262000081,None,332.83138270000927,None,332.83138270000927,None,332.83138270000927,None,0.015977200062479824,0.5159772000624798,332.83138270000927,None,332.83138270000927,None,332.83138270000927,None,332.83138270000927,None,332.83138270000927,None,332.83138270000927,None,334.8149291999871,334.8149291999871,45.3,2.842,0,-1000,-450,,,,,,,,,,,,,,,,,,,,,,,,,,,,,,,,,,,,,,,,,,,,,,,,,,,,,,,,,,,,,,,,,,,,,,,,,,,,,,,,,,,f,38,HQH,2022_Apr_12_1054,experiment3,2021.1.4,30.226904302521522,
67,0,0,-150,two,0,0,-150,,,,,0,19,19,66,,,,,,,,,,,g,3.878179299994372,337.7175353000057,None,337.7175353000057,None,341.62275470001623,None,341.62275470001623,None,341.62275470001623,None,343.5757149999845,344.0811790000298,343.5757149999845,344.0811790000298,343.5757149999845,344.0811790000298,341.62275470001623,None,344.1439655999886,None,344.1439655999886,None,344.1439655999886,None,0.02787499997066334,None,344.1439655999886,None,344.1439655999886,None,344.1439655999886,None,344.1439655999886,None,344.1439655999886,None,344.1439655999886,None,344.14359320001677,None,344.14359320001677,None,344.14359320001677,None,0.020873500034213066,0.5208735000342131,344.14359320001677,None,344.14359320001677,None,344.14359320001677,None,344.14359320001677,None,344.14359320001677,None,344.14359320001677,None,346.12730200000806,346.12730200000806,41.2,7.763,0,-1000,-600,,,,,,,,,,,,,,,,,,,,,,,,,,,,,,,,,,,,,,,,,,,,,,,,,,,,,,,,,,,,,,,,,,,,,,,,,,,,,,,,,,,f,38,HQH,2022_Apr_12_1054,experiment3,2021.1.4,30.226904302521522,
57,-150,0,-200,two,-150,0,-200,,,,,0,20,20,56,,,,,,,,,,,g,3.8263106999802403,353.947349700029,None,353.947349700029,None,357.841573600017,None,357.841573600017,None,357.841573600017,None,359.79116560000693,360.2918895999901,359.79116560000693,360.2918895999901,359.79116560000693,360.2918895999901,357.841573600017,None,360.3649494000012,None,360.3649494000012,None,360.3649494000012,None,0.01920909999171272,None,360.3649494000012,None,360.3649494000012,None,360.3649494000012,None,360.3649494000012,None,360.3649494000012,None,360.3649494000012,None,360.38752950000344,None,360.38752950000344,None,360.38752950000344,None,0.004483800032176077,0.5044838000321761,360.38752950000344,None,360.38752950000344,None,360.38752950000344,None,360.38752950000344,None,360.38752950000344,None,360.38752950000344,None,362.373942300037,362.373942300037,-34.7,2.805,-150,-1000,-800,,,,,,,,,,,,,,,,,,,,,,,,,,,,,,,,,,,,,,,,,,,,,,,,,,,,,,,,,,,,,,,,,,,,,,,,,,,,,,,,,,,f,38,HQH,2022_Apr_12_1054,experiment3,2021.1.4,30.226904302521522,
44,200,0,200,two,200,0,200,,,,,0,21,21,43,,,,,,,,,,,g,3.8815843000193126,365.2439489000244,None,365.2439489000244,None,369.1578885000199,None,369.1578885000199,None,369.1578885000199,None,371.12237280001864,371.61762820003787,371.12237280001864,371.61762820003787,371.12237280001864,371.61762820003787,369.1578885000199,None,371.67719160001724,None,371.67719160001724,None,371.67719160001724,None,0.0267833000398241,None,371.67719160001724,None,371.67719160001724,None,371.67719160001724,None,371.67719160001724,None,371.67719160001724,None,371.67719160001724,None,371.6752764999983,None,371.6752764999983,None,371.6752764999983,None,0.016640499990899116,0.5166404999908991,371.6752764999983,None,371.6752764999983,None,371.6752764999983,None,371.6752764999983,None,371.6752764999983,None,371.6752764999983,None,373.6552836000337,373.6552836000337,48.099999999999994,11.069,50,-1000,-600,,,,,,,,,,,,,,,,,,,,,,,,,,,,,,,,,,,,,,,,,,,,,,,,,,,,,,,,,,,,,,,,,,,,,,,,,,,,,,,,,,,f,38,HQH,2022_Apr_12_1054,experiment3,2021.1.4,30.226904302521522,
14,0,50,0,one,0,50,0,,,,,0,22,22,13,,,,,,,,,,,a,2.311776699963957,384.78903600003105,None,384.78903600003105,None,387.14979080000194,None,387.14979080000194,None,387.14979080000194,None,389.10898960003396,389.61832519999007,389.10898960003396,389.61832519999007,389.10898960003396,389.61832519999007,387.14979080000194,None,389.65170909998704,None,389.65170909998704,None,389.65170909998704,None,0.026095000037457794,None,389.65170909998704,None,389.65170909998704,None,389.65170909998704,None,389.65170909998704,None,389.65170909998704,None,389.65170909998704,None,389.6512284000055,None,389.6512284000055,None,389.6512284000055,None,0.019476499932352453,0.5194764999323525,389.6512284000055,None,389.6512284000055,None,389.6512284000055,None,389.6512284000055,None,389.6512284000055,None,389.6512284000055,None,391.6449291000026,391.6449291000026,8.100000000000001,6.865,50,-950,-600,,,,,,,,,,,,,,,,,,,,,,,,,,,,,,,,,,,,,,,,,,,,,,,,,,,,,,,,,,,,,,,,,,,,,,,,,,,,,,,,,,,f,38,HQH,2022_Apr_12_1054,experiment3,2021.1.4,30.226904302521522,
12,200,0,50,two,200,0,50,,,,,0,23,23,11,,,,,,,,,,,a,1.5978182000108063,398.5893528999877,None,398.5893528999877,None,400.2332949999836,None,400.2332949999836,None,400.2332949999836,None,402.1996932000038,402.704216299986,402.1996932000038,402.704216299986,402.1996932000038,402.704216299986,400.2332949999836,None,402.737600199983,None,402.737600199983,None,402.737600199983,None,0.018006399972364306,None,402.737600199983,None,402.737600199983,None,402.737600199983,None,402.737600199983,None,402.737600199983,None,402.737600199983,None,402.75465329998406,None,402.75465329998406,None,402.75465329998406,None,0.03235799999674782,0.5323579999967478,402.75465329998406,None,402.75465329998406,None,402.75465329998406,None,402.75465329998406,None,402.75465329998406,None,402.75465329998406,None,404.7035890999832,404.7035890999832,46.400000000000006,5.862,250,-950,-550,,,,,,,,,,,,,,,,,,,,,,,,,,,,,,,,,,,,,,,,,,,,,,,,,,,,,,,,,,,,,,,,,,,,,,,,,,,,,,,,,,,f,38,HQH,2022_Apr_12_1054,experiment3,2021.1.4,30.226904302521522,
15,50,0,0,one,50,0,0,,,,,0,24,24,14,,,,,,,,,,,a,3.7746634999639355,410.6650615000399,None,410.6650615000399,None,414.48258529999293,None,414.48258529999293,None,414.48258529999293,None,416.44936690002214,416.98034190002363,416.44936690002214,416.98034190002363,416.44936690002214,416.98034190002363,414.48258529999293,None,417.0137258000206,None,417.0137258000206,None,417.0137258000206,None,0.027607799973338842,None,417.0137258000206,None,417.0137258000206,None,417.0137258000206,None,417.0137258000206,None,417.0137258000206,None,417.0137258000206,None,417.0122970000375,None,417.0122970000375,None,417.0122970000375,None,0.02126130001852289,0.5212613000185229,417.0122970000375,None,417.0122970000375,None,417.0122970000375,None,417.0122970000375,None,417.0122970000375,None,417.0122970000375,None,418.97990249999566,418.97990249999566,34.8,5.404,300,-950,-550,,,,,,,,,,,,,,,,,,,,,,,,,,,,,,,,,,,,,,,,,,,,,,,,,,,,,,,,,,,,,,,,,,,,,,,,,,,,,,,,,,,f,38,HQH,2022_Apr_12_1054,experiment3,2021.1.4,30.226904302521522,
35,50,0,50,two,50,0,50,,,,,0,25,25,34,,,,,,,,,,,a,4.963290700048674,424.45121259998996,None,424.45121259998996,None,429.46182950004004,None,429.46182950004004,None,429.46182950004004,None,431.4272634999943,431.92853610002203,431.4272634999943,431.92853610002203,431.4272634999943,431.92853610002203,429.46182950004004,None,431.961920000019,None,431.961920000019,None,431.961920000019,None,0.024570600071456283,None,431.961920000019,None,431.961920000019,None,431.961920000019,None,431.961920000019,None,431.961920000019,None,431.961920000019,None,431.9623631000286,None,431.9623631000286,None,431.9623631000286,None,0.015264800051227212,0.5152648000512272,431.9623631000286,None,431.9623631000286,None,431.9623631000286,None,431.9623631000286,None,431.9623631000286,None,431.9623631000286,None,433.95955840003444,433.95955840003444,22.700000000000003,1.838,350,-950,-500,,,,,,,,,,,,,,,,,,,,,,,,,,,,,,,,,,,,,,,,,,,,,,,,,,,,,,,,,,,,,,,,,,,,,,,,,,,,,,,,,,,f,38,HQH,2022_Apr_12_1054,experiment3,2021.1.4,30.226904302521522,
93,0,-200,-200,two,0,-200,-200,,,,,0,26,26,92,,,,,,,,,,,a,1.3813122999854386,435.8778881999897,None,435.8778881999897,None,437.3104328000336,None,437.3104328000336,None,437.3104328000336,None,439.25961210002424,439.75914580002427,439.25961210002424,439.75914580002427,439.25961210002424,439.75914580002427,437.3104328000336,None,439.825379300036,None,439.825379300036,None,439.825379300036,None,0.02763640001649037,None,439.825379300036,None,439.825379300036,None,439.825379300036,None,439.825379300036,None,439.825379300036,None,439.825379300036,None,439.82497070002137,None,439.82497070002137,None,439.82497070002137,None,0.02038240007823333,0.5203824000782333,439.82497070002137,None,439.82497070002137,None,439.82497070002137,None,439.82497070002137,None,439.82497070002137,None,439.82497070002137,None,441.8102433999884,441.8102433999884,42.400000000000006,4.113,350,-1150,-700,,,,,,,,,,,,,,,,,,,,,,,,,,,,,,,,,,,,,,,,,,,,,,,,,,,,,,,,,,,,,,,,,,,,,,,,,,,,,,,,,,,f,38,HQH,2022_Apr_12_1054,experiment3,2021.1.4,30.226904302521522,
26,50,200,50,one,50,200,50,,,,,0,27,27,25,,,,,,,,,,,a,1.4858555999817327,445.99338110000826,None,445.99338110000826,None,447.528931799985,None,447.528931799985,None,447.528931799985,None,449.508314500039,450.0063291999977,449.508314500039,450.0063291999977,449.508314500039,450.0063291999977,447.528931799985,None,450.0397130999947,None,450.0397130999947,None,450.0397130999947,None,0.025852000049781054,None,450.0397130999947,None,450.0397130999947,None,450.0397130999947,None,450.0397130999947,None,450.0397130999947,None,450.0397130999947,None,450.058517700003,None,450.058517700003,None,450.058517700003,None,0.006621400010772049,0.506621400010772,450.058517700003,None,450.058517700003,None,450.058517700003,None,450.058517700003,None,450.058517700003,None,450.058517700003,None,452.06499700002604,None,-4.600000000000001,2.363,400,-950,-650,,,,,,,,,,,,,,,,,,,,,,,,,,,,,,,,,,,,,,,,,,,,,,,,,,,,,,,,,,,,,,,,,,,,,,,,,,,,,,,,,,,f,38,HQH,2022_Apr_12_1054,experiment3,2021.1.4,30.226904302521522,
85,-200,-200,0,one,-200,-200,0,,,,,0,28,28,84,,,,,,,,,,,a,1.663895700010471,454.470972399984,None,454.470972399984,None,456.2049745999975,None,456.2049745999975,None,456.2049745999975,None,458.1881175999879,458.6883191000088,458.1881175999879,458.6883191000088,458.1881175999879,458.6883191000088,456.2049745999975,None,458.7217030000058,None,458.7217030000058,None,458.7217030000058,None,0.027357199985999614,None,458.7217030000058,None,458.7217030000058,None,458.7217030000058,None,458.7217030000058,None,458.7217030000058,None,458.7217030000058,None,458.7213526000269,None,458.7213526000269,None,458.7213526000269,None,0.020085800031665713,0.5200858000316657,458.7213526000269,None,458.7213526000269,None,458.7213526000269,None,458.7213526000269,None,458.7213526000269,None,458.7213526000269,None,460.68843030004064,460.68843030004064,0.8999999999999986,1.997,200,-1150,-650,,,,,,,,,,,,,,,,,,,,,,,,,,,,,,,,,,,,,,,,,,,,,,,,,,,,,,,,,,,,,,,,,,,,,,,,,,,,,,,,,,,f,38,HQH,2022_Apr_12_1054,experiment3,2021.1.4,30.226904302521522,
45,0,200,200,two,0,200,200,,,,,0,29,29,44,,,,,,,,,,,a,3.288572199991904,462.74319180002203,None,462.74319180002203,None,466.0796284000389,None,466.0796284000389,None,466.0796284000389,None,468.0391319000046,468.52869860001374,468.0391319000046,468.52869860001374,468.0391319000046,468.52869860001374,466.0796284000389,None,468.58723679998656,None,468.58723679998656,None,468.58723679998656,None,0.01860439998563379,None,468.58723679998656,None,468.58723679998656,None,468.58723679998656,None,468.58723679998656,None,468.58723679998656,None,468.58723679998656,None,468.60156939999433,None,468.60156939999433,None,468.60156939999433,None,0.0016589999431744218,0.5016589999431744,468.60156939999433,None,468.60156939999433,None,468.60156939999433,None,468.60156939999433,None,468.60156939999433,None,468.60156939999433,None,470.60438469999934,None,-19.8,5.77,200,-950,-450,,,,,,,,,,,,,,,,,,,,,,,,,,,,,,,,,,,,,,,,,,,,,,,,,,,,,,,,,,,,,,,,,,,,,,,,,,,,,,,,,,,f,38,HQH,2022_Apr_12_1054,experiment3,2021.1.4,30.226904302521522,
40,200,200,50,one,200,200,50,,,,,0,30,30,39,,,,,,,,,,,a,2.2324392999871634,476.40450320002856,None,476.40450320002856,None,478.70109360001516,None,478.70109360001516,None,478.70109360001516,None,480.6886356000323,None,480.6886356000323,None,480.6886356000323,None,478.70109360001516,None,481.2695391000248,None,481.2695391000248,None,481.2695391000248,None,0.025599000044167042,None,481.2695391000248,None,481.2695391000248,None,481.2695391000248,None,481.2695391000248,None,481.2695391000248,None,481.2695391000248,None,481.2652450000169,None,481.2652450000169,None,481.2652450000169,None,0.01761640002951026,0.5176164000295103,481.2652450000169,None,481.2652450000169,None,481.2652450000169,None,481.2652450000169,None,481.2652450000169,None,481.2652450000169,None,483.249893900007,483.249893900007,0.0,1.653,400,-750,-400,,,,,,,,,,,,,,,,,,,,,,,,,,,,,,,,,,,,,,,,,,,,,,,,,,,,,,,,,,,,,,,,,,,,,,,,,,,,,,,,,,,f,38,HQH,2022_Apr_12_1054,experiment3,2021.1.4,30.226904302521522,
46,200,200,50,two,200,200,50,,,,,0,31,31,45,,,,,,,,,,,a,1.2362268000142649,484.9847507000086,None,484.9847507000086,None,486.2621490000165,None,486.2621490000165,None,486.2621490000165,None,488.2058856000076,488.73252369998954,488.2058856000076,488.73252369998954,488.2058856000076,488.73252369998954,486.2621490000165,None,488.7659075999865,None,488.7659075999865,None,488.7659075999865,None,0.025639899948146194,None,488.7659075999865,None,488.7659075999865,None,488.7659075999865,None,488.7659075999865,None,488.7659075999865,None,488.7659075999865,None,488.76515270001255,None,488.76515270001255,None,488.76515270001255,None,0.01934400002937764,0.5193440000293776,488.76515270001255,None,488.76515270001255,None,488.76515270001255,None,488.76515270001255,None,488.76515270001255,None,488.76515270001255,None,490.7337944000028,490.7337944000028,0.7999999999999972,2.063,600,-550,-350,,,,,,,,,,,,,,,,,,,,,,,,,,,,,,,,,,,,,,,,,,,,,,,,,,,,,,,,,,,,,,,,,,,,,,,,,,,,,,,,,,,f,38,HQH,2022_Apr_12_1054,experiment3,2021.1.4,30.226904302521522,
86,-200,0,-200,one,-200,0,-200,,,,,0,32,32,85,,,,,,,,,,,a,1.2873675000155345,492.86042630003067,None,492.86042630003067,None,494.19835890003014,None,494.19835890003014,None,494.19835890003014,None,496.1482917999965,496.66408280003816,496.1482917999965,496.66408280003816,496.1482917999965,496.66408280003816,494.19835890003014,None,496.69746670003514,None,496.69746670003514,None,496.69746670003514,None,0.025957999983802438,None,496.69746670003514,None,496.69746670003514,None,496.69746670003514,None,496.69746670003514,None,496.69746670003514,None,496.69746670003514,None,496.69710069999564,None,496.69710069999564,None,496.69710069999564,None,0.019074900075793266,0.5190749000757933,496.69710069999564,None,496.69710069999564,None,496.69710069999564,None,496.69710069999564,None,496.69710069999564,None,496.69710069999564,None,498.659828200005,498.659828200005,-46.6,2.765,400,-550,-550,,,,,,,,,,,,,,,,,,,,,,,,,,,,,,,,,,,,,,,,,,,,,,,,,,,,,,,,,,,,,,,,,,,,,,,,,,,,,,,,,,,f,38,HQH,2022_Apr_12_1054,experiment3,2021.1.4,30.226904302521522,
94,-200,-200,-150,two,-200,-200,-150,,,,,0,33,33,93,,,,,,,,,,,a,2.49852700001793,501.5071325000026,None,501.5071325000026,None,504.0625349000329,None,504.0625349000329,None,504.0625349000329,None,506.0053790000384,506.4972704999964,506.0053790000384,506.4972704999964,506.0053790000384,506.4972704999964,504.0625349000329,None,506.56241150001296,None,506.56241150001296,None,506.56241150001296,None,0.02247579995309934,None,506.56241150001296,None,506.56241150001296,None,506.56241150001296,None,506.56241150001296,None,506.56241150001296,None,506.56241150001296,None,506.5770176000078,None,506.5770176000078,None,506.5770176000078,None,0.006048800016287714,0.5060488000162877,506.5770176000078,None,506.5770176000078,None,506.5770176000078,None,506.5770176000078,None,506.5770176000078,None,506.5770176000078,None,508.5574499000213,508.5574499000213,0.10000000000000142,1.724,200,-750,-700,,,,,,,,,,,,,,,,,,,,,,,,,,,,,,,,,,,,,,,,,,,,,,,,,,,,,,,,,,,,,,,,,,,,,,,,,,,,,,,,,,,f,38,HQH,2022_Apr_12_1054,experiment3,2021.1.4,30.226904302521522,
2,0,200,50,one,0,200,50,,,,,0,34,34,1,,,,,,,,,,,a,1.3999717000406235,510.3465756000369,None,510.3465756000369,None,511.77827549999347,None,511.77827549999347,None,511.77827549999347,None,513.7446745000198,514.2448096000007,513.7446745000198,514.2448096000007,513.7446745000198,514.2448096000007,511.77827549999347,None,514.2781934999978,None,514.2781934999978,None,514.2781934999978,None,0.025675499986391515,None,514.2781934999978,None,514.2781934999978,None,514.2781934999978,None,514.2781934999978,None,514.2781934999978,None,514.2781934999978,None,514.276717700006,None,514.276717700006,None,514.276717700006,None,0.01824780006427318,0.5182478000642732,514.276717700006,None,514.276717700006,None,514.276717700006,None,514.276717700006,None,514.276717700006,None,514.276717700006,None,516.260655399994,516.260655399994,-41.2,2.435,200,-550,-650,,,,,,,,,,,,,,,,,,,,,,,,,,,,,,,,,,,,,,,,,,,,,,,,,,,,,,,,,,,,,,,,,,,,,,,,,,,,,,,,,,,f,38,HQH,2022_Apr_12_1054,experiment3,2021.1.4,30.226904302521522,
78,-150,-150,0,one,-150,-150,0,,,,,0,35,35,77,,,,,,,,,,,a,1.0194792000111192,518.7547809000243,None,518.7547809000243,None,519.8267912000301,None,519.8267912000301,None,519.8267912000301,None,521.7672395000118,522.2759358999901,521.7672395000118,522.2759358999901,521.7672395000118,522.2759358999901,519.8267912000301,None,522.343009099993,None,522.343009099993,None,522.343009099993,None,0.02777120005339384,None,522.343009099993,None,522.343009099993,None,522.343009099993,None,522.343009099993,None,522.343009099993,None,522.343009099993,None,522.3419642000226,None,522.3419642000226,None,522.3419642000226,None,0.02019860001746565,0.5201986000174657,522.3419642000226,None,522.3419642000226,None,522.3419642000226,None,522.3419642000226,None,522.3419642000226,None,522.3419642000226,None,524.3259216999868,524.3259216999868,0.0,2.835,50,-700,-650,,,,,,,,,,,,,,,,,,,,,,,,,,,,,,,,,,,,,,,,,,,,,,,,,,,,,,,,,,,,,,,,,,,,,,,,,,,,,,,,,,,f,38,HQH,2022_Apr_12_1054,experiment3,2021.1.4,30.226904302521522,
21,50,0,0,two,50,0,0,,,,,0,36,36,20,,,,,,,,,,,l,2.2725755000137724,527.2267764999997,None,527.2267764999997,None,529.5421776000294,None,529.5421776000294,None,529.5421776000294,None,531.4913502000272,532.0224199999939,531.4913502000272,532.0224199999939,531.4913502000272,532.0224199999939,529.5421776000294,None,532.0558038999909,None,532.0558038999909,None,532.0558038999909,None,0.016313700063619763,None,532.0558038999909,None,532.0558038999909,None,532.0558038999909,None,532.0558038999909,None,532.0558038999909,None,532.0558038999909,None,532.0807073999895,None,532.0807073999895,None,532.0807073999895,None,0.02812989999074489,0.5281298999907449,532.0807073999895,None,532.0807073999895,None,532.0807073999895,None,532.0807073999895,None,532.0807073999895,None,532.0807073999895,None,534.0573130000266,534.0573130000266,16.099999999999994,4.273,100,-700,-650,,,,,,,,,,,,,,,,,,,,,,,,,,,,,,,,,,,,,,,,,,,,,,,,,,,,,,,,,,,,,,,,,,,,,,,,,,,,,,,,,,,f,38,HQH,2022_Apr_12_1054,experiment3,2021.1.4,30.226904302521522,
34,0,50,50,two,0,50,50,,,,,0,37,37,33,,,,,,,,,,,l,1.2135555000277236,538.4117712000152,None,538.4117712000152,None,539.6756020000321,None,539.6756020000321,None,539.6756020000321,None,541.6388968999963,542.1391951999976,541.6388968999963,542.1391951999976,541.6388968999963,542.1391951999976,539.6756020000321,None,542.2058676000336,None,542.2058676000336,None,542.2058676000336,None,0.02773740008706227,None,542.2058676000336,None,542.2058676000336,None,542.2058676000336,None,542.2058676000336,None,542.2058676000336,None,542.2058676000336,None,542.2054858999909,None,542.2054858999909,None,542.2054858999909,None,0.020944599993526936,0.5209445999935269,542.2054858999909,None,542.2054858999909,None,542.2054858999909,None,542.2054858999909,None,542.2054858999909,None,542.2054858999909,None,544.1718587999931,544.1718587999931,-7.799999999999997,1.659,100,-650,-600,,,,,,,,,,,,,,,,,,,,,,,,,,,,,,,,,,,,,,,,,,,,,,,,,,,,,,,,,,,,,,,,,,,,,,,,,,,,,,,,,,,f,38,HQH,2022_Apr_12_1054,experiment3,2021.1.4,30.226904302521522,
47,200,50,200,two,200,50,200,,,,,0,38,38,46,,,,,,,,,,,l,0.8730674000107683,545.9068482000148,None,545.9068482000148,None,546.8207793000038,None,546.8207793000038,None,546.8207793000038,None,548.7715830000234,549.2712666000007,548.7715830000234,549.2712666000007,548.7715830000234,549.2712666000007,546.8207793000038,None,549.3376534000156,None,549.3376534000156,None,549.3376534000156,None,0.02752359997248277,None,549.3376534000156,None,549.3376534000156,None,549.3376534000156,None,549.3376534000156,None,549.3376534000156,None,549.3376534000156,None,549.3373076000134,None,549.3373076000134,None,549.3373076000134,None,0.01967279997188598,0.519672799971886,549.3373076000134,None,549.3373076000134,None,549.3373076000134,None,549.3373076000134,None,549.3373076000134,None,549.3373076000134,None,551.3230754000251,551.3230754000251,13.399999999999999,7.082,300,-600,-400,,,,,,,,,,,,,,,,,,,,,,,,,,,,,,,,,,,,,,,,,,,,,,,,,,,,,,,,,,,,,,,,,,,,,,,,,,,,,,,,,,,f,38,HQH,2022_Apr_12_1054,experiment3,2021.1.4,30.226904302521522,
3,50,0,200,one,50,0,200,,,,,0,39,39,2,,,,,,,,,,,l,2.061790900013875,558.4700842000311,None,558.4700842000311,None,560.5692395000369,None,560.5692395000369,None,560.5692395000369,None,562.5553196000401,None,562.5553196000401,None,562.5553196000401,None,560.5692395000369,None,563.0729033999844,None,563.0729033999844,None,563.0729033999844,None,0.018830300017725676,None,563.0729033999844,None,563.0729033999844,None,563.0729033999844,None,563.0729033999844,None,563.0729033999844,None,563.0729033999844,None,563.0840083000367,None,563.0840083000367,None,563.0840083000367,None,0.009077399969100952,0.509077399969101,563.0840083000367,None,563.0840083000367,None,563.0840083000367,None,563.0840083000367,None,563.0840083000367,None,563.0840083000367,None,565.0554915000102,565.0554915000102,8.700000000000003,2.792,350,-600,-200,,,,,,,,,,,,,,,,,,,,,,,,,,,,,,,,,,,,,,,,,,,,,,,,,,,,,,,,,,,,,,,,,,,,,,,,,,,,,,,,,,,f,38,HQH,2022_Apr_12_1054,experiment3,2021.1.4,30.226904302521522,
52,-150,-200,0,one,-150,-200,0,,,,,0,40,40,51,,,,,,,,,,,g,1.095974900003057,567.9066547999973,None,567.9066547999973,None,569.0452670000377,None,569.0452670000377,None,569.0452670000377,None,571.001760300016,571.500445600017,571.001760300016,571.500445600017,571.001760300016,571.500445600017,569.0452670000377,None,571.5663483000128,None,571.5663483000128,None,571.5663483000128,None,0.02722190006170422,None,571.5663483000128,None,571.5663483000128,None,571.5663483000128,None,571.5663483000128,None,571.5663483000128,None,571.5663483000128,None,571.5659376999829,None,571.5659376999829,None,571.5659376999829,None,0.020239800040144473,0.5202398000401445,571.5659376999829,None,571.5659376999829,None,571.5659376999829,None,571.5659376999829,None,571.5659376999829,None,571.5659376999829,None,573.5254151999834,573.5254151999834,4.600000000000001,3.796,200,-800,-200,,,,,,,,,,,,,,,,,,,,,,,,,,,,,,,,,,,,,,,,,,,,,,,,,,,,,,,,,,,,,,,,,,,,,,,,,,,,,,,,,,,f,38,HQH,2022_Apr_12_1054,experiment3,2021.1.4,30.226904302521522,
23,0,200,0,two,0,200,0,,,,,0,41,41,22,,,,,,,,,,,g,2.9383211999665946,577.4325820000377,None,577.4325820000377,None,580.4342734999955,None,580.4342734999955,None,580.4342734999955,None,582.3976496999967,582.898167300038,582.3976496999967,582.898167300038,582.3976496999967,582.898167300038,580.4342734999955,None,582.9648364999914,None,582.9648364999914,None,582.9648364999914,None,0.02765570004703477,None,582.9648364999914,None,582.9648364999914,None,582.9648364999914,None,582.9648364999914,None,582.9648364999914,None,582.9648364999914,None,582.9644344000262,None,582.9644344000262,None,582.9644344000262,None,0.02007289999164641,0.5200728999916464,582.9644344000262,None,582.9644344000262,None,582.9644344000262,None,582.9644344000262,None,582.9644344000262,None,582.9644344000262,None,584.9484733000281,584.9484733000281,-13.399999999999999,3.217,200,-600,-200,,,,,,,,,,,,,,,,,,,,,,,,,,,,,,,,,,,,,,,,,,,,,,,,,,,,,,,,,,,,,,,,,,,,,,,,,,,,,,,,,,,f,38,HQH,2022_Apr_12_1054,experiment3,2021.1.4,30.226904302521522,
59,-200,-150,0,two,-200,-150,0,,,,,0,42,42,58,,,,,,,,,,,a,3.530173399951309,588.2456739000045,None,588.2456739000045,None,591.8295257000136,None,591.8295257000136,None,591.8295257000136,None,593.8186959000304,None,593.8186959000304,None,593.8186959000304,None,591.8295257000136,None,594.3453166999855,None,594.3453166999855,None,594.3453166999855,None,0.027909599943086505,None,594.3453166999855,None,594.3453166999855,None,594.3453166999855,None,594.3453166999855,None,594.3453166999855,None,594.3453166999855,None,594.3445186000317,None,594.3445186000317,None,594.3445186000317,None,0.020412500016391277,0.5204125000163913,594.3445186000317,None,594.3445186000317,None,594.3445186000317,None,594.3445186000317,None,594.3445186000317,None,594.3445186000317,None,596.312805900001,596.312805900001,-33.6,3.639,0,-750,-200,,,,,,,,,,,,,,,,,,,,,,,,,,,,,,,,,,,,,,,,,,,,,,,,,,,,,,,,,,,,,,,,,,,,,,,,,,,,,,,,,,,f,38,HQH,2022_Apr_12_1054,experiment3,2021.1.4,30.226904302521522,
32,50,200,50,two,50,200,50,,,,,0,43,43,31,,,,,,,,,,,a,3.318267199967522,600.027540799987,None,600.027540799987,None,603.368123000022,None,603.368123000022,None,603.368123000022,None,605.3209128000308,605.8204274000018,605.3209128000308,605.8204274000018,605.3209128000308,605.8204274000018,603.368123000022,None,605.8852572000353,None,605.8852572000353,None,605.8852572000353,None,0.0172149000572972,None,605.8852572000353,None,605.8852572000353,None,605.8852572000353,None,605.8852572000353,None,605.8852572000353,None,605.8852572000353,None,605.906914799998,None,605.906914799998,None,605.906914799998,None,0.003129800024908036,0.503129800024908,605.906914799998,None,605.906914799998,None,605.906914799998,None,605.906914799998,None,605.906914799998,None,605.906914799998,None,607.9093327000039,None,-22.6,4.148,50,-550,-150,,,,,,,,,,,,,,,,,,,,,,,,,,,,,,,,,,,,,,,,,,,,,,,,,,,,,,,,,,,,,,,,,,,,,,,,,,,,,,,,,,,f,38,HQH,2022_Apr_12_1054,experiment3,2021.1.4,30.226904302521522,
80,-150,-200,-150,two,-150,-200,-150,,,,,0,44,44,79,,,,,,,,,,,g,2.2228749999776483,612.0926610000315,None,612.0926610000315,None,614.3750873000245,None,614.3750873000245,None,614.3750873000245,None,616.3473943999852,None,616.3473943999852,None,616.3473943999852,None,614.3750873000245,None,616.8748889000155,None,616.8748889000155,None,616.8748889000155,None,0.025949299975764006,None,616.8748889000155,None,616.8748889000155,None,616.8748889000155,None,616.8748889000155,None,616.8748889000155,None,616.8748889000155,None,616.8738616000046,None,616.8738616000046,None,616.8738616000046,None,0.019365199957974255,0.5193651999579743,616.8738616000046,None,616.8738616000046,None,616.8738616000046,None,616.8738616000046,None,616.8738616000046,None,616.8738616000046,None,618.8573152000317,618.8573152000317,3.700000000000003,3.407,-100,-750,-300,,,,,,,,,,,,,,,,,,,,,,,,,,,,,,,,,,,,,,,,,,,,,,,,,,,,,,,,,,,,,,,,,,,,,,,,,,,,,,,,,,,f,38,HQH,2022_Apr_12_1054,experiment3,2021.1.4,30.226904302521522,
22,0,0,200,two,0,0,200,,,,,0,45,45,21,,,,,,,,,,,g,1.6349980999948457,622.3211184000247,None,622.3211184000247,None,623.9901765999966,None,623.9901765999966,None,623.9901765999966,None,625.939614700037,626.456455699983,625.939614700037,626.456455699983,625.939614700037,626.456455699983,623.9901765999966,None,626.4898395999801,None,626.4898395999801,None,626.4898395999801,None,0.026827000023331493,None,626.4898395999801,None,626.4898395999801,None,626.4898395999801,None,626.4898395999801,None,626.4898395999801,None,626.4898395999801,None,626.4912599000381,None,626.4912599000381,None,626.4912599000381,None,0.01991989993257448,0.5199198999325745,626.4912599000381,None,626.4912599000381,None,626.4912599000381,None,626.4912599000381,None,626.4912599000381,None,626.4912599000381,None,628.4639633999905,628.4639633999905,-0.7000000000000028,1.543,-100,-750,-100,,,,,,,,,,,,,,,,,,,,,,,,,,,,,,,,,,,,,,,,,,,,,,,,,,,,,,,,,,,,,,,,,,,,,,,,,,,,,,,,,,,f,38,HQH,2022_Apr_12_1054,experiment3,2021.1.4,30.226904302521522,
69,-150,0,0,two,-150,0,0,,,,,0,46,46,68,,,,,,,,,,,g,1.669047299947124,630.0896071000025,None,630.0896071000025,None,631.8045459000277,None,631.8045459000277,None,631.8045459000277,None,633.7430498999893,634.2409350000089,633.7430498999893,634.2409350000089,633.7430498999893,634.2409350000089,631.8045459000277,None,634.3045961999917,None,634.3045961999917,None,634.3045961999917,None,0.02578720002202317,None,634.3045961999917,None,634.3045961999917,None,634.3045961999917,None,634.3045961999917,None,634.3045961999917,None,634.3045961999917,None,634.3034081000369,None,634.3034081000369,None,634.3034081000369,None,0.018655500025488436,0.5186555000254884,634.3034081000369,None,634.3034081000369,None,634.3034081000369,None,634.3034081000369,None,634.3034081000369,None,634.3034081000369,None,636.287461000029,636.287461000029,-31.5,2.779,-250,-750,-100,,,,,,,,,,,,,,,,,,,,,,,,,,,,,,,,,,,,,,,,,,,,,,,,,,,,,,,,,,,,,,,,,,,,,,,,,,,,,,,,,,,f,38,HQH,2022_Apr_12_1054,experiment3,2021.1.4,30.226904302521522,
53,-200,-150,0,one,-200,-150,0,,,,,0,47,47,52,,,,,,,,,,,g,1.1819671000121161,639.1265855000238,None,639.1265855000238,None,640.3578593999846,None,640.3578593999846,None,640.3578593999846,None,642.3200142999995,642.8361381000141,642.3200142999995,642.8361381000141,642.3200142999995,642.8361381000141,640.3578593999846,None,642.8695220000111,None,642.8695220000111,None,642.8695220000111,None,0.025076499965507537,None,642.8695220000111,None,642.8695220000111,None,642.8695220000111,None,642.8695220000111,None,642.8695220000111,None,642.8695220000111,None,642.8682172999834,None,642.8682172999834,None,642.8682172999834,None,0.017486500088125467,0.5174865000881255,642.8682172999834,None,642.8682172999834,None,642.8682172999834,None,642.8682172999834,None,642.8682172999834,None,642.8682172999834,None,644.8517919000005,644.8517919000005,-9.399999999999999,1.935,-450,-900,-100,,,,,,,,,,,,,,,,,,,,,,,,,,,,,,,,,,,,,,,,,,,,,,,,,,,,,,,,,,,,,,,,,,,,,,,,,,,,,,,,,,,f,38,HQH,2022_Apr_12_1054,experiment3,2021.1.4,30.226904302521522,
33,50,50,200,two,50,50,200,,,,,0,48,48,32,,,,,,,,,,,g,1.7148865000344813,646.8690542000113,None,646.8690542000113,None,648.6183582000085,None,648.6183582000085,None,648.6183582000085,None,650.5853158000391,651.0723379999981,650.5853158000391,651.0723379999981,650.5853158000391,651.0723379999981,648.6183582000085,None,651.135953999986,None,651.135953999986,None,651.135953999986,None,0.02678149996791035,None,651.135953999986,None,651.135953999986,None,651.135953999986,None,651.135953999986,None,651.135953999986,None,651.135953999986,None,651.1375165000209,None,651.1375165000209,None,651.1375165000209,None,0.01501439994899556,0.5150143999489956,651.1375165000209,None,651.1375165000209,None,651.1375165000209,None,651.1375165000209,None,651.1375165000209,None,651.1375165000209,None,653.1139022000134,653.1139022000134,5.799999999999997,3.817,-400,-850,100,,,,,,,,,,,,,,,,,,,,,,,,,,,,,,,,,,,,,,,,,,,,,,,,,,,,,,,,,,,,,,,,,,,,,,,,,,,,,,,,,,,f,38,HQH,2022_Apr_12_1054,experiment3,2021.1.4,30.226904302521522,
48,50,200,200,two,50,200,200,,,,,0,49,49,47,,,,,,,,,,,g,3.078529799997341,656.9961350000231,None,656.9961350000231,None,660.103460000013,None,660.103460000013,None,660.103460000013,None,662.0834028000245,662.5897037000395,662.0834028000245,662.5897037000395,662.0834028000245,662.5897037000395,660.103460000013,None,662.6230876000366,None,662.6230876000366,None,662.6230876000366,None,0.019284000038169324,None,662.6230876000366,None,662.6230876000366,None,662.6230876000366,None,662.6230876000366,None,662.6230876000366,None,662.6230876000366,None,662.6402357000043,None,662.6402357000043,None,662.6402357000043,None,0.006163200014270842,0.5061632000142708,662.6402357000043,None,662.6402357000043,None,662.6402357000043,None,662.6402357000043,None,662.6402357000043,None,662.6402357000043,None,664.6424784000149,None,-8.799999999999997,2.284,-350,-650,300,,,,,,,,,,,,,,,,,,,,,,,,,,,,,,,,,,,,,,,,,,,,,,,,,,,,,,,,,,,,,,,,,,,,,,,,,,,,,,,,,,,f,38,HQH,2022_Apr_12_1054,experiment3,2021.1.4,30.226904302521522,
25,200,50,50,one,200,50,50,,,,,0,50,50,24,,,,,,,,,,,g,3.7627014000318013,666.9993870999897,None,666.9993870999897,None,670.8141345999902,None,670.8141345999902,None,670.8141345999902,None,672.763798800006,673.2693633000017,672.763798800006,673.2693633000017,672.763798800006,673.2693633000017,670.8141345999902,None,673.350496700022,None,673.350496700022,None,673.350496700022,None,0.01903580006910488,None,673.350496700022,None,673.350496700022,None,673.350496700022,None,673.350496700022,None,673.350496700022,None,673.350496700022,None,673.3737119000289,None,673.3737119000289,None,673.3737119000289,None,0.0010788000654429197,0.5010788000654429,673.3737119000289,None,673.3737119000289,None,673.3737119000289,None,673.3737119000289,None,673.3737119000289,None,673.3737119000289,None,675.3612075999845,675.3612075999845,18.5,2.2,-150,-600,350,,,,,,,,,,,,,,,,,,,,,,,,,,,,,,,,,,,,,,,,,,,,,,,,,,,,,,,,,,,,,,,,,,,,,,,,,,,,,,,,,,,f,38,HQH,2022_Apr_12_1054,experiment3,2021.1.4,30.226904302521522,
79,-200,-150,-150,two,-200,-150,-150,,,,,0,51,51,78,,,,,,,,,,,g,1.3799394000088796,677.6184826000244,None,677.6184826000244,None,679.0617554000346,None,679.0617554000346,None,679.0617554000346,None,681.0176894000033,681.5603857000242,681.0176894000033,681.5603857000242,681.0176894000033,681.5603857000242,679.0617554000346,None,681.5937696000212,None,681.5937696000212,None,681.5937696000212,None,0.02770460007013753,None,681.5937696000212,None,681.5937696000212,None,681.5937696000212,None,681.5937696000212,None,681.5937696000212,None,681.5937696000212,None,681.5944228000008,None,681.5944228000008,None,681.5944228000008,None,0.020576099981553853,0.5205760999815539,681.5944228000008,None,681.5944228000008,None,681.5944228000008,None,681.5944228000008,None,681.5944228000008,None,681.5944228000008,None,683.5352473999956,683.5352473999956,-12.399999999999999,3.767,-350,-750,200,,,,,,,,,,,,,,,,,,,,,,,,,,,,,,,,,,,,,,,,,,,,,,,,,,,,,,,,,,,,,,,,,,,,,,,,,,,,,,,,,,,f,38,HQH,2022_Apr_12_1054,experiment3,2021.1.4,30.226904302521522,
29,50,0,50,one,50,0,50,,,,,0,52,52,28,,,,,,,,,,,g,1.032505399954971,687.3959247000166,None,687.3959247000166,None,688.4601803999976,None,688.4601803999976,None,688.4601803999976,None,690.4344759000232,None,690.4344759000232,None,690.4344759000232,None,688.4601803999976,None,690.9601028000354,None,690.9601028000354,None,690.9601028000354,None,0.02596540004014969,None,690.9601028000354,None,690.9601028000354,None,690.9601028000354,None,690.9601028000354,None,690.9601028000354,None,690.9601028000354,None,690.9588529000175,None,690.9588529000175,None,690.9588529000175,None,0.018621800059918314,0.5186218000599183,690.9588529000175,None,690.9588529000175,None,690.9588529000175,None,690.9588529000175,None,690.9588529000175,None,690.9588529000175,None,692.9430693000322,692.9430693000322,4.5,1.702,-300,-750,250,,,,,,,,,,,,,,,,,,,,,,,,,,,,,,,,,,,,,,,,,,,,,,,,,,,,,,,,,,,,,,,,,,,,,,,,,,,,,,,,,,,f,38,HQH,2022_Apr_12_1054,experiment3,2021.1.4,30.226904302521522,
58,-150,-200,0,two,-150,-200,0,,,,,0,53,53,57,,,,,,,,,,,g,3.0096742000314407,694.7115927999839,None,694.7115927999839,None,697.777836400026,None,697.777836400026,None,697.777836400026,None,699.726960400003,700.2592845000327,699.726960400003,700.2592845000327,699.726960400003,700.2592845000327,697.777836400026,None,700.2926684000297,None,700.2926684000297,None,700.2926684000297,None,0.02165199996670708,None,700.2926684000297,None,700.2926684000297,None,700.2926684000297,None,700.2926684000297,None,700.2926684000297,None,700.2926684000297,None,700.3161786000128,None,700.3161786000128,None,700.3161786000128,None,0.001487000030465424,0.5014870000304654,700.3161786000128,None,700.3161786000128,None,700.3161786000128,None,700.3161786000128,None,700.3161786000128,None,700.3161786000128,None,702.2913848999888,702.2913848999888,2.200000000000003,5.339,-450,-950,250,,,,,,,,,,,,,,,,,,,,,,,,,,,,,,,,,,,,,,,,,,,,,,,,,,,,,,,,,,,,,,,,,,,,,,,,,,,,,,,,,,,f,38,HQH,2022_Apr_12_1054,experiment3,2021.1.4,30.226904302521522,
81,-150,-150,-200,two,-150,-150,-200,,,,,0,54,54,80,,,,,,,,,,,g,2.96630810003262,707.7082271000254,None,707.7082271000254,None,710.7072192000342,None,710.7072192000342,None,710.7072192000342,None,712.6485799000366,713.1725535999867,712.6485799000366,713.1725535999867,712.6485799000366,713.1725535999867,710.7072192000342,None,713.2390988999862,None,713.2390988999862,None,713.2390988999862,None,0.02743049996206537,None,713.2390988999862,None,713.2390988999862,None,713.2390988999862,None,713.2390988999862,None,713.2390988999862,None,713.2390988999862,None,713.2384627999854,None,713.2384627999854,None,713.2384627999854,None,0.020025900041218847,0.5200259000412188,713.2384627999854,None,713.2384627999854,None,713.2384627999854,None,713.2384627999854,None,713.2384627999854,None,713.2384627999854,None,715.2046262000222,715.2046262000222,1.3999999999999986,2.721,-600,-1100,50,,,,,,,,,,,,,,,,,,,,,,,,,,,,,,,,,,,,,,,,,,,,,,,,,,,,,,,,,,,,,,,,,,,,,,,,,,,,,,,,,,,f,38,HQH,2022_Apr_12_1054,experiment3,2021.1.4,30.226904302521522,
95,-200,-150,-200,two,-200,-150,-200,,,,,0,55,55,94,,,,,,,,,,,g,1.3888887999928556,717.9908784999861,None,717.9908784999861,None,719.4326103000203,None,719.4326103000203,None,719.4326103000203,None,721.4045346000348,721.9434131000307,721.4045346000348,721.9434131000307,721.4045346000348,721.9434131000307,719.4326103000203,None,721.9767970000278,None,721.9767970000278,None,721.9767970000278,None,0.010162099963054061,None,721.9767970000278,None,721.9767970000278,None,721.9767970000278,None,721.9767970000278,None,721.9767970000278,None,721.9767970000278,None,721.993355899991,None,721.993355899991,None,721.993355899991,None,0.032738500041887164,0.5327385000418872,721.993355899991,None,721.993355899991,None,721.993355899991,None,721.993355899991,None,721.993355899991,None,721.993355899991,None,723.9540534000262,723.9540534000262,-3.0,5.165,-800,-1250,-150,,,,,,,,,,,,,,,,,,,,,,,,,,,,,,,,,,,,,,,,,,,,,,,,,,,,,,,,,,,,,,,,,,,,,,,,,,,,,,,,,,,f,38,HQH,2022_Apr_12_1054,experiment3,2021.1.4,30.226904302521522,
1,0,50,200,one,0,50,200,,,,,0,56,56,0,,,,,,,,,,,g,1.2894858000217937,729.2072327000205,None,729.2072327000205,None,730.5524190000142,None,730.5524190000142,None,730.5524190000142,None,732.5218858000007,733.0351679000305,732.5218858000007,733.0351679000305,732.5218858000007,733.0351679000305,730.5524190000142,None,733.0685518000275,None,733.0685518000275,None,733.0685518000275,None,0.02746190008474514,None,733.0685518000275,None,733.0685518000275,None,733.0685518000275,None,733.0685518000275,None,733.0685518000275,None,733.0685518000275,None,733.0679060000111,None,733.0679060000111,None,733.0679060000111,None,0.020637999987229705,0.5206379999872297,733.0679060000111,None,733.0679060000111,None,733.0679060000111,None,733.0679060000111,None,733.0679060000111,None,733.0679060000111,None,735.0511747000273,735.0511747000273,-8.600000000000001,5.601,-800,-1200,50,,,,,,,,,,,,,,,,,,,,,,,,,,,,,,,,,,,,,,,,,,,,,,,,,,,,,,,,,,,,,,,,,,,,,,,,,,,,,,,,,,,f,38,HQH,2022_Apr_12_1054,experiment3,2021.1.4,30.226904302521522,
51,-150,0,-200,one,-150,0,-200,,,,,0,57,57,50,,,,,,,,,,,g,1.0630285000079311,740.718617000035,None,740.718617000035,None,741.8333791000186,None,741.8333791000186,None,741.8333791000186,None,743.8003112000297,744.3066095000249,743.8003112000297,744.3066095000249,743.8003112000297,744.3066095000249,741.8333791000186,None,744.339993400022,None,744.339993400022,None,744.339993400022,None,0.01637490000575781,None,744.339993400022,None,744.339993400022,None,744.339993400022,None,744.339993400022,None,744.339993400022,None,744.339993400022,None,744.3645280000055,None,744.3645280000055,None,744.3645280000055,None,0.02894930000184104,0.528949300001841,744.3645280000055,None,744.3645280000055,None,744.3645280000055,None,744.3645280000055,None,744.3645280000055,None,744.3645280000055,None,746.3137614000007,746.3137614000007,4.200000000000003,2.331,-950,-1200,-150,,,,,,,,,,,,,,,,,,,,,,,,,,,,,,,,,,,,,,,,,,,,,,,,,,,,,,,,,,,,,,,,,,,,,,,,,,,,,,,,,,,f,38,HQH,2022_Apr_12_1054,experiment3,2021.1.4,30.226904302521522,
5,200,50,0,one,200,50,0,,,,,0,58,58,4,,,,,,,,,,,g,3.6316842999658547,748.7367992000072,None,748.7367992000072,None,752.3984347000369,None,752.3984347000369,None,752.3984347000369,None,754.3850736999884,754.9058931000181,754.3850736999884,754.9058931000181,754.3850736999884,754.9058931000181,752.3984347000369,None,754.9392770000152,None,754.9392770000152,None,754.9392770000152,None,0.01822800002992153,None,754.9392770000152,None,754.9392770000152,None,754.9392770000152,None,754.9392770000152,None,754.9392770000152,None,754.9392770000152,None,754.9605741000269,None,754.9605741000269,None,754.9605741000269,None,0.0041322000324726105,0.5041322000324726,754.9605741000269,None,754.9605741000269,None,754.9605741000269,None,754.9605741000269,None,754.9605741000269,None,754.9605741000269,None,756.9450053999899,756.9450053999899,25.200000000000003,2.831,-750,-1150,-150,,,,,,,,,,,,,,,,,,,,,,,,,,,,,,,,,,,,,,,,,,,,,,,,,,,,,,,,,,,,,,,,,,,,,,,,,,,,,,,,,,,f,38,HQH,2022_Apr_12_1054,experiment3,2021.1.4,30.226904302521522,
88,-200,-200,-150,one,-200,-200,-150,,,,,0,59,59,87,,,,,,,,,,,g,1.3285039000329562,759.83390279999,None,759.83390279999,None,761.1982394999941,None,761.1982394999941,None,761.1982394999941,None,763.1479768999852,763.6341325000394,763.1479768999852,763.6341325000394,763.1479768999852,763.6341325000394,761.1982394999941,None,763.7048207000364,None,763.7048207000364,None,763.7048207000364,None,0.016837900038808584,None,763.7048207000364,None,763.7048207000364,None,763.7048207000364,None,763.7048207000364,None,763.7048207000364,None,763.7048207000364,None,763.7179978000349,None,763.7179978000349,None,763.7179978000349,None,0.003536200034432113,0.5035362000344321,763.7179978000349,None,763.7179978000349,None,763.7179978000349,None,763.7179978000349,None,763.7179978000349,None,763.7179978000349,None,765.6858694999828,765.6858694999828,0.7999999999999972,3.33,-950,-1350,-300,,,,,,,,,,,,,,,,,,,,,,,,,,,,,,,,,,,,,,,,,,,,,,,,,,,,,,,,,,,,,,,,,,,,,,,,,,,,,,,,,,,f,38,HQH,2022_Apr_12_1054,experiment3,2021.1.4,30.226904302521522,
72,-200,0,0,two,-200,0,0,,,,,0,60,60,71,,,,,,,,,,,g,3.8920099000097252,769.0794547999976,None,769.0794547999976,None,772.9985145000392,None,772.9985145000392,None,772.9985145000392,None,774.9772560999845,775.4937061000383,774.9772560999845,775.4937061000383,774.9772560999845,775.4937061000383,772.9985145000392,None,775.5270900000353,None,775.5270900000353,None,775.5270900000353,None,0.027428500005044043,None,775.5270900000353,None,775.5270900000353,None,775.5270900000353,None,775.5270900000353,None,775.5270900000353,None,775.5270900000353,None,775.5262620000285,None,775.5262620000285,None,775.5262620000285,None,0.020665300078690052,0.52066530007869,775.5262620000285,None,775.5262620000285,None,775.5262620000285,None,775.5262620000285,None,775.5262620000285,None,775.5262620000285,None,777.4934457000345,777.4934457000345,-47.7,3.019,-1150,-1350,-300,,,,,,,,,,,,,,,,,,,,,,,,,,,,,,,,,,,,,,,,,,,,,,,,,,,,,,,,,,,,,,,,,,,,,,,,,,,,,,,,,,,f,38,HQH,2022_Apr_12_1054,experiment3,2021.1.4,30.226904302521522,
39,0,200,200,one,0,200,200,,,,,0,61,61,38,,,,,,,,,,,g,1.3036792999482714,780.5768392999889,None,780.5768392999889,None,781.9297708999948,None,781.9297708999948,None,781.9297708999948,None,783.9105668999837,None,783.9105668999837,None,783.9105668999837,None,781.9297708999948,None,784.4431734999991,None,784.4431734999991,None,784.4431734999991,None,0.025888999982271343,None,784.4431734999991,None,784.4431734999991,None,784.4431734999991,None,784.4431734999991,None,784.4431734999991,None,784.4431734999991,None,784.4417647999944,None,784.4417647999944,None,784.4417647999944,None,0.016301599971484393,0.5163015999714844,784.4417647999944,None,784.4417647999944,None,784.4417647999944,None,784.4417647999944,None,784.4417647999944,None,784.4417647999944,None,786.4416855000193,None,-47.2,3.182,-1150,-1150,-100,,,,,,,,,,,,,,,,,,,,,,,,,,,,,,,,,,,,,,,,,,,,,,,,,,,,,,,,,,,,,,,,,,,,,,,,,,,,,,,,,,,f,38,HQH,2022_Apr_12_1054,experiment3,2021.1.4,30.226904302521522,
56,0,-200,-150,two,0,-200,-150,,,,,0,62,62,55,,,,,,,,,,,g,1.444834300025832,789.6488311000285,None,789.6488311000285,None,791.1575925000361,None,791.1575925000361,None,791.1575925000361,None,793.1230956999934,793.6290064000059,793.1230956999934,793.6290064000059,793.1230956999934,793.6290064000059,791.1575925000361,None,793.6623903000029,None,793.6623903000029,None,793.6623903000029,None,0.027636999962851405,None,793.6623903000029,None,793.6623903000029,None,793.6623903000029,None,793.6623903000029,None,793.6623903000029,None,793.6623903000029,None,793.6593677999917,None,793.6593677999917,None,793.6593677999917,None,0.0183421999681741,0.5183421999681741,793.6593677999917,None,793.6593677999917,None,793.6593677999917,None,793.6593677999917,None,793.6593677999917,None,793.6593677999917,None,795.656235100003,795.656235100003,33.8,7.868,-1150,-1350,-250,,,,,,,,,,,,,,,,,,,,,,,,,,,,,,,,,,,,,,,,,,,,,,,,,,,,,,,,,,,,,,,,,,,,,,,,,,,,,,,,,,,f,38,HQH,2022_Apr_12_1054,experiment3,2021.1.4,30.226904302521522,
19,0,0,50,two,0,0,50,,,,,0,63,63,18,,,,,,,,,,,a,2.478585699980613,803.5891628999962,None,803.5891628999962,None,806.1048458000296,None,806.1048458000296,None,806.1048458000296,None,808.0706536000362,808.5886464000214,808.0706536000362,808.5886464000214,808.0706536000362,808.5886464000214,806.1048458000296,None,808.6220303000184,None,808.6220303000184,None,808.6220303000184,None,0.027099300001282245,None,808.6220303000184,None,808.6220303000184,None,808.6220303000184,None,808.6220303000184,None,808.6220303000184,None,808.6220303000184,None,808.6215416000341,None,808.6215416000341,None,808.6215416000341,None,0.020085399970412254,0.5200853999704123,808.6215416000341,None,808.6215416000341,None,808.6215416000341,None,808.6215416000341,None,808.6215416000341,None,808.6215416000341,None,810.6034186999896,810.6034186999896,-0.20000000000000284,2.086,-1150,-1350,-200,,,,,,,,,,,,,,,,,,,,,,,,,,,,,,,,,,,,,,,,,,,,,,,,,,,,,,,,,,,,,,,,,,,,,,,,,,,,,,,,,,,f,38,HQH,2022_Apr_12_1054,experiment3,2021.1.4,30.226904302521522,
43,200,200,0,two,200,200,0,,,,,0,64,64,42,,,,,,,,,,,a,3.935417899978347,812.7677157000289,None,812.7677157000289,None,816.7520739000174,None,816.7520739000174,None,816.7520739000174,None,818.7205174000119,819.243681300024,818.7205174000119,819.243681300024,818.7205174000119,819.243681300024,816.7520739000174,None,819.2770652000211,None,819.2770652000211,None,819.2770652000211,None,0.014384700043592602,None,819.2770652000211,None,819.2770652000211,None,819.2770652000211,None,819.2770652000211,None,819.2770652000211,None,819.2770652000211,None,819.309057400038,None,819.309057400038,None,819.309057400038,None,0.023367099987808615,0.5233670999878086,819.309057400038,None,819.309057400038,None,819.309057400038,None,819.309057400038,None,819.309057400038,None,819.309057400038,None,821.2850754000247,821.2850754000247,12.0,3.337,-950,-1150,-200,,,,,,,,,,,,,,,,,,,,,,,,,,,,,,,,,,,,,,,,,,,,,,,,,,,,,,,,,,,,,,,,,,,,,,,,,,,,,,,,,,,f,38,HQH,2022_Apr_12_1054,experiment3,2021.1.4,30.226904302521522,
87,0,-200,-200,one,0,-200,-200,,,,,0,65,65,86,,,,,,,,,,,a,1.7173176999785937,824.6842386000208,None,824.6842386000208,None,826.4499395000166,None,826.4499395000166,None,826.4499395000166,None,828.431797600002,828.9556157999905,828.431797600002,828.9556157999905,828.431797600002,828.9556157999905,826.4499395000166,None,828.9889996999875,None,828.9889996999875,None,828.9889996999875,None,0.016433700046036392,None,828.9889996999875,None,828.9889996999875,None,828.9889996999875,None,828.9889996999875,None,828.9889996999875,None,828.9889996999875,None,829.0011563000153,None,829.0011563000153,None,829.0011563000153,None,0.004634599958080798,0.5046345999580808,829.0011563000153,None,829.0011563000153,None,829.0011563000153,None,829.0011563000153,None,829.0011563000153,None,829.0011563000153,None,830.9841097000171,830.9841097000171,15.0,2.29,-950,-1350,-400,,,,,,,,,,,,,,,,,,,,,,,,,,,,,,,,,,,,,,,,,,,,,,,,,,,,,,,,,,,,,,,,,,,,,,,,,,,,,,,,,,,f,38,HQH,2022_Apr_12_1054,experiment3,2021.1.4,30.226904302521522,
62,0,-150,0,one,0,-150,0,,,,,0,66,66,61,,,,,,,,,,,a,3.816247599956114,833.3663725000224,None,833.3663725000224,None,837.2125863999827,None,837.2125863999827,None,837.2125863999827,None,839.1641135000391,839.6700126000214,839.1641135000391,839.6700126000214,839.1641135000391,839.6700126000214,837.2125863999827,None,839.7407351999893,None,839.7407351999893,None,839.7407351999893,None,0.018522400001529604,None,839.7407351999893,None,839.7407351999893,None,839.7407351999893,None,839.7407351999893,None,839.7407351999893,None,839.7407351999893,None,839.7460482000024,None,839.7460482000024,None,839.7460482000024,None,0.010899200045969337,0.5108992000459693,839.7460482000024,None,839.7460482000024,None,839.7460482000024,None,839.7460482000024,None,839.7460482000024,None,839.7460482000024,None,841.7159604000044,841.7159604000044,40.900000000000006,2.964,-950,-1500,-400,,,,,,,,,,,,,,,,,,,,,,,,,,,,,,,,,,,,,,,,,,,,,,,,,,,,,,,,,,,,,,,,,,,,,,,,,,,,,,,,,,,f,38,HQH,2022_Apr_12_1054,experiment3,2021.1.4,30.226904302521522,
70,0,0,-200,two,0,0,-200,,,,,0,67,67,69,,,,,,,,,,,a,1.7353072999976575,844.749038000009,None,844.749038000009,None,846.5178478999878,None,846.5178478999878,None,846.5178478999878,None,848.4928215999971,848.9843648000387,848.4928215999971,848.9843648000387,848.4928215999971,848.9843648000387,846.5178478999878,None,849.0177487000358,None,849.0177487000358,None,849.0177487000358,None,0.016720600018743426,None,849.0177487000358,None,849.0177487000358,None,849.0177487000358,None,849.0177487000358,None,849.0177487000358,None,849.0177487000358,None,849.0438799000112,None,849.0438799000112,None,849.0438799000112,None,0.0005858000367879868,0.500585800036788,849.0438799000112,None,849.0438799000112,None,849.0438799000112,None,849.0438799000112,None,849.0438799000112,None,849.0438799000112,None,851.0292353000259,851.0292353000259,23.0,2.606,-950,-1500,-600,,,,,,,,,,,,,,,,,,,,,,,,,,,,,,,,,,,,,,,,,,,,,,,,,,,,,,,,,,,,,,,,,,,,,,,,,,,,,,,,,,,f,38,HQH,2022_Apr_12_1054,experiment3,2021.1.4,30.226904302521522,
30,50,50,0,one,50,50,0,,,,,0,68,68,29,,,,,,,,,,,a,1.200892399996519,853.6966634999844,None,853.6966634999844,None,854.9616559999995,None,854.9616559999995,None,854.9616559999995,None,856.9336025000084,None,856.9336025000084,None,856.9336025000084,None,854.9616559999995,None,857.4609516999801,None,857.4609516999801,None,857.4609516999801,None,0.026121399947442114,None,857.4609516999801,None,857.4609516999801,None,857.4609516999801,None,857.4609516999801,None,857.4609516999801,None,857.4609516999801,None,857.4601279000053,None,857.4601279000053,None,857.4601279000053,None,0.0195411000167951,0.5195411000167951,857.4601279000053,None,857.4601279000053,None,857.4601279000053,None,857.4601279000053,None,857.4601279000053,None,857.4601279000053,None,859.4428832000121,859.4428832000121,3.0,2.782,-900,-1450,-600,,,,,,,,,,,,,,,,,,,,,,,,,,,,,,,,,,,,,,,,,,,,,,,,,,,,,,,,,,,,,,,,,,,,,,,,,,,,,,,,,,,f,38,HQH,2022_Apr_12_1054,experiment3,2021.1.4,30.226904302521522,
55,0,-150,-200,two,0,-150,-200,,,,,0,69,69,54,,,,,,,,,,,a,1.5199970000539906,862.2824777000351,None,862.2824777000351,None,863.8432507000398,None,863.8432507000398,None,863.8432507000398,None,865.7928705000086,866.3002441999852,865.7928705000086,866.3002441999852,865.7928705000086,866.3002441999852,863.8432507000398,None,866.3538344000001,None,866.3538344000001,None,866.3538344000001,None,0.02087269996991381,None,866.3538344000001,None,866.3538344000001,None,866.3538344000001,None,866.3538344000001,None,866.3538344000001,None,866.3538344000001,None,866.3574297000305,None,866.3574297000305,None,866.3574297000305,None,0.01078750001033768,0.5107875000103377,866.3574297000305,None,866.3574297000305,None,866.3574297000305,None,866.3574297000305,None,866.3574297000305,None,866.3574297000305,None,868.3597177000368,None,37.0,2.845,-900,-1600,-800,,,,,,,,,,,,,,,,,,,,,,,,,,,,,,,,,,,,,,,,,,,,,,,,,,,,,,,,,,,,,,,,,,,,,,,,,,,,,,,,,,,f,38,HQH,2022_Apr_12_1054,experiment3,2021.1.4,30.226904302521522,
50,0,-200,-150,one,0,-200,-150,,,,,0,70,70,49,,,,,,,,,,,a,1.2611677999957465,871.241700500017,None,871.241700500017,None,872.5582248999854,None,872.5582248999854,None,872.5582248999854,None,874.5075954000349,875.020332199987,874.5075954000349,875.020332199987,874.5075954000349,875.020332199987,872.5582248999854,None,875.0744015999837,None,875.0744015999837,None,875.0744015999837,None,0.014259499963372946,None,875.0744015999837,None,875.0744015999837,None,875.0744015999837,None,875.0744015999837,None,875.0744015999837,None,875.0744015999837,None,875.1082483000355,None,875.1082483000355,None,875.1082483000355,None,0.025832300016190857,0.5258323000161909,875.1082483000355,None,875.1082483000355,None,875.1082483000355,None,875.1082483000355,None,875.1082483000355,None,875.1082483000355,None,877.0738249000278,877.0738249000278,37.599999999999994,4.046,-900,-1800,-950,,,,,,,,,,,,,,,,,,,,,,,,,,,,,,,,,,,,,,,,,,,,,,,,,,,,,,,,,,,,,,,,,,,,,,,,,,,,,,,,,,,f,38,HQH,2022_Apr_12_1054,experiment3,2021.1.4,30.226904302521522,
8,0,200,50,two,0,200,50,,,,,0,71,71,7,,,,,,,,,,,a,2.620766200008802,881.2114441000158,None,881.2114441000158,None,883.8697500000126,None,883.8697500000126,None,883.8697500000126,None,885.8391196000157,886.3458058999968,885.8391196000157,886.3458058999968,885.8391196000157,886.3458058999968,883.8697500000126,None,886.3791897999938,None,886.3791897999938,None,886.3791897999938,None,0.01851109991548583,None,886.3791897999938,None,886.3791897999938,None,886.3791897999938,None,886.3791897999938,None,886.3791897999938,None,886.3791897999938,None,886.3880561999977,None,886.3880561999977,None,886.3880561999977,None,0.007950500003062189,0.5079505000030622,886.3880561999977,None,886.3880561999977,None,886.3880561999977,None,886.3880561999977,None,886.3880561999977,None,886.3880561999977,None,888.3718759000185,888.3718759000185,-3.1000000000000014,4.592,-900,-1600,-900,,,,,,,,,,,,,,,,,,,,,,,,,,,,,,,,,,,,,,,,,,,,,,,,,,,,,,,,,,,,,,,,,,,,,,,,,,,,,,,,,,,f,38,HQH,2022_Apr_12_1054,experiment3,2021.1.4,30.226904302521522,
64,0,0,-200,one,0,0,-200,,,,,0,72,72,63,,,,,,,,,,,a,2.646261500020046,893.0484939999878,None,893.0484939999878,None,895.7370493999915,None,895.7370493999915,None,895.7370493999915,None,897.6865754000028,898.2032266000169,897.6865754000028,898.2032266000169,897.6865754000028,898.2032266000169,895.7370493999915,None,898.236610500014,None,898.236610500014,None,898.236610500014,None,0.025878500018734485,None,898.236610500014,None,898.236610500014,None,898.236610500014,None,898.236610500014,None,898.236610500014,None,898.236610500014,None,898.2357081000227,None,898.2357081000227,None,898.2357081000227,None,0.018792199960444123,0.5187921999604441,898.2357081000227,None,898.2357081000227,None,898.2357081000227,None,898.2357081000227,None,898.2357081000227,None,898.2357081000227,None,900.2027397000347,900.2027397000347,31.700000000000003,2.585,-900,-1600,-1100,,,,,,,,,,,,,,,,,,,,,,,,,,,,,,,,,,,,,,,,,,,,,,,,,,,,,,,,,,,,,,,,,,,,,,,,,,,,,,,,,,,f,38,HQH,2022_Apr_12_1054,experiment3,2021.1.4,30.226904302521522,
61,0,0,-150,one,0,0,-150,,,,,0,73,73,60,,,,,,,,,,,a,1.1514944999944419,902.8500441000215,None,902.8500441000215,None,904.0526812000317,None,904.0526812000317,None,904.0526812000317,None,905.9975116000278,906.5017178999842,905.9975116000278,906.5017178999842,905.9975116000278,906.5017178999842,904.0526812000317,None,906.5689506000374,None,906.5689506000374,None,906.5689506000374,None,0.027410500042606145,None,906.5689506000374,None,906.5689506000374,None,906.5689506000374,None,906.5689506000374,None,906.5689506000374,None,906.5689506000374,None,906.5677364000003,None,906.5677364000003,None,906.5677364000003,None,0.02017810003599152,0.5201781000359915,906.5677364000003,None,906.5677364000003,None,906.5677364000003,None,906.5677364000003,None,906.5677364000003,None,906.5677364000003,None,908.535173900018,908.535173900018,10.600000000000001,2.381,-900,-1600,-1250,,,,,,,,,,,,,,,,,,,,,,,,,,,,,,,,,,,,,,,,,,,,,,,,,,,,,,,,,,,,,,,,,,,,,,,,,,,,,,,,,,,f,38,HQH,2022_Apr_12_1054,experiment3,2021.1.4,30.226904302521522,
82,0,-150,-150,two,0,-150,-150,,,,,0,74,74,81,,,,,,,,,,,a,2.355774099996779,910.9724674000172,None,910.9724674000172,None,913.3493160000071,None,913.3493160000071,None,913.3493160000071,None,915.3375248000375,None,915.3375248000375,None,915.3375248000375,None,913.3493160000071,None,915.8675522000296,None,915.8675522000296,None,915.8675522000296,None,0.024446099996566772,None,915.8675522000296,None,915.8675522000296,None,915.8675522000296,None,915.8675522000296,None,915.8675522000296,None,915.8675522000296,None,915.8668499999912,None,915.8668499999912,None,915.8668499999912,None,0.015419500065036118,0.5154195000650361,915.8668499999912,None,915.8668499999912,None,915.8668499999912,None,915.8668499999912,None,915.8668499999912,None,915.8668499999912,None,917.850781599991,917.850781599991,22.099999999999994,4.817,-900,-1750,-1400,,,,,,,,,,,,,,,,,,,,,,,,,,,,,,,,,,,,,,,,,,,,,,,,,,,,,,,,,,,,,,,,,,,,,,,,,,,,,,,,,,,f,38,HQH,2022_Apr_12_1054,experiment3,2021.1.4,30.226904302521522,
16,0,0,200,one,0,0,200,,,,,0,75,75,15,,,,,,,,,,,a,1.3709921999834478,922.73246259999,None,922.73246259999,None,924.1647819000063,None,924.1647819000063,None,924.1647819000063,None,926.1148135000258,926.6314466000185,926.1148135000258,926.6314466000185,926.1148135000258,926.6314466000185,924.1647819000063,None,926.6648305000156,None,926.6648305000156,None,926.6648305000156,None,0.025292699981946498,None,926.6648305000156,None,926.6648305000156,None,926.6648305000156,None,926.6648305000156,None,926.6648305000156,None,926.6648305000156,None,926.6637505000108,None,926.6637505000108,None,926.6637505000108,None,0.016368400014471263,0.5163684000144713,926.6637505000108,None,926.6637505000108,None,926.6637505000108,None,926.6637505000108,None,926.6637505000108,None,926.6637505000108,None,928.6743094000151,None,-8.399999999999999,1.946,-900,-1750,-1200,,,,,,,,,,,,,,,,,,,,,,,,,,,,,,,,,,,,,,,,,,,,,,,,,,,,,,,,,,,,,,,,,,,,,,,,,,,,,,,,,,,f,38,HQH,2022_Apr_12_1054,experiment3,2021.1.4,30.226904302521522,
9,50,0,200,two,50,0,200,,,,,0,76,76,8,,,,,,,,,,,a,1.1372667999821715,930.680354400014,None,930.680354400014,None,931.849835800007,None,931.849835800007,None,931.849835800007,None,933.8131217000191,934.3296687999973,933.8131217000191,934.3296687999973,933.8131217000191,934.3296687999973,931.849835800007,None,934.3630526999943,None,934.3630526999943,None,934.3630526999943,None,0.027673999953549355,None,934.3630526999943,None,934.3630526999943,None,934.3630526999943,None,934.3630526999943,None,934.3630526999943,None,934.3630526999943,None,934.3623328999965,None,934.3623328999965,None,934.3623328999965,None,0.020370999991428107,0.5203709999914281,934.3623328999965,None,934.3623328999965,None,934.3623328999965,None,934.3623328999965,None,934.3623328999965,None,934.3623328999965,None,936.3163398000179,936.3163398000179,-2.799999999999997,5.545,-850,-1750,-1000,,,,,,,,,,,,,,,,,,,,,,,,,,,,,,,,,,,,,,,,,,,,,,,,,,,,,,,,,,,,,,,,,,,,,,,,,,,,,,,,,,,f,38,HQH,2022_Apr_12_1054,experiment3,2021.1.4,30.226904302521522,
27,50,50,200,one,50,50,200,,,,,0,77,77,26,,,,,,,,,,,a,6.004570299992338,941.9465727999923,None,941.9465727999923,None,947.9936868000077,None,947.9936868000077,None,947.9936868000077,None,949.9475898999954,950.4778112000204,949.9475898999954,950.4778112000204,949.9475898999954,950.4778112000204,947.9936868000077,None,950.5111951000174,None,950.5111951000174,None,950.5111951000174,None,0.0268629000056535,None,950.5111951000174,None,950.5111951000174,None,950.5111951000174,None,950.5111951000174,None,950.5111951000174,None,950.5111951000174,None,950.5083911000402,None,950.5083911000402,None,950.5083911000402,None,0.019618300022557378,0.5196183000225574,950.5083911000402,None,950.5083911000402,None,950.5083911000402,None,950.5083911000402,None,950.5083911000402,None,950.5083911000402,None,952.47617790004,952.47617790004,-0.5,3.147,-800,-1700,-800,,,,,,,,,,,,,,,,,,,,,,,,,,,,,,,,,,,,,,,,,,,,,,,,,,,,,,,,,,,,,,,,,,,,,,,,,,,,,,,,,,,f,38,HQH,2022_Apr_12_1054,experiment3,2021.1.4,30.226904302521522,
74,-150,-200,-150,one,-150,-200,-150,,,,,0,78,78,73,,,,,,,,,,,a,1.0657990999752656,955.6848235999933,None,955.6848235999933,None,956.7918071000022,None,956.7918071000022,None,956.7918071000022,None,958.7578781000338,959.2580991000286,958.7578781000338,959.2580991000286,958.7578781000338,959.2580991000286,956.7918071000022,None,959.2914830000257,None,959.2914830000257,None,959.2914830000257,None,0.02554579998832196,None,959.2914830000257,None,959.2914830000257,None,959.2914830000257,None,959.2914830000257,None,959.2914830000257,None,959.2914830000257,None,959.29035570001,None,959.29035570001,None,959.29035570001,None,0.01707369997166097,0.517073699971661,959.29035570001,None,959.29035570001,None,959.29035570001,None,959.29035570001,None,959.29035570001,None,959.29035570001,None,961.2578236000263,961.2578236000263,1.6000000000000014,3.649,-950,-1900,-950,,,,,,,,,,,,,,,,,,,,,,,,,,,,,,,,,,,,,,,,,,,,,,,,,,,,,,,,,,,,,,,,,,,,,,,,,,,,,,,,,,,f,38,HQH,2022_Apr_12_1054,experiment3,2021.1.4,30.226904302521522,
63,-150,0,0,one,-150,0,0,,,,,0,79,79,62,,,,,,,,,,,a,1.3947524999966845,964.964940899983,None,964.964940899983,None,966.406506600033,None,966.406506600033,None,966.406506600033,None,968.3566280000377,968.8729176000343,968.3566280000377,968.8729176000343,968.3566280000377,968.8729176000343,966.406506600033,None,968.9063015000313,None,968.9063015000313,None,968.9063015000313,None,0.026078800088725984,None,968.9063015000313,None,968.9063015000313,None,968.9063015000313,None,968.9063015000313,None,968.9063015000313,None,968.9063015000313,None,968.905306300032,None,968.905306300032,None,968.905306300032,None,0.01996940007666126,0.5199694000766613,968.905306300032,None,968.905306300032,None,968.905306300032,None,968.905306300032,None,968.905306300032,None,968.905306300032,None,970.8722262000083,970.8722262000083,-31.3,5.579,-1100,-1900,-950,,,,,,,,,,,,,,,,,,,,,,,,,,,,,,,,,,,,,,,,,,,,,,,,,,,,,,,,,,,,,,,,,,,,,,,,,,,,,,,,,,,f,38,HQH,2022_Apr_12_1054,experiment3,2021.1.4,30.226904302521522,
92,-200,0,-200,two,-200,0,-200,,,,,0,80,80,91,,,,,,,,,,,a,1.2026118999929167,976.5411425000057,None,976.5411425000057,None,977.8106558999862,None,977.8106558999862,None,977.8106558999862,None,979.7565267999889,980.2701947999885,979.7565267999889,980.2701947999885,979.7565267999889,980.2701947999885,977.8106558999862,None,980.3374324000208,None,980.3374324000208,None,980.3374324000208,None,0.027256100031081587,None,980.3374324000208,None,980.3374324000208,None,980.3374324000208,None,980.3374324000208,None,980.3374324000208,None,980.3374324000208,None,980.3375032999902,None,980.3375032999902,None,980.3375032999902,None,0.020212800067383796,0.5202128000673838,980.3375032999902,None,980.3375032999902,None,980.3375032999902,None,980.3375032999902,None,980.3375032999902,None,980.3375032999902,None,982.3116043999908,982.3116043999908,-37.0,7.035,-1300,-1900,-1150,,,,,,,,,,,,,,,,,,,,,,,,,,,,,,,,,,,,,,,,,,,,,,,,,,,,,,,,,,,,,,,,,,,,,,,,,,,,,,,,,,,f,38,HQH,2022_Apr_12_1054,experiment3,2021.1.4,30.226904302521522,
10,50,200,0,two,50,200,0,,,,,0,81,81,9,,,,,,,,,,,a,2.5590198999852873,989.4240834999946,None,989.4240834999946,None,992.0338156000362,None,992.0338156000362,None,992.0338156000362,None,993.9905266999849,994.4803009000025,993.9905266999849,994.4803009000025,993.9905266999849,994.4803009000025,992.0338156000362,None,994.5415619999869,None,994.5415619999869,None,994.5415619999869,None,0.02535340003669262,None,994.5415619999869,None,994.5415619999869,None,994.5415619999869,None,994.5415619999869,None,994.5415619999869,None,994.5415619999869,None,994.5399866999942,None,994.5399866999942,None,994.5399866999942,None,0.01673289993777871,0.5167328999377787,994.5399866999942,None,994.5399866999942,None,994.5399866999942,None,994.5399866999942,None,994.5399866999942,None,994.5399866999942,None,996.517630700022,996.517630700022,-13.0,5.189,-1250,-1700,-1150,,,,,,,,,,,,,,,,,,,,,,,,,,,,,,,,,,,,,,,,,,,,,,,,,,,,,,,,,,,,,,,,,,,,,,,,,,,,,,,,,,,f,38,HQH,2022_Apr_12_1054,experiment3,2021.1.4,30.226904302521522,
4,50,200,0,one,50,200,0,,,,,0,82,82,3,,,,,,,,,,,a,1.1899131999816746,1001.7695749999839,None,1001.7695749999839,None,1002.9969256999902,None,1002.9969256999902,None,1002.9969256999902,None,1004.9825880000135,1005.4826624999987,1004.9825880000135,1005.4826624999987,1004.9825880000135,1005.4826624999987,1002.9969256999902,None,1005.5160463999957,None,1005.5160463999957,None,1005.5160463999957,None,0.027522699965629727,None,1005.5160463999957,None,1005.5160463999957,None,1005.5160463999957,None,1005.5160463999957,None,1005.5160463999957,None,1005.5160463999957,None,1005.5219381999923,None,1005.5219381999923,None,1005.5219381999923,None,0.020029200008139014,0.520029200008139,1005.5219381999923,None,1005.5219381999923,None,1005.5219381999923,None,1005.5219381999923,None,1005.5219381999923,None,1005.5219381999923,None,1007.4821435000049,1007.4821435000049,-3.1000000000000014,1.62,-1200,-1500,-1150,,,,,,,,,,,,,,,,,,,,,,,,,,,,,,,,,,,,,,,,,,,,,,,,,,,,,,,,,,,,,,,,,,,,,,,,,,,,,,,,,,,f,38,HQH,2022_Apr_12_1054,experiment3,2021.1.4,30.226904302521522,
20,0,50,0,two,0,50,0,,,,,0,83,83,19,,,,,,,,,,,a,1.2237979999626987,1009.2001055000001,None,1009.2001055000001,None,1010.4645075000008,None,1010.4645075000008,None,1010.4645075000008,None,1012.4076303000329,1012.9342121999944,1012.4076303000329,1012.9342121999944,1012.4076303000329,1012.9342121999944,1010.4645075000008,None,1012.9675960999914,None,1012.9675960999914,None,1012.9675960999914,None,0.009533300006296486,None,1012.9675960999914,None,1012.9675960999914,None,1012.9675960999914,None,1012.9675960999914,None,1012.9675960999914,None,1012.9675960999914,None,1012.9899260000093,None,1012.9899260000093,None,1012.9899260000093,None,0.02811930002644658,0.5281193000264466,1012.9899260000093,None,1012.9899260000093,None,1012.9899260000093,None,1012.9899260000093,None,1012.9899260000093,None,1012.9899260000093,None,1014.9471503000241,1014.9471503000241,-3.1000000000000014,2.864,-1200,-1450,-1150,,,,,,,,,,,,,,,,,,,,,,,,,,,,,,,,,,,,,,,,,,,,,,,,,,,,,,,,,,,,,,,,,,,,,,,,,,,,,,,,,,,f,38,HQH,2022_Apr_12_1054,experiment3,2021.1.4,30.226904302521522,
42,50,200,200,one,50,200,200,,,,,0,84,84,41,,,,,,,,,,,a,0.7305620000115596,1017.9008023000206,None,1017.9008023000206,None,1018.6799214000348,None,1018.6799214000348,None,1018.6799214000348,None,1020.6436498000403,None,1020.6436498000403,None,1020.6436498000403,None,1018.6799214000348,None,1021.1806036000373,None,1021.1806036000373,None,1021.1806036000373,None,0.015273400000296533,None,1021.1806036000373,None,1021.1806036000373,None,1021.1806036000373,None,1021.1806036000373,None,1021.1806036000373,None,1021.1806036000373,None,1021.1939030000358,None,1021.1939030000358,None,1021.1939030000358,None,0.006956400000490248,0.5069564000004902,1021.1939030000358,None,1021.1939030000358,None,1021.1939030000358,None,1021.1939030000358,None,1021.1939030000358,None,1021.1939030000358,None,1023.1785507000168,1023.1785507000168,-13.0,2.702,-1150,-1250,-950,,,,,,,,,,,,,,,,,,,,,,,,,,,,,,,,,,,,,,,,,,,,,,,,,,,,,,,,,,,,,,,,,,,,,,,,,,,,,,,,,,,f,38,HQH,2022_Apr_12_1054,experiment3,2021.1.4,30.226904302521522,
49,0,-150,-200,one,0,-150,-200,,,,,0,85,85,48,,,,,,,,,,,a,0.9199777999892831,1025.9451758000068,None,1025.9451758000068,None,1026.9113864999963,None,1026.9113864999963,None,1026.9113864999963,None,1028.8777473000227,1029.378102399991,1028.8777473000227,1029.378102399991,1028.8777473000227,1029.378102399991,1026.9113864999963,None,1029.411486299988,None,1029.411486299988,None,1029.411486299988,None,0.02099900000030175,None,1029.411486299988,None,1029.411486299988,None,1029.411486299988,None,1029.411486299988,None,1029.411486299988,None,1029.411486299988,None,1029.417150399997,None,1029.417150399997,None,1029.417150399997,None,0.011076599941588938,0.5110765999415889,1029.417150399997,None,1029.417150399997,None,1029.417150399997,None,1029.417150399997,None,1029.417150399997,None,1029.417150399997,None,1031.3792209000094,1031.3792209000094,5.700000000000003,3.548,-1150,-1400,-1150,,,,,,,,,,,,,,,,,,,,,,,,,,,,,,,,,,,,,,,,,,,,,,,,,,,,,,,,,,,,,,,,,,,,,,,,,,,,,,,,,,,f,38,HQH,2022_Apr_12_1054,experiment3,2021.1.4,30.226904302521522,
28,0,50,50,one,0,50,50,,,,,0,86,86,27,,,,,,,,,,,a,2.276850199967157,1035.033137099992,None,1035.033137099992,None,1037.3540237999987,None,1037.3540237999987,None,1037.3540237999987,None,1039.3088303999975,1039.815943500027,1039.3088303999975,1039.815943500027,1039.3088303999975,1039.815943500027,1037.3540237999987,None,1039.9006785999984,None,1039.9006785999984,None,1039.9006785999984,None,0.011269600014202297,None,1039.9006785999984,None,1039.9006785999984,None,1039.9006785999984,None,1039.9006785999984,None,1039.9006785999984,None,1039.9006785999984,None,1039.9345984000247,None,1039.9345984000247,None,1039.9345984000247,None,0.022892999986652285,0.5228929999866523,1039.9345984000247,None,1039.9345984000247,None,1039.9345984000247,None,1039.9345984000247,None,1039.9345984000247,None,1039.9345984000247,None,1041.9102153999847,1041.9102153999847,-0.7000000000000028,4.043,-1150,-1350,-1100,,,,,,,,,,,,,,,,,,,,,,,,,,,,,,,,,,,,,,,,,,,,,,,,,,,,,,,,,,,,,,,,,,,,,,,,,,,,,,,,,,,f,38,HQH,2022_Apr_12_1054,experiment3,2021.1.4,30.226904302521522,
36,50,50,0,two,50,50,0,,,,,0,87,87,35,,,,,,,,,,,a,2.6545987999998033,1046.0242668000283,None,1046.0242668000283,None,1048.7009794000187,None,1048.7009794000187,None,1048.7009794000187,None,1050.6501907000202,1051.1572148000123,1050.6501907000202,1051.1572148000123,1050.6501907000202,1051.1572148000123,1048.7009794000187,None,1051.2233602999943,None,1051.2233602999943,None,1051.2233602999943,None,0.027821799973025918,None,1051.2233602999943,None,1051.2233602999943,None,1051.2233602999943,None,1051.2233602999943,None,1051.2233602999943,None,1051.2233602999943,None,1051.2229919999954,None,1051.2229919999954,None,1051.2229919999954,None,0.020334199944045395,0.5203341999440454,1051.2229919999954,None,1051.2229919999954,None,1051.2229919999954,None,1051.2229919999954,None,1051.2229919999954,None,1051.2229919999954,None,1053.2063369000098,1053.2063369000098,-0.29999999999999716,1.663,-1100,-1300,-1100,,,,,,,,,,,,,,,,,,,,,,,,,,,,,,,,,,,,,,,,,,,,,,,,,,,,,,,,,,,,,,,,,,,,,,,,,,,,,,,,,,,f,38,HQH,2022_Apr_12_1054,experiment3,2021.1.4,30.226904302521522,
77,-150,0,-150,one,-150,0,-150,,,,,0,88,88,76,,,,,,,,,,,a,2.935103000025265,1054.9279636000283,None,1054.9279636000283,None,1057.9053535999847,None,1057.9053535999847,None,1057.9053535999847,None,1059.8549249999924,1060.4011503999936,1059.8549249999924,1060.4011503999936,1059.8549249999924,1060.4011503999936,1057.9053535999847,None,1060.4345342999907,None,1060.4345342999907,None,1060.4345342999907,None,0.022402500035241246,None,1060.4345342999907,None,1060.4345342999907,None,1060.4345342999907,None,1060.4345342999907,None,1060.4345342999907,None,1060.4345342999907,None,1060.4457027000026,None,1060.4457027000026,None,1060.4457027000026,None,0.006727800006046891,0.5067278000060469,1060.4457027000026,None,1060.4457027000026,None,1060.4457027000026,None,1060.4457027000026,None,1060.4457027000026,None,1060.4457027000026,None,1062.446089000022,None,-3.5,2.938,-1250,-1300,-1250,,,,,,,,,,,,,,,,,,,,,,,,,,,,,,,,,,,,,,,,,,,,,,,,,,,,,,,,,,,,,,,,,,,,,,,,,,,,,,,,,,,f,38,HQH,2022_Apr_12_1054,experiment3,2021.1.4,30.226904302521522,
71,0,-200,0,two,0,-200,0,,,,,0,89,89,70,,,,,,,,,,,a,0.980723200016655,1065.4096795000369,None,1065.4096795000369,None,1066.4537606000085,None,1066.4537606000085,None,1066.4537606000085,None,1068.408626199991,1068.9078215000336,1068.408626199991,1068.9078215000336,1068.408626199991,1068.9078215000336,1066.4537606000085,None,1068.9778112000088,None,1068.9778112000088,None,1068.9778112000088,None,0.02300660003675148,None,1068.9778112000088,None,1068.9778112000088,None,1068.9778112000088,None,1068.9778112000088,None,1068.9778112000088,None,1068.9778112000088,None,1068.9826262000133,None,1068.9826262000133,None,1068.9826262000133,None,0.015440700051840395,0.5154407000518404,1068.9826262000133,None,1068.9826262000133,None,1068.9826262000133,None,1068.9826262000133,None,1068.9826262000133,None,1068.9826262000133,None,1070.9697134000016,1070.9697134000016,11.100000000000001,3.176,-1250,-1500,-1250,,,,,,,,,,,,,,,,,,,,,,,,,,,,,,,,,,,,,,,,,,,,,,,,,,,,,,,,,,,,,,,,,,,,,,,,,,,,,,,,,,,f,38,HQH,2022_Apr_12_1054,experiment3,2021.1.4,30.226904302521522,
38,200,0,200,one,200,0,200,,,,,0,90,90,37,,,,,,,,,,,a,3.070697100018151,1074.2192108000163,None,1074.2192108000163,None,1077.3382743999828,None,1077.3382743999828,None,1077.3382743999828,None,1079.318169999984,1079.817929300014,1079.318169999984,1079.817929300014,1079.318169999984,1079.817929300014,1077.3382743999828,None,1079.851313200011,None,1079.851313200011,None,1079.851313200011,None,0.02777549996972084,None,1079.851313200011,None,1079.851313200011,None,1079.851313200011,None,1079.851313200011,None,1079.851313200011,None,1079.851313200011,None,1079.8504852000042,None,1079.8504852000042,None,1079.8504852000042,None,0.020469300041440874,0.5204693000414409,1079.8504852000042,None,1079.8504852000042,None,1079.8504852000042,None,1079.8504852000042,None,1079.8504852000042,None,1079.8504852000042,None,1081.8173361000372,1081.8173361000372,30.599999999999994,2.199,-1050,-1500,-1050,,,,,,,,,,,,,,,,,,,,,,,,,,,,,,,,,,,,,,,,,,,,,,,,,,,,,,,,,,,,,,,,,,,,,,,,,,,,,,,,,,,f,38,HQH,2022_Apr_12_1054,experiment3,2021.1.4,30.226904302521522,
75,-150,-150,-200,one,-150,-150,-200,,,,,0,91,91,74,,,,,,,,,,,a,1.0825607999577187,1084.0810153000057,None,1084.0810153000057,None,1085.2225742000155,None,1085.2225742000155,None,1085.2225742000155,None,1087.1665339000174,1087.666549400019,1087.1665339000174,1087.666549400019,1087.1665339000174,1087.666549400019,1085.2225742000155,None,1087.7412571000052,None,1087.7412571000052,None,1087.7412571000052,None,0.018265499966219068,None,1087.7412571000052,None,1087.7412571000052,None,1087.7412571000052,None,1087.7412571000052,None,1087.7412571000052,None,1087.7412571000052,None,1087.7627774000284,None,1087.7627774000284,None,1087.7627774000284,None,0.003246000036597252,0.5032460000365973,1087.7627774000284,None,1087.7627774000284,None,1087.7627774000284,None,1087.7627774000284,None,1087.7627774000284,None,1087.7627774000284,None,1089.765946799994,None,3.1000000000000014,3.883,-1200,-1650,-1250,,,,,,,,,,,,,,,,,,,,,,,,,,,,,,,,,,,,,,,,,,,,,,,,,,,,,,,,,,,,,,,,,,,,,,,,,,,,,,,,,,,f,38,HQH,2022_Apr_12_1054,experiment3,2021.1.4,30.226904302521522,
54,-200,0,-150,one,-200,0,-150,,,,,0,92,92,53,,,,,,,,,,,a,0.8471025000326335,1093.6828104000306,None,1093.6828104000306,None,1094.5526938000112,None,1094.5526938000112,None,1094.5526938000112,None,1096.530295900011,1097.0312833000207,1096.530295900011,1097.0312833000207,1096.530295900011,1097.0312833000207,1094.5526938000112,None,1097.0646672000178,None,1097.0646672000178,None,1097.0646672000178,None,0.025822100054938346,None,1097.0646672000178,None,1097.0646672000178,None,1097.0646672000178,None,1097.0646672000178,None,1097.0646672000178,None,1097.0646672000178,None,1097.0634862000006,None,1097.0634862000006,None,1097.0634862000006,None,0.019293000048492104,0.5192930000484921,1097.0634862000006,None,1097.0634862000006,None,1097.0634862000006,None,1097.0634862000006,None,1097.0634862000006,None,1097.0634862000006,None,1099.047306900029,1099.047306900029,-3.200000000000003,4.416,-1400,-1650,-1400,,,,,,,,,,,,,,,,,,,,,,,,,,,,,,,,,,,,,,,,,,,,,,,,,,,,,,,,,,,,,,,,,,,,,,,,,,,,,,,,,,,f,38,HQH,2022_Apr_12_1054,experiment3,2021.1.4,30.226904302521522,
89,-200,-150,-200,one,-200,-150,-200,,,,,0,93,93,88,,,,,,,,,,,a,1.208130999992136,1103.5255423000199,None,1103.5255423000199,None,1104.7793919999967,None,1104.7793919999967,None,1104.7793919999967,None,1106.7288456000388,1107.2537704000133,1106.7288456000388,1107.2537704000133,1106.7288456000388,1107.2537704000133,1104.7793919999967,None,1107.2871543000103,None,1107.2871543000103,None,1107.2871543000103,None,0.01810550002846867,None,1107.2871543000103,None,1107.2871543000103,None,1107.2871543000103,None,1107.2871543000103,None,1107.2871543000103,None,1107.2871543000103,None,1107.3026113000233,None,1107.3026113000233,None,1107.3026113000233,None,0.00326850003330037,0.5032685000333004,1107.3026113000233,None,1107.3026113000233,None,1107.3026113000233,None,1107.3026113000233,None,1107.3026113000233,None,1107.3026113000233,None,1109.2835846000235,1109.2835846000235,-7.5,3.251,-1600,-1800,-1600,,,,,,,,,,,,,,,,,,,,,,,,,,,,,,,,,,,,,,,,,,,,,,,,,,,,,,,,,,,,,,,,,,,,,,,,,,,,,,,,,,,f,38,HQH,2022_Apr_12_1054,experiment3,2021.1.4,30.226904302521522,
