trialNumber,mychoice,otherchoice,stay,skip,pointsWon,otherScore,unobtained,choicepos,pos_1,otherscore,allowedkeyresp,trials_2.thisRepN,trials_2.thisTrialN,trials_2.thisN,trials_2.thisIndex,trials.thisRepN,trials.thisTrialN,trials.thisN,trials.thisIndex,image_2.started,image_2.stopped,key_resp_2.keys,key_resp_2.rt,key_resp_2.started,key_resp_2.stopped,key_resp_6.keys,key_resp_6.rt,key_resp_6.started,key_resp_6.stopped,text.started,text.stopped,left_3.started,left_3.stopped,middle_3.started,middle_3.stopped,right_3.started,right_3.stopped,otherleft_1.started,otherleft_1.stopped,othermiddle_1.started,othermiddle_1.stopped,otherright_1.started,otherright_1.stopped,text_2.started,text_2.stopped,left_4.started,left_4.stopped,right_4.started,right_4.stopped,middle_4.started,middle_4.stopped,ISI_3.started,ISI_3.stopped,mypick.started,mypick.stopped,otherpick.started,otherpick.stopped,residal.started,residal.stopped,otherleft_5.started,otherleft_5.stopped,othermiddle_5.started,othermiddle_5.stopped,otherright_5.started,otherright_5.stopped,left_5.started,left_5.stopped,right_5.started,right_5.stopped,middle_5.started,middle_5.stopped,ISI_5.started,ISI_5.stopped,mypick_1.started,mypick_1.stopped,otherpick_1.started,otherpick_1.stopped,residal_1.started,residal_1.stopped,otherleft_6.started,otherleft_6.stopped,othermiddle_6.started,othermiddle_6.stopped,otherright_6.started,otherright_6.stopped,text_3.started,text_3.stopped,rating,ratingrt,totalScore,othertotalScore,unobtainedScore,image_4.started,image_4.stopped,key_resp_3.keys,key_resp_3.rt,key_resp_3.started,key_resp_3.stopped,image_5.started,image_5.stopped,key_resp.keys,key_resp.rt,key_resp.started,key_resp.stopped,otherleft_3.started,otherleft_3.stopped,othermiddle_3.started,othermiddle_3.stopped,otherright_3.started,otherright_3.stopped,text_4.started,text_4.stopped,ISI_2.started,ISI_2.stopped,key_resp_4.keys,key_resp_4.rt,key_resp_4.started,key_resp_4.stopped,otherleft_4.started,otherleft_4.stopped,othermiddle_4.started,othermiddle_4.stopped,otherright_4.started,otherright_4.stopped,text_5.started,text_5.stopped,left.started,left.stopped,right.started,right.stopped,middle.started,middle.stopped,ISI.started,ISI.stopped,mypick_3.started,mypick_3.stopped,otherpick_3.started,otherpick_3.stopped,residal_3.started,residal_3.stopped,otherleft.started,otherleft.stopped,othermiddle.started,othermiddle.stopped,otherright.started,otherright.stopped,right_2.started,right_2.stopped,middle_2.started,middle_2.stopped,left_2.started,left_2.stopped,ISI_4.started,ISI_4.stopped,mypick_4.started,mypick_4.stopped,otherpick_4.started,otherpick_4.stopped,residal_4.started,residal_4.stopped,otherleft_2.started,otherleft_2.stopped,othermiddle_2.started,othermiddle_2.stopped,otherright_2.started,otherright_2.stopped,text_6.started,text_6.stopped,image_3.started,image_3.stopped,key_resp_9.keys,key_resp_9.rt,key_resp_9.started,key_resp_9.stopped,gender,age,participant,date,expName,psychopyVersion,frameRate,
,,,,,,,,,,,,,,,,,,,,58.48239359998843,None,space,13.35170850000577,58.48239359998843,None,,,,,,,,,,,,,,,,,,,,,,,,,,,,,,,,,,,,,,,,,,,,,,,,,,,,,,,,,,,,,,,,,,,,,,,,,,,,,,,,,,,,,,,,,,,,,,,,,,,,,,,,,,,,,,,,,,,,,,,,,,,,,,,,,,,,,,,,,,,,,,,,,,,,,,f,22,lipeijing,2022_Apr_11_1503,experiment3,2021.1.4,30.46379606065749,
55,0,-150,-200,two,0,-150,-200,,,,,0,0,0,54,,,,,,,,,,,a,6.207971199997701,71.95577419997426,None,71.95577419997426,None,78.19306269998197,None,78.19306269998197,None,78.19306269998197,None,80.15488839999307,80.66936759999953,80.15488839999307,80.66936759999953,80.15488839999307,80.66936759999953,78.19306269998197,None,80.70271987000015,None,80.70271987000015,None,80.70271987000015,None,0.01419956999598071,None,80.70271987000015,None,80.70271987000015,None,80.70271987000015,None,80.70271987000015,None,80.70271987000015,None,80.70271987000015,None,80.71201760001713,None,80.71201760001713,None,80.71201760001713,None,0.004322970053181052,0.504322970053181,80.71201760001713,None,80.71201760001713,None,80.71201760001713,None,80.71201760001713,None,80.71201760001713,None,80.71201760001713,None,82.70206410001265,82.70206410001265,18.299999999999997,4.661,200,-150,-200,,,,,,,,,,,,,,,,,,,,,,,,,,,,,,,,,,,,,,,,,,,,,,,,,,,,,,,,,,,,,,,,,,,,,,,,,,,,,,,,,,,f,22,lipeijing,2022_Apr_11_1503,experiment3,2021.1.4,30.46379606065749,
84,-150,-150,0,two,-150,-150,0,,,,,0,1,1,83,,,,,,,,,,,g,13.619838799990248,87.4683239000151,None,87.4683239000151,None,101.1268922999734,None,101.1268922999734,None,101.1268922999734,None,103.1149820999708,None,103.1149820999708,None,103.1149820999708,None,101.1268922999734,None,103.63345716996119,None,103.63345716996119,None,103.63345716996119,None,0.015196470019873232,None,103.63345716996119,None,103.63345716996119,None,103.63345716996119,None,103.63345716996119,None,103.63345716996119,None,103.63345716996119,None,103.64761970000109,None,103.64761970000109,None,103.64761970000109,None,0.007417069980874658,0.5074170699808747,103.64761970000109,None,103.64761970000109,None,103.64761970000109,None,103.64761970000109,None,103.64761970000109,None,103.64761970000109,None,105.63141889998224,105.63141889998224,4.899999999999999,4.235,50,-300,-200,,,,,,,,,,,,,,,,,,,,,,,,,,,,,,,,,,,,,,,,,,,,,,,,,,,,,,,,,,,,,,,,,,,,,,,,,,,,,,,,,,,f,22,lipeijing,2022_Apr_11_1503,experiment3,2021.1.4,30.46379606065749,
9,50,0,200,two,50,0,200,,,,,0,2,2,8,,,,,,,,,,,l,3.8186744999838993,109.93087470001774,None,109.93087470001774,None,113.81330109998817,None,113.81330109998817,None,113.81330109998817,None,115.7795018000179,116.2908502999926,115.7795018000179,116.2908502999926,115.7795018000179,116.2908502999926,113.81330109998817,None,116.32420256999322,None,116.32420256999322,None,116.32420256999322,None,0.010146570042707026,None,116.32420256999322,None,116.32420256999322,None,116.32420256999322,None,116.32420256999322,None,116.32420256999322,None,116.32420256999322,None,116.34495759999845,None,116.34495759999845,None,116.34495759999845,None,0.032365939987357706,0.5323659399873577,116.34495759999845,None,116.34495759999845,None,116.34495759999845,None,116.34495759999845,None,116.34495759999845,None,116.34495759999845,None,118.30319120001514,118.30319120001514,17.200000000000003,2.783,100,-300,0,,,,,,,,,,,,,,,,,,,,,,,,,,,,,,,,,,,,,,,,,,,,,,,,,,,,,,,,,,,,,,,,,,,,,,,,,,,,,,,,,,,f,22,lipeijing,2022_Apr_11_1503,experiment3,2021.1.4,30.46379606065749,
54,-200,0,-150,one,-200,0,-150,,,,,0,3,3,53,,,,,,,,,,,g,5.658701800042763,121.17574289999902,None,121.17574289999902,None,126.85977739997907,None,126.85977739997907,None,126.85977739997907,None,128.82694759999868,129.3267574000056,128.82694759999868,129.3267574000056,128.82694759999868,129.3267574000056,126.85977739997907,None,129.3601096700062,None,129.3601096700062,None,129.3601096700062,None,0.025503970042336732,None,129.3601096700062,None,129.3601096700062,None,129.3601096700062,None,129.3601096700062,None,129.3601096700062,None,129.3601096700062,None,129.35876189998817,None,129.35876189998817,None,129.35876189998817,None,0.01854527002433315,0.5185452700243331,129.35876189998817,None,129.35876189998817,None,129.35876189998817,None,129.35876189998817,None,129.35876189998817,None,129.35876189998817,None,131.3142888000002,131.3142888000002,-15.600000000000001,2.313,-100,-300,-150,,,,,,,,,,,,,,,,,,,,,,,,,,,,,,,,,,,,,,,,,,,,,,,,,,,,,,,,,,,,,,,,,,,,,,,,,,,,,,,,,,,f,22,lipeijing,2022_Apr_11_1503,experiment3,2021.1.4,30.46379606065749,
49,0,-150,-200,one,0,-150,-200,,,,,0,4,4,48,,,,,,,,,,,l,6.383566900040023,133.71255329996347,None,133.71255329996347,None,140.1370348999626,None,140.1370348999626,None,140.1370348999626,None,142.12430640001548,None,142.12430640001548,None,142.12430640001548,None,140.1370348999626,None,142.64259007000365,None,142.64259007000365,None,142.64259007000365,None,0.024527670058887452,None,142.64259007000365,None,142.64259007000365,None,142.64259007000365,None,142.64259007000365,None,142.64259007000365,None,142.64259007000365,None,142.64097070001299,None,142.64097070001299,None,142.64097070001299,None,0.015816570085007697,0.5158165700850077,142.64097070001299,None,142.64097070001299,None,142.64097070001299,None,142.64097070001299,None,142.64097070001299,None,142.64097070001299,None,144.5973327999818,144.5973327999818,18.299999999999997,2.004,-100,-450,-350,,,,,,,,,,,,,,,,,,,,,,,,,,,,,,,,,,,,,,,,,,,,,,,,,,,,,,,,,,,,,,,,,,,,,,,,,,,,,,,,,,,f,22,lipeijing,2022_Apr_11_1503,experiment3,2021.1.4,30.46379606065749,
89,-200,-150,-200,one,-200,-150,-200,,,,,0,5,5,88,,,,,,,,,,,g,3.604253299999982,146.70717269997112,None,146.70717269997112,None,150.34369959996548,None,150.34369959996548,None,150.34369959996548,None,152.30698210000992,152.80585730000166,152.30698210000992,152.80585730000166,152.30698210000992,152.80585730000166,150.34369959996548,None,152.8724245700054,None,152.8724245700054,None,152.8724245700054,None,0.0273815700202249,None,152.8724245700054,None,152.8724245700054,None,152.8724245700054,None,152.8724245700054,None,152.8724245700054,None,152.8724245700054,None,152.87636549997842,None,152.87636549997842,None,152.87636549997842,None,0.019784570089541376,0.5197845700895414,152.87636549997842,None,152.87636549997842,None,152.87636549997842,None,152.87636549997842,None,152.87636549997842,None,152.87636549997842,None,154.83792959997663,154.83792959997663,-8.299999999999997,2.142,-300,-600,-550,,,,,,,,,,,,,,,,,,,,,,,,,,,,,,,,,,,,,,,,,,,,,,,,,,,,,,,,,,,,,,,,,,,,,,,,,,,,,,,,,,,f,22,lipeijing,2022_Apr_11_1503,experiment3,2021.1.4,30.46379606065749,
86,-200,0,-200,one,-200,0,-200,,,,,0,6,6,85,,,,,,,,,,,a,1.6580822999821976,157.08821859996533,None,157.08821859996533,None,158.80421809997642,None,158.80421809997642,None,158.80421809997642,None,160.77012539998395,161.28741759998957,160.77012539998395,161.28741759998957,160.77012539998395,161.28741759998957,158.80421809997642,None,161.3207698699902,None,161.3207698699902,None,161.3207698699902,None,0.020951570011675358,None,161.3207698699902,None,161.3207698699902,None,161.3207698699902,None,161.3207698699902,None,161.3207698699902,None,161.3207698699902,None,161.34157300001243,None,161.34157300001243,None,161.34157300001243,None,0.0062204700079746544,0.5062204700079747,161.34157300001243,None,161.34157300001243,None,161.34157300001243,None,161.34157300001243,None,161.34157300001243,None,161.34157300001243,None,163.32761249999749,163.32761249999749,-24.9,2.762,-500,-600,-750,,,,,,,,,,,,,,,,,,,,,,,,,,,,,,,,,,,,,,,,,,,,,,,,,,,,,,,,,,,,,,,,,,,,,,,,,,,,,,,,,,,f,22,lipeijing,2022_Apr_11_1503,experiment3,2021.1.4,30.46379606065749,
60,-200,0,-150,two,-200,0,-150,,,,,0,7,7,59,,,,,,,,,,,l,4.609369300014805,166.16871379996883,None,166.16871379996883,None,170.81844910001382,None,170.81844910001382,None,170.81844910001382,None,172.76812899997458,173.26780819997657,172.76812899997458,173.26780819997657,172.76812899997458,173.26780819997657,170.81844910001382,None,173.33468656996266,None,173.33468656996266,None,173.33468656996266,None,0.027485769998747855,None,173.33468656996266,None,173.33468656996266,None,173.33468656996266,None,173.33468656996266,None,173.33468656996266,None,173.33468656996266,None,173.33343009999953,None,173.33343009999953,None,173.33343009999953,None,0.020171169948298484,0.5201711699482985,173.33343009999953,None,173.33343009999953,None,173.33343009999953,None,173.33343009999953,None,173.33343009999953,None,173.33343009999953,None,175.3008814000059,175.3008814000059,-17.700000000000003,2.814,-700,-600,-900,,,,,,,,,,,,,,,,,,,,,,,,,,,,,,,,,,,,,,,,,,,,,,,,,,,,,,,,,,,,,,,,,,,,,,,,,,,,,,,,,,,f,22,lipeijing,2022_Apr_11_1503,experiment3,2021.1.4,30.46379606065749,
71,0,-200,0,two,0,-200,0,,,,,0,8,8,70,,,,,,,,,,,g,1.5304788000066765,178.18203999998514,None,178.18203999998514,None,179.75030309997965,None,179.75030309997965,None,179.75030309997965,None,181.71647179999854,182.22240859997692,181.71647179999854,182.22240859997692,181.71647179999854,182.22240859997692,179.75030309997965,None,182.25576086997754,None,182.25576086997754,None,182.25576086997754,None,0.018813569971825927,None,182.25576086997754,None,182.25576086997754,None,182.25576086997754,None,182.25576086997754,None,182.25576086997754,None,182.25576086997754,None,182.27553089999128,None,182.27553089999128,None,182.27553089999128,None,0.005152670026291162,0.5051526700262912,182.27553089999128,None,182.27553089999128,None,182.27553089999128,None,182.27553089999128,None,182.27553089999128,None,182.27553089999128,None,184.25240499997744,184.25240499997744,11.100000000000001,3.039,-700,-800,-900,,,,,,,,,,,,,,,,,,,,,,,,,,,,,,,,,,,,,,,,,,,,,,,,,,,,,,,,,,,,,,,,,,,,,,,,,,,,,,,,,,,f,22,lipeijing,2022_Apr_11_1503,experiment3,2021.1.4,30.46379606065749,
21,50,0,0,two,50,0,0,,,,,0,9,9,20,,,,,,,,,,,g,4.558725800015964,187.37953219999326,None,187.37953219999326,None,191.99752540001646,None,191.99752540001646,None,191.99752540001646,None,193.96527049998986,194.46373600000516,193.96527049998986,194.46373600000516,193.96527049998986,194.46373600000516,191.99752540001646,None,194.49708827000578,None,194.49708827000578,None,194.49708827000578,None,0.02209677005885169,None,194.49708827000578,None,194.49708827000578,None,194.49708827000578,None,194.49708827000578,None,194.49708827000578,None,194.49708827000578,None,194.51172660000157,None,194.51172660000157,None,194.51172660000157,None,0.006425169995054603,0.5064251699950546,194.51172660000157,None,194.51172660000157,None,194.51172660000157,None,194.51172660000157,None,194.51172660000157,None,194.51172660000157,None,196.4730472000083,196.4730472000083,19.799999999999997,2.043,-650,-800,-900,,,,,,,,,,,,,,,,,,,,,,,,,,,,,,,,,,,,,,,,,,,,,,,,,,,,,,,,,,,,,,,,,,,,,,,,,,,,,,,,,,,f,22,lipeijing,2022_Apr_11_1503,experiment3,2021.1.4,30.46379606065749,
70,0,0,-200,two,0,0,-200,,,,,0,10,10,69,,,,,,,,,,,l,4.04301680001663,198.61419749999186,None,198.61419749999186,None,202.7068556000013,None,202.7068556000013,None,202.7068556000013,None,204.6788196999696,205.18346369999927,204.6788196999696,205.18346369999927,204.6788196999696,205.18346369999927,202.7068556000013,None,205.21681596999989,None,205.21681596999989,None,205.21681596999989,None,0.022297370014712214,None,205.21681596999989,None,205.21681596999989,None,205.21681596999989,None,205.21681596999989,None,205.21681596999989,None,205.21681596999989,None,205.22042719996534,None,205.22042719996534,None,205.22042719996534,None,0.011422670038882643,0.5114226700388826,205.22042719996534,None,205.22042719996534,None,205.22042719996534,None,205.22042719996534,None,205.22042719996534,None,205.22042719996534,None,207.21103369997581,207.21103369997581,2.1000000000000014,2.189,-650,-800,-1100,,,,,,,,,,,,,,,,,,,,,,,,,,,,,,,,,,,,,,,,,,,,,,,,,,,,,,,,,,,,,,,,,,,,,,,,,,,,,,,,,,,f,22,lipeijing,2022_Apr_11_1503,experiment3,2021.1.4,30.46379606065749,
59,-200,-150,0,two,-200,-150,0,,,,,0,11,11,58,,,,,,,,,,,l,4.495769700035453,209.45963599998504,None,209.45963599998504,None,214.0112822999945,None,214.0112822999945,None,214.0112822999945,None,215.9613713999861,216.44980180001585,215.9613713999861,216.44980180001585,215.9613713999861,216.44980180001585,214.0112822999945,None,216.5495190699934,None,216.5495190699934,None,216.5495190699934,None,0.022705870040226728,None,216.5495190699934,None,216.5495190699934,None,216.5495190699934,None,216.5495190699934,None,216.5495190699934,None,216.5495190699934,None,216.55809060001047,None,216.55809060001047,None,216.55809060001047,None,0.01274007000029087,0.5127400700002909,216.55809060001047,None,216.55809060001047,None,216.55809060001047,None,216.55809060001047,None,216.55809060001047,None,216.55809060001047,None,218.52618899999652,218.52618899999652,-8.799999999999997,1.999,-850,-950,-1100,,,,,,,,,,,,,,,,,,,,,,,,,,,,,,,,,,,,,,,,,,,,,,,,,,,,,,,,,,,,,,,,,,,,,,,,,,,,,,,,,,,f,22,lipeijing,2022_Apr_11_1503,experiment3,2021.1.4,30.46379606065749,
68,0,-150,0,two,0,-150,0,,,,,0,12,12,67,,,,,,,,,,,g,7.0441405000165105,220.60638319997815,None,220.60638319997815,None,227.69038410001667,None,227.69038410001667,None,227.69038410001667,None,229.65542329999153,230.1743664999958,229.65542329999153,230.1743664999958,229.65542329999153,230.1743664999958,227.69038410001667,None,230.20771876999643,None,230.20771876999643,None,230.20771876999643,None,0.022842170030344278,None,230.20771876999643,None,230.20771876999643,None,230.20771876999643,None,230.20771876999643,None,230.20771876999643,None,230.20771876999643,None,230.20866229996318,None,230.20866229996318,None,230.20866229996318,None,0.013945170037914068,0.5139451700379141,230.20866229996318,None,230.20866229996318,None,230.20866229996318,None,230.20866229996318,None,230.20866229996318,None,230.20866229996318,None,232.21491939999396,232.21491939999396,8.799999999999997,2.088,-850,-1100,-1100,,,,,,,,,,,,,,,,,,,,,,,,,,,,,,,,,,,,,,,,,,,,,,,,,,,,,,,,,,,,,,,,,,,,,,,,,,,,,,,,,,,f,22,lipeijing,2022_Apr_11_1503,experiment3,2021.1.4,30.46379606065749,
91,-200,-200,0,two,-200,-200,0,,,,,0,13,13,90,,,,,,,,,,,l,4.752465999976266,234.3898007000098,None,234.3898007000098,None,239.18860960000893,None,239.18860960000893,None,239.18860960000893,None,241.15442249999614,241.65434269997058,241.15442249999614,241.65434269997058,241.15442249999614,241.65434269997058,239.18860960000893,None,241.6876949699712,None,241.6876949699712,None,241.6876949699712,None,0.02575927000725642,None,241.6876949699712,None,241.6876949699712,None,241.6876949699712,None,241.6876949699712,None,241.6876949699712,None,241.6876949699712,None,241.68707019998692,None,241.68707019998692,None,241.68707019998692,None,0.018565370002761483,0.5185653700027615,241.68707019998692,None,241.68707019998692,None,241.68707019998692,None,241.68707019998692,None,241.68707019998692,None,241.68707019998692,None,243.67104789998848,243.67104789998848,-12.0,4.883,-1050,-1300,-1100,,,,,,,,,,,,,,,,,,,,,,,,,,,,,,,,,,,,,,,,,,,,,,,,,,,,,,,,,,,,,,,,,,,,,,,,,,,,,,,,,,,f,22,lipeijing,2022_Apr_11_1503,experiment3,2021.1.4,30.46379606065749,
40,200,200,50,one,200,200,50,,,,,0,14,14,39,,,,,,,,,,,g,1.2766627999953926,248.62039060000097,None,248.62039060000097,None,249.93830239999807,None,249.93830239999807,None,249.93830239999807,None,251.8838911000057,252.42531869997038,251.8838911000057,252.42531869997038,251.8838911000057,252.42531869997038,249.93830239999807,None,252.458670969971,None,252.458670969971,None,252.458670969971,None,0.011482670030090958,None,252.458670969971,None,252.458670969971,None,252.458670969971,None,252.458670969971,None,252.458670969971,None,252.458670969971,None,252.49125550000463,None,252.49125550000463,None,252.49125550000463,None,0.02506553992861882,0.5250655399286188,252.49125550000463,None,252.49125550000463,None,252.49125550000463,None,252.49125550000463,None,252.49125550000463,None,252.49125550000463,None,254.46333369996864,254.46333369996864,8.799999999999997,2.385,-850,-1100,-1050,,,,,,,,,,,,,,,,,,,,,,,,,,,,,,,,,,,,,,,,,,,,,,,,,,,,,,,,,,,,,,,,,,,,,,,,,,,,,,,,,,,f,22,lipeijing,2022_Apr_11_1503,experiment3,2021.1.4,30.46379606065749,
94,-200,-200,-150,two,-200,-200,-150,,,,,0,15,15,93,,,,,,,,,,,l,2.777641399996355,256.91436559997965,None,256.91436559997965,None,259.75102550000884,None,259.75102550000884,None,259.75102550000884,None,261.68131289997837,262.18369969999185,261.68131289997837,262.18369969999185,261.68131289997837,262.18369969999185,259.75102550000884,None,262.2507855699863,None,262.2507855699863,None,262.2507855699863,None,0.023903270077425987,None,262.2507855699863,None,262.2507855699863,None,262.2507855699863,None,262.2507855699863,None,262.2507855699863,None,262.2507855699863,None,262.250556199986,None,262.250556199986,None,262.250556199986,None,0.01472717005526647,0.5147271700552665,262.250556199986,None,262.250556199986,None,262.250556199986,None,262.250556199986,None,262.250556199986,None,262.250556199986,None,264.2582415700075,None,-8.200000000000003,1.662,-1050,-1300,-1200,,,,,,,,,,,,,,,,,,,,,,,,,,,,,,,,,,,,,,,,,,,,,,,,,,,,,,,,,,,,,,,,,,,,,,,,,,,,,,,,,,,f,22,lipeijing,2022_Apr_11_1503,experiment3,2021.1.4,30.46379606065749,
51,-150,0,-200,one,-150,0,-200,,,,,0,16,16,50,,,,,,,,,,,g,5.053886600013357,265.9644830999896,None,265.9644830999896,None,271.05433389998507,None,271.05433389998507,None,271.05433389998507,None,273.03172979998635,273.54077590000816,273.03172979998635,273.54077590000816,273.03172979998635,273.54077590000816,271.05433389998507,None,273.57412817000875,None,273.57412817000875,None,273.57412817000875,None,0.018108970078174025,None,273.57412817000875,None,273.57412817000875,None,273.57412817000875,None,273.57412817000875,None,273.57412817000875,None,273.57412817000875,None,273.5946492999792,None,273.5946492999792,None,273.5946492999792,None,0.0034594700555317104,0.5034594700555317,273.5946492999792,None,273.5946492999792,None,273.5946492999792,None,273.5946492999792,None,273.5946492999792,None,273.5946492999792,None,275.5986511700088,None,-15.700000000000003,3.32,-1200,-1300,-1400,,,,,,,,,,,,,,,,,,,,,,,,,,,,,,,,,,,,,,,,,,,,,,,,,,,,,,,,,,,,,,,,,,,,,,,,,,,,,,,,,,,f,22,lipeijing,2022_Apr_11_1503,experiment3,2021.1.4,30.46379606065749,
24,200,0,0,two,200,0,0,,,,,0,17,17,23,,,,,,,,,,,l,2.43853870005114,278.9443067999673,None,278.9443067999673,None,281.4351326999604,None,281.4351326999604,None,281.4351326999604,None,283.4258640999906,None,283.4258640999906,None,283.4258640999906,None,281.4351326999604,None,283.9500826700008,None,283.9500826700008,None,283.9500826700008,None,0.025208570004906505,None,283.9500826700008,None,283.9500826700008,None,283.9500826700008,None,283.9500826700008,None,283.9500826700008,None,283.9500826700008,None,283.94771199999377,None,283.94771199999377,None,283.94771199999377,None,0.01721766998525709,0.5172176699852571,283.94771199999377,None,283.94771199999377,None,283.94771199999377,None,283.94771199999377,None,283.94771199999377,None,283.94771199999377,None,285.91924079996534,285.91924079996534,33.400000000000006,1.957,-1000,-1300,-1400,,,,,,,,,,,,,,,,,,,,,,,,,,,,,,,,,,,,,,,,,,,,,,,,,,,,,,,,,,,,,,,,,,,,,,,,,,,,,,,,,,,f,22,lipeijing,2022_Apr_11_1503,experiment3,2021.1.4,30.46379606065749,
38,200,0,200,one,200,0,200,,,,,0,18,18,37,,,,,,,,,,,l,3.7486826000385918,287.93202130001737,None,287.93202130001737,None,291.72938869998325,None,291.72938869998325,None,291.72938869998325,None,293.7012088999618,294.2115443999646,293.7012088999618,294.2115443999646,293.7012088999618,294.2115443999646,291.72938869998325,None,294.2448966699652,None,294.2448966699652,None,294.2448966699652,None,0.02739906997885555,None,294.2448966699652,None,294.2448966699652,None,294.2448966699652,None,294.2448966699652,None,294.2448966699652,None,294.2448966699652,None,294.2437864000094,None,294.2437864000094,None,294.2437864000094,None,0.020430069998838007,0.520430069998838,294.2437864000094,None,294.2437864000094,None,294.2437864000094,None,294.2437864000094,None,294.2437864000094,None,294.2437864000094,None,296.2350260000094,296.2350260000094,30.200000000000003,1.728,-800,-1300,-1200,,,,,,,,,,,,,,,,,,,,,,,,,,,,,,,,,,,,,,,,,,,,,,,,,,,,,,,,,,,,,,,,,,,,,,,,,,,,,,,,,,,f,22,lipeijing,2022_Apr_11_1503,experiment3,2021.1.4,30.46379606065749,
61,0,0,-150,one,0,0,-150,,,,,0,19,19,60,,,,,,,,,,,l,0.9923069999786094,298.04729889996815,None,298.04729889996815,None,299.0941361999721,None,299.0941361999721,None,299.0941361999721,None,301.0449750999687,301.57682859996567,301.0449750999687,301.57682859996567,301.0449750999687,301.57682859996567,299.0941361999721,None,301.61018086996626,None,301.61018086996626,None,301.61018086996626,None,0.02750297001330182,None,301.61018086996626,None,301.61018086996626,None,301.61018086996626,None,301.61018086996626,None,301.61018086996626,None,301.61018086996626,None,301.60923210001783,None,301.60923210001783,None,301.60923210001783,None,0.020656170032452792,0.5206561700324528,301.60923210001783,None,301.60923210001783,None,301.60923210001783,None,301.60923210001783,None,301.60923210001783,None,301.60923210001783,None,303.5925712999888,303.5925712999888,3.5,1.472,-800,-1300,-1350,,,,,,,,,,,,,,,,,,,,,,,,,,,,,,,,,,,,,,,,,,,,,,,,,,,,,,,,,,,,,,,,,,,,,,,,,,,,,,,,,,,f,22,lipeijing,2022_Apr_11_1503,experiment3,2021.1.4,30.46379606065749,
39,0,200,200,one,0,200,200,,,,,0,20,20,38,,,,,,,,,,,l,4.975830999959726,305.13090549997287,None,305.13090549997287,None,310.141522299964,None,310.141522299964,None,310.141522299964,None,312.10763390001375,312.6532717999653,312.10763390001375,312.6532717999653,312.10763390001375,312.6532717999653,310.141522299964,None,312.6866240699659,None,312.6866240699659,None,312.6866240699659,None,0.01700107002397999,None,312.6866240699659,None,312.6866240699659,None,312.6866240699659,None,312.6866240699659,None,312.6866240699659,None,312.6866240699659,None,312.7092421000125,None,312.7092421000125,None,312.7092421000125,None,0.0002191700041294098,0.5002191700041294,312.7092421000125,None,312.7092421000125,None,312.7092421000125,None,312.7092421000125,None,312.7092421000125,None,312.7092421000125,None,314.6907211999642,314.6907211999642,-8.100000000000001,1.522,-800,-1100,-1150,,,,,,,,,,,,,,,,,,,,,,,,,,,,,,,,,,,,,,,,,,,,,,,,,,,,,,,,,,,,,,,,,,,,,,,,,,,,,,,,,,,f,22,lipeijing,2022_Apr_11_1503,experiment3,2021.1.4,30.46379606065749,
92,-200,0,-200,two,-200,0,-200,,,,,0,21,21,91,,,,,,,,,,,l,3.224018700013403,316.2700616999646,None,316.2700616999646,None,319.55220079998253,None,319.55220079998253,None,319.55220079998253,None,321.51059239997994,322.03889369999524,321.51059239997994,322.03889369999524,321.51059239997994,322.03889369999524,319.55220079998253,None,322.07224596999583,None,322.07224596999583,None,322.07224596999583,None,0.027645369991660118,None,322.07224596999583,None,322.07224596999583,None,322.07224596999583,None,322.07224596999583,None,322.07224596999583,None,322.07224596999583,None,322.07114909996744,None,322.07114909996744,None,322.07114909996744,None,0.020167869981378317,0.5201678699813783,322.07114909996744,None,322.07114909996744,None,322.07114909996744,None,322.07114909996744,None,322.07114909996744,None,322.07114909996744,None,324.0558280000114,324.0558280000114,-24.2,3.196,-1000,-1100,-1350,,,,,,,,,,,,,,,,,,,,,,,,,,,,,,,,,,,,,,,,,,,,,,,,,,,,,,,,,,,,,,,,,,,,,,,,,,,,,,,,,,,f,22,lipeijing,2022_Apr_11_1503,experiment3,2021.1.4,30.46379606065749,
7,0,50,200,two,0,50,200,,,,,0,22,22,6,,,,,,,,,,,g,3.487736999988556,327.3050980999833,None,327.3050980999833,None,330.8543038999778,None,330.8543038999778,None,330.8543038999778,None,332.7959663000074,333.3020251999842,332.7959663000074,333.3020251999842,332.7959663000074,333.3020251999842,330.8543038999778,None,333.3754903700086,None,333.3754903700086,None,333.3754903700086,None,0.021740170021075755,None,333.3754903700086,None,333.3754903700086,None,333.3754903700086,None,333.3754903700086,None,333.3754903700086,None,333.3754903700086,None,333.3845060999738,None,333.3845060999738,None,333.3845060999738,None,0.00632057007169351,0.5063205700716935,333.3845060999738,None,333.3845060999738,None,333.3845060999738,None,333.3845060999738,None,333.3845060999738,None,333.3845060999738,None,335.37049000000115,335.37049000000115,-10.200000000000003,1.501,-1000,-1050,-1150,,,,,,,,,,,,,,,,,,,,,,,,,,,,,,,,,,,,,,,,,,,,,,,,,,,,,,,,,,,,,,,,,,,,,,,,,,,,,,,,,,,f,22,lipeijing,2022_Apr_11_1503,experiment3,2021.1.4,30.46379606065749,
41,200,50,200,one,200,50,200,,,,,0,23,23,40,,,,,,,,,,,l,3.367346199986059,336.9376224000007,None,336.9376224000007,None,340.3522760999622,None,340.3522760999622,None,340.3522760999622,None,342.3404772999929,None,342.3404772999929,None,342.3404772999929,None,340.3522760999622,None,342.86747127000706,None,342.86747127000706,None,342.86747127000706,None,0.027895270090084523,None,342.86747127000706,None,342.86747127000706,None,342.86747127000706,None,342.86747127000706,None,342.86747127000706,None,342.86747127000706,None,342.86903930001426,None,342.86903930001426,None,342.86903930001426,None,0.02069057000335306,0.5206905700033531,342.86903930001426,None,342.86903930001426,None,342.86903930001426,None,342.86903930001426,None,342.86903930001426,None,342.86903930001426,None,344.8403815999627,344.8403815999627,17.799999999999997,2.34,-800,-1000,-950,,,,,,,,,,,,,,,,,,,,,,,,,,,,,,,,,,,,,,,,,,,,,,,,,,,,,,,,,,,,,,,,,,,,,,,,,,,,,,,,,,,f,22,lipeijing,2022_Apr_11_1503,experiment3,2021.1.4,30.46379606065749,
65,0,-200,0,one,0,-200,0,,,,,0,24,24,64,,,,,,,,,,,l,2.726955500023905,347.23906089999946,None,347.23906089999946,None,350.0006397999823,None,350.0006397999823,None,350.0006397999823,None,351.95778499997687,352.47375910001574,351.95778499997687,352.47375910001574,351.95778499997687,352.47375910001574,350.0006397999823,None,352.50711137001633,None,352.50711137001633,None,352.50711137001633,None,0.0100259700557217,None,352.50711137001633,None,352.50711137001633,None,352.50711137001633,None,352.50711137001633,None,352.50711137001633,None,352.50711137001633,None,352.5483072999632,None,352.5483072999632,None,352.5483072999632,None,0.01895374001469463,0.5189537400146946,352.5483072999632,None,352.5483072999632,None,352.5483072999632,None,352.5483072999632,None,352.5483072999632,None,352.5483072999632,None,354.52514420001535,354.52514420001535,9.299999999999997,1.754,-800,-1200,-950,,,,,,,,,,,,,,,,,,,,,,,,,,,,,,,,,,,,,,,,,,,,,,,,,,,,,,,,,,,,,,,,,,,,,,,,,,,,,,,,,,,f,22,lipeijing,2022_Apr_11_1503,experiment3,2021.1.4,30.46379606065749,
88,-200,-200,-150,one,-200,-200,-150,,,,,0,25,25,87,,,,,,,,,,,g,2.255298700009007,356.35294579999754,None,356.35294579999754,None,358.66560519998893,None,358.66560519998893,None,358.66560519998893,None,360.6315889999969,361.13187499996275,360.6315889999969,361.13187499996275,360.6315889999969,361.13187499996275,358.66560519998893,None,361.16522726996334,None,361.16522726996334,None,361.16522726996334,None,0.025674169999547303,None,361.16522726996334,None,361.16522726996334,None,361.16522726996334,None,361.16522726996334,None,361.16522726996334,None,361.16522726996334,None,361.16444839996984,None,361.16444839996984,None,361.16444839996984,None,0.018257270043250173,0.5182572700432502,361.16444839996984,None,361.16444839996984,None,361.16444839996984,None,361.16444839996984,None,361.16444839996984,None,361.16444839996984,None,363.13179319998017,363.13179319998017,-13.399999999999999,2.335,-1000,-1400,-1100,,,,,,,,,,,,,,,,,,,,,,,,,,,,,,,,,,,,,,,,,,,,,,,,,,,,,,,,,,,,,,,,,,,,,,,,,,,,,,,,,,,f,22,lipeijing,2022_Apr_11_1503,experiment3,2021.1.4,30.46379606065749,
13,0,0,50,one,0,0,50,,,,,0,26,26,12,,,,,,,,,,,g,2.5263151999679394,365.534753200016,None,365.534753200016,None,368.0935005999636,None,368.0935005999636,None,368.0935005999636,None,370.0739000000176,370.5799544000183,370.0739000000176,370.5799544000183,370.0739000000176,370.5799544000183,368.0935005999636,None,370.6133066700189,None,370.6133066700189,None,370.6133066700189,None,0.027594070008490235,None,370.6133066700189,None,370.6133066700189,None,370.6133066700189,None,370.6133066700189,None,370.6133066700189,None,370.6133066700189,None,370.61207859998103,None,370.61207859998103,None,370.61207859998103,None,0.02070957003161311,0.5207095700316131,370.61207859998103,None,370.61207859998103,None,370.61207859998103,None,370.61207859998103,None,370.61207859998103,None,370.61207859998103,None,372.5796069999924,372.5796069999924,-2.799999999999997,3.297,-1000,-1400,-1050,,,,,,,,,,,,,,,,,,,,,,,,,,,,,,,,,,,,,,,,,,,,,,,,,,,,,,,,,,,,,,,,,,,,,,,,,,,,,,,,,,,f,22,lipeijing,2022_Apr_11_1503,experiment3,2021.1.4,30.46379606065749,
73,-200,-150,-150,one,-200,-150,-150,,,,,0,27,27,72,,,,,,,,,,,g,1.534792899969034,375.9322773999884,None,375.9322773999884,None,377.51134289999027,None,377.51134289999027,None,377.51134289999027,None,379.4616440999671,379.9619931000052,379.4616440999671,379.9619931000052,379.4616440999671,379.9619931000052,377.51134289999027,None,380.03779076997887,None,380.03779076997887,None,380.03779076997887,None,0.017143170000053942,None,380.03779076997887,None,380.03779076997887,None,380.03779076997887,None,380.03779076997887,None,380.03779076997887,None,380.03779076997887,None,380.0607372999657,None,380.0607372999657,None,380.0607372999657,None,0.00025547004770487547,0.5002554700477049,380.0607372999657,None,380.0607372999657,None,380.0607372999657,None,380.0607372999657,None,380.0607372999657,None,380.0607372999657,None,382.0477962999721,382.0477962999721,-19.7,1.785,-1200,-1550,-1200,,,,,,,,,,,,,,,,,,,,,,,,,,,,,,,,,,,,,,,,,,,,,,,,,,,,,,,,,,,,,,,,,,,,,,,,,,,,,,,,,,,f,22,lipeijing,2022_Apr_11_1503,experiment3,2021.1.4,30.46379606065749,
47,200,50,200,two,200,50,200,,,,,0,28,28,46,,,,,,,,,,,g,2.9983907000278123,383.89203260000795,None,383.89203260000795,None,386.94343889999436,None,386.94343889999436,None,386.94343889999436,None,388.92594879999524,389.4263484000112,388.92594879999524,389.4263484000112,388.92594879999524,389.4263484000112,386.94343889999436,None,389.4597006700118,None,389.4597006700118,None,389.4597006700118,None,0.027358270017430186,None,389.4597006700118,None,389.4597006700118,None,389.4597006700118,None,389.4597006700118,None,389.4597006700118,None,389.4597006700118,None,389.4587745000026,None,389.4587745000026,None,389.4587745000026,None,0.020528369990643114,0.5205283699906431,389.4587745000026,None,389.4587745000026,None,389.4587745000026,None,389.4587745000026,None,389.4587745000026,None,389.4587745000026,None,391.4251412000158,391.4251412000158,19.200000000000003,3.038,-1000,-1500,-1000,,,,,,,,,,,,,,,,,,,,,,,,,,,,,,,,,,,,,,,,,,,,,,,,,,,,,,,,,,,,,,,,,,,,,,,,,,,,,,,,,,,f,22,lipeijing,2022_Apr_11_1503,experiment3,2021.1.4,30.46379606065749,
14,0,50,0,one,0,50,0,,,,,0,29,29,13,,,,,,,,,,,l,4.005690299964044,394.5251368000172,None,394.5251368000172,None,398.5502722999663,None,398.5502722999663,None,398.5502722999663,None,400.50761500000954,401.02435510000214,400.50761500000954,401.02435510000214,400.50761500000954,401.02435510000214,398.5502722999663,None,401.05770737000273,None,401.05770737000273,None,401.05770737000273,None,0.025290169985964894,None,401.05770737000273,None,401.05770737000273,None,401.05770737000273,None,401.05770737000273,None,401.05770737000273,None,401.05770737000273,None,401.0564760999987,None,401.0564760999987,None,401.0564760999987,None,0.01731417002156377,0.5173141700215638,401.0564760999987,None,401.0564760999987,None,401.0564760999987,None,401.0564760999987,None,401.0564760999987,None,401.0564760999987,None,403.03423839999596,403.03423839999596,-6.899999999999999,2.736,-1000,-1450,-1000,,,,,,,,,,,,,,,,,,,,,,,,,,,,,,,,,,,,,,,,,,,,,,,,,,,,,,,,,,,,,,,,,,,,,,,,,,,,,,,,,,,f,22,lipeijing,2022_Apr_11_1503,experiment3,2021.1.4,30.46379606065749,
4,50,200,0,one,50,200,0,,,,,0,30,30,3,,,,,,,,,,,a,1.0687050000415184,405.82657560001826,None,405.82657560001826,None,406.95234429999255,None,406.95234429999255,None,406.95234429999255,None,408.93040770001244,409.4420637000003,408.93040770001244,409.4420637000003,408.93040770001244,409.4420637000003,406.95234429999255,None,409.4754159700009,None,409.4754159700009,None,409.4754159700009,None,0.025632170028984547,None,409.4754159700009,None,409.4754159700009,None,409.4754159700009,None,409.4754159700009,None,409.4754159700009,None,409.4754159700009,None,409.47246829996584,None,409.47246829996584,None,409.47246829996584,None,0.016773470037151128,0.5167734700371511,409.47246829996584,None,409.47246829996584,None,409.47246829996584,None,409.47246829996584,None,409.47246829996584,None,409.47246829996584,None,411.4550552999717,411.4550552999717,-9.0,2.084,-950,-1250,-1000,,,,,,,,,,,,,,,,,,,,,,,,,,,,,,,,,,,,,,,,,,,,,,,,,,,,,,,,,,,,,,,,,,,,,,,,,,,,,,,,,,,f,22,lipeijing,2022_Apr_11_1503,experiment3,2021.1.4,30.46379606065749,
20,0,50,0,two,0,50,0,,,,,0,31,31,19,,,,,,,,,,,g,2.944285099976696,413.60531680000713,None,413.60531680000713,None,416.58767109998735,None,416.58767109998735,None,416.58767109998735,None,418.55996250000317,419.0703505999991,418.55996250000317,419.0703505999991,418.55996250000317,419.0703505999991,416.58767109998735,None,419.10370286999967,None,419.10370286999967,None,419.10370286999967,None,0.02782896999269724,None,419.10370286999967,None,419.10370286999967,None,419.10370286999967,None,419.10370286999967,None,419.10370286999967,None,419.10370286999967,None,419.1089464999968,None,419.1089464999968,None,419.1089464999968,None,0.008284170005936176,0.5082841700059362,419.1089464999968,None,419.1089464999968,None,419.1089464999968,None,419.1089464999968,None,419.1089464999968,None,419.1089464999968,None,421.0865252999938,421.0865252999938,-9.600000000000001,1.484,-950,-1200,-1000,,,,,,,,,,,,,,,,,,,,,,,,,,,,,,,,,,,,,,,,,,,,,,,,,,,,,,,,,,,,,,,,,,,,,,,,,,,,,,,,,,,f,22,lipeijing,2022_Apr_11_1503,experiment3,2021.1.4,30.46379606065749,
42,50,200,200,one,50,200,200,,,,,0,32,32,41,,,,,,,,,,,g,4.808343400014564,422.6363722999813,None,422.6363722999813,None,427.48558959999355,None,427.48558959999355,None,427.48558959999355,None,429.45210270001553,None,429.45210270001553,None,429.45210270001553,None,427.48558959999355,None,429.98794276998376,None,429.98794276998376,None,429.98794276998376,None,0.024985169991850853,None,429.98794276998376,None,429.98794276998376,None,429.98794276998376,None,429.98794276998376,None,429.98794276998376,None,429.98794276998376,None,429.98656449996633,None,429.98656449996633,None,429.98656449996633,None,0.016221369965933263,0.5162213699659333,429.98656449996633,None,429.98656449996633,None,429.98656449996633,None,429.98656449996633,None,429.98656449996633,None,429.98656449996633,None,431.9685846999637,431.9685846999637,-13.100000000000001,2.299,-900,-1000,-800,,,,,,,,,,,,,,,,,,,,,,,,,,,,,,,,,,,,,,,,,,,,,,,,,,,,,,,,,,,,,,,,,,,,,,,,,,,,,,,,,,,f,22,lipeijing,2022_Apr_11_1503,experiment3,2021.1.4,30.46379606065749,
35,50,0,50,two,50,0,50,,,,,0,33,33,34,,,,,,,,,,,a,2.6705503999837674,434.3487827999634,None,434.3487827999634,None,437.0621211999678,None,437.0621211999678,None,437.0621211999678,None,439.02259469998535,439.5498283999623,439.02259469998535,439.5498283999623,439.02259469998535,439.5498283999623,437.0621211999678,None,439.58318066996287,None,439.58318066996287,None,439.58318066996287,None,0.027900469955056906,None,439.58318066996287,None,439.58318066996287,None,439.58318066996287,None,439.58318066996287,None,439.58318066996287,None,439.58318066996287,None,439.58750089997193,None,439.58750089997193,None,439.58750089997193,None,0.010160269972402602,0.5101602699724026,439.58750089997193,None,439.58750089997193,None,439.58750089997193,None,439.58750089997193,None,439.58750089997193,None,439.58750089997193,None,441.57200939999893,441.57200939999893,6.899999999999999,3.553,-850,-1000,-750,,,,,,,,,,,,,,,,,,,,,,,,,,,,,,,,,,,,,,,,,,,,,,,,,,,,,,,,,,,,,,,,,,,,,,,,,,,,,,,,,,,f,22,lipeijing,2022_Apr_11_1503,experiment3,2021.1.4,30.46379606065749,
62,0,-150,0,one,0,-150,0,,,,,0,34,34,61,,,,,,,,,,,l,4.4995943999965675,445.1845489999978,None,445.1845489999978,None,449.74825890001375,None,449.74825890001375,None,449.74825890001375,None,451.6965921999654,452.2158308000071,451.6965921999654,452.2158308000071,451.6965921999654,452.2158308000071,449.74825890001375,None,452.2491830700077,None,452.2491830700077,None,452.2491830700077,None,0.024483170069288462,None,452.2491830700077,None,452.2491830700077,None,452.2491830700077,None,452.2491830700077,None,452.2491830700077,None,452.2491830700077,None,452.2504995999625,None,452.2504995999625,None,452.2504995999625,None,0.014722270017955452,0.5147222700179555,452.2504995999625,None,452.2504995999625,None,452.2504995999625,None,452.2504995999625,None,452.2504995999625,None,452.2504995999625,None,454.2291039999691,454.2291039999691,6.399999999999999,1.536,-850,-1150,-750,,,,,,,,,,,,,,,,,,,,,,,,,,,,,,,,,,,,,,,,,,,,,,,,,,,,,,,,,,,,,,,,,,,,,,,,,,,,,,,,,,,f,22,lipeijing,2022_Apr_11_1503,experiment3,2021.1.4,30.46379606065749,
5,200,50,0,one,200,50,0,,,,,0,35,35,4,,,,,,,,,,,a,5.353247900027782,455.83134679996874,None,455.83134679996874,None,461.2287359999609,None,461.2287359999609,None,461.2287359999609,None,463.19517009996343,463.69510620000074,463.19517009996343,463.69510620000074,463.19517009996343,463.69510620000074,461.2287359999609,None,463.7284584700013,None,463.7284584700013,None,463.7284584700013,None,0.02587767003569752,None,463.7284584700013,None,463.7284584700013,None,463.7284584700013,None,463.7284584700013,None,463.7284584700013,None,463.7284584700013,None,463.7276421000133,None,463.7276421000133,None,463.7276421000133,None,0.01949486997909844,0.5194948699790984,463.7276421000133,None,463.7276421000133,None,463.7276421000133,None,463.7276421000133,None,463.7276421000133,None,463.7276421000133,None,465.69761789997574,465.69761789997574,38.900000000000006,1.742,-650,-1100,-750,,,,,,,,,,,,,,,,,,,,,,,,,,,,,,,,,,,,,,,,,,,,,,,,,,,,,,,,,,,,,,,,,,,,,,,,,,,,,,,,,,,f,22,lipeijing,2022_Apr_11_1503,experiment3,2021.1.4,30.46379606065749,
29,50,0,50,one,50,0,50,,,,,0,36,36,28,,,,,,,,,,,g,4.867151000013109,467.497952500009,None,467.497952500009,None,472.410059399961,None,472.410059399961,None,472.410059399961,None,474.37830719997874,None,474.37830719997874,None,474.37830719997874,None,472.410059399961,None,474.9095296700019,None,474.9095296700019,None,474.9095296700019,None,0.013320069992914796,None,474.9095296700019,None,474.9095296700019,None,474.9095296700019,None,474.9095296700019,None,474.9095296700019,None,474.9095296700019,None,474.92948549997527,None,474.92948549997527,None,474.92948549997527,None,0.028917139978148043,0.528917139978148,474.92948549997527,None,474.92948549997527,None,474.92948549997527,None,474.92948549997527,None,474.92948549997527,None,474.92948549997527,None,476.90930339996703,476.90930339996703,16.799999999999997,2.088,-600,-1100,-700,,,,,,,,,,,,,,,,,,,,,,,,,,,,,,,,,,,,,,,,,,,,,,,,,,,,,,,,,,,,,,,,,,,,,,,,,,,,,,,,,,,f,22,lipeijing,2022_Apr_11_1503,experiment3,2021.1.4,30.46379606065749,
36,50,50,0,two,50,50,0,,,,,0,37,37,35,,,,,,,,,,,l,4.395316999987699,479.05554249999113,None,479.05554249999113,None,483.4785123000038,None,483.4785123000038,None,483.4785123000038,None,485.4470779999974,485.95743369997945,485.4470779999974,485.95743369997945,485.4470779999974,485.95743369997945,483.4785123000038,None,485.99078596998004,None,485.99078596998004,None,485.99078596998004,None,0.02438277006149292,None,485.99078596998004,None,485.99078596998004,None,485.99078596998004,None,485.99078596998004,None,485.99078596998004,None,485.99078596998004,None,485.9895328999846,None,485.9895328999846,None,485.9895328999846,None,0.015624070016201586,0.5156240700162016,485.9895328999846,None,485.9895328999846,None,485.9895328999846,None,485.9895328999846,None,485.9895328999846,None,485.9895328999846,None,487.94622589997016,487.94622589997016,1.7000000000000028,8.507,-550,-1050,-700,,,,,,,,,,,,,,,,,,,,,,,,,,,,,,,,,,,,,,,,,,,,,,,,,,,,,,,,,,,,,,,,,,,,,,,,,,,,,,,,,,,f,22,lipeijing,2022_Apr_11_1503,experiment3,2021.1.4,30.46379606065749,
33,50,50,200,two,50,50,200,,,,,0,38,38,32,,,,,,,,,,,g,1.632433399965521,496.55385869997554,None,496.55385869997554,None,498.22148949996335,None,498.22148949996335,None,498.22148949996335,None,500.17136340000434,500.6866376000107,500.17136340000434,500.6866376000107,500.17136340000434,500.6866376000107,498.22148949996335,None,500.75326816997256,None,500.75326816997256,None,500.75326816997256,None,0.026195570011623204,None,500.75326816997256,None,500.75326816997256,None,500.75326816997256,None,500.75326816997256,None,500.75326816997256,None,500.75326816997256,None,500.7518585000071,None,500.7518585000071,None,500.7518585000071,None,0.019462569965980947,0.519462569965981,500.7518585000071,None,500.7518585000071,None,500.7518585000071,None,500.7518585000071,None,500.7518585000071,None,500.7518585000071,None,502.7206157000037,502.7206157000037,3.1000000000000014,1.668,-500,-1000,-500,,,,,,,,,,,,,,,,,,,,,,,,,,,,,,,,,,,,,,,,,,,,,,,,,,,,,,,,,,,,,,,,,,,,,,,,,,,,,,,,,,,f,22,lipeijing,2022_Apr_11_1503,experiment3,2021.1.4,30.46379606065749,
81,-150,-150,-200,two,-150,-150,-200,,,,,0,39,39,80,,,,,,,,,,,l,1.9416080000228249,504.45090990001336,None,504.45090990001336,None,506.4257245999761,None,506.4257245999761,None,506.4257245999761,None,508.3865411999868,508.8929339000024,508.3865411999868,508.8929339000024,508.3865411999868,508.8929339000024,506.4257245999761,None,508.926286170003,None,508.926286170003,None,508.926286170003,None,0.018196470045950264,None,508.926286170003,None,508.926286170003,None,508.926286170003,None,508.926286170003,None,508.926286170003,None,508.926286170003,None,508.9413768000086,None,508.9413768000086,None,508.9413768000086,None,0.00484027003403753,0.5048402700340375,508.9413768000086,None,508.9413768000086,None,508.9413768000086,None,508.9413768000086,None,508.9413768000086,None,508.9413768000086,None,510.9463653699844,None,-3.700000000000003,1.701,-650,-1150,-700,,,,,,,,,,,,,,,,,,,,,,,,,,,,,,,,,,,,,,,,,,,,,,,,,,,,,,,,,,,,,,,,,,,,,,,,,,,,,,,,,,,f,22,lipeijing,2022_Apr_11_1503,experiment3,2021.1.4,30.46379606065749,
25,200,50,50,one,200,50,50,,,,,0,40,40,24,,,,,,,,,,,g,3.918315300019458,512.6855635999818,None,512.6855635999818,None,516.6561804999947,None,516.6561804999947,None,516.6561804999947,None,518.6179090999649,519.1176088000066,518.6179090999649,519.1176088000066,518.6179090999649,519.1176088000066,516.6561804999947,None,519.183646469994,None,519.183646469994,None,519.183646469994,None,0.016883970005437732,None,519.183646469994,None,519.183646469994,None,519.183646469994,None,519.183646469994,None,519.183646469994,None,519.183646469994,None,519.1897153999889,None,519.1897153999889,None,519.1897153999889,None,0.008546470082364976,0.508546470082365,519.1897153999889,None,519.1897153999889,None,519.1897153999889,None,519.1897153999889,None,519.1897153999889,None,519.1897153999889,None,521.1886929000029,521.1886929000029,45.400000000000006,2.106,-450,-1100,-650,,,,,,,,,,,,,,,,,,,,,,,,,,,,,,,,,,,,,,,,,,,,,,,,,,,,,,,,,,,,,,,,,,,,,,,,,,,,,,,,,,,f,22,lipeijing,2022_Apr_11_1503,experiment3,2021.1.4,30.46379606065749,
17,0,200,0,one,0,200,0,,,,,0,41,41,16,,,,,,,,,,,g,3.24150429997826,523.3814872999792,None,523.3814872999792,None,526.6794162999722,None,526.6794162999722,None,526.6794162999722,None,528.6442983999732,529.1492766999872,528.6442983999732,529.1492766999872,528.6442983999732,529.1492766999872,526.6794162999722,None,529.1826289699878,None,529.1826289699878,None,529.1826289699878,None,0.025091469986364245,None,529.1826289699878,None,529.1826289699878,None,529.1826289699878,None,529.1826289699878,None,529.1826289699878,None,529.1826289699878,None,529.1816042999853,None,529.1816042999853,None,529.1816042999853,None,0.01864006998948753,0.5186400699894875,529.1816042999853,None,529.1816042999853,None,529.1816042999853,None,529.1816042999853,None,529.1816042999853,None,529.1816042999853,None,531.1568074999959,531.1568074999959,-11.600000000000001,1.655,-450,-900,-650,,,,,,,,,,,,,,,,,,,,,,,,,,,,,,,,,,,,,,,,,,,,,,,,,,,,,,,,,,,,,,,,,,,,,,,,,,,,,,,,,,,f,22,lipeijing,2022_Apr_11_1503,experiment3,2021.1.4,30.46379606065749,
57,-150,0,-200,two,-150,0,-200,,,,,0,42,42,56,,,,,,,,,,,l,2.2821856000227854,532.8988653999986,None,532.8988653999986,None,535.2143962999689,None,535.2143962999689,None,535.2143962999689,None,537.1639345000149,537.6582733999821,537.1639345000149,537.6582733999821,537.1639345000149,537.6582733999821,535.2143962999689,None,537.7294869699748,None,537.7294869699748,None,537.7294869699748,None,0.019708869978785515,None,537.7294869699748,None,537.7294869699748,None,537.7294869699748,None,537.7294869699748,None,537.7294869699748,None,537.7294869699748,None,537.7421137999627,None,537.7421137999627,None,537.7421137999627,None,0.0015394699876196682,0.5015394699876197,537.7421137999627,None,537.7421137999627,None,537.7421137999627,None,537.7421137999627,None,537.7421137999627,None,537.7421137999627,None,539.730222299986,539.730222299986,-15.299999999999997,1.469,-600,-900,-850,,,,,,,,,,,,,,,,,,,,,,,,,,,,,,,,,,,,,,,,,,,,,,,,,,,,,,,,,,,,,,,,,,,,,,,,,,,,,,,,,,,f,22,lipeijing,2022_Apr_11_1503,experiment3,2021.1.4,30.46379606065749,
79,-200,-150,-150,two,-200,-150,-150,,,,,0,43,43,78,,,,,,,,,,,a,4.195325799984857,541.2592426000047,None,541.2592426000047,None,545.4846762999659,None,545.4846762999659,None,545.4846762999659,None,547.4455033999984,547.9825003999867,547.4455033999984,547.9825003999867,547.4455033999984,547.9825003999867,545.4846762999659,None,548.0158526699873,None,548.0158526699873,None,548.0158526699873,None,0.0012355700018815696,None,548.0158526699873,None,548.0158526699873,None,548.0158526699873,None,548.0158526699873,None,548.0158526699873,None,548.0158526699873,None,548.0453933000099,None,548.0453933000099,None,548.0453933000099,None,0.023572939971927553,0.5235729399719276,548.0453933000099,None,548.0453933000099,None,548.0453933000099,None,548.0453933000099,None,548.0453933000099,None,548.0453933000099,None,550.0284078000113,550.0284078000113,-12.299999999999997,2.373,-800,-1050,-1000,,,,,,,,,,,,,,,,,,,,,,,,,,,,,,,,,,,,,,,,,,,,,,,,,,,,,,,,,,,,,,,,,,,,,,,,,,,,,,,,,,,f,22,lipeijing,2022_Apr_11_1503,experiment3,2021.1.4,30.46379606065749,
27,50,50,200,one,50,50,200,,,,,0,44,44,26,,,,,,,,,,,l,1.3765108999796212,552.4577348000021,None,552.4577348000021,None,553.8893872000044,None,553.8893872000044,None,553.8893872000044,None,555.8437665000092,556.349604499992,555.8437665000092,556.349604499992,555.8437665000092,556.349604499992,553.8893872000044,None,556.4294301699614,None,556.4294301699614,None,556.4294301699614,None,0.009713670006021857,None,556.4294301699614,None,556.4294301699614,None,556.4294301699614,None,556.4294301699614,None,556.4294301699614,None,556.4294301699614,None,556.4461068999954,None,556.4461068999954,None,556.4461068999954,None,0.032595639931969345,0.5325956399319693,556.4461068999954,None,556.4461068999954,None,556.4461068999954,None,556.4461068999954,None,556.4461068999954,None,556.4461068999954,None,558.4100592000177,558.4100592000177,0.20000000000000284,2.663,-750,-1000,-800,,,,,,,,,,,,,,,,,,,,,,,,,,,,,,,,,,,,,,,,,,,,,,,,,,,,,,,,,,,,,,,,,,,,,,,,,,,,,,,,,,,f,22,lipeijing,2022_Apr_11_1503,experiment3,2021.1.4,30.46379606065749,
96,-150,-200,-200,two,-150,-200,-200,,,,,0,45,45,95,,,,,,,,,,,l,3.5170168000040576,561.2261569999973,None,561.2261569999973,None,564.7662695000181,None,564.7662695000181,None,564.7662695000181,None,566.7545742999646,None,566.7545742999646,None,566.7545742999646,None,564.7662695000181,None,567.2751534699695,None,567.2751534699695,None,567.2751534699695,None,0.02536656998563558,None,567.2751534699695,None,567.2751534699695,None,567.2751534699695,None,567.2751534699695,None,567.2751534699695,None,567.2751534699695,None,567.274410700018,None,567.274410700018,None,567.274410700018,None,0.0179362699855119,0.5179362699855119,567.274410700018,None,567.274410700018,None,567.274410700018,None,567.274410700018,None,567.274410700018,None,567.274410700018,None,569.241073400015,569.241073400015,4.5,2.267,-900,-1200,-1000,,,,,,,,,,,,,,,,,,,,,,,,,,,,,,,,,,,,,,,,,,,,,,,,,,,,,,,,,,,,,,,,,,,,,,,,,,,,,,,,,,,f,22,lipeijing,2022_Apr_11_1503,experiment3,2021.1.4,30.46379606065749,
53,-200,-150,0,one,-200,-150,0,,,,,0,46,46,52,,,,,,,,,,,g,3.023135799972806,571.5746651999652,None,571.5746651999652,None,574.6406803000136,None,574.6406803000136,None,574.6406803000136,None,576.5897636999725,577.0918238000013,576.5897636999725,577.0918238000013,576.5897636999725,577.0918238000013,574.6406803000136,None,577.1571233700146,None,577.1571233700146,None,577.1571233700146,None,0.026555470016319305,None,577.1571233700146,None,577.1571233700146,None,577.1571233700146,None,577.1571233700146,None,577.1571233700146,None,577.1571233700146,None,577.1563364000176,None,577.1563364000176,None,577.1563364000176,None,0.018182670057285577,0.5181826700572856,577.1563364000176,None,577.1563364000176,None,577.1563364000176,None,577.1563364000176,None,577.1563364000176,None,577.1563364000176,None,579.1220862999908,579.1220862999908,-10.399999999999999,1.701,-1100,-1350,-1000,,,,,,,,,,,,,,,,,,,,,,,,,,,,,,,,,,,,,,,,,,,,,,,,,,,,,,,,,,,,,,,,,,,,,,,,,,,,,,,,,,,f,22,lipeijing,2022_Apr_11_1503,experiment3,2021.1.4,30.46379606065749,
18,200,0,0,one,200,0,0,,,,,0,47,47,17,,,,,,,,,,,a,2.694444599968847,580.9061989000184,None,580.9061989000184,None,583.6384682999924,None,583.6384682999924,None,583.6384682999924,None,585.564953299996,586.0770598999807,585.564953299996,586.0770598999807,585.564953299996,586.0770598999807,583.6384682999924,None,586.1379607699695,None,586.1379607699695,None,586.1379607699695,None,0.02517987001920119,None,586.1379607699695,None,586.1379607699695,None,586.1379607699695,None,586.1379607699695,None,586.1379607699695,None,586.1379607699695,None,586.1484483999666,None,586.1484483999666,None,586.1484483999666,None,0.014996470010373741,0.5149964700103737,586.1484483999666,None,586.1484483999666,None,586.1484483999666,None,586.1484483999666,None,586.1484483999666,None,586.1484483999666,None,588.1208592000185,588.1208592000185,39.2,1.775,-900,-1350,-1000,,,,,,,,,,,,,,,,,,,,,,,,,,,,,,,,,,,,,,,,,,,,,,,,,,,,,,,,,,,,,,,,,,,,,,,,,,,,,,,,,,,f,22,lipeijing,2022_Apr_11_1503,experiment3,2021.1.4,30.46379606065749,
19,0,0,50,two,0,0,50,,,,,0,48,48,18,,,,,,,,,,,a,2.3680004000198096,589.9545833999873,None,589.9545833999873,None,592.3900487999781,None,592.3900487999781,None,592.3900487999781,None,594.3446724999812,594.8695174999884,594.3446724999812,594.8695174999884,594.3446724999812,594.8695174999884,592.3900487999781,None,594.902869769989,None,594.902869769989,None,594.902869769989,None,0.027524069999344647,None,594.902869769989,None,594.902869769989,None,594.902869769989,None,594.902869769989,None,594.902869769989,None,594.902869769989,None,594.9018493999611,None,594.9018493999611,None,594.9018493999611,None,0.020689670054707676,0.5206896700547077,594.9018493999611,None,594.9018493999611,None,594.9018493999611,None,594.9018493999611,None,594.9018493999611,None,594.9018493999611,None,596.8973561999737,596.8973561999737,-1.8999999999999986,1.758,-900,-1350,-950,,,,,,,,,,,,,,,,,,,,,,,,,,,,,,,,,,,,,,,,,,,,,,,,,,,,,,,,,,,,,,,,,,,,,,,,,,,,,,,,,,,f,22,lipeijing,2022_Apr_11_1503,experiment3,2021.1.4,30.46379606065749,
75,-150,-150,-200,one,-150,-150,-200,,,,,0,49,49,74,,,,,,,,,,,g,1.1800320000038482,598.7311442999635,None,598.7311442999635,None,599.9583657999756,None,599.9583657999756,None,599.9583657999756,None,601.9183269999921,602.4180956999771,601.9183269999921,602.4180956999771,601.9183269999921,602.4180956999771,599.9583657999756,None,602.4848520699655,None,602.4848520699655,None,602.4848520699655,None,0.027478770003654063,None,602.4848520699655,None,602.4848520699655,None,602.4848520699655,None,602.4848520699655,None,602.4848520699655,None,602.4848520699655,None,602.4834835999645,None,602.4834835999645,None,602.4834835999645,None,0.020329370046965778,0.5203293700469658,602.4834835999645,None,602.4834835999645,None,602.4834835999645,None,602.4834835999645,None,602.4834835999645,None,602.4834835999645,None,604.4664380999748,604.4664380999748,-2.700000000000003,3.784,-1050,-1500,-1150,,,,,,,,,,,,,,,,,,,,,,,,,,,,,,,,,,,,,,,,,,,,,,,,,,,,,,,,,,,,,,,,,,,,,,,,,,,,,,,,,,,f,22,lipeijing,2022_Apr_11_1503,experiment3,2021.1.4,30.46379606065749,
11,200,50,0,two,200,50,0,,,,,0,50,50,10,,,,,,,,,,,g,3.246747300028801,608.3054323999677,None,608.3054323999677,None,611.5829739000183,None,611.5829739000183,None,611.5829739000183,None,613.5492419999791,614.0489810999716,613.5492419999791,614.0489810999716,613.5492419999791,614.0489810999716,611.5829739000183,None,614.0823333699722,None,614.0823333699722,None,614.0823333699722,None,0.021226270007900894,None,614.0823333699722,None,614.0823333699722,None,614.0823333699722,None,614.0823333699722,None,614.0823333699722,None,614.0823333699722,None,614.0841092999908,None,614.0841092999908,None,614.0841092999908,None,0.013125969970133156,0.5131259699701332,614.0841092999908,None,614.0841092999908,None,614.0841092999908,None,614.0841092999908,None,614.0841092999908,None,614.0841092999908,None,616.0651834000018,616.0651834000018,36.900000000000006,1.854,-850,-1450,-1150,,,,,,,,,,,,,,,,,,,,,,,,,,,,,,,,,,,,,,,,,,,,,,,,,,,,,,,,,,,,,,,,,,,,,,,,,,,,,,,,,,,f,22,lipeijing,2022_Apr_11_1503,experiment3,2021.1.4,30.46379606065749,
32,50,200,50,two,50,200,50,,,,,0,51,51,31,,,,,,,,,,,g,3.6325155000085942,617.9763548999908,None,617.9763548999908,None,621.648177199997,None,621.648177199997,None,621.648177199997,None,623.5972527000122,624.1127424999722,623.5972527000122,624.1127424999722,623.5972527000122,624.1127424999722,621.648177199997,None,624.1805050699971,None,624.1805050699971,None,624.1805050699971,None,0.027630969998426735,None,624.1805050699971,None,624.1805050699971,None,624.1805050699971,None,624.1805050699971,None,624.1805050699971,None,624.1805050699971,None,624.1795617999742,None,624.1795617999742,None,624.1795617999742,None,0.02029176999349147,0.5202917699934915,624.1795617999742,None,624.1795617999742,None,624.1795617999742,None,624.1795617999742,None,624.1795617999742,None,624.1795617999742,None,626.1637951000012,626.1637951000012,-2.3999999999999986,2.336,-800,-1250,-1100,,,,,,,,,,,,,,,,,,,,,,,,,,,,,,,,,,,,,,,,,,,,,,,,,,,,,,,,,,,,,,,,,,,,,,,,,,,,,,,,,,,f,22,lipeijing,2022_Apr_11_1503,experiment3,2021.1.4,30.46379606065749,
44,200,0,200,two,200,0,200,,,,,0,52,52,43,,,,,,,,,,,l,4.374132200027816,628.5636296999874,None,628.5636296999874,None,632.9876971999765,None,632.9876971999765,None,632.9876971999765,None,634.9453694999684,635.4449096000171,634.9453694999684,635.4449096000171,634.9453694999684,635.4449096000171,632.9876971999765,None,635.5121266699629,None,635.5121266699629,None,635.5121266699629,None,0.02751497004646808,None,635.5121266699629,None,635.5121266699629,None,635.5121266699629,None,635.5121266699629,None,635.5121266699629,None,635.5121266699629,None,635.511155300017,None,635.511155300017,None,635.511155300017,None,0.020106470037717372,0.5201064700377174,635.511155300017,None,635.511155300017,None,635.511155300017,None,635.511155300017,None,635.511155300017,None,635.511155300017,None,637.494836799975,637.494836799975,42.8,1.513,-600,-1250,-900,,,,,,,,,,,,,,,,,,,,,,,,,,,,,,,,,,,,,,,,,,,,,,,,,,,,,,,,,,,,,,,,,,,,,,,,,,,,,,,,,,,f,22,lipeijing,2022_Apr_11_1503,experiment3,2021.1.4,30.46379606065749,
56,0,-200,-150,two,0,-200,-150,,,,,0,53,53,55,,,,,,,,,,,g,1.9630774999968708,639.078294100007,None,639.078294100007,None,641.0939348000102,None,641.0939348000102,None,641.0939348000102,None,643.0352249999996,643.5433268999914,643.0352249999996,643.5433268999914,643.0352249999996,643.5433268999914,641.0939348000102,None,643.610101870005,None,643.610101870005,None,643.610101870005,None,0.027615870058070868,None,643.610101870005,None,643.610101870005,None,643.610101870005,None,643.610101870005,None,643.610101870005,None,643.610101870005,None,643.6091781000141,None,643.6091781000141,None,643.6091781000141,None,0.01977057004114613,0.5197705700411461,643.6091781000141,None,643.6091781000141,None,643.6091781000141,None,643.6091781000141,None,643.6091781000141,None,643.6091781000141,None,645.5947844000184,645.5947844000184,15.0,2.47,-600,-1450,-1050,,,,,,,,,,,,,,,,,,,,,,,,,,,,,,,,,,,,,,,,,,,,,,,,,,,,,,,,,,,,,,,,,,,,,,,,,,,,,,,,,,,f,22,lipeijing,2022_Apr_11_1503,experiment3,2021.1.4,30.46379606065749,
93,0,-200,-200,two,0,-200,-200,,,,,0,54,54,92,,,,,,,,,,,l,1.890273299999535,648.1289962999872,None,648.1289962999872,None,650.0593166999752,None,650.0593166999752,None,650.0593166999752,None,652.0084849999985,652.5255442999769,652.0084849999985,652.5255442999769,652.0084849999985,652.5255442999769,650.0593166999752,None,652.5588965699775,None,652.5588965699775,None,652.5588965699775,None,0.017520270019304007,None,652.5588965699775,None,652.5588965699775,None,652.5588965699775,None,652.5588965699775,None,652.5588965699775,None,652.5588965699775,None,652.565030400001,None,652.565030400001,None,652.565030400001,None,0.007576969976071268,0.5075769699760713,652.565030400001,None,652.565030400001,None,652.565030400001,None,652.565030400001,None,652.565030400001,None,652.565030400001,None,654.542555299995,654.542555299995,11.799999999999997,1.58,-600,-1650,-1250,,,,,,,,,,,,,,,,,,,,,,,,,,,,,,,,,,,,,,,,,,,,,,,,,,,,,,,,,,,,,,,,,,,,,,,,,,,,,,,,,,,f,22,lipeijing,2022_Apr_11_1503,experiment3,2021.1.4,30.46379606065749,
37,200,200,0,one,200,200,0,,,,,0,55,55,36,,,,,,,,,,,l,3.1815178000251763,656.1739169000066,None,656.1739169000066,None,659.3801292999997,None,659.3801292999997,None,659.3801292999997,None,661.3565149999922,661.8520834000083,661.3565149999922,661.8520834000083,661.3565149999922,661.8520834000083,659.3801292999997,None,661.8854356700089,None,661.8854356700089,None,661.8854356700089,None,0.01893327006837353,None,661.8854356700089,None,661.8854356700089,None,661.8854356700089,None,661.8854356700089,None,661.8854356700089,None,661.8854356700089,None,661.9038798999973,None,661.9038798999973,None,661.9038798999973,None,0.003761070081964135,0.5037610700819641,661.9038798999973,None,661.9038798999973,None,661.9038798999973,None,661.9038798999973,None,661.9038798999973,None,661.9038798999973,None,663.906189370004,None,6.100000000000001,1.345,-400,-1450,-1250,,,,,,,,,,,,,,,,,,,,,,,,,,,,,,,,,,,,,,,,,,,,,,,,,,,,,,,,,,,,,,,,,,,,,,,,,,,,,,,,,,,f,22,lipeijing,2022_Apr_11_1503,experiment3,2021.1.4,30.46379606065749,
66,-200,0,0,one,-200,0,0,,,,,0,56,56,65,,,,,,,,,,,l,5.096895400027279,665.3065590999904,None,665.3065590999904,None,670.4547887999797,None,670.4547887999797,None,670.4547887999797,None,672.3957124999724,672.921021200018,672.3957124999724,672.921021200018,672.3957124999724,672.921021200018,670.4547887999797,None,672.9543734700186,None,672.9543734700186,None,672.9543734700186,None,0.02575647010235116,None,672.9543734700186,None,672.9543734700186,None,672.9543734700186,None,672.9543734700186,None,672.9543734700186,None,672.9543734700186,None,672.9534138999879,None,672.9534138999879,None,672.9534138999879,None,0.018609370104968548,0.5186093701049685,672.9534138999879,None,672.9534138999879,None,672.9534138999879,None,672.9534138999879,None,672.9534138999879,None,672.9534138999879,None,674.921623400005,674.921623400005,-16.9,3.916,-600,-1450,-1250,,,,,,,,,,,,,,,,,,,,,,,,,,,,,,,,,,,,,,,,,,,,,,,,,,,,,,,,,,,,,,,,,,,,,,,,,,,,,,,,,,,f,22,lipeijing,2022_Apr_11_1503,experiment3,2021.1.4,30.46379606065749,
34,0,50,50,two,0,50,50,,,,,0,57,57,33,,,,,,,,,,,g,1.4133599000051618,678.9016828999738,None,678.9016828999738,None,680.36988199997,None,680.36988199997,None,680.36988199997,None,682.3356523999828,682.8524822999607,682.3356523999828,682.8524822999607,682.3356523999828,682.8524822999607,680.36988199997,None,682.8858345699613,None,682.8858345699613,None,682.8858345699613,None,0.027094870049040765,None,682.8858345699613,None,682.8858345699613,None,682.8858345699613,None,682.8858345699613,None,682.8858345699613,None,682.8858345699613,None,682.884559499973,None,682.884559499973,None,682.884559499973,None,0.020965469942893833,0.5209654699428938,682.884559499973,None,682.884559499973,None,682.884559499973,None,682.884559499973,None,682.884559499973,None,682.884559499973,None,684.8687340999604,684.8687340999604,-8.899999999999999,1.52,-600,-1400,-1200,,,,,,,,,,,,,,,,,,,,,,,,,,,,,,,,,,,,,,,,,,,,,,,,,,,,,,,,,,,,,,,,,,,,,,,,,,,,,,,,,,,f,22,lipeijing,2022_Apr_11_1503,experiment3,2021.1.4,30.46379606065749,
80,-150,-200,-150,two,-150,-200,-150,,,,,0,58,58,79,,,,,,,,,,,a,1.1335674000438303,686.4477007999667,None,686.4477007999667,None,687.6348415999673,None,687.6348415999673,None,687.6348415999673,None,689.6049979999661,690.1178899999941,689.6049979999661,690.1178899999941,689.6049979999661,690.1178899999941,687.6348415999673,None,690.1512422699947,None,690.1512422699947,None,690.1512422699947,None,0.027653269993606955,None,690.1512422699947,None,690.1512422699947,None,690.1512422699947,None,690.1512422699947,None,690.1512422699947,None,690.1512422699947,None,690.1505022000056,None,690.1505022000056,None,690.1505022000056,None,0.02057827007956803,0.520578270079568,690.1505022000056,None,690.1505022000056,None,690.1505022000056,None,690.1505022000056,None,690.1505022000056,None,690.1505022000056,None,692.1341638999875,692.1341638999875,4.700000000000003,4.265,-750,-1600,-1350,,,,,,,,,,,,,,,,,,,,,,,,,,,,,,,,,,,,,,,,,,,,,,,,,,,,,,,,,,,,,,,,,,,,,,,,,,,,,,,,,,,f,22,lipeijing,2022_Apr_11_1503,experiment3,2021.1.4,30.46379606065749,
43,200,200,0,two,200,200,0,,,,,0,59,59,42,,,,,,,,,,,g,2.28240480000386,696.452106599987,None,696.452106599987,None,698.7660610000021,None,698.7660610000021,None,698.7660610000021,None,700.7162371000159,701.247052599967,700.7162371000159,701.247052599967,700.7162371000159,701.247052599967,698.7660610000021,None,701.2804048699676,None,701.2804048699676,None,701.2804048699676,None,0.014084669994190335,None,701.2804048699676,None,701.2804048699676,None,701.2804048699676,None,701.2804048699676,None,701.2804048699676,None,701.2804048699676,None,701.3058197000064,None,701.3058197000064,None,701.3058197000064,None,0.027911940007470548,0.5279119400074705,701.3058197000064,None,701.3058197000064,None,701.3058197000064,None,701.3058197000064,None,701.3058197000064,None,701.3058197000064,None,703.2817889999715,703.2817889999715,2.5,4.479,-550,-1400,-1350,,,,,,,,,,,,,,,,,,,,,,,,,,,,,,,,,,,,,,,,,,,,,,,,,,,,,,,,,,,,,,,,,,,,,,,,,,,,,,,,,,,f,22,lipeijing,2022_Apr_11_1503,experiment3,2021.1.4,30.46379606065749,
12,200,0,50,two,200,0,50,,,,,0,60,60,11,,,,,,,,,,,l,3.8346289000473917,707.8183330000029,None,707.8183330000029,None,711.722578099987,None,711.722578099987,None,711.722578099987,None,713.6718782999669,714.168087899976,713.6718782999669,714.168087899976,713.6718782999669,714.168087899976,711.722578099987,None,714.2395654699998,None,714.2395654699998,None,714.2395654699998,None,0.01948876999085769,None,714.2395654699998,None,714.2395654699998,None,714.2395654699998,None,714.2395654699998,None,714.2395654699998,None,714.2395654699998,None,714.2610675999895,None,714.2610675999895,None,714.2610675999895,None,0.0047033700393512845,0.5047033700393513,714.2610675999895,None,714.2610675999895,None,714.2610675999895,None,714.2610675999895,None,714.2610675999895,None,714.2610675999895,None,716.245286499965,716.245286499965,16.200000000000003,1.714,-350,-1400,-1300,,,,,,,,,,,,,,,,,,,,,,,,,,,,,,,,,,,,,,,,,,,,,,,,,,,,,,,,,,,,,,,,,,,,,,,,,,,,,,,,,,,f,22,lipeijing,2022_Apr_11_1503,experiment3,2021.1.4,30.46379606065749,
67,0,0,-150,two,0,0,-150,,,,,0,61,61,66,,,,,,,,,,,g,4.9785059000132605,718.0326100999955,None,718.0326100999955,None,723.0460092999856,None,723.0460092999856,None,723.0460092999856,None,725.0111927000107,725.5299851999735,725.0111927000107,725.5299851999735,725.0111927000107,725.5299851999735,723.0460092999856,None,725.563337469974,None,725.563337469974,None,725.563337469974,None,0.008300570014398545,None,725.563337469974,None,725.563337469974,None,725.563337469974,None,725.563337469974,None,725.563337469974,None,725.563337469974,None,725.5782186000142,None,725.5782186000142,None,725.5782186000142,None,0.0005219699814915657,0.5005219699814916,725.5782186000142,None,725.5782186000142,None,725.5782186000142,None,725.5782186000142,None,725.5782186000142,None,725.5782186000142,None,727.5604067000095,727.5604067000095,4.200000000000003,1.982,-350,-1400,-1450,,,,,,,,,,,,,,,,,,,,,,,,,,,,,,,,,,,,,,,,,,,,,,,,,,,,,,,,,,,,,,,,,,,,,,,,,,,,,,,,,,,f,22,lipeijing,2022_Apr_11_1503,experiment3,2021.1.4,30.46379606065749,
28,0,50,50,one,0,50,50,,,,,0,62,62,27,,,,,,,,,,,l,3.0826439000084065,729.5973538999679,None,729.5973538999679,None,732.6984671999817,None,732.6984671999817,None,732.6984671999817,None,734.6590433999663,735.1616836999892,734.6590433999663,735.1616836999892,734.6590433999663,735.1616836999892,732.6984671999817,None,735.2253324700054,None,735.2253324700054,None,735.2253324700054,None,0.02741706999950111,None,735.2253324700054,None,735.2253324700054,None,735.2253324700054,None,735.2253324700054,None,735.2253324700054,None,735.2253324700054,None,735.2252191000152,None,735.2252191000152,None,735.2252191000152,None,0.020442070090211928,0.5204420700902119,735.2252191000152,None,735.2252191000152,None,735.2252191000152,None,735.2252191000152,None,735.2252191000152,None,735.2252191000152,None,737.2022918000002,737.2022918000002,-3.5,2.787,-350,-1350,-1400,,,,,,,,,,,,,,,,,,,,,,,,,,,,,,,,,,,,,,,,,,,,,,,,,,,,,,,,,,,,,,,,,,,,,,,,,,,,,,,,,,,f,22,lipeijing,2022_Apr_11_1503,experiment3,2021.1.4,30.46379606065749,
8,0,200,50,two,0,200,50,,,,,0,63,63,7,,,,,,,,,,,l,3.26337640004931,740.0476594999782,None,740.0476594999782,None,743.3577319000033,None,743.3577319000033,None,743.3577319000033,None,745.30712209997,745.8067828000057,745.30712209997,745.8067828000057,745.30712209997,745.8067828000057,743.3577319000033,None,745.8735718700103,None,745.8735718700103,None,745.8735718700103,None,0.02723757002968341,None,745.8735718700103,None,745.8735718700103,None,745.8735718700103,None,745.8735718700103,None,745.8735718700103,None,745.8735718700103,None,745.8728731999872,None,745.8728731999872,None,745.8728731999872,None,0.02006527001503855,0.5200652700150385,745.8728731999872,None,745.8728731999872,None,745.8728731999872,None,745.8728731999872,None,745.8728731999872,None,745.8728731999872,None,747.8398267999873,747.8398267999873,-19.3,2.334,-350,-1150,-1350,,,,,,,,,,,,,,,,,,,,,,,,,,,,,,,,,,,,,,,,,,,,,,,,,,,,,,,,,,,,,,,,,,,,,,,,,,,,,,,,,,,f,22,lipeijing,2022_Apr_11_1503,experiment3,2021.1.4,30.46379606065749,
3,50,0,200,one,50,0,200,,,,,0,64,64,2,,,,,,,,,,,a,1.5581797999911942,750.240473199985,None,750.240473199985,None,751.8389970000135,None,751.8389970000135,None,751.8389970000135,None,753.8054058999987,754.3382969999802,753.8054058999987,754.3382969999802,753.8054058999987,754.3382969999802,751.8389970000135,None,754.3716492699808,None,754.3716492699808,None,754.3716492699808,None,0.02746727003250271,None,754.3716492699808,None,754.3716492699808,None,754.3716492699808,None,754.3716492699808,None,754.3716492699808,None,754.3716492699808,None,754.3710101000033,None,754.3710101000033,None,754.3710101000033,None,0.02032166998833418,0.5203216699883342,754.3710101000033,None,754.3710101000033,None,754.3710101000033,None,754.3710101000033,None,754.3710101000033,None,754.3710101000033,None,756.3252979000099,756.3252979000099,11.200000000000003,2.022,-300,-1150,-1150,,,,,,,,,,,,,,,,,,,,,,,,,,,,,,,,,,,,,,,,,,,,,,,,,,,,,,,,,,,,,,,,,,,,,,,,,,,,,,,,,,,f,22,lipeijing,2022_Apr_11_1503,experiment3,2021.1.4,30.46379606065749,
52,-150,-200,0,one,-150,-200,0,,,,,0,65,65,51,,,,,,,,,,,a,1.817363700014539,758.4209115999984,None,758.4209115999984,None,760.2707398000057,None,760.2707398000057,None,760.2707398000057,None,762.2204205999733,762.7369978000061,762.2204205999733,762.7369978000061,762.2204205999733,762.7369978000061,760.2707398000057,None,762.7703500700067,None,762.7703500700067,None,762.7703500700067,None,0.025466070044785738,None,762.7703500700067,None,762.7703500700067,None,762.7703500700067,None,762.7703500700067,None,762.7703500700067,None,762.7703500700067,None,762.769307199982,None,762.769307199982,None,762.769307199982,None,0.01799997000489384,0.5179999700048938,762.769307199982,None,762.769307199982,None,762.769307199982,None,762.769307199982,None,762.769307199982,None,762.769307199982,None,764.7364146999898,764.7364146999898,-1.6000000000000014,4.444,-450,-1350,-1150,,,,,,,,,,,,,,,,,,,,,,,,,,,,,,,,,,,,,,,,,,,,,,,,,,,,,,,,,,,,,,,,,,,,,,,,,,,,,,,,,,,f,22,lipeijing,2022_Apr_11_1503,experiment3,2021.1.4,30.46379606065749,
15,50,0,0,one,50,0,0,,,,,0,66,66,14,,,,,,,,,,,l,3.238328100007493,769.236328399973,None,769.236328399973,None,772.5020112000057,None,772.5020112000057,None,772.5020112000057,None,774.4846421999973,None,774.4846421999973,None,774.4846421999973,None,772.5020112000057,None,775.0014631699654,None,775.0014631699654,None,775.0014631699654,None,0.026127169956453145,None,775.0014631699654,None,775.0014631699654,None,775.0014631699654,None,775.0014631699654,None,775.0014631699654,None,775.0014631699654,None,775.0001482999651,None,775.0001482999651,None,775.0001482999651,None,0.01980456995079294,0.5198045699507929,775.0001482999651,None,775.0001482999651,None,775.0001482999651,None,775.0001482999651,None,775.0001482999651,None,775.0001482999651,None,776.9841655999771,776.9841655999771,4.600000000000001,1.883,-400,-1350,-1150,,,,,,,,,,,,,,,,,,,,,,,,,,,,,,,,,,,,,,,,,,,,,,,,,,,,,,,,,,,,,,,,,,,,,,,,,,,,,,,,,,,f,22,lipeijing,2022_Apr_11_1503,experiment3,2021.1.4,30.46379606065749,
10,50,200,0,two,50,200,0,,,,,0,67,67,9,,,,,,,,,,,g,6.932692900008988,778.9191683999961,None,778.9191683999961,None,785.8934109999682,None,785.8934109999682,None,785.8934109999682,None,787.8492933000089,788.3650504999678,787.8492933000089,788.3650504999678,787.8492933000089,788.3650504999678,785.8934109999682,None,788.3984027699684,None,788.3984027699684,None,788.3984027699684,None,0.025924269983079284,None,788.3984027699684,None,788.3984027699684,None,788.3984027699684,None,788.3984027699684,None,788.3984027699684,None,788.3984027699684,None,788.3975787999807,None,788.3975787999807,None,788.3975787999807,None,0.019053869997151196,0.5190538699971512,788.3975787999807,None,788.3975787999807,None,788.3975787999807,None,788.3975787999807,None,788.3975787999807,None,788.3975787999807,None,790.3506715999683,790.3506715999683,-6.5,6.051,-350,-1150,-1150,,,,,,,,,,,,,,,,,,,,,,,,,,,,,,,,,,,,,,,,,,,,,,,,,,,,,,,,,,,,,,,,,,,,,,,,,,,,,,,,,,,f,22,lipeijing,2022_Apr_11_1503,experiment3,2021.1.4,30.46379606065749,
90,-150,-200,-200,one,-150,-200,-200,,,,,0,68,68,89,,,,,,,,,,,a,2.312188299954869,796.5305956999655,None,796.5305956999655,None,798.8973150000093,None,798.8973150000093,None,798.8973150000093,None,800.8809855,801.4040526999743,800.8809855,801.4040526999743,800.8809855,801.4040526999743,798.8973150000093,None,801.4374049699749,None,801.4374049699749,None,801.4374049699749,None,0.009020170022267848,None,801.4374049699749,None,801.4374049699749,None,801.4374049699749,None,801.4374049699749,None,801.4374049699749,None,801.4374049699749,None,801.4534778000088,None,801.4534778000088,None,801.4534778000088,None,0.03141604003030807,0.5314160400303081,801.4534778000088,None,801.4534778000088,None,801.4534778000088,None,801.4534778000088,None,801.4534778000088,None,801.4534778000088,None,803.3989068999654,803.3989068999654,-12.600000000000001,3.846,-500,-1350,-1350,,,,,,,,,,,,,,,,,,,,,,,,,,,,,,,,,,,,,,,,,,,,,,,,,,,,,,,,,,,,,,,,,,,,,,,,,,,,,,,,,,,f,22,lipeijing,2022_Apr_11_1503,experiment3,2021.1.4,30.46379606065749,
46,200,200,50,two,200,200,50,,,,,0,69,69,45,,,,,,,,,,,g,2.7746160000097007,807.331617799995,None,807.331617799995,None,810.1456061999779,None,810.1456061999779,None,810.1456061999779,None,812.1403463999741,None,812.1403463999741,None,812.1403463999741,None,810.1456061999779,None,812.6757780699758,None,812.6757780699758,None,812.6757780699758,None,0.02631167002255097,None,812.6757780699758,None,812.6757780699758,None,812.6757780699758,None,812.6757780699758,None,812.6757780699758,None,812.6757780699758,None,812.6747384999762,None,812.6747384999762,None,812.6747384999762,None,0.01944856997579336,0.5194485699757934,812.6747384999762,None,812.6747384999762,None,812.6747384999762,None,812.6747384999762,None,812.6747384999762,None,812.6747384999762,None,814.6438979000086,814.6438979000086,2.8999999999999986,1.68,-300,-1150,-1300,,,,,,,,,,,,,,,,,,,,,,,,,,,,,,,,,,,,,,,,,,,,,,,,,,,,,,,,,,,,,,,,,,,,,,,,,,,,,,,,,,,f,22,lipeijing,2022_Apr_11_1503,experiment3,2021.1.4,30.46379606065749,
69,-150,0,0,two,-150,0,0,,,,,0,70,70,68,,,,,,,,,,,l,4.239660700026434,816.3762075999985,None,816.3762075999985,None,820.675394299964,None,820.675394299964,None,820.675394299964,None,822.6417914999765,823.1752102000173,822.6417914999765,823.1752102000173,822.6417914999765,823.1752102000173,820.675394299964,None,823.2085624700179,None,823.2085624700179,None,823.2085624700179,None,0.025449170090723783,None,823.2085624700179,None,823.2085624700179,None,823.2085624700179,None,823.2085624700179,None,823.2085624700179,None,823.2085624700179,None,823.2285424000002,None,823.2285424000002,None,823.2285424000002,None,0.008293170074466616,0.5082931700744666,823.2285424000002,None,823.2285424000002,None,823.2285424000002,None,823.2285424000002,None,823.2285424000002,None,823.2285424000002,None,825.1964243999682,825.1964243999682,-14.200000000000003,1.804,-450,-1150,-1300,,,,,,,,,,,,,,,,,,,,,,,,,,,,,,,,,,,,,,,,,,,,,,,,,,,,,,,,,,,,,,,,,,,,,,,,,,,,,,,,,,,f,22,lipeijing,2022_Apr_11_1503,experiment3,2021.1.4,30.46379606065749,
30,50,50,0,one,50,50,0,,,,,0,71,71,29,,,,,,,,,,,l,2.535159799968824,827.0747563999612,None,827.0747563999612,None,829.6589862999972,None,829.6589862999972,None,829.6589862999972,None,831.6031529000029,832.1118968999945,831.6031529000029,832.1118968999945,831.6031529000029,832.1118968999945,829.6589862999972,None,832.1760224699741,None,832.1760224699741,None,832.1760224699741,None,0.02668036997783929,None,832.1760224699741,None,832.1760224699741,None,832.1760224699741,None,832.1760224699741,None,832.1760224699741,None,832.1760224699741,None,832.173259800009,None,832.173259800009,None,832.173259800009,None,0.017784070048946887,0.5177840700489469,832.173259800009,None,832.173259800009,None,832.173259800009,None,832.173259800009,None,832.173259800009,None,832.173259800009,None,834.139598299982,834.139598299982,-1.2999999999999972,3.239,-400,-1100,-1300,,,,,,,,,,,,,,,,,,,,,,,,,,,,,,,,,,,,,,,,,,,,,,,,,,,,,,,,,,,,,,,,,,,,,,,,,,,,,,,,,,,f,22,lipeijing,2022_Apr_11_1503,experiment3,2021.1.4,30.46379606065749,
87,0,-200,-200,one,0,-200,-200,,,,,0,72,72,86,,,,,,,,,,,l,1.3667721000383608,837.4402695000172,None,837.4402695000172,None,838.8553313000011,None,838.8553313000011,None,838.8553313000011,None,840.8273397000157,None,840.8273397000157,None,840.8273397000157,None,838.8553313000011,None,841.3548237699782,None,841.3548237699782,None,841.3548237699782,None,0.0252582699758932,None,841.3548237699782,None,841.3548237699782,None,841.3548237699782,None,841.3548237699782,None,841.3548237699782,None,841.3548237699782,None,841.353844999976,None,841.353844999976,None,841.353844999976,None,0.018351970065850765,0.5183519700658508,841.353844999976,None,841.353844999976,None,841.353844999976,None,841.353844999976,None,841.353844999976,None,841.353844999976,None,843.3264880999923,843.3264880999923,5.399999999999999,1.548,-400,-1300,-1500,,,,,,,,,,,,,,,,,,,,,,,,,,,,,,,,,,,,,,,,,,,,,,,,,,,,,,,,,,,,,,,,,,,,,,,,,,,,,,,,,,,f,22,lipeijing,2022_Apr_11_1503,experiment3,2021.1.4,30.46379606065749,
23,0,200,0,two,0,200,0,,,,,0,73,73,22,,,,,,,,,,,l,2.3174906999920495,844.9669842000003,None,844.9669842000003,None,847.3381020000088,None,847.3381020000088,None,847.3381020000088,None,849.3032979000127,849.8032282000058,849.3032979000127,849.8032282000058,849.3032979000127,849.8032282000058,847.3381020000088,None,849.8704153700149,None,849.8704153700149,None,849.8704153700149,None,0.02750467002624646,None,849.8704153700149,None,849.8704153700149,None,849.8704153700149,None,849.8704153700149,None,849.8704153700149,None,849.8704153700149,None,849.8691185999778,None,849.8691185999778,None,849.8691185999778,None,0.020442770095542073,0.5204427700955421,849.8691185999778,None,849.8691185999778,None,849.8691185999778,None,849.8691185999778,None,849.8691185999778,None,849.8691185999778,None,851.8605555999675,851.8605555999675,-18.1,1.728,-400,-1100,-1500,,,,,,,,,,,,,,,,,,,,,,,,,,,,,,,,,,,,,,,,,,,,,,,,,,,,,,,,,,,,,,,,,,,,,,,,,,,,,,,,,,,f,22,lipeijing,2022_Apr_11_1503,experiment3,2021.1.4,30.46379606065749,
22,0,0,200,two,0,0,200,,,,,0,74,74,21,,,,,,,,,,,l,2.264668099989649,853.6670790999779,None,853.6670790999779,None,856.0015333999763,None,856.0015333999763,None,856.0015333999763,None,857.9682996000047,858.4746425999911,857.9682996000047,858.4746425999911,857.9682996000047,858.4746425999911,856.0015333999763,None,858.5079948699916,None,858.5079948699916,None,858.5079948699916,None,0.01709757000207901,None,858.5079948699916,None,858.5079948699916,None,858.5079948699916,None,858.5079948699916,None,858.5079948699916,None,858.5079948699916,None,858.5166306999745,None,858.5166306999745,None,858.5166306999745,None,0.005942470044828951,0.505942470044829,858.5166306999745,None,858.5166306999745,None,858.5166306999745,None,858.5166306999745,None,858.5166306999745,None,858.5166306999745,None,860.5175820700009,None,-14.200000000000003,1.434,-400,-1100,-1300,,,,,,,,,,,,,,,,,,,,,,,,,,,,,,,,,,,,,,,,,,,,,,,,,,,,,,,,,,,,,,,,,,,,,,,,,,,,,,,,,,,f,22,lipeijing,2022_Apr_11_1503,experiment3,2021.1.4,30.46379606065749,
83,-150,0,-150,two,-150,0,-150,,,,,0,75,75,82,,,,,,,,,,,l,2.0402915999875404,861.9707280999864,None,861.9707280999864,None,864.0704876999953,None,864.0704876999953,None,864.0704876999953,None,866.033476600016,866.5331771000056,866.033476600016,866.5331771000056,866.033476600016,866.5331771000056,864.0704876999953,None,866.5997965699993,None,866.5997965699993,None,866.5997965699993,None,0.0273189700092189,None,866.5997965699993,None,866.5997965699993,None,866.5997965699993,None,866.5997965699993,None,866.5997965699993,None,866.5997965699993,None,866.598896600015,None,866.598896600015,None,866.598896600015,None,0.019962269987445325,0.5199622699874453,866.598896600015,None,866.598896600015,None,866.598896600015,None,866.598896600015,None,866.598896600015,None,866.598896600015,None,868.5828448999673,868.5828448999673,-13.799999999999997,1.633,-550,-1100,-1450,,,,,,,,,,,,,,,,,,,,,,,,,,,,,,,,,,,,,,,,,,,,,,,,,,,,,,,,,,,,,,,,,,,,,,,,,,,,,,,,,,,f,22,lipeijing,2022_Apr_11_1503,experiment3,2021.1.4,30.46379606065749,
64,0,0,-200,one,0,0,-200,,,,,0,76,76,63,,,,,,,,,,,g,2.6751268999651074,870.2837870999938,None,870.2837870999938,None,873.0046973999706,None,873.0046973999706,None,873.0046973999706,None,874.9653160999878,None,874.9653160999878,None,874.9653160999878,None,873.0046973999706,None,875.5048429699731,None,875.5048429699731,None,875.5048429699731,None,0.01432257000124082,None,875.5048429699731,None,875.5048429699731,None,875.5048429699731,None,875.5048429699731,None,875.5048429699731,None,875.5048429699731,None,875.5237153999624,None,875.5237153999624,None,875.5237153999624,None,0.032954239984974265,0.5329542399849743,875.5237153999624,None,875.5237153999624,None,875.5237153999624,None,875.5237153999624,None,875.5237153999624,None,875.5237153999624,None,877.4683842000086,877.4683842000086,-14.0,3.281,-550,-1100,-1650,,,,,,,,,,,,,,,,,,,,,,,,,,,,,,,,,,,,,,,,,,,,,,,,,,,,,,,,,,,,,,,,,,,,,,,,,,,,,,,,,,,f,22,lipeijing,2022_Apr_11_1503,experiment3,2021.1.4,30.46379606065749,
85,-200,-200,0,one,-200,-200,0,,,,,0,77,77,84,,,,,,,,,,,g,2.9311254000058398,880.851791299996,None,880.851791299996,None,883.8473808999988,None,883.8473808999988,None,883.8473808999988,None,885.7986807000125,886.2960309999762,885.7986807000125,886.2960309999762,885.7986807000125,886.2960309999762,883.8473808999988,None,886.3696967700147,None,886.3696967700147,None,886.3696967700147,None,0.01892747008241713,None,886.3696967700147,None,886.3696967700147,None,886.3696967700147,None,886.3696967700147,None,886.3696967700147,None,886.3696967700147,None,886.3902066000155,None,886.3902066000155,None,886.3902066000155,None,0.004141370067372918,0.5041413700673729,886.3902066000155,None,886.3902066000155,None,886.3902066000155,None,886.3902066000155,None,886.3902066000155,None,886.3902066000155,None,888.3622771999799,888.3622771999799,-11.299999999999997,1.567,-750,-1300,-1650,,,,,,,,,,,,,,,,,,,,,,,,,,,,,,,,,,,,,,,,,,,,,,,,,,,,,,,,,,,,,,,,,,,,,,,,,,,,,,,,,,,f,22,lipeijing,2022_Apr_11_1503,experiment3,2021.1.4,30.46379606065749,
26,50,200,50,one,50,200,50,,,,,0,78,78,25,,,,,,,,,,,g,3.753587900020648,889.9840659999754,None,889.9840659999754,None,893.7884028999833,None,893.7884028999833,None,893.7884028999833,None,895.7608456999878,896.2776423000032,895.7608456999878,896.2776423000032,895.7608456999878,896.2776423000032,893.7884028999833,None,896.3109945700038,None,896.3109945700038,None,896.3109945700038,None,0.027696370088960975,None,896.3109945700038,None,896.3109945700038,None,896.3109945700038,None,896.3109945700038,None,896.3109945700038,None,896.3109945700038,None,896.31041679997,None,896.31041679997,None,896.31041679997,None,0.020662070077378303,0.5206620700773783,896.31041679997,None,896.31041679997,None,896.31041679997,None,896.31041679997,None,896.31041679997,None,896.31041679997,None,898.2780372999841,898.2780372999841,-7.399999999999999,2.381,-700,-1100,-1600,,,,,,,,,,,,,,,,,,,,,,,,,,,,,,,,,,,,,,,,,,,,,,,,,,,,,,,,,,,,,,,,,,,,,,,,,,,,,,,,,,,f,22,lipeijing,2022_Apr_11_1503,experiment3,2021.1.4,30.46379606065749,
2,0,200,50,one,0,200,50,,,,,0,79,79,1,,,,,,,,,,,g,3.7350905999774113,900.7134910000023,None,900.7134910000023,None,904.4768506999826,None,904.4768506999826,None,904.4768506999826,None,906.4253617000068,906.9314843000029,906.4253617000068,906.9314843000029,906.4253617000068,906.9314843000029,904.4768506999826,None,907.0109898699797,None,907.0109898699797,None,907.0109898699797,None,0.02388767001684755,None,907.0109898699797,None,907.0109898699797,None,907.0109898699797,None,907.0109898699797,None,907.0109898699797,None,907.0109898699797,None,907.0127051000018,None,907.0127051000018,None,907.0127051000018,None,0.012664170062635094,0.5126641700626351,907.0127051000018,None,907.0127051000018,None,907.0127051000018,None,907.0127051000018,None,907.0127051000018,None,907.0127051000018,None,908.9747920999653,908.9747920999653,-18.8,1.606,-700,-900,-1550,,,,,,,,,,,,,,,,,,,,,,,,,,,,,,,,,,,,,,,,,,,,,,,,,,,,,,,,,,,,,,,,,,,,,,,,,,,,,,,,,,,f,22,lipeijing,2022_Apr_11_1503,experiment3,2021.1.4,30.46379606065749,
63,-150,0,0,one,-150,0,0,,,,,0,80,80,62,,,,,,,,,,,l,1.343123500002548,910.6623225999647,None,910.6623225999647,None,912.0577535000048,None,912.0577535000048,None,912.0577535000048,None,914.0245324000134,914.5239634999889,914.0245324000134,914.5239634999889,914.0245324000134,914.5239634999889,912.0577535000048,None,914.5573157699895,None,914.5573157699895,None,914.5573157699895,None,0.025562470080330968,None,914.5573157699895,None,914.5573157699895,None,914.5573157699895,None,914.5573157699895,None,914.5573157699895,None,914.5573157699895,None,914.5561839999864,None,914.5561839999864,None,914.5561839999864,None,0.01843697007279843,0.5184369700727984,914.5561839999864,None,914.5561839999864,None,914.5561839999864,None,914.5561839999864,None,914.5561839999864,None,914.5561839999864,None,916.5231743999757,916.5231743999757,-16.299999999999997,2.047,-850,-900,-1550,,,,,,,,,,,,,,,,,,,,,,,,,,,,,,,,,,,,,,,,,,,,,,,,,,,,,,,,,,,,,,,,,,,,,,,,,,,,,,,,,,,f,22,lipeijing,2022_Apr_11_1503,experiment3,2021.1.4,30.46379606065749,
72,-200,0,0,two,-200,0,0,,,,,0,81,81,71,,,,,,,,,,,l,0.9821921999682672,918.6265628999681,None,918.6265628999681,None,919.6733110999921,None,919.6733110999921,None,919.6733110999921,None,921.6392030999996,922.1424402999692,921.6392030999996,922.1424402999692,921.6392030999996,922.1424402999692,919.6733110999921,None,922.1757925699698,None,922.1757925699698,None,922.1757925699698,None,0.02501687000039965,None,922.1757925699698,None,922.1757925699698,None,922.1757925699698,None,922.1757925699698,None,922.1757925699698,None,922.1757925699698,None,922.1735413999995,None,922.1735413999995,None,922.1735413999995,None,0.016809169959742576,0.5168091699597426,922.1735413999995,None,922.1735413999995,None,922.1735413999995,None,922.1735413999995,None,922.1735413999995,None,922.1735413999995,None,924.1721673000138,924.1721673000138,-25.7,1.321,-1050,-900,-1550,,,,,,,,,,,,,,,,,,,,,,,,,,,,,,,,,,,,,,,,,,,,,,,,,,,,,,,,,,,,,,,,,,,,,,,,,,,,,,,,,,,f,22,lipeijing,2022_Apr_11_1503,experiment3,2021.1.4,30.46379606065749,
48,50,200,200,two,50,200,200,,,,,0,82,82,47,,,,,,,,,,,l,1.4959522999706678,925.5543658999959,None,925.5543658999959,None,927.0845910999924,None,927.0845910999924,None,927.0845910999924,None,929.0750562999747,None,929.0750562999747,None,929.0750562999747,None,927.0845910999924,None,929.5856619699974,None,929.5856619699974,None,929.5856619699974,None,0.016021170013118535,None,929.5856619699974,None,929.5856619699974,None,929.5856619699974,None,929.5856619699974,None,929.5856619699974,None,929.5856619699974,None,929.6126303999918,None,929.6126303999918,None,929.6126303999918,None,0.03164093993837014,0.5316409399383701,929.6126303999918,None,929.6126303999918,None,929.6126303999918,None,929.6126303999918,None,929.6126303999918,None,929.6126303999918,None,931.5718653000076,931.5718653000076,-16.700000000000003,1.442,-1000,-700,-1350,,,,,,,,,,,,,,,,,,,,,,,,,,,,,,,,,,,,,,,,,,,,,,,,,,,,,,,,,,,,,,,,,,,,,,,,,,,,,,,,,,,f,22,lipeijing,2022_Apr_11_1503,experiment3,2021.1.4,30.46379606065749,
76,0,-150,-150,one,0,-150,-150,,,,,0,83,83,75,,,,,,,,,,,l,1.2105565999518149,933.1013461999828,None,933.1013461999828,None,934.3889632999781,None,934.3889632999781,None,934.3889632999781,None,936.3317027000012,936.8487190000014,936.3317027000012,936.8487190000014,936.3317027000012,936.8487190000014,934.3889632999781,None,936.882071270002,None,936.882071270002,None,936.882071270002,None,0.02409807004733011,None,936.882071270002,None,936.882071270002,None,936.882071270002,None,936.882071270002,None,936.882071270002,None,936.882071270002,None,936.881129699992,None,936.881129699992,None,936.881129699992,None,0.015229570039082319,0.5152295700390823,936.881129699992,None,936.881129699992,None,936.881129699992,None,936.881129699992,None,936.881129699992,None,936.881129699992,None,938.8526640000055,938.8526640000055,-6.5,1.425,-1000,-850,-1500,,,,,,,,,,,,,,,,,,,,,,,,,,,,,,,,,,,,,,,,,,,,,,,,,,,,,,,,,,,,,,,,,,,,,,,,,,,,,,,,,,,f,22,lipeijing,2022_Apr_11_1503,experiment3,2021.1.4,30.46379606065749,
77,-150,0,-150,one,-150,0,-150,,,,,0,84,84,76,,,,,,,,,,,l,0.4380730999982916,940.3646614999743,None,940.3646614999743,None,940.8474908999633,None,940.8474908999633,None,940.8474908999633,None,942.8091752000037,943.3420944999671,942.8091752000037,943.3420944999671,942.8091752000037,943.3420944999671,940.8474908999633,None,943.3754467699677,None,943.3754467699677,None,943.3754467699677,None,0.017748570011463016,None,943.3754467699677,None,943.3754467699677,None,943.3754467699677,None,943.3754467699677,None,943.3754467699677,None,943.3754467699677,None,943.397129399993,None,943.397129399993,None,943.397129399993,None,0.002440770040266216,0.5024407700402662,943.397129399993,None,943.397129399993,None,943.397129399993,None,943.397129399993,None,943.397129399993,None,943.397129399993,None,945.3845333000063,945.3845333000063,-13.399999999999999,1.483,-1150,-850,-1650,,,,,,,,,,,,,,,,,,,,,,,,,,,,,,,,,,,,,,,,,,,,,,,,,,,,,,,,,,,,,,,,,,,,,,,,,,,,,,,,,,,f,22,lipeijing,2022_Apr_11_1503,experiment3,2021.1.4,30.46379606065749,
45,0,200,200,two,0,200,200,,,,,0,85,85,44,,,,,,,,,,,a,1.2613413999788463,946.9351603999967,None,946.9351603999967,None,948.2206296999939,None,948.2206296999939,None,948.2206296999939,None,950.1868867999874,950.7166470999946,950.1868867999874,950.7166470999946,950.1868867999874,950.7166470999946,948.2206296999939,None,950.7499993699952,None,950.7499993699952,None,950.7499993699952,None,0.027619570086244494,None,950.7499993699952,None,950.7499993699952,None,950.7499993699952,None,950.7499993699952,None,950.7499993699952,None,950.7499993699952,None,950.7492592000053,None,950.7492592000053,None,950.7492592000053,None,0.020294770074542612,0.5202947700745426,950.7492592000053,None,950.7492592000053,None,950.7492592000053,None,950.7492592000053,None,950.7492592000053,None,950.7492592000053,None,952.716416899988,952.716416899988,-16.299999999999997,1.31,-1150,-650,-1450,,,,,,,,,,,,,,,,,,,,,,,,,,,,,,,,,,,,,,,,,,,,,,,,,,,,,,,,,,,,,,,,,,,,,,,,,,,,,,,,,,,f,22,lipeijing,2022_Apr_11_1503,experiment3,2021.1.4,30.46379606065749,
6,200,0,50,one,200,0,50,,,,,0,86,86,5,,,,,,,,,,,l,1.27871550002601,954.1315355999977,None,954.1315355999977,None,955.4496374999871,None,955.4496374999871,None,955.4496374999871,None,957.3987611999619,957.9208281000028,957.3987611999619,957.9208281000028,957.3987611999619,957.9208281000028,955.4496374999871,None,957.9541803700034,None,957.9541803700034,None,957.9541803700034,None,0.019031770061701536,None,957.9541803700034,None,957.9541803700034,None,957.9541803700034,None,957.9541803700034,None,957.9541803700034,None,957.9541803700034,None,957.991421099985,None,957.991421099985,None,957.991421099985,None,0.02206994005246088,0.5220699400524609,957.991421099985,None,957.991421099985,None,957.991421099985,None,957.991421099985,None,957.991421099985,None,957.991421099985,None,959.964519399975,959.964519399975,27.5,1.639,-950,-650,-1400,,,,,,,,,,,,,,,,,,,,,,,,,,,,,,,,,,,,,,,,,,,,,,,,,,,,,,,,,,,,,,,,,,,,,,,,,,,,,,,,,,,f,22,lipeijing,2022_Apr_11_1503,experiment3,2021.1.4,30.46379606065749,
58,-150,-200,0,two,-150,-200,0,,,,,0,87,87,57,,,,,,,,,,,l,0.9004005000460893,961.6619148000027,None,961.6619148000027,None,962.6028607999906,None,962.6028607999906,None,962.6028607999906,None,964.5695401999983,965.0982310000109,964.5695401999983,965.0982310000109,964.5695401999983,965.0982310000109,962.6028607999906,None,965.1315832700114,None,965.1315832700114,None,965.1315832700114,None,0.02202687005046755,None,965.1315832700114,None,965.1315832700114,None,965.1315832700114,None,965.1315832700114,None,965.1315832700114,None,965.1315832700114,None,965.143865799997,None,965.143865799997,None,965.143865799997,None,0.001662170048803091,0.5016621700488031,965.143865799997,None,965.143865799997,None,965.143865799997,None,965.143865799997,None,965.143865799997,None,965.143865799997,None,967.1303271999932,967.1303271999932,-16.9,1.762,-1100,-850,-1400,,,,,,,,,,,,,,,,,,,,,,,,,,,,,,,,,,,,,,,,,,,,,,,,,,,,,,,,,,,,,,,,,,,,,,,,,,,,,,,,,,,f,22,lipeijing,2022_Apr_11_1503,experiment3,2021.1.4,30.46379606065749,
31,200,50,50,two,200,50,50,,,,,0,88,88,30,,,,,,,,,,,l,3.117940800031647,968.9635270999861,None,968.9635270999861,None,972.1460522999987,None,972.1460522999987,None,972.1460522999987,None,974.1123061999679,974.6133730000001,974.1123061999679,974.6133730000001,974.1123061999679,974.6133730000001,972.1460522999987,None,974.6467252700007,None,974.6467252700007,None,974.6467252700007,None,0.014240570017136633,None,974.6467252700007,None,974.6467252700007,None,974.6467252700007,None,974.6467252700007,None,974.6467252700007,None,974.6467252700007,None,974.655021100014,None,974.655021100014,None,974.655021100014,None,0.005838770011905581,0.5058387700119056,974.655021100014,None,974.655021100014,None,974.655021100014,None,974.655021100014,None,974.655021100014,None,974.655021100014,None,976.6448304000078,976.6448304000078,25.700000000000003,1.621,-900,-800,-1350,,,,,,,,,,,,,,,,,,,,,,,,,,,,,,,,,,,,,,,,,,,,,,,,,,,,,,,,,,,,,,,,,,,,,,,,,,,,,,,,,,,f,22,lipeijing,2022_Apr_11_1503,experiment3,2021.1.4,30.46379606065749,
16,0,0,200,one,0,0,200,,,,,0,89,89,15,,,,,,,,,,,l,2.9226835999870673,978.3242507000105,None,978.3242507000105,None,981.3095522999647,None,981.3095522999647,None,981.3095522999647,None,983.2693705999991,983.809706399974,983.2693705999991,983.809706399974,983.2693705999991,983.809706399974,981.3095522999647,None,983.8430586699745,None,983.8430586699745,None,983.8430586699745,None,0.02780197001993656,None,983.8430586699745,None,983.8430586699745,None,983.8430586699745,None,983.8430586699745,None,983.8430586699745,None,983.8430586699745,None,983.8431075999979,None,983.8431075999979,None,983.8431075999979,None,0.020612570049706846,0.5206125700497068,983.8431075999979,None,983.8431075999979,None,983.8431075999979,None,983.8431075999979,None,983.8431075999979,None,983.8431075999979,None,985.8267319999868,985.8267319999868,1.2000000000000028,2.694,-900,-800,-1150,,,,,,,,,,,,,,,,,,,,,,,,,,,,,,,,,,,,,,,,,,,,,,,,,,,,,,,,,,,,,,,,,,,,,,,,,,,,,,,,,,,f,22,lipeijing,2022_Apr_11_1503,experiment3,2021.1.4,30.46379606065749,
95,-200,-150,-200,two,-200,-150,-200,,,,,0,90,90,94,,,,,,,,,,,l,1.0499180000042543,988.5808917999966,None,988.5808917999966,None,989.6723627999891,None,989.6723627999891,None,989.6723627999891,None,991.625568599964,992.1323842999991,991.625568599964,992.1323842999991,991.625568599964,992.1323842999991,989.6723627999891,None,992.2155569700175,None,992.2155569700175,None,992.2155569700175,None,0.019270570075605065,None,992.2155569700175,None,992.2155569700175,None,992.2155569700175,None,992.2155569700175,None,992.2155569700175,None,992.2155569700175,None,992.2417093999684,None,992.2417093999684,None,992.2417093999684,None,0.026790940028149635,0.5267909400281496,992.2417093999684,None,992.2417093999684,None,992.2417093999684,None,992.2417093999684,None,992.2417093999684,None,992.2417093999684,None,994.2250704999897,994.2250704999897,-12.299999999999997,1.49,-1100,-950,-1350,,,,,,,,,,,,,,,,,,,,,,,,,,,,,,,,,,,,,,,,,,,,,,,,,,,,,,,,,,,,,,,,,,,,,,,,,,,,,,,,,,,f,22,lipeijing,2022_Apr_11_1503,experiment3,2021.1.4,30.46379606065749,
74,-150,-200,-150,one,-150,-200,-150,,,,,0,91,91,73,,,,,,,,,,,g,0.6828843999537639,995.772146000003,None,995.772146000003,None,996.508457799966,None,996.508457799966,None,996.508457799966,None,998.4577081999741,998.9573116999818,998.4577081999741,998.9573116999818,998.4577081999741,998.9573116999818,996.508457799966,None,999.0241704699932,None,999.0241704699932,None,999.0241704699932,None,0.027304170071147382,None,999.0241704699932,None,999.0241704699932,None,999.0241704699932,None,999.0241704699932,None,999.0241704699932,None,999.0241704699932,None,999.0231379999896,None,999.0231379999896,None,999.0231379999896,None,0.02007127006072551,0.5200712700607255,999.0231379999896,None,999.0231379999896,None,999.0231379999896,None,999.0231379999896,None,999.0231379999896,None,999.0231379999896,None,1000.9900583999697,1000.9900583999697,8.700000000000003,1.168,-1250,-1150,-1500,,,,,,,,,,,,,,,,,,,,,,,,,,,,,,,,,,,,,,,,,,,,,,,,,,,,,,,,,,,,,,,,,,,,,,,,,,,,,,,,,,,f,22,lipeijing,2022_Apr_11_1503,experiment3,2021.1.4,30.46379606065749,
82,0,-150,-150,two,0,-150,-150,,,,,0,92,92,81,,,,,,,,,,,g,0.6479943000013009,1002.2239442999708,None,1002.2239442999708,None,1002.9414335999754,None,1002.9414335999754,None,1002.9414335999754,None,1004.9213362999726,1005.4070338999736,1004.9213362999726,1005.4070338999736,1004.9213362999726,1005.4070338999736,1002.9414335999754,None,1005.4728244700003,None,1005.4728244700003,None,1005.4728244700003,None,0.027439769997727126,None,1005.4728244700003,None,1005.4728244700003,None,1005.4728244700003,None,1005.4728244700003,None,1005.4728244700003,None,1005.4728244700003,None,1005.4719912,None,1005.4719912,None,1005.4719912,None,0.019815669977106154,0.5198156699771062,1005.4719912,None,1005.4719912,None,1005.4719912,None,1005.4719912,None,1005.4719912,None,1005.4719912,None,1007.4390355999931,1007.4390355999931,6.600000000000001,1.584,-1250,-1300,-1650,,,,,,,,,,,,,,,,,,,,,,,,,,,,,,,,,,,,,,,,,,,,,,,,,,,,,,,,,,,,,,,,,,,,,,,,,,,,,,,,,,,f,22,lipeijing,2022_Apr_11_1503,experiment3,2021.1.4,30.46379606065749,
1,0,50,200,one,0,50,200,,,,,0,93,93,0,,,,,,,,,,,g,0.5760775999515317,1009.077438200009,None,1009.077438200009,None,1009.6844689999707,None,1009.6844689999707,None,1009.6844689999707,None,1011.6521713999682,1012.1549009999726,1011.6521713999682,1012.1549009999726,1011.6521713999682,1012.1549009999726,1009.6844689999707,None,1012.1882532699732,None,1012.1882532699732,None,1012.1882532699732,None,0.025950470007956028,None,1012.1882532699732,None,1012.1882532699732,None,1012.1882532699732,None,1012.1882532699732,None,1012.1882532699732,None,1012.1882532699732,None,1012.1874783000094,None,1012.1874783000094,None,1012.1874783000094,None,0.019479770038742572,0.5194797700387426,1012.1874783000094,None,1012.1874783000094,None,1012.1874783000094,None,1012.1874783000094,None,1012.1874783000094,None,1012.1874783000094,None,1014.1541956000146,1014.1541956000146,-9.0,2.049,-1250,-1250,-1450,,,,,,,,,,,,,,,,,,,,,,,,,,,,,,,,,,,,,,,,,,,,,,,,,,,,,,,,,,,,,,,,,,,,,,,,,,,,,,,,,,,f,22,lipeijing,2022_Apr_11_1503,experiment3,2021.1.4,30.46379606065749,
