trialNumber,mychoice,otherchoice,stay,skip,pointsWon,otherScore,unobtained,choicepos,pos_1,otherscore,allowedkeyresp,trials_2.thisRepN,trials_2.thisTrialN,trials_2.thisN,trials_2.thisIndex,trials.thisRepN,trials.thisTrialN,trials.thisN,trials.thisIndex,image_2.started,image_2.stopped,key_resp_2.keys,key_resp_2.rt,key_resp_2.started,key_resp_2.stopped,key_resp_6.keys,key_resp_6.rt,key_resp_6.started,key_resp_6.stopped,text.started,text.stopped,left_3.started,left_3.stopped,middle_3.started,middle_3.stopped,right_3.started,right_3.stopped,otherleft_1.started,otherleft_1.stopped,othermiddle_1.started,othermiddle_1.stopped,otherright_1.started,otherright_1.stopped,text_2.started,text_2.stopped,left_4.started,left_4.stopped,right_4.started,right_4.stopped,middle_4.started,middle_4.stopped,ISI_3.started,ISI_3.stopped,mypick.started,mypick.stopped,otherpick.started,otherpick.stopped,residal.started,residal.stopped,otherleft_5.started,otherleft_5.stopped,othermiddle_5.started,othermiddle_5.stopped,otherright_5.started,otherright_5.stopped,left_5.started,left_5.stopped,right_5.started,right_5.stopped,middle_5.started,middle_5.stopped,ISI_5.started,ISI_5.stopped,mypick_1.started,mypick_1.stopped,otherpick_1.started,otherpick_1.stopped,residal_1.started,residal_1.stopped,otherleft_6.started,otherleft_6.stopped,othermiddle_6.started,othermiddle_6.stopped,otherright_6.started,otherright_6.stopped,text_3.started,text_3.stopped,rating,ratingrt,totalScore,othertotalScore,unobtainedScore,image_4.started,image_4.stopped,key_resp_3.keys,key_resp_3.rt,key_resp_3.started,key_resp_3.stopped,image_5.started,image_5.stopped,key_resp.keys,key_resp.rt,key_resp.started,key_resp.stopped,otherleft_3.started,otherleft_3.stopped,othermiddle_3.started,othermiddle_3.stopped,otherright_3.started,otherright_3.stopped,text_4.started,text_4.stopped,ISI_2.started,ISI_2.stopped,key_resp_4.keys,key_resp_4.rt,key_resp_4.started,key_resp_4.stopped,otherleft_4.started,otherleft_4.stopped,othermiddle_4.started,othermiddle_4.stopped,otherright_4.started,otherright_4.stopped,text_5.started,text_5.stopped,left.started,left.stopped,right.started,right.stopped,middle.started,middle.stopped,ISI.started,ISI.stopped,mypick_3.started,mypick_3.stopped,otherpick_3.started,otherpick_3.stopped,residal_3.started,residal_3.stopped,otherleft.started,otherleft.stopped,othermiddle.started,othermiddle.stopped,otherright.started,otherright.stopped,right_2.started,right_2.stopped,middle_2.started,middle_2.stopped,left_2.started,left_2.stopped,ISI_4.started,ISI_4.stopped,mypick_4.started,mypick_4.stopped,otherpick_4.started,otherpick_4.stopped,residal_4.started,residal_4.stopped,otherleft_2.started,otherleft_2.stopped,othermiddle_2.started,othermiddle_2.stopped,otherright_2.started,otherright_2.stopped,text_6.started,text_6.stopped,image_3.started,image_3.stopped,key_resp_9.keys,key_resp_9.rt,key_resp_9.started,key_resp_9.stopped,gender,age,participant,date,expName,psychopyVersion,frameRate,
,,,,,,,,,,,,,,,,,,,,38.8952605999948,None,space,10.650451299996348,38.8952605999948,None,,,,,,,,,,,,,,,,,,,,,,,,,,,,,,,,,,,,,,,,,,,,,,,,,,,,,,,,,,,,,,,,,,,,,,,,,,,,,,,,,,,,,,,,,,,,,,,,,,,,,,,,,,,,,,,,,,,,,,,,,,,,,,,,,,,,,,,,,,,,,,,,,,,,,,f,22,liwenxuan,2022_Apr_09_0910,experiment3,2021.1.4,30.014094619586675,
40,200,200,50,one,200,200,50,,,,,0,0,0,39,,,,,,,,,,,g,5.23339660000056,49.67073050001636,None,49.67073050001636,None,54.94697889999952,None,54.94697889999952,None,54.94697889999952,None,56.93196950000129,None,56.93196950000129,None,56.93196950000129,None,54.94697889999952,None,57.46296712999756,None,57.46296712999756,None,57.46296712999756,None,0.006019230000674725,None,57.46296712999756,None,57.46296712999756,None,57.46296712999756,None,57.46296712999756,None,57.46296712999756,None,57.46296712999756,None,57.489163699996425,None,57.489163699996425,None,57.489163699996425,None,0.021456059941556305,0.5214560599415563,57.489163699996425,None,57.489163699996425,None,57.489163699996425,None,57.489163699996425,None,57.489163699996425,None,57.489163699996425,None,59.45589860001928,59.45589860001928,7.5,3.743,400,200,50,,,,,,,,,,,,,,,,,,,,,,,,,,,,,,,,,,,,,,,,,,,,,,,,,,,,,,,,,,,,,,,,,,,,,,,,,,,,,,,,,,,f,22,liwenxuan,2022_Apr_09_0910,experiment3,2021.1.4,30.014094619586675,
24,200,0,0,two,200,0,0,,,,,0,1,1,23,,,,,,,,,,,l,4.104014100012137,63.29589440001291,None,63.29589440001291,None,67.43259939999552,None,67.43259939999552,None,67.43259939999552,None,69.39571800001431,69.91088810001384,69.39571800001431,69.91088810001384,69.39571800001431,69.91088810001384,67.43259939999552,None,69.94424463001488,None,69.94424463001488,None,69.94424463001488,None,0.019198530004359782,None,69.94424463001488,None,69.94424463001488,None,69.94424463001488,None,69.94424463001488,None,69.94424463001488,None,69.94424463001488,None,69.94717780000065,None,69.94717780000065,None,69.94717780000065,None,0.011296429991489276,0.5112964299914893,69.94717780000065,None,69.94717780000065,None,69.94717780000065,None,69.94717780000065,None,69.94717780000065,None,69.94717780000065,None,71.9171336000145,71.9171336000145,7.799999999999997,2.913,600,200,50,,,,,,,,,,,,,,,,,,,,,,,,,,,,,,,,,,,,,,,,,,,,,,,,,,,,,,,,,,,,,,,,,,,,,,,,,,,,,,,,,,,f,22,liwenxuan,2022_Apr_09_0910,experiment3,2021.1.4,30.014094619586675,
9,50,0,200,two,50,0,200,,,,,0,2,2,8,,,,,,,,,,,g,3.2312016999931075,74.89387950001401,None,74.89387950001401,None,78.1777340999979,None,78.1777340999979,None,78.1777340999979,None,80.15079850002076,80.65894960000878,80.15079850002076,80.65894960000878,80.15079850002076,80.65894960000878,78.1777340999979,None,80.69230613000983,None,80.69230613000983,None,80.69230613000983,None,0.021835229970747605,None,80.69230613000983,None,80.69230613000983,None,80.69230613000983,None,80.69230613000983,None,80.69230613000983,None,80.69230613000983,None,80.69304390001344,None,80.69304390001344,None,80.69304390001344,None,0.013758630026131868,0.5137586300261319,80.69304390001344,None,80.69304390001344,None,80.69304390001344,None,80.69304390001344,None,80.69304390001344,None,80.69304390001344,None,82.67482489999384,82.67482489999384,2.299999999999997,2.549,650,200,250,,,,,,,,,,,,,,,,,,,,,,,,,,,,,,,,,,,,,,,,,,,,,,,,,,,,,,,,,,,,,,,,,,,,,,,,,,,,,,,,,,,f,22,liwenxuan,2022_Apr_09_0910,experiment3,2021.1.4,30.014094619586675,
20,0,50,0,two,0,50,0,,,,,0,3,3,19,,,,,,,,,,,l,2.774247599998489,85.27516180000384,None,85.27516180000384,None,88.0850643000158,None,88.0850643000158,None,88.0850643000158,None,90.03729249999742,90.544836999994,90.03729249999742,90.544836999994,90.03729249999742,90.544836999994,88.0850643000158,None,90.62746773001564,None,90.62746773001564,None,90.62746773001564,None,0.0089608300186228,None,90.62746773001564,None,90.62746773001564,None,90.62746773001564,None,90.62746773001564,None,90.62746773001564,None,90.62746773001564,None,90.64433629999985,None,90.64433629999985,None,90.64433629999985,None,0.032937260024482384,0.5329372600244824,90.64433629999985,None,90.64433629999985,None,90.64433629999985,None,90.64433629999985,None,90.64433629999985,None,90.64433629999985,None,92.62492060000659,92.62492060000659,2.0,2.368,650,250,250,,,,,,,,,,,,,,,,,,,,,,,,,,,,,,,,,,,,,,,,,,,,,,,,,,,,,,,,,,,,,,,,,,,,,,,,,,,,,,,,,,,f,22,liwenxuan,2022_Apr_09_0910,experiment3,2021.1.4,30.014094619586675,
57,-150,0,-200,two,-150,0,-200,,,,,0,4,4,56,,,,,,,,,,,a,2.2485111999849323,95.09537570000975,None,95.09537570000975,None,97.38148830001592,None,97.38148830001592,None,97.38148830001592,None,99.35522630001651,None,99.35522630001651,None,99.35522630001651,None,97.38148830001592,None,99.89381403000735,None,99.89381403000735,None,99.89381403000735,None,0.004095930024050176,None,99.89381403000735,None,99.89381403000735,None,99.89381403000735,None,99.89381403000735,None,99.89381403000735,None,99.89381403000735,None,99.91463509999448,None,99.91463509999448,None,99.91463509999448,None,0.02559775998815894,0.5255977599881589,99.91463509999448,None,99.91463509999448,None,99.91463509999448,None,99.91463509999448,None,99.91463509999448,None,99.91463509999448,None,101.88812109999708,101.88812109999708,2.200000000000003,2.137,500,250,50,,,,,,,,,,,,,,,,,,,,,,,,,,,,,,,,,,,,,,,,,,,,,,,,,,,,,,,,,,,,,,,,,,,,,,,,,,,,,,,,,,,f,22,liwenxuan,2022_Apr_09_0910,experiment3,2021.1.4,30.014094619586675,
7,0,50,200,two,0,50,200,,,,,0,5,5,6,,,,,,,,,,,g,2.5724770999804605,104.08448790002149,None,104.08448790002149,None,106.6923461999977,None,106.6923461999977,None,106.6923461999977,None,108.65408080001362,109.1613570000045,108.65408080001362,109.1613570000045,108.65408080001362,109.1613570000045,106.6923461999977,None,109.19471353000554,None,109.19471353000554,None,109.19471353000554,None,0.007458230014890432,None,109.19471353000554,None,109.19471353000554,None,109.19471353000554,None,109.19471353000554,None,109.19471353000554,None,109.19471353000554,None,109.21406840000418,None,109.21406840000418,None,109.21406840000418,None,0.028498159983428195,0.5284981599834282,109.21406840000418,None,109.21406840000418,None,109.21406840000418,None,109.21406840000418,None,109.21406840000418,None,109.21406840000418,None,111.16507400001865,111.16507400001865,-0.10000000000000142,3.772,500,300,250,,,,,,,,,,,,,,,,,,,,,,,,,,,,,,,,,,,,,,,,,,,,,,,,,,,,,,,,,,,,,,,,,,,,,,,,,,,,,,,,,,,f,22,liwenxuan,2022_Apr_09_0910,experiment3,2021.1.4,30.014094619586675,
3,50,0,200,one,50,0,200,,,,,0,6,6,2,,,,,,,,,,,a,4.396953699993901,115.05129970001872,None,115.05129970001872,None,119.50296040001558,None,119.50296040001558,None,119.50296040001558,None,121.45120380001026,121.96989880001638,121.45120380001026,121.96989880001638,121.45120380001026,121.96989880001638,119.50296040001558,None,122.00325533001742,None,122.00325533001742,None,122.00325533001742,None,0.021448430023156106,None,122.00325533001742,None,122.00325533001742,None,122.00325533001742,None,122.00325533001742,None,122.00325533001742,None,122.00325533001742,None,122.00606559999869,None,122.00606559999869,None,122.00606559999869,None,0.012884730007499456,0.5128847300074995,122.00606559999869,None,122.00606559999869,None,122.00606559999869,None,122.00606559999869,None,122.00606559999869,None,122.00606559999869,None,123.98421710002003,123.98421710002003,0.5,2.95,550,300,450,,,,,,,,,,,,,,,,,,,,,,,,,,,,,,,,,,,,,,,,,,,,,,,,,,,,,,,,,,,,,,,,,,,,,,,,,,,,,,,,,,,f,22,liwenxuan,2022_Apr_09_0910,experiment3,2021.1.4,30.014094619586675,
38,200,0,200,one,200,0,200,,,,,0,7,7,37,,,,,,,,,,,g,2.549070999986725,126.98921670002164,None,126.98921670002164,None,129.59570980002172,None,129.59570980002172,None,129.59570980002172,None,131.55235100002028,132.09178200000315,131.55235100002028,132.09178200000315,131.55235100002028,132.09178200000315,129.59570980002172,None,132.1251385300042,None,132.1251385300042,None,132.1251385300042,None,0.016188629990210757,None,132.1251385300042,None,132.1251385300042,None,132.1251385300042,None,132.1251385300042,None,132.1251385300042,None,132.1251385300042,None,132.14988090001862,None,132.14988090001862,None,132.14988090001862,None,0.031018559966469184,0.5310185599664692,132.14988090001862,None,132.14988090001862,None,132.14988090001862,None,132.14988090001862,None,132.14988090001862,None,132.14988090001862,None,134.1151652999979,134.1151652999979,7.399999999999999,3.923,750,300,650,,,,,,,,,,,,,,,,,,,,,,,,,,,,,,,,,,,,,,,,,,,,,,,,,,,,,,,,,,,,,,,,,,,,,,,,,,,,,,,,,,,f,22,liwenxuan,2022_Apr_09_0910,experiment3,2021.1.4,30.014094619586675,
45,0,200,200,two,0,200,200,,,,,0,8,8,44,,,,,,,,,,,l,2.9675148999958765,138.12809340000967,None,138.12809340000967,None,141.1291645000165,None,141.1291645000165,None,141.1291645000165,None,143.1058364000055,143.58923969999887,143.1058364000055,143.58923969999887,143.1058364000055,143.58923969999887,141.1291645000165,None,143.63506203001307,None,143.63506203001307,None,143.63506203001307,None,0.0257803300046362,None,143.63506203001307,None,143.63506203001307,None,143.63506203001307,None,143.63506203001307,None,143.63506203001307,None,143.63506203001307,None,143.63485780000337,None,143.63485780000337,None,143.63485780000337,None,0.01700443003210239,0.5170044300321024,143.63485780000337,None,143.63485780000337,None,143.63485780000337,None,143.63485780000337,None,143.63485780000337,None,143.63485780000337,None,145.60315969999647,145.60315969999647,-0.29999999999999716,3.333,750,500,850,,,,,,,,,,,,,,,,,,,,,,,,,,,,,,,,,,,,,,,,,,,,,,,,,,,,,,,,,,,,,,,,,,,,,,,,,,,,,,,,,,,f,22,liwenxuan,2022_Apr_09_0910,experiment3,2021.1.4,30.014094619586675,
60,-200,0,-150,two,-200,0,-150,,,,,0,9,9,59,,,,,,,,,,,g,3.220313600002555,149.0087043000094,None,149.0087043000094,None,152.25151890001143,None,152.25151890001143,None,152.25151890001143,None,154.200877700001,154.72810020000907,154.200877700001,154.72810020000907,154.200877700001,154.72810020000907,152.25151890001143,None,154.7614567300101,None,154.7614567300101,None,154.7614567300101,None,0.015261730033671483,None,154.7614567300101,None,154.7614567300101,None,154.7614567300101,None,154.7614567300101,None,154.7614567300101,None,154.7614567300101,None,154.7831294000207,None,154.7831294000207,None,154.7831294000207,None,0.00032513003679923713,0.5003251300367992,154.7831294000207,None,154.7831294000207,None,154.7831294000207,None,154.7831294000207,None,154.7831294000207,None,154.7831294000207,None,156.77768670002115,156.77768670002115,-3.5,2.499,550,500,700,,,,,,,,,,,,,,,,,,,,,,,,,,,,,,,,,,,,,,,,,,,,,,,,,,,,,,,,,,,,,,,,,,,,,,,,,,,,,,,,,,,f,22,liwenxuan,2022_Apr_09_0910,experiment3,2021.1.4,30.014094619586675,
10,50,200,0,two,50,200,0,,,,,0,10,10,9,,,,,,,,,,,a,3.0133242000010796,159.34423160000006,None,159.34423160000006,None,162.41770740001812,None,162.41770740001812,None,162.41770740001812,None,164.36905870001647,164.87616850002087,164.36905870001647,164.87616850002087,164.36905870001647,164.87616850002087,162.41770740001812,None,164.9428614300181,None,164.9428614300181,None,164.9428614300181,None,0.027523530035978183,None,164.9428614300181,None,164.9428614300181,None,164.9428614300181,None,164.9428614300181,None,164.9428614300181,None,164.9428614300181,None,164.94194170000264,None,164.94194170000264,None,164.94194170000264,None,0.020540730009088293,0.5205407300090883,164.94194170000264,None,164.94194170000264,None,164.94194170000264,None,164.94194170000264,None,164.94194170000264,None,164.94194170000264,None,166.89318700000877,166.89318700000877,7.899999999999999,2.001,600,700,700,,,,,,,,,,,,,,,,,,,,,,,,,,,,,,,,,,,,,,,,,,,,,,,,,,,,,,,,,,,,,,,,,,,,,,,,,,,,,,,,,,,f,22,liwenxuan,2022_Apr_09_0910,experiment3,2021.1.4,30.014094619586675,
68,0,-150,0,two,0,-150,0,,,,,0,11,11,67,,,,,,,,,,,g,4.00498259998858,168.9923320999951,None,168.9923320999951,None,173.0499783999985,None,173.0499783999985,None,173.0499783999985,None,175.01881010000943,175.52362809999613,175.01881010000943,175.52362809999613,175.01881010000943,175.52362809999613,173.0499783999985,None,175.55698462999717,None,175.55698462999717,None,175.55698462999717,None,0.02548673001001589,None,175.55698462999717,None,175.55698462999717,None,175.55698462999717,None,175.55698462999717,None,175.55698462999717,None,175.55698462999717,None,175.5567457000143,None,175.5567457000143,None,175.5567457000143,None,0.019045430002734065,0.5190454300027341,175.5567457000143,None,175.5567457000143,None,175.5567457000143,None,175.5567457000143,None,175.5567457000143,None,175.5567457000143,None,177.54398640000727,177.54398640000727,0.0,4.031,600,550,700,,,,,,,,,,,,,,,,,,,,,,,,,,,,,,,,,,,,,,,,,,,,,,,,,,,,,,,,,,,,,,,,,,,,,,,,,,,,,,,,,,,f,22,liwenxuan,2022_Apr_09_0910,experiment3,2021.1.4,30.014094619586675,
30,50,50,0,one,50,50,0,,,,,0,12,12,29,,,,,,,,,,,l,2.1464463000011165,181.640340700018,None,181.640340700018,None,183.82975520001492,None,183.82975520001492,None,183.82975520001492,None,185.80188250000356,186.30612079999992,185.80188250000356,186.30612079999992,185.80188250000356,186.30612079999992,183.82975520001492,None,186.33947733000096,None,186.33947733000096,None,186.33947733000096,None,0.027598829969065264,None,186.33947733000096,None,186.33947733000096,None,186.33947733000096,None,186.33947733000096,None,186.33947733000096,None,186.33947733000096,None,186.34327050001593,None,186.34327050001593,None,186.34327050001593,None,0.01835692996974103,0.518356929969741,186.34327050001593,None,186.34327050001593,None,186.34327050001593,None,186.34327050001593,None,186.34327050001593,None,186.34327050001593,None,188.30400790000567,188.30400790000567,4.5,2.486,650,600,700,,,,,,,,,,,,,,,,,,,,,,,,,,,,,,,,,,,,,,,,,,,,,,,,,,,,,,,,,,,,,,,,,,,,,,,,,,,,,,,,,,,f,22,liwenxuan,2022_Apr_09_0910,experiment3,2021.1.4,30.014094619586675,
43,200,200,0,two,200,200,0,,,,,0,13,13,42,,,,,,,,,,,g,3.830676300014602,190.8849928000127,None,190.8849928000127,None,194.74081620000652,None,194.74081620000652,None,194.74081620000652,None,196.72009489999618,197.24883480000426,196.72009489999618,197.24883480000426,196.72009489999618,197.24883480000426,194.74081620000652,None,197.2821913300053,None,197.2821913300053,None,197.2821913300053,None,0.010145330015802756,None,197.2821913300053,None,197.2821913300053,None,197.2821913300053,None,197.2821913300053,None,197.2821913300053,None,197.2821913300053,None,197.30145299999276,None,197.30145299999276,None,197.30145299999276,None,0.0008274300198536366,0.5008274300198536,197.30145299999276,None,197.30145299999276,None,197.30145299999276,None,197.30145299999276,None,197.30145299999276,None,197.30145299999276,None,199.2859143000096,199.2859143000096,16.0,2.446,850,800,700,,,,,,,,,,,,,,,,,,,,,,,,,,,,,,,,,,,,,,,,,,,,,,,,,,,,,,,,,,,,,,,,,,,,,,,,,,,,,,,,,,,f,22,liwenxuan,2022_Apr_09_0910,experiment3,2021.1.4,30.014094619586675,
48,50,200,200,two,50,200,200,,,,,0,14,14,47,,,,,,,,,,,a,2.4548016999906395,201.78588360000867,None,201.78588360000867,None,204.28950579999946,None,204.28950579999946,None,204.28950579999946,None,206.24255039999844,206.77656210001442,206.24255039999844,206.77656210001442,206.24255039999844,206.77656210001442,204.28950579999946,None,206.80991863001546,None,206.80991863001546,None,206.80991863001546,None,0.01456873002462089,None,206.80991863001546,None,206.80991863001546,None,206.80991863001546,None,206.80991863001546,None,206.80991863001546,None,206.80991863001546,None,206.82849179999903,None,206.82849179999903,None,206.82849179999903,None,0.03191665999474935,0.5319166599947494,206.82849179999903,None,206.82849179999903,None,206.82849179999903,None,206.82849179999903,None,206.82849179999903,None,206.82849179999903,None,208.7916763999965,208.7916763999965,6.899999999999999,3.611,900,1000,900,,,,,,,,,,,,,,,,,,,,,,,,,,,,,,,,,,,,,,,,,,,,,,,,,,,,,,,,,,,,,,,,,,,,,,,,,,,,,,,,,,,f,22,liwenxuan,2022_Apr_09_0910,experiment3,2021.1.4,30.014094619586675,
5,200,50,0,one,200,50,0,,,,,0,15,15,4,,,,,,,,,,,l,2.5374976999883074,212.48662939999485,None,212.48662939999485,None,215.06645640000352,None,215.06645640000352,None,215.06645640000352,None,217.0322989000124,217.56009090002044,217.0322989000124,217.56009090002044,217.0322989000124,217.56009090002044,215.06645640000352,None,217.59344743002148,None,217.59344743002148,None,217.59344743002148,None,0.0168326300336048,None,217.59344743002148,None,217.59344743002148,None,217.59344743002148,None,217.59344743002148,None,217.59344743002148,None,217.59344743002148,None,217.61948930000653,None,217.61948930000653,None,217.61948930000653,None,0.0007740300206933171,0.5007740300206933,217.61948930000653,None,217.61948930000653,None,217.61948930000653,None,217.61948930000653,None,217.61948930000653,None,217.61948930000653,None,219.62689023001295,None,13.700000000000003,2.391,1100,1050,900,,,,,,,,,,,,,,,,,,,,,,,,,,,,,,,,,,,,,,,,,,,,,,,,,,,,,,,,,,,,,,,,,,,,,,,,,,,,,,,,,,,f,22,liwenxuan,2022_Apr_09_0910,experiment3,2021.1.4,30.014094619586675,
54,-200,0,-150,one,-200,0,-150,,,,,0,16,16,53,,,,,,,,,,,l,2.700267900014296,222.06506280001486,None,222.06506280001486,None,224.81413780001458,None,224.81413780001458,None,224.81413780001458,None,226.78631080000196,227.28739020001376,226.78631080000196,227.28739020001376,226.78631080000196,227.28739020001376,224.81413780001458,None,227.3207467300148,None,227.3207467300148,None,227.3207467300148,None,0.02460083001642488,None,227.3207467300148,None,227.3207467300148,None,227.3207467300148,None,227.3207467300148,None,227.3207467300148,None,227.3207467300148,None,227.3192842999997,None,227.3192842999997,None,227.3192842999997,None,0.01603993002208881,0.5160399300220888,227.3192842999997,None,227.3192842999997,None,227.3192842999997,None,227.3192842999997,None,227.3192842999997,None,227.3192842999997,None,229.297043700004,229.297043700004,-4.600000000000001,4.659,900,1050,750,,,,,,,,,,,,,,,,,,,,,,,,,,,,,,,,,,,,,,,,,,,,,,,,,,,,,,,,,,,,,,,,,,,,,,,,,,,,,,,,,,,f,22,liwenxuan,2022_Apr_09_0910,experiment3,2021.1.4,30.014094619586675,
6,200,0,50,one,200,0,50,,,,,0,17,17,5,,,,,,,,,,,a,3.8142044999985956,234.034765599994,None,234.034765599994,None,237.87233750001178,None,237.87233750001178,None,237.87233750001178,None,239.86177479999606,None,239.86177479999606,None,239.86177479999606,None,237.87233750001178,None,240.38548533000576,None,240.38548533000576,None,240.38548533000576,None,0.018397730018477887,None,240.38548533000576,None,240.38548533000576,None,240.38548533000576,None,240.38548533000576,None,240.38548533000576,None,240.38548533000576,None,240.40714890000527,None,240.40714890000527,None,240.40714890000527,None,0.0019956300093326718,0.5019956300093327,240.40714890000527,None,240.40714890000527,None,240.40714890000527,None,240.40714890000527,None,240.40714890000527,None,240.40714890000527,None,242.36941740001203,242.36941740001203,14.099999999999994,5.069,1100,1050,800,,,,,,,,,,,,,,,,,,,,,,,,,,,,,,,,,,,,,,,,,,,,,,,,,,,,,,,,,,,,,,,,,,,,,,,,,,,,,,,,,,,f,22,liwenxuan,2022_Apr_09_0910,experiment3,2021.1.4,30.014094619586675,
11,200,50,0,two,200,50,0,,,,,0,18,18,10,,,,,,,,,,,g,2.6613689999794587,247.52284210000653,None,247.52284210000653,None,250.2258950000105,None,250.2258950000105,None,250.2258950000105,None,252.20478000000003,None,252.20478000000003,None,252.20478000000003,None,250.2258950000105,None,252.7255603300204,None,252.7255603300204,None,252.7255603300204,None,0.025532430037856102,None,252.7255603300204,None,252.7255603300204,None,252.7255603300204,None,252.7255603300204,None,252.7255603300204,None,252.7255603300204,None,252.7244699000148,None,252.7244699000148,None,252.7244699000148,None,0.01796173001639545,0.5179617300163954,252.7244699000148,None,252.7244699000148,None,252.7244699000148,None,252.7244699000148,None,252.7244699000148,None,252.7244699000148,None,254.71481510001468,254.71481510001468,17.0,3.766,1300,1100,800,,,,,,,,,,,,,,,,,,,,,,,,,,,,,,,,,,,,,,,,,,,,,,,,,,,,,,,,,,,,,,,,,,,,,,,,,,,,,,,,,,,f,22,liwenxuan,2022_Apr_09_0910,experiment3,2021.1.4,30.014094619586675,
71,0,-200,0,two,0,-200,0,,,,,0,19,19,70,,,,,,,,,,,l,3.5450028000050224,258.5804145000002,None,258.5804145000002,None,262.15530549999676,None,262.15530549999676,None,262.15530549999676,None,264.1401909000124,264.6441385000071,264.1401909000124,264.6441385000071,264.1401909000124,264.6441385000071,262.15530549999676,None,264.6774950300081,None,264.6774950300081,None,264.6774950300081,None,0.027121430030092597,None,264.6774950300081,None,264.6774950300081,None,264.6774950300081,None,264.6774950300081,None,264.6774950300081,None,264.6774950300081,None,264.67302780001773,None,264.67302780001773,None,264.67302780001773,None,0.018546230014180765,0.5185462300141808,264.67302780001773,None,264.67302780001773,None,264.67302780001773,None,264.67302780001773,None,264.67302780001773,None,264.67302780001773,None,266.6557987999986,266.6557987999986,-0.29999999999999716,4.648,1300,900,800,,,,,,,,,,,,,,,,,,,,,,,,,,,,,,,,,,,,,,,,,,,,,,,,,,,,,,,,,,,,,,,,,,,,,,,,,,,,,,,,,,,f,22,liwenxuan,2022_Apr_09_0910,experiment3,2021.1.4,30.014094619586675,
65,0,-200,0,one,0,-200,0,,,,,0,20,20,64,,,,,,,,,,,g,4.413318800012348,271.35883129999274,None,271.35883129999274,None,275.8047904999985,None,275.8047904999985,None,275.8047904999985,None,277.7875394000148,278.2873155999987,277.7875394000148,278.2873155999987,277.7875394000148,278.2873155999987,275.8047904999985,None,278.3206721299997,None,278.3206721299997,None,278.3206721299997,None,0.027926530019612983,None,278.3206721299997,None,278.3206721299997,None,278.3206721299997,None,278.3206721299997,None,278.3206721299997,None,278.3206721299997,None,278.31950949999737,None,278.31950949999737,None,278.31950949999737,None,0.021141529985470697,0.5211415299854707,278.31950949999737,None,278.31950949999737,None,278.31950949999737,None,278.31950949999737,None,278.31950949999737,None,278.31950949999737,None,280.3029295000015,280.3029295000015,0.0,2.928,1300,700,800,,,,,,,,,,,,,,,,,,,,,,,,,,,,,,,,,,,,,,,,,,,,,,,,,,,,,,,,,,,,,,,,,,,,,,,,,,,,,,,,,,,f,22,liwenxuan,2022_Apr_09_0910,experiment3,2021.1.4,30.014094619586675,
78,-150,-150,0,one,-150,-150,0,,,,,0,21,21,77,,,,,,,,,,,a,2.9958421000046656,283.32010770001216,None,283.32010770001216,None,286.36909029999515,None,286.36909029999515,None,286.36909029999515,None,288.3305141000019,288.8357241000049,288.3305141000019,288.8357241000049,288.3305141000019,288.8357241000049,286.36909029999515,None,288.8690806300059,None,288.8690806300059,None,288.8690806300059,None,0.02515312997275032,None,288.8690806300059,None,288.8690806300059,None,288.8690806300059,None,288.8690806300059,None,288.8690806300059,None,288.8690806300059,None,288.86742950000917,None,288.86742950000917,None,288.86742950000917,None,0.01796312999795191,0.5179631299979519,288.86742950000917,None,288.86742950000917,None,288.86742950000917,None,288.86742950000917,None,288.86742950000917,None,288.86742950000917,None,290.851848899998,290.851848899998,-7.399999999999999,3.512,1150,550,800,,,,,,,,,,,,,,,,,,,,,,,,,,,,,,,,,,,,,,,,,,,,,,,,,,,,,,,,,,,,,,,,,,,,,,,,,,,,,,,,,,,f,22,liwenxuan,2022_Apr_09_0910,experiment3,2021.1.4,30.014094619586675,
46,200,200,50,two,200,200,50,,,,,0,22,22,45,,,,,,,,,,,g,2.7463667999836616,294.4356040999992,None,294.4356040999992,None,297.2088972000056,None,297.2088972000056,None,297.2088972000056,None,299.1662516000215,299.68270720000146,299.1662516000215,299.68270720000146,299.1662516000215,299.68270720000146,297.2088972000056,None,299.7160637300025,None,299.7160637300025,None,299.7160637300025,None,0.025335030019050464,None,299.7160637300025,None,299.7160637300025,None,299.7160637300025,None,299.7160637300025,None,299.7160637300025,None,299.7160637300025,None,299.71543900002143,None,299.71543900002143,None,299.71543900002143,None,0.018001029995502904,0.5180010299955029,299.71543900002143,None,299.71543900002143,None,299.71543900002143,None,299.71543900002143,None,299.71543900002143,None,299.71543900002143,None,301.6988889000204,301.6988889000204,18.299999999999997,4.024,1350,750,850,,,,,,,,,,,,,,,,,,,,,,,,,,,,,,,,,,,,,,,,,,,,,,,,,,,,,,,,,,,,,,,,,,,,,,,,,,,,,,,,,,,f,22,liwenxuan,2022_Apr_09_0910,experiment3,2021.1.4,30.014094619586675,
44,200,0,200,two,200,0,200,,,,,0,23,23,43,,,,,,,,,,,a,2.2288651000126265,305.7784663000202,None,305.7784663000202,None,308.0532030000177,None,308.0532030000177,None,308.0532030000177,None,310.03225010001916,None,310.03225010001916,None,310.03225010001916,None,308.0532030000177,None,310.5645077300054,None,310.5645077300054,None,310.5645077300054,None,0.025385630025994033,None,310.5645077300054,None,310.5645077300054,None,310.5645077300054,None,310.5645077300054,None,310.5645077300054,None,310.5645077300054,None,310.5631534999993,None,310.5631534999993,None,310.5631534999993,None,0.018344629992498085,0.5183446299924981,310.5631534999993,None,310.5631534999993,None,310.5631534999993,None,310.5631534999993,None,310.5631534999993,None,310.5631534999993,None,312.5182149000175,312.5182149000175,0.0,2.669,1550,750,1050,,,,,,,,,,,,,,,,,,,,,,,,,,,,,,,,,,,,,,,,,,,,,,,,,,,,,,,,,,,,,,,,,,,,,,,,,,,,,,,,,,,f,22,liwenxuan,2022_Apr_09_0910,experiment3,2021.1.4,30.014094619586675,
67,0,0,-150,two,0,0,-150,,,,,0,24,24,66,,,,,,,,,,,g,2.0941050999972504,315.2718789000064,None,315.2718789000064,None,317.41325260000303,None,317.41325260000303,None,317.41325260000303,None,319.3682998000004,319.8717263000144,319.3682998000004,319.8717263000144,319.3682998000004,319.8717263000144,317.41325260000303,None,319.93632833001027,None,319.93632833001027,None,319.93632833001027,None,0.020744329987792298,None,319.93632833001027,None,319.93632833001027,None,319.93632833001027,None,319.93632833001027,None,319.93632833001027,None,319.93632833001027,None,319.94947730001877,None,319.94947730001877,None,319.94947730001877,None,0.007512830023188144,0.5075128300231881,319.94947730001877,None,319.94947730001877,None,319.94947730001877,None,319.94947730001877,None,319.94947730001877,None,319.94947730001877,None,321.9540265999967,321.9540265999967,10.399999999999999,3.22,1550,750,900,,,,,,,,,,,,,,,,,,,,,,,,,,,,,,,,,,,,,,,,,,,,,,,,,,,,,,,,,,,,,,,,,,,,,,,,,,,,,,,,,,,f,22,liwenxuan,2022_Apr_09_0910,experiment3,2021.1.4,30.014094619586675,
86,-200,0,-200,one,-200,0,-200,,,,,0,25,25,85,,,,,,,,,,,l,2.234995400009211,325.2483860999928,None,325.2483860999928,None,327.51572210001177,None,327.51572210001177,None,327.51572210001177,None,329.49417049999465,330.0190464000043,329.49417049999465,330.0190464000043,329.49417049999465,330.0190464000043,327.51572210001177,None,330.0524029300053,None,330.0524029300053,None,330.0524029300053,None,0.012183029990410432,None,330.0524029300053,None,330.0524029300053,None,330.0524029300053,None,330.0524029300053,None,330.0524029300053,None,330.0524029300053,None,330.070263600006,None,330.070263600006,None,330.070263600006,None,0.030971359985414892,0.5309713599854149,330.070263600006,None,330.070263600006,None,330.070263600006,None,330.070263600006,None,330.070263600006,None,330.070263600006,None,332.0268144000147,332.0268144000147,0.20000000000000284,2.723,1350,750,700,,,,,,,,,,,,,,,,,,,,,,,,,,,,,,,,,,,,,,,,,,,,,,,,,,,,,,,,,,,,,,,,,,,,,,,,,,,,,,,,,,,f,22,liwenxuan,2022_Apr_09_0910,experiment3,2021.1.4,30.014094619586675,
83,-150,0,-150,two,-150,0,-150,,,,,0,26,26,82,,,,,,,,,,,g,1.8282456000160892,334.8591843000031,None,334.8591843000031,None,336.7425574999943,None,336.7425574999943,None,336.7425574999943,None,338.72567290000734,339.2251491000061,338.72567290000734,339.2251491000061,338.72567290000734,339.2251491000061,336.7425574999943,None,339.2585056300071,None,339.2585056300071,None,339.2585056300071,None,0.019890430005034432,None,339.2585056300071,None,339.2585056300071,None,339.2585056300071,None,339.2585056300071,None,339.2585056300071,None,339.2585056300071,None,339.2755806000205,None,339.2755806000205,None,339.2755806000205,None,0.0007592299953103065,0.5007592299953103,339.2755806000205,None,339.2755806000205,None,339.2755806000205,None,339.2755806000205,None,339.2755806000205,None,339.2755806000205,None,341.2514929000172,341.2514929000172,0.5,2.929,1200,750,550,,,,,,,,,,,,,,,,,,,,,,,,,,,,,,,,,,,,,,,,,,,,,,,,,,,,,,,,,,,,,,,,,,,,,,,,,,,,,,,,,,,f,22,liwenxuan,2022_Apr_09_0910,experiment3,2021.1.4,30.014094619586675,
75,-150,-150,-200,one,-150,-150,-200,,,,,0,27,27,74,,,,,,,,,,,a,2.071292899985565,344.25820179999573,None,344.25820179999573,None,346.3672804000089,None,346.3672804000089,None,346.3672804000089,None,348.3484078000183,348.83879030001117,348.3484078000183,348.83879030001117,348.3484078000183,348.83879030001117,346.3672804000089,None,348.8721468300122,None,348.8721468300122,None,348.8721468300122,None,0.019289629999548197,None,348.8721468300122,None,348.8721468300122,None,348.8721468300122,None,348.8721468300122,None,348.8721468300122,None,348.8721468300122,None,348.88918399999966,None,348.88918399999966,None,348.88918399999966,None,0.0047872299910523,0.5047872299910523,348.88918399999966,None,348.88918399999966,None,348.88918399999966,None,348.88918399999966,None,348.88918399999966,None,348.88918399999966,None,350.85308190001524,350.85308190001524,-0.10000000000000142,2.343,1050,600,350,,,,,,,,,,,,,,,,,,,,,,,,,,,,,,,,,,,,,,,,,,,,,,,,,,,,,,,,,,,,,,,,,,,,,,,,,,,,,,,,,,,f,22,liwenxuan,2022_Apr_09_0910,experiment3,2021.1.4,30.014094619586675,
22,0,0,200,two,0,0,200,,,,,0,28,28,21,,,,,,,,,,,g,1.874187699984759,353.2902105000103,None,353.2902105000103,None,355.2052678000182,None,355.2052678000182,None,355.2052678000182,None,357.1397319000098,357.6424224000075,357.1397319000098,357.6424224000075,357.1397319000098,357.6424224000075,355.2052678000182,None,357.7049420300085,None,357.7049420300085,None,357.7049420300085,None,0.022429530014051124,None,357.7049420300085,None,357.7049420300085,None,357.7049420300085,None,357.7049420300085,None,357.7049420300085,None,357.7049420300085,None,357.71769429999404,None,357.71769429999404,None,357.71769429999404,None,0.00808963002054952,0.5080896300205495,357.71769429999404,None,357.71769429999404,None,357.71769429999404,None,357.71769429999404,None,357.71769429999404,None,357.71769429999404,None,359.7051650000212,359.7051650000212,-8.399999999999999,2.103,1050,600,550,,,,,,,,,,,,,,,,,,,,,,,,,,,,,,,,,,,,,,,,,,,,,,,,,,,,,,,,,,,,,,,,,,,,,,,,,,,,,,,,,,,f,22,liwenxuan,2022_Apr_09_0910,experiment3,2021.1.4,30.014094619586675,
89,-200,-150,-200,one,-200,-150,-200,,,,,0,29,29,88,,,,,,,,,,,g,2.7491909000091255,361.867539400002,None,361.867539400002,None,364.67148340001586,None,364.67148340001586,None,364.67148340001586,None,366.6394458000141,367.1232313000073,366.6394458000141,367.1232313000073,366.6394458000141,367.1232313000073,364.67148340001586,None,367.1944556300208,None,367.1944556300208,None,367.1944556300208,None,0.02014093002071604,None,367.1944556300208,None,367.1944556300208,None,367.1944556300208,None,367.1944556300208,None,367.1944556300208,None,367.1944556300208,None,367.20559230001527,None,367.20559230001527,None,367.20559230001527,None,0.0067260300274938345,0.5067260300274938,367.20559230001527,None,367.20559230001527,None,367.20559230001527,None,367.20559230001527,None,367.20559230001527,None,367.20559230001527,None,369.21849012999735,None,-0.7000000000000028,2.641,850,450,350,,,,,,,,,,,,,,,,,,,,,,,,,,,,,,,,,,,,,,,,,,,,,,,,,,,,,,,,,,,,,,,,,,,,,,,,,,,,,,,,,,,f,22,liwenxuan,2022_Apr_09_0910,experiment3,2021.1.4,30.014094619586675,
21,50,0,0,two,50,0,0,,,,,0,30,30,20,,,,,,,,,,,a,2.3920983000134584,371.88318180001806,None,371.88318180001806,None,374.31839940001373,None,374.31839940001373,None,374.31839940001373,None,376.267912100011,376.7544379000028,376.267912100011,376.7544379000028,376.267912100011,376.7544379000028,374.31839940001373,None,376.81791813001325,None,376.81791813001325,None,376.81791813001325,None,0.017230230005225167,None,376.81791813001325,None,376.81791813001325,None,376.81791813001325,None,376.81791813001325,None,376.81791813001325,None,376.81791813001325,None,376.83505670001614,None,376.83505670001614,None,376.83505670001614,None,0.0014066300063859671,0.501406630006386,376.83505670001614,None,376.83505670001614,None,376.83505670001614,None,376.83505670001614,None,376.83505670001614,None,376.83505670001614,None,378.81789150001714,378.81789150001714,5.700000000000003,2.152,900,450,350,,,,,,,,,,,,,,,,,,,,,,,,,,,,,,,,,,,,,,,,,,,,,,,,,,,,,,,,,,,,,,,,,,,,,,,,,,,,,,,,,,,f,22,liwenxuan,2022_Apr_09_0910,experiment3,2021.1.4,30.014094619586675,
25,200,50,50,one,200,50,50,,,,,0,31,31,24,,,,,,,,,,,l,1.237278199987486,381.0281238000025,None,381.0281238000025,None,382.2941242000088,None,382.2941242000088,None,382.2941242000088,None,384.2443564000132,384.7605136000202,384.2443564000132,384.7605136000202,384.2443564000132,384.7605136000202,382.2941242000088,None,384.7938701300212,None,384.7938701300212,None,384.7938701300212,None,0.01924193001468666,None,384.7938701300212,None,384.7938701300212,None,384.7938701300212,None,384.7938701300212,None,384.7938701300212,None,384.7938701300212,None,384.79912939999485,None,384.79912939999485,None,384.79912939999485,None,0.011493830039398745,0.5114938300393987,384.79912939999485,None,384.79912939999485,None,384.79912939999485,None,384.79912939999485,None,384.79912939999485,None,384.79912939999485,None,386.78179040001123,386.78179040001123,13.100000000000001,2.355,1100,500,400,,,,,,,,,,,,,,,,,,,,,,,,,,,,,,,,,,,,,,,,,,,,,,,,,,,,,,,,,,,,,,,,,,,,,,,,,,,,,,,,,,,f,22,liwenxuan,2022_Apr_09_0910,experiment3,2021.1.4,30.014094619586675,
55,0,-150,-200,two,0,-150,-200,,,,,0,32,32,54,,,,,,,,,,,g,2.5638768000062555,389.1956537000078,None,389.1956537000078,None,391.7953298999928,None,391.7953298999928,None,391.7953298999928,None,393.7431740000029,394.24458759999834,393.7431740000029,394.24458759999834,393.7431740000029,394.24458759999834,391.7953298999928,None,394.3018699300213,None,394.3018699300213,None,394.3018699300213,None,0.022295930044492707,None,394.3018699300213,None,394.3018699300213,None,394.3018699300213,None,394.3018699300213,None,394.3018699300213,None,394.3018699300213,None,394.3025815000001,None,394.3025815000001,None,394.3025815000001,None,0.0134576300624758,0.5134576300624758,394.3025815000001,None,394.3025815000001,None,394.3025815000001,None,394.3025815000001,None,394.3025815000001,None,394.3025815000001,None,396.2976458000194,396.2976458000194,0.20000000000000284,3.071,1100,350,200,,,,,,,,,,,,,,,,,,,,,,,,,,,,,,,,,,,,,,,,,,,,,,,,,,,,,,,,,,,,,,,,,,,,,,,,,,,,,,,,,,,f,22,liwenxuan,2022_Apr_09_0910,experiment3,2021.1.4,30.014094619586675,
26,50,200,50,one,50,200,50,,,,,0,33,33,25,,,,,,,,,,,l,1.5556105999858119,399.42705689999275,None,399.42705689999275,None,401.0266211999988,None,401.0266211999988,None,401.0266211999988,None,402.9963202000072,403.5126152000157,402.9963202000072,403.5126152000157,402.9963202000072,403.5126152000157,401.0266211999988,None,403.54597173001673,None,403.54597173001673,None,403.54597173001673,None,0.0267889300303068,None,403.54597173001673,None,403.54597173001673,None,403.54597173001673,None,403.54597173001673,None,403.54597173001673,None,403.54597173001673,None,403.54627819999587,None,403.54627819999587,None,403.54627819999587,None,0.019818530010525137,0.5198185300105251,403.54627819999587,None,403.54627819999587,None,403.54627819999587,None,403.54627819999587,None,403.54627819999587,None,403.54627819999587,None,405.5122343999974,405.5122343999974,8.100000000000001,2.306,1150,550,250,,,,,,,,,,,,,,,,,,,,,,,,,,,,,,,,,,,,,,,,,,,,,,,,,,,,,,,,,,,,,,,,,,,,,,,,,,,,,,,,,,,f,22,liwenxuan,2022_Apr_09_0910,experiment3,2021.1.4,30.014094619586675,
47,200,50,200,two,200,50,200,,,,,0,34,34,46,,,,,,,,,,,a,1.6033045999938622,407.8802674000035,None,407.8802674000035,None,409.5454158000066,None,409.5454158000066,None,409.5454158000066,None,411.5130351000116,412.02813140000217,411.5130351000116,412.02813140000217,411.5130351000116,412.02813140000217,409.5454158000066,None,412.0614879300032,None,412.0614879300032,None,412.0614879300032,None,0.02715942999930121,None,412.0614879300032,None,412.0614879300032,None,412.0614879300032,None,412.0614879300032,None,412.0614879300032,None,412.0614879300032,None,412.060146600008,None,412.060146600008,None,412.060146600008,None,0.020576029986841604,0.5205760299868416,412.060146600008,None,412.060146600008,None,412.060146600008,None,412.060146600008,None,412.060146600008,None,412.060146600008,None,414.027521800017,414.027521800017,3.5,3.005,1350,600,450,,,,,,,,,,,,,,,,,,,,,,,,,,,,,,,,,,,,,,,,,,,,,,,,,,,,,,,,,,,,,,,,,,,,,,,,,,,,,,,,,,,f,22,liwenxuan,2022_Apr_09_0910,experiment3,2021.1.4,30.014094619586675,
16,0,0,200,one,0,0,200,,,,,0,35,35,15,,,,,,,,,,,g,2.428929399990011,417.0897715000028,None,417.0897715000028,None,419.561494900001,None,419.561494900001,None,419.561494900001,None,421.51266010000836,422.0425643000053,421.51266010000836,422.0425643000053,421.51266010000836,422.0425643000053,419.561494900001,None,422.07592083000634,None,422.07592083000634,None,422.07592083000634,None,0.025950130017008632,None,422.07592083000634,None,422.07592083000634,None,422.07592083000634,None,422.07592083000634,None,422.07592083000634,None,422.07592083000634,None,422.0750784999982,None,422.0750784999982,None,422.0750784999982,None,0.019375430012587458,0.5193754300125875,422.0750784999982,None,422.0750784999982,None,422.0750784999982,None,422.0750784999982,None,422.0750784999982,None,422.0750784999982,None,424.05897110002115,424.05897110002115,-1.8999999999999986,2.541,1350,600,650,,,,,,,,,,,,,,,,,,,,,,,,,,,,,,,,,,,,,,,,,,,,,,,,,,,,,,,,,,,,,,,,,,,,,,,,,,,,,,,,,,,f,22,liwenxuan,2022_Apr_09_0910,experiment3,2021.1.4,30.014094619586675,
50,0,-200,-150,one,0,-200,-150,,,,,0,36,36,49,,,,,,,,,,,a,1.6684534999949392,426.6594621000113,None,426.6594621000113,None,428.39095420000376,None,428.39095420000376,None,428.39095420000376,None,430.3580436000193,430.8747288000013,430.3580436000193,430.8747288000013,430.3580436000193,430.8747288000013,428.39095420000376,None,430.90808533000234,None,430.90808533000234,None,430.90808533000234,None,0.021677830023691058,None,430.90808533000234,None,430.90808533000234,None,430.90808533000234,None,430.90808533000234,None,430.90808533000234,None,430.90808533000234,None,430.91977820001193,None,430.91977820001193,None,430.91977820001193,None,0.006653229997027665,0.5066532299970277,430.91977820001193,None,430.91977820001193,None,430.91977820001193,None,430.91977820001193,None,430.91977820001193,None,430.91977820001193,None,432.91378679999616,432.91378679999616,-0.8999999999999986,2.342,1350,400,500,,,,,,,,,,,,,,,,,,,,,,,,,,,,,,,,,,,,,,,,,,,,,,,,,,,,,,,,,,,,,,,,,,,,,,,,,,,,,,,,,,,f,22,liwenxuan,2022_Apr_09_0910,experiment3,2021.1.4,30.014094619586675,
77,-150,0,-150,one,-150,0,-150,,,,,0,37,37,76,,,,,,,,,,,g,2.311912700009998,435.324465600017,None,435.324465600017,None,437.6763103000121,None,437.6763103000121,None,437.6763103000121,None,439.6052464999957,440.1056965000171,439.6052464999957,440.1056965000171,439.6052464999957,440.1056965000171,437.6763103000121,None,440.20531713001253,None,440.20531713001253,None,440.20531713001253,None,0.02744372998131439,None,440.20531713001253,None,440.20531713001253,None,440.20531713001253,None,440.20531713001253,None,440.20531713001253,None,440.20531713001253,None,440.2045575999946,None,440.2045575999946,None,440.2045575999946,None,0.020928529993398115,0.5209285299933981,440.2045575999946,None,440.2045575999946,None,440.2045575999946,None,440.2045575999946,None,440.2045575999946,None,440.2045575999946,None,442.19251680001616,442.19251680001616,-0.8999999999999986,2.98,1200,400,350,,,,,,,,,,,,,,,,,,,,,,,,,,,,,,,,,,,,,,,,,,,,,,,,,,,,,,,,,,,,,,,,,,,,,,,,,,,,,,,,,,,f,22,liwenxuan,2022_Apr_09_0910,experiment3,2021.1.4,30.014094619586675,
27,50,50,200,one,50,50,200,,,,,0,38,38,26,,,,,,,,,,,l,2.066591300012078,445.2391828999971,None,445.2391828999971,None,447.3535276000039,None,447.3535276000039,None,447.3535276000039,None,449.287490799994,449.8303925000073,449.287490799994,449.8303925000073,449.287490799994,449.8303925000073,447.3535276000039,None,449.8637490300083,None,449.8637490300083,None,449.8637490300083,None,0.016072130005341023,None,449.8637490300083,None,449.8637490300083,None,449.8637490300083,None,449.8637490300083,None,449.8637490300083,None,449.8637490300083,None,449.8836782000144,None,449.8836782000144,None,449.8836782000144,None,0.03219366000848822,0.5321936600084882,449.8836782000144,None,449.8836782000144,None,449.8836782000144,None,449.8836782000144,None,449.8836782000144,None,449.8836782000144,None,451.83675990000484,451.83675990000484,-0.8999999999999986,2.403,1250,450,550,,,,,,,,,,,,,,,,,,,,,,,,,,,,,,,,,,,,,,,,,,,,,,,,,,,,,,,,,,,,,,,,,,,,,,,,,,,,,,,,,,,f,22,liwenxuan,2022_Apr_09_0910,experiment3,2021.1.4,30.014094619586675,
62,0,-150,0,one,0,-150,0,,,,,0,39,39,61,,,,,,,,,,,a,1.5939577000099234,454.3709896999935,None,454.3709896999935,None,455.99488899999415,None,455.99488899999415,None,455.99488899999415,None,457.9908062000177,None,457.9908062000177,None,457.9908062000177,None,455.99488899999415,None,458.49853703000406,None,458.49853703000406,None,458.49853703000406,None,0.014809529995545745,None,458.49853703000406,None,458.49853703000406,None,458.49853703000406,None,458.49853703000406,None,458.49853703000406,None,458.49853703000406,None,458.5229043000145,None,458.5229043000145,None,458.5229043000145,None,0.030037659977097064,0.5300376599770971,458.5229043000145,None,458.5229043000145,None,458.5229043000145,None,458.5229043000145,None,458.5229043000145,None,458.5229043000145,None,460.4944694000005,460.4944694000005,-1.2999999999999972,2.432,1250,300,550,,,,,,,,,,,,,,,,,,,,,,,,,,,,,,,,,,,,,,,,,,,,,,,,,,,,,,,,,,,,,,,,,,,,,,,,,,,,,,,,,,,f,22,liwenxuan,2022_Apr_09_0910,experiment3,2021.1.4,30.014094619586675,
37,200,200,0,one,200,200,0,,,,,0,40,40,36,,,,,,,,,,,g,2.8280204000184312,463.02183529999456,None,463.02183529999456,None,465.8864020000037,None,465.8864020000037,None,465.8864020000037,None,467.87104860000545,468.3592650000064,467.87104860000545,468.3592650000064,467.87104860000545,468.3592650000064,465.8864020000037,None,468.39262153000743,None,468.39262153000743,None,468.39262153000743,None,0.026423329982208088,None,468.39262153000743,None,468.39262153000743,None,468.39262153000743,None,468.39262153000743,None,468.39262153000743,None,468.39262153000743,None,468.38952090000384,None,468.38952090000384,None,468.38952090000384,None,0.01755003002472222,0.5175500300247222,468.38952090000384,None,468.38952090000384,None,468.38952090000384,None,468.38952090000384,None,468.38952090000384,None,468.38952090000384,None,470.38344750000397,470.38344750000397,19.400000000000006,2.691,1450,500,550,,,,,,,,,,,,,,,,,,,,,,,,,,,,,,,,,,,,,,,,,,,,,,,,,,,,,,,,,,,,,,,,,,,,,,,,,,,,,,,,,,,f,22,liwenxuan,2022_Apr_09_0910,experiment3,2021.1.4,30.014094619586675,
84,-150,-150,0,two,-150,-150,0,,,,,0,41,41,83,,,,,,,,,,,l,2.469952799991006,473.15394049999304,None,473.15394049999304,None,475.68226480000885,None,475.68226480000885,None,475.68226480000885,None,477.62115210000775,478.1479413000052,477.62115210000775,478.1479413000052,477.62115210000775,478.1479413000052,475.68226480000885,None,478.1812978300062,None,478.1812978300062,None,478.1812978300062,None,0.02546023001195863,None,478.1812978300062,None,478.1812978300062,None,478.1812978300062,None,478.1812978300062,None,478.1812978300062,None,478.1812978300062,None,478.1810073000088,None,478.1810073000088,None,478.1810073000088,None,0.01807283001835458,0.5180728300183546,478.1810073000088,None,478.1810073000088,None,478.1810073000088,None,478.1810073000088,None,478.1810073000088,None,478.1810073000088,None,480.1641453000193,480.1641453000193,-14.600000000000001,2.32,1300,350,550,,,,,,,,,,,,,,,,,,,,,,,,,,,,,,,,,,,,,,,,,,,,,,,,,,,,,,,,,,,,,,,,,,,,,,,,,,,,,,,,,,,f,22,liwenxuan,2022_Apr_09_0910,experiment3,2021.1.4,30.014094619586675,
28,0,50,50,one,0,50,50,,,,,0,42,42,27,,,,,,,,,,,g,3.331042300007539,482.5453183000209,None,482.5453183000209,None,485.9317963999929,None,485.9317963999929,None,485.9317963999929,None,487.89632460000576,488.4210787000193,487.89632460000576,488.4210787000193,487.89632460000576,488.4210787000193,485.9317963999929,None,488.4544352300203,None,488.4544352300203,None,488.4544352300203,None,0.014750230038771406,None,488.4544352300203,None,488.4544352300203,None,488.4544352300203,None,488.4544352300203,None,488.4544352300203,None,488.4544352300203,None,488.4696545000188,None,488.4696545000188,None,488.4696545000188,None,0.0011663300392683595,0.5011663300392684,488.4696545000188,None,488.4696545000188,None,488.4696545000188,None,488.4696545000188,None,488.4696545000188,None,488.4696545000188,None,490.46276170000783,490.46276170000783,-1.5,2.188,1300,400,600,,,,,,,,,,,,,,,,,,,,,,,,,,,,,,,,,,,,,,,,,,,,,,,,,,,,,,,,,,,,,,,,,,,,,,,,,,,,,,,,,,,f,22,liwenxuan,2022_Apr_09_0910,experiment3,2021.1.4,30.014094619586675,
69,-150,0,0,two,-150,0,0,,,,,0,43,43,68,,,,,,,,,,,a,2.391340600006515,492.7129561000038,None,492.7129561000038,None,495.1615785000031,None,495.1615785000031,None,495.1615785000031,None,497.128354400018,497.64703610001015,497.128354400018,497.64703610001015,497.128354400018,497.64703610001015,495.1615785000031,None,497.68039263001117,None,497.68039263001117,None,497.68039263001117,None,0.027369230025215074,None,497.68039263001117,None,497.68039263001117,None,497.68039263001117,None,497.68039263001117,None,497.68039263001117,None,497.68039263001117,None,497.6767936999968,None,497.6767936999968,None,497.6767936999968,None,0.020500330021604896,0.5205003300216049,497.6767936999968,None,497.6767936999968,None,497.6767936999968,None,497.6767936999968,None,497.6767936999968,None,497.6767936999968,None,499.66036619999795,499.66036619999795,-9.700000000000003,2.583,1150,400,600,,,,,,,,,,,,,,,,,,,,,,,,,,,,,,,,,,,,,,,,,,,,,,,,,,,,,,,,,,,,,,,,,,,,,,,,,,,,,,,,,,,f,22,liwenxuan,2022_Apr_09_0910,experiment3,2021.1.4,30.014094619586675,
41,200,50,200,one,200,50,200,,,,,0,44,44,40,,,,,,,,,,,l,2.6685108999954537,502.2982553000038,None,502.2982553000038,None,505.00317240000004,None,505.00317240000004,None,505.00317240000004,None,506.9620141000196,507.4609507000132,506.9620141000196,507.4609507000132,506.9620141000196,507.4609507000132,505.00317240000004,None,507.5259878300043,None,507.5259878300043,None,507.5259878300043,None,0.02686893002828583,None,507.5259878300043,None,507.5259878300043,None,507.5259878300043,None,507.5259878300043,None,507.5259878300043,None,507.5259878300043,None,507.52512400000705,None,507.52512400000705,None,507.52512400000705,None,0.019304929999634624,0.5193049299996346,507.52512400000705,None,507.52512400000705,None,507.52512400000705,None,507.52512400000705,None,507.52512400000705,None,507.52512400000705,None,509.50900459999684,509.50900459999684,7.399999999999999,2.433,1350,450,800,,,,,,,,,,,,,,,,,,,,,,,,,,,,,,,,,,,,,,,,,,,,,,,,,,,,,,,,,,,,,,,,,,,,,,,,,,,,,,,,,,,f,22,liwenxuan,2022_Apr_09_0910,experiment3,2021.1.4,30.014094619586675,
56,0,-200,-150,two,0,-200,-150,,,,,0,45,45,55,,,,,,,,,,,g,1.776161800022237,512.0086536000017,None,512.0086536000017,None,513.8574280000175,None,513.8574280000175,None,513.8574280000175,None,515.816908000008,None,515.816908000008,None,515.816908000008,None,513.8574280000175,None,516.3620743300038,None,516.3620743300038,None,516.3620743300038,None,0.019174030021531507,None,516.3620743300038,None,516.3620743300038,None,516.3620743300038,None,516.3620743300038,None,516.3620743300038,None,516.3620743300038,None,516.3787772000069,None,516.3787772000069,None,516.3787772000069,None,0.006378730031428859,0.5063787300314289,516.3787772000069,None,516.3787772000069,None,516.3787772000069,None,516.3787772000069,None,516.3787772000069,None,516.3787772000069,None,518.3832739000209,518.3832739000209,-1.5,2.338,1350,250,650,,,,,,,,,,,,,,,,,,,,,,,,,,,,,,,,,,,,,,,,,,,,,,,,,,,,,,,,,,,,,,,,,,,,,,,,,,,,,,,,,,,f,22,liwenxuan,2022_Apr_09_0910,experiment3,2021.1.4,30.014094619586675,
36,50,50,0,two,50,50,0,,,,,0,46,46,35,,,,,,,,,,,l,1.356762500014156,520.7925726000103,None,520.7925726000103,None,522.2216240999987,None,522.2216240999987,None,522.2216240999987,None,524.1636686999991,524.6895360000199,524.1636686999991,524.6895360000199,524.1636686999991,524.6895360000199,522.2216240999987,None,524.7228925300209,None,524.7228925300209,None,524.7228925300209,None,0.018488930043531582,None,524.7228925300209,None,524.7228925300209,None,524.7228925300209,None,524.7228925300209,None,524.7228925300209,None,524.7228925300209,None,524.7364936000085,None,524.7364936000085,None,524.7364936000085,None,0.0030261300271376967,0.5030261300271377,524.7364936000085,None,524.7364936000085,None,524.7364936000085,None,524.7364936000085,None,524.7364936000085,None,524.7364936000085,None,526.7386597299977,None,7.899999999999999,2.438,1400,300,650,,,,,,,,,,,,,,,,,,,,,,,,,,,,,,,,,,,,,,,,,,,,,,,,,,,,,,,,,,,,,,,,,,,,,,,,,,,,,,,,,,,f,22,liwenxuan,2022_Apr_09_0910,experiment3,2021.1.4,30.014094619586675,
34,0,50,50,two,0,50,50,,,,,0,47,47,33,,,,,,,,,,,a,1.9666365000011865,529.1998492999992,None,529.1998492999992,None,531.1986789999937,None,531.1986789999937,None,531.1986789999937,None,533.1707080000197,None,533.1707080000197,None,533.1707080000197,None,531.1986789999937,None,533.702794830015,None,533.702794830015,None,533.702794830015,None,0.024968530022306368,None,533.702794830015,None,533.702794830015,None,533.702794830015,None,533.702794830015,None,533.702794830015,None,533.702794830015,None,533.7073532000068,None,533.7073532000068,None,533.7073532000068,None,0.018242029997054487,0.5182420299970545,533.7073532000068,None,533.7073532000068,None,533.7073532000068,None,533.7073532000068,None,533.7073532000068,None,533.7073532000068,None,535.6633533000131,535.6633533000131,-0.8999999999999986,1.805,1400,350,700,,,,,,,,,,,,,,,,,,,,,,,,,,,,,,,,,,,,,,,,,,,,,,,,,,,,,,,,,,,,,,,,,,,,,,,,,,,,,,,,,,,f,22,liwenxuan,2022_Apr_09_0910,experiment3,2021.1.4,30.014094619586675,
61,0,0,-150,one,0,0,-150,,,,,0,48,48,60,,,,,,,,,,,g,1.6890224000089802,537.5697875000187,None,537.5697875000187,None,539.289789100003,None,539.289789100003,None,539.289789100003,None,541.2752958000056,541.7915968000016,541.2752958000056,541.7915968000016,541.2752958000056,541.7915968000016,539.289789100003,None,541.8249533300026,None,541.8249533300026,None,541.8249533300026,None,0.025672230025520548,None,541.8249533300026,None,541.8249533300026,None,541.8249533300026,None,541.8249533300026,None,541.8249533300026,None,541.8249533300026,None,541.8230372999969,None,541.8230372999969,None,541.8230372999969,None,0.016375930019421503,0.5163759300194215,541.8230372999969,None,541.8230372999969,None,541.8230372999969,None,541.8230372999969,None,541.8230372999969,None,541.8230372999969,None,543.7980898999958,543.7980898999958,21.099999999999994,3.261,1400,350,550,,,,,,,,,,,,,,,,,,,,,,,,,,,,,,,,,,,,,,,,,,,,,,,,,,,,,,,,,,,,,,,,,,,,,,,,,,,,,,,,,,,f,22,liwenxuan,2022_Apr_09_0910,experiment3,2021.1.4,30.014094619586675,
64,0,0,-200,one,0,0,-200,,,,,0,49,49,63,,,,,,,,,,,l,2.079817199992249,547.1339828000055,None,547.1339828000055,None,549.2420086000056,None,549.2420086000056,None,549.2420086000056,None,551.2175691000011,551.717390100006,551.2175691000011,551.717390100006,551.2175691000011,551.717390100006,549.2420086000056,None,551.750746630007,None,551.750746630007,None,551.750746630007,None,0.025437030009925365,None,551.750746630007,None,551.750746630007,None,551.750746630007,None,551.750746630007,None,551.750746630007,None,551.750746630007,None,551.7496247999952,None,551.7496247999952,None,551.7496247999952,None,0.018407230003504083,0.5184072300035041,551.7496247999952,None,551.7496247999952,None,551.7496247999952,None,551.7496247999952,None,551.7496247999952,None,551.7496247999952,None,553.7337347000139,553.7337347000139,25.0,2.705,1400,350,350,,,,,,,,,,,,,,,,,,,,,,,,,,,,,,,,,,,,,,,,,,,,,,,,,,,,,,,,,,,,,,,,,,,,,,,,,,,,,,,,,,,f,22,liwenxuan,2022_Apr_09_0910,experiment3,2021.1.4,30.014094619586675,
76,0,-150,-150,one,0,-150,-150,,,,,0,50,50,75,,,,,,,,,,,g,2.4673578000220004,556.5005424999981,None,556.5005424999981,None,559.0050886000099,None,559.0050886000099,None,559.0050886000099,None,560.9651941000193,561.4660680000088,560.9651941000193,561.4660680000088,560.9651941000193,561.4660680000088,559.0050886000099,None,561.5204442300222,None,561.5204442300222,None,561.5204442300222,None,0.019394130038563162,None,561.5204442300222,None,561.5204442300222,None,561.5204442300222,None,561.5204442300222,None,561.5204442300222,None,561.5204442300222,None,561.5381824999931,None,561.5381824999931,None,561.5381824999931,None,0.0018452300282660872,0.5018452300282661,561.5381824999931,None,561.5381824999931,None,561.5381824999931,None,561.5381824999931,None,561.5381824999931,None,561.5381824999931,None,563.5167311000114,563.5167311000114,-0.29999999999999716,4.119,1400,200,200,,,,,,,,,,,,,,,,,,,,,,,,,,,,,,,,,,,,,,,,,,,,,,,,,,,,,,,,,,,,,,,,,,,,,,,,,,,,,,,,,,,f,22,liwenxuan,2022_Apr_09_0910,experiment3,2021.1.4,30.014094619586675,
42,50,200,200,one,50,200,200,,,,,0,51,51,41,,,,,,,,,,,a,1.7538195999804884,567.7155252000084,None,567.7155252000084,None,569.514823400008,None,569.514823400008,None,569.514823400008,None,571.4619198,571.9717560000136,571.4619198,571.9717560000136,571.4619198,571.9717560000136,569.514823400008,None,572.0250930300011,None,572.0250930300011,None,572.0250930300011,None,0.019247029995312914,None,572.0250930300011,None,572.0250930300011,None,572.0250930300011,None,572.0250930300011,None,572.0250930300011,None,572.0250930300011,None,572.0315011000203,None,572.0315011000203,None,572.0315011000203,None,0.007844329986255616,0.5078443299862556,572.0315011000203,None,572.0315011000203,None,572.0315011000203,None,572.0315011000203,None,572.0315011000203,None,572.0315011000203,None,574.0008424000116,574.0008424000116,-2.299999999999997,3.074,1450,400,400,,,,,,,,,,,,,,,,,,,,,,,,,,,,,,,,,,,,,,,,,,,,,,,,,,,,,,,,,,,,,,,,,,,,,,,,,,,,,,,,,,,f,22,liwenxuan,2022_Apr_09_0910,experiment3,2021.1.4,30.014094619586675,
33,50,50,200,two,50,50,200,,,,,0,52,52,32,,,,,,,,,,,g,2.3260045000060927,577.1374843000085,None,577.1374843000085,None,579.4957759999961,None,579.4957759999961,None,579.4957759999961,None,581.4533159999992,581.9520276999974,581.4533159999992,581.9520276999974,581.4533159999992,581.9520276999974,579.4957759999961,None,582.0325266299973,None,582.0325266299973,None,582.0325266299973,None,0.021160730015253648,None,582.0325266299973,None,582.0325266299973,None,582.0325266299973,None,582.0325266299973,None,582.0325266299973,None,582.0325266299973,None,582.0444230000139,None,582.0444230000139,None,582.0444230000139,None,0.008836629975121468,0.5088366299751215,582.0444230000139,None,582.0444230000139,None,582.0444230000139,None,582.0444230000139,None,582.0444230000139,None,582.0444230000139,None,584.0444018299953,None,-2.299999999999997,1.77,1500,450,600,,,,,,,,,,,,,,,,,,,,,,,,,,,,,,,,,,,,,,,,,,,,,,,,,,,,,,,,,,,,,,,,,,,,,,,,,,,,,,,,,,,f,22,liwenxuan,2022_Apr_09_0910,experiment3,2021.1.4,30.014094619586675,
74,-150,-200,-150,one,-150,-200,-150,,,,,0,53,53,73,,,,,,,,,,,a,5.249866199999815,585.841834699997,None,585.841834699997,None,591.1235272000195,None,591.1235272000195,None,591.1235272000195,None,593.0685852000024,593.5881630000076,593.0685852000024,593.5881630000076,593.0685852000024,593.5881630000076,591.1235272000195,None,593.6480650300131,None,593.6480650300131,None,593.6480650300131,None,0.018756330013275146,None,593.6480650300131,None,593.6480650300131,None,593.6480650300131,None,593.6480650300131,None,593.6480650300131,None,593.6480650300131,None,593.6564692000102,None,593.6564692000102,None,593.6564692000102,None,0.010483430029125884,0.5104834300291259,593.6564692000102,None,593.6564692000102,None,593.6564692000102,None,593.6564692000102,None,593.6564692000102,None,593.6564692000102,None,595.6433504000015,595.6433504000015,-6.899999999999999,4.557,1350,250,450,,,,,,,,,,,,,,,,,,,,,,,,,,,,,,,,,,,,,,,,,,,,,,,,,,,,,,,,,,,,,,,,,,,,,,,,,,,,,,,,,,,f,22,liwenxuan,2022_Apr_09_0910,experiment3,2021.1.4,30.014094619586675,
17,0,200,0,one,0,200,0,,,,,0,54,54,16,,,,,,,,,,,l,2.3799986999947578,600.2552372000064,None,600.2552372000064,None,602.6915110000118,None,602.6915110000118,None,602.6915110000118,None,604.6883439999947,605.1903650000168,604.6883439999947,605.1903650000168,604.6883439999947,605.1903650000168,602.6915110000118,None,605.2237215300178,None,605.2237215300178,None,605.2237215300178,None,0.027831030020024627,None,605.2237215300178,None,605.2237215300178,None,605.2237215300178,None,605.2237215300178,None,605.2237215300178,None,605.2237215300178,None,605.2222331000085,None,605.2222331000085,None,605.2222331000085,None,0.021110530011355877,0.5211105300113559,605.2222331000085,None,605.2222331000085,None,605.2222331000085,None,605.2222331000085,None,605.2222331000085,None,605.2222331000085,None,607.1851937000174,607.1851937000174,4.899999999999999,2.572,1350,450,450,,,,,,,,,,,,,,,,,,,,,,,,,,,,,,,,,,,,,,,,,,,,,,,,,,,,,,,,,,,,,,,,,,,,,,,,,,,,,,,,,,,f,22,liwenxuan,2022_Apr_09_0910,experiment3,2021.1.4,30.014094619586675,
8,0,200,50,two,0,200,50,,,,,0,55,55,7,,,,,,,,,,,g,1.9050451000221074,609.8529667000112,None,609.8529667000112,None,611.7976040000212,None,611.7976040000212,None,611.7976040000212,None,613.7548788000131,614.2614081000211,613.7548788000131,614.2614081000211,613.7548788000131,614.2614081000211,611.7976040000212,None,614.3095266299991,None,614.3095266299991,None,614.3095266299991,None,0.021951930015347898,None,614.3095266299991,None,614.3095266299991,None,614.3095266299991,None,614.3095266299991,None,614.3095266299991,None,614.3095266299991,None,614.3245446000074,None,614.3245446000074,None,614.3245446000074,None,0.007074930006638169,0.5070749300066382,614.3245446000074,None,614.3245446000074,None,614.3245446000074,None,614.3245446000074,None,614.3245446000074,None,614.3245446000074,None,616.3053920000093,616.3053920000093,2.200000000000003,2.456,1350,650,500,,,,,,,,,,,,,,,,,,,,,,,,,,,,,,,,,,,,,,,,,,,,,,,,,,,,,,,,,,,,,,,,,,,,,,,,,,,,,,,,,,,f,22,liwenxuan,2022_Apr_09_0910,experiment3,2021.1.4,30.014094619586675,
73,-200,-150,-150,one,-200,-150,-150,,,,,0,56,56,72,,,,,,,,,,,l,1.3962941000063438,618.8263104000071,None,618.8263104000071,None,620.2547296000121,None,620.2547296000121,None,620.2547296000121,None,622.2024965000164,622.7427696000086,622.2024965000164,622.7427696000086,622.2024965000164,622.7427696000086,620.2547296000121,None,622.7761261300096,None,622.7761261300096,None,622.7761261300096,None,0.016617030021734536,None,622.7761261300096,None,622.7761261300096,None,622.7761261300096,None,622.7761261300096,None,622.7761261300096,None,622.7761261300096,None,622.7976042999944,None,622.7976042999944,None,622.7976042999944,None,0.03131356000085361,0.5313135600008536,622.7976042999944,None,622.7976042999944,None,622.7976042999944,None,622.7976042999944,None,622.7976042999944,None,622.7976042999944,None,624.7578380000195,624.7578380000195,-14.899999999999999,2.192,1150,500,350,,,,,,,,,,,,,,,,,,,,,,,,,,,,,,,,,,,,,,,,,,,,,,,,,,,,,,,,,,,,,,,,,,,,,,,,,,,,,,,,,,,f,22,liwenxuan,2022_Apr_09_0910,experiment3,2021.1.4,30.014094619586675,
51,-150,0,-200,one,-150,0,-200,,,,,0,57,57,50,,,,,,,,,,,g,1.6308284000260755,627.0520406000142,None,627.0520406000142,None,628.7187822000124,None,628.7187822000124,None,628.7187822000124,None,630.6679253000184,631.1852086000144,630.6679253000184,631.1852086000144,630.6679253000184,631.1852086000144,628.7187822000124,None,631.2185651300155,None,631.2185651300155,None,631.2185651300155,None,0.025376229983521625,None,631.2185651300155,None,631.2185651300155,None,631.2185651300155,None,631.2185651300155,None,631.2185651300155,None,631.2185651300155,None,631.2175253000169,None,631.2175253000169,None,631.2175253000169,None,0.01831283001229167,0.5183128300122917,631.2175253000169,None,631.2175253000169,None,631.2175253000169,None,631.2175253000169,None,631.2175253000169,None,631.2175253000169,None,633.1848525000096,633.1848525000096,-0.29999999999999716,2.625,1000,500,150,,,,,,,,,,,,,,,,,,,,,,,,,,,,,,,,,,,,,,,,,,,,,,,,,,,,,,,,,,,,,,,,,,,,,,,,,,,,,,,,,,,f,22,liwenxuan,2022_Apr_09_0910,experiment3,2021.1.4,30.014094619586675,
35,50,0,50,two,50,0,50,,,,,0,58,58,34,,,,,,,,,,,a,1.5510169000190217,635.8657219000161,None,635.8657219000161,None,637.4461735000077,None,637.4461735000077,None,637.4461735000077,None,639.4120116000122,639.912201500003,639.4120116000122,639.912201500003,639.4120116000122,639.912201500003,637.4461735000077,None,639.945558030004,None,639.945558030004,None,639.945558030004,None,0.019908130023395643,None,639.945558030004,None,639.945558030004,None,639.945558030004,None,639.945558030004,None,639.945558030004,None,639.945558030004,None,639.9497133000114,None,639.9497133000114,None,639.9497133000114,None,0.009581530001014471,0.5095815300010145,639.9497133000114,None,639.9497133000114,None,639.9497133000114,None,639.9497133000114,None,639.9497133000114,None,639.9497133000114,None,641.9497737300029,None,1.3999999999999986,2.438,1050,500,200,,,,,,,,,,,,,,,,,,,,,,,,,,,,,,,,,,,,,,,,,,,,,,,,,,,,,,,,,,,,,,,,,,,,,,,,,,,,,,,,,,,f,22,liwenxuan,2022_Apr_09_0910,experiment3,2021.1.4,30.014094619586675,
80,-150,-200,-150,two,-150,-200,-150,,,,,0,59,59,79,,,,,,,,,,,g,1.6193892000010237,644.4362476000097,None,644.4362476000097,None,646.0933855000185,None,646.0933855000185,None,646.0933855000185,None,648.0485659000115,648.5652312000166,648.0485659000115,648.5652312000166,648.0485659000115,648.5652312000166,646.0933855000185,None,648.5985877300176,None,648.5985877300176,None,648.5985877300176,None,0.02559943002415821,None,648.5985877300176,None,648.5985877300176,None,648.5985877300176,None,648.5985877300176,None,648.5985877300176,None,648.5985877300176,None,648.5979678000149,None,648.5979678000149,None,648.5979678000149,None,0.018263630016008392,0.5182636300160084,648.5979678000149,None,648.5979678000149,None,648.5979678000149,None,648.5979678000149,None,648.5979678000149,None,648.5979678000149,None,650.5537150000164,650.5537150000164,-11.899999999999999,2.609,900,300,50,,,,,,,,,,,,,,,,,,,,,,,,,,,,,,,,,,,,,,,,,,,,,,,,,,,,,,,,,,,,,,,,,,,,,,,,,,,,,,,,,,,f,22,liwenxuan,2022_Apr_09_0910,experiment3,2021.1.4,30.014094619586675,
59,-200,-150,0,two,-200,-150,0,,,,,0,60,60,58,,,,,,,,,,,l,0.8680144999816548,653.2512330000172,None,653.2512330000172,None,654.170692500018,None,654.170692500018,None,654.170692500018,None,656.1258417000063,656.6325451000012,656.1258417000063,656.6325451000012,656.1258417000063,656.6325451000012,654.170692500018,None,656.6815713300224,None,656.6815713300224,None,656.6815713300224,None,0.027919030020711944,None,656.6815713300224,None,656.6815713300224,None,656.6815713300224,None,656.6815713300224,None,656.6815713300224,None,656.6815713300224,None,656.6791662000178,None,656.6791662000178,None,656.6791662000178,None,0.021080730017274618,0.5210807300172746,656.6791662000178,None,656.6791662000178,None,656.6791662000178,None,656.6791662000178,None,656.6791662000178,None,656.6791662000178,None,658.646830600017,658.646830600017,-25.0,2.236,700,150,50,,,,,,,,,,,,,,,,,,,,,,,,,,,,,,,,,,,,,,,,,,,,,,,,,,,,,,,,,,,,,,,,,,,,,,,,,,,,,,,,,,,f,22,liwenxuan,2022_Apr_09_0910,experiment3,2021.1.4,30.014094619586675,
18,200,0,0,one,200,0,0,,,,,0,61,61,17,,,,,,,,,,,a,1.3610981999954674,660.9423423999979,None,660.9423423999979,None,662.3455661000044,None,662.3455661000044,None,662.3455661000044,None,664.2904779000091,664.795202600013,664.2904779000091,664.795202600013,664.2904779000091,664.795202600013,662.3455661000044,None,664.8615898300108,None,664.8615898300108,None,664.8615898300108,None,0.028191430028527975,None,664.8615898300108,None,664.8615898300108,None,664.8615898300108,None,664.8615898300108,None,664.8615898300108,None,664.8615898300108,None,664.8615752000187,None,664.8615752000187,None,664.8615752000187,None,0.021039729996118695,0.5210397299961187,664.8615752000187,None,664.8615752000187,None,664.8615752000187,None,664.8615752000187,None,664.8615752000187,None,664.8615752000187,None,666.8268590999942,666.8268590999942,13.5,2.235,900,150,50,,,,,,,,,,,,,,,,,,,,,,,,,,,,,,,,,,,,,,,,,,,,,,,,,,,,,,,,,,,,,,,,,,,,,,,,,,,,,,,,,,,f,22,liwenxuan,2022_Apr_09_0910,experiment3,2021.1.4,30.014094619586675,
58,-150,-200,0,two,-150,-200,0,,,,,0,62,62,57,,,,,,,,,,,g,1.354944799997611,669.1488395000051,None,669.1488395000051,None,670.5486641000025,None,670.5486641000025,None,670.5486641000025,None,672.4924004000204,673.0103475000069,672.4924004000204,673.0103475000069,672.4924004000204,673.0103475000069,670.5486641000025,None,673.0766991299955,None,673.0766991299955,None,673.0766991299955,None,0.027758429961977527,None,673.0766991299955,None,673.0766991299955,None,673.0766991299955,None,673.0766991299955,None,673.0766991299955,None,673.0766991299955,None,673.0762331000005,None,673.0762331000005,None,673.0762331000005,None,0.02028483001049608,0.5202848300104961,673.0762331000005,None,673.0762331000005,None,673.0762331000005,None,673.0762331000005,None,673.0762331000005,None,673.0762331000005,None,675.0429969000106,675.0429969000106,-29.1,2.801,750,-50,50,,,,,,,,,,,,,,,,,,,,,,,,,,,,,,,,,,,,,,,,,,,,,,,,,,,,,,,,,,,,,,,,,,,,,,,,,,,,,,,,,,,f,22,liwenxuan,2022_Apr_09_0910,experiment3,2021.1.4,30.014094619586675,
31,200,50,50,two,200,50,50,,,,,0,63,63,30,,,,,,,,,,,l,1.1856306999980006,677.9248768000107,None,677.9248768000107,None,679.1479875000077,None,679.1479875000077,None,679.1479875000077,None,681.1375670999987,None,681.1375670999987,None,681.1375670999987,None,679.1479875000077,None,681.6497430300136,None,681.6497430300136,None,681.6497430300136,None,0.01798103001783602,None,681.6497430300136,None,681.6497430300136,None,681.6497430300136,None,681.6497430300136,None,681.6497430300136,None,681.6497430300136,None,681.6628668000048,None,681.6628668000048,None,681.6628668000048,None,0.004727630031993613,0.5047276300319936,681.6628668000048,None,681.6628668000048,None,681.6628668000048,None,681.6628668000048,None,681.6628668000048,None,681.6628668000048,None,683.6428495,683.6428495,15.299999999999997,2.202,950,0,100,,,,,,,,,,,,,,,,,,,,,,,,,,,,,,,,,,,,,,,,,,,,,,,,,,,,,,,,,,,,,,,,,,,,,,,,,,,,,,,,,,,f,22,liwenxuan,2022_Apr_09_0910,experiment3,2021.1.4,30.014094619586675,
19,0,0,50,two,0,0,50,,,,,0,64,64,18,,,,,,,,,,,a,1.1276870000001509,685.9044160000049,None,685.9044160000049,None,687.0517983000027,None,687.0517983000027,None,687.0517983000027,None,689.033855000016,689.5407447000034,689.033855000016,689.5407447000034,689.033855000016,689.5407447000034,687.0517983000027,None,689.5741012300044,None,689.5741012300044,None,689.5741012300044,None,0.027776129980338737,None,689.5741012300044,None,689.5741012300044,None,689.5741012300044,None,689.5741012300044,None,689.5741012300044,None,689.5741012300044,None,689.573318300012,None,689.573318300012,None,689.573318300012,None,0.02123012999072671,0.5212301299907267,689.573318300012,None,689.573318300012,None,689.573318300012,None,689.573318300012,None,689.573318300012,None,689.573318300012,None,691.54039010001,691.54039010001,-0.29999999999999716,2.008,950,0,150,,,,,,,,,,,,,,,,,,,,,,,,,,,,,,,,,,,,,,,,,,,,,,,,,,,,,,,,,,,,,,,,,,,,,,,,,,,,,,,,,,,f,22,liwenxuan,2022_Apr_09_0910,experiment3,2021.1.4,30.014094619586675,
66,-200,0,0,one,-200,0,0,,,,,0,65,65,65,,,,,,,,,,,l,1.0907738999812864,693.6038908000046,None,693.6038908000046,None,694.7569298000017,None,694.7569298000017,None,694.7569298000017,None,696.7054524999985,697.2286858000152,696.7054524999985,697.2286858000152,696.7054524999985,697.2286858000152,694.7569298000017,None,697.2620423300162,None,697.2620423300162,None,697.2620423300162,None,0.02011733001563698,None,697.2620423300162,None,697.2620423300162,None,697.2620423300162,None,697.2620423300162,None,697.2620423300162,None,697.2620423300162,None,697.2779451000097,None,697.2779451000097,None,697.2779451000097,None,0.007186930044554174,0.5071869300445542,697.2779451000097,None,697.2779451000097,None,697.2779451000097,None,697.2779451000097,None,697.2779451000097,None,697.2779451000097,None,699.243862000003,699.243862000003,-30.2,2.19,750,0,150,,,,,,,,,,,,,,,,,,,,,,,,,,,,,,,,,,,,,,,,,,,,,,,,,,,,,,,,,,,,,,,,,,,,,,,,,,,,,,,,,,,f,22,liwenxuan,2022_Apr_09_0910,experiment3,2021.1.4,30.014094619586675,
85,-200,-200,0,one,-200,-200,0,,,,,0,66,66,84,,,,,,,,,,,g,1.5341017000027932,701.5027113000106,None,701.5027113000106,None,703.0622991000128,None,703.0622991000128,None,703.0622991000128,None,705.0371742999996,705.5376610000094,705.0371742999996,705.5376610000094,705.0371742999996,705.5376610000094,703.0622991000128,None,705.5710175300104,None,705.5710175300104,None,705.5710175300104,None,0.025281730020651594,None,705.5710175300104,None,705.5710175300104,None,705.5710175300104,None,705.5710175300104,None,705.5710175300104,None,705.5710175300104,None,705.5744269000133,None,705.5744269000133,None,705.5744269000133,None,0.018838129995856434,0.5188381299958564,705.5744269000133,None,705.5744269000133,None,705.5744269000133,None,705.5744269000133,None,705.5744269000133,None,705.5744269000133,None,707.554155299993,707.554155299993,-29.7,4.044,550,-200,150,,,,,,,,,,,,,,,,,,,,,,,,,,,,,,,,,,,,,,,,,,,,,,,,,,,,,,,,,,,,,,,,,,,,,,,,,,,,,,,,,,,f,22,liwenxuan,2022_Apr_09_0910,experiment3,2021.1.4,30.014094619586675,
70,0,0,-200,two,0,0,-200,,,,,0,67,67,69,,,,,,,,,,,g,2.1256371999916155,711.6528872000054,None,711.6528872000054,None,713.8138413999986,None,713.8138413999986,None,713.8138413999986,None,715.7834038000146,716.3113532999996,715.7834038000146,716.3113532999996,715.7834038000146,716.3113532999996,713.8138413999986,None,716.3447098300006,None,716.3447098300006,None,716.3447098300006,None,0.014985330024501309,None,716.3447098300006,None,716.3447098300006,None,716.3447098300006,None,716.3447098300006,None,716.3447098300006,None,716.3447098300006,None,716.370820000011,None,716.370820000011,None,716.370820000011,None,0.028519959974801168,0.5285199599748012,716.370820000011,None,716.370820000011,None,716.370820000011,None,716.370820000011,None,716.370820000011,None,716.370820000011,None,718.3351277000038,718.3351277000038,2.799999999999997,5.931,550,-200,-50,,,,,,,,,,,,,,,,,,,,,,,,,,,,,,,,,,,,,,,,,,,,,,,,,,,,,,,,,,,,,,,,,,,,,,,,,,,,,,,,,,,f,22,liwenxuan,2022_Apr_09_0910,experiment3,2021.1.4,30.014094619586675,
53,-200,-150,0,one,-200,-150,0,,,,,0,68,68,52,,,,,,,,,,,g,1.982003100012662,724.3541823000123,None,724.3541823000123,None,726.3597487999941,None,726.3597487999941,None,726.3597487999941,None,728.3246793000144,728.8496660999954,728.3246793000144,728.8496660999954,728.3246793000144,728.8496660999954,726.3597487999941,None,728.8830226299964,None,728.8830226299964,None,728.8830226299964,None,0.02767812999081798,None,728.8830226299964,None,728.8830226299964,None,728.8830226299964,None,728.8830226299964,None,728.8830226299964,None,728.8830226299964,None,728.8817648999975,None,728.8817648999975,None,728.8817648999975,None,0.020844129991019145,0.5208441299910191,728.8817648999975,None,728.8817648999975,None,728.8817648999975,None,728.8817648999975,None,728.8817648999975,None,728.8817648999975,None,730.8354561000015,730.8354561000015,-25.1,2.033,350,-350,-50,,,,,,,,,,,,,,,,,,,,,,,,,,,,,,,,,,,,,,,,,,,,,,,,,,,,,,,,,,,,,,,,,,,,,,,,,,,,,,,,,,,f,22,liwenxuan,2022_Apr_09_0910,experiment3,2021.1.4,30.014094619586675,
2,0,200,50,one,0,200,50,,,,,0,69,69,1,,,,,,,,,,,g,2.2717682999791577,732.954105700017,None,732.954105700017,None,735.2653555000143,None,735.2653555000143,None,735.2653555000143,None,737.2026792000106,737.730982500012,737.2026792000106,737.730982500012,737.2026792000106,737.730982500012,735.2653555000143,None,737.7974290299957,None,737.7974290299957,None,737.7974290299957,None,0.02767363001476042,None,737.7974290299957,None,737.7974290299957,None,737.7974290299957,None,737.7974290299957,None,737.7974290299957,None,737.7974290299957,None,737.7968693000148,None,737.7968693000148,None,737.7968693000148,None,0.020301729993661866,0.5203017299936619,737.7968693000148,None,737.7968693000148,None,737.7968693000148,None,737.7968693000148,None,737.7968693000148,None,737.7968693000148,None,739.7804215000069,739.7804215000069,11.0,2.142,350,-150,0,,,,,,,,,,,,,,,,,,,,,,,,,,,,,,,,,,,,,,,,,,,,,,,,,,,,,,,,,,,,,,,,,,,,,,,,,,,,,,,,,,,f,22,liwenxuan,2022_Apr_09_0910,experiment3,2021.1.4,30.014094619586675,
1,0,50,200,one,0,50,200,,,,,0,70,70,0,,,,,,,,,,,l,1.4786102999933064,741.9793741000176,None,741.9793741000176,None,743.4972274000174,None,743.4972274000174,None,743.4972274000174,None,745.4518787999987,745.9388972000161,745.4518787999987,745.9388972000161,745.4518787999987,745.9388972000161,743.4972274000174,None,746.0044154300034,None,746.0044154300034,None,746.0044154300034,None,0.020002230012323707,None,746.0044154300034,None,746.0044154300034,None,746.0044154300034,None,746.0044154300034,None,746.0044154300034,None,746.0044154300034,None,746.0165738000069,None,746.0165738000069,None,746.0165738000069,None,0.006349230010528117,0.5063492300105281,746.0165738000069,None,746.0165738000069,None,746.0165738000069,None,746.0165738000069,None,746.0165738000069,None,746.0165738000069,None,747.9931933000044,747.9931933000044,-13.700000000000003,2.011,350,-100,200,,,,,,,,,,,,,,,,,,,,,,,,,,,,,,,,,,,,,,,,,,,,,,,,,,,,,,,,,,,,,,,,,,,,,,,,,,,,,,,,,,,f,22,liwenxuan,2022_Apr_09_0910,experiment3,2021.1.4,30.014094619586675,
79,-200,-150,-150,two,-200,-150,-150,,,,,0,71,71,78,,,,,,,,,,,a,1.6886677999864332,750.0670238000166,None,750.0670238000166,None,751.8083116000053,None,751.8083116000053,None,751.8083116000053,None,753.7844920000061,754.2791064000048,753.7844920000061,754.2791064000048,753.7844920000061,754.2791064000048,751.8083116000053,None,754.3124629300058,None,754.3124629300058,None,754.3124629300058,None,0.02712843002518639,None,754.3124629300058,None,754.3124629300058,None,754.3124629300058,None,754.3124629300058,None,754.3124629300058,None,754.3124629300058,None,754.3107840000011,None,754.3107840000011,None,754.3107840000011,None,0.020092730002943426,0.5200927300029434,754.3107840000011,None,754.3107840000011,None,754.3107840000011,None,754.3107840000011,None,754.3107840000011,None,754.3107840000011,None,756.2959501000005,756.2959501000005,-27.1,2.495,150,-250,50,,,,,,,,,,,,,,,,,,,,,,,,,,,,,,,,,,,,,,,,,,,,,,,,,,,,,,,,,,,,,,,,,,,,,,,,,,,,,,,,,,,f,22,liwenxuan,2022_Apr_09_0910,experiment3,2021.1.4,30.014094619586675,
63,-150,0,0,one,-150,0,0,,,,,0,72,72,62,,,,,,,,,,,g,1.889785600011237,758.863976099994,None,758.863976099994,None,760.8153753000079,None,760.8153753000079,None,760.8153753000079,None,762.759412400017,763.2598880000005,762.759412400017,763.2598880000005,762.759412400017,763.2598880000005,760.8153753000079,None,763.3266227299958,None,763.3266227299958,None,763.3266227299958,None,0.027798930008430034,None,763.3266227299958,None,763.3266227299958,None,763.3266227299958,None,763.3266227299958,None,763.3266227299958,None,763.3266227299958,None,763.3257141000067,None,763.3257141000067,None,763.3257141000067,None,0.020310630003223196,0.5203106300032232,763.3257141000067,None,763.3257141000067,None,763.3257141000067,None,763.3257141000067,None,763.3257141000067,None,763.3257141000067,None,765.2743606000149,765.2743606000149,-28.8,2.23,0,-250,50,,,,,,,,,,,,,,,,,,,,,,,,,,,,,,,,,,,,,,,,,,,,,,,,,,,,,,,,,,,,,,,,,,,,,,,,,,,,,,,,,,,f,22,liwenxuan,2022_Apr_09_0910,experiment3,2021.1.4,30.014094619586675,
49,0,-150,-200,one,0,-150,-200,,,,,0,73,73,48,,,,,,,,,,,l,1.5628264999832027,767.6093225000077,None,767.6093225000077,None,769.2351194999937,None,769.2351194999937,None,769.2351194999937,None,771.2120252000168,771.7328167000087,771.2120252000168,771.7328167000087,771.2120252000168,771.7328167000087,769.2351194999937,None,771.7661732300097,None,771.7661732300097,None,771.7661732300097,None,0.01798263000091538,None,771.7661732300097,None,771.7661732300097,None,771.7661732300097,None,771.7661732300097,None,771.7661732300097,None,771.7661732300097,None,771.7839886000147,None,771.7839886000147,None,771.7839886000147,None,0.0021530300145968795,0.5021530300145969,771.7839886000147,None,771.7839886000147,None,771.7839886000147,None,771.7839886000147,None,771.7839886000147,None,771.7839886000147,None,773.7903255300101,None,-0.6000000000000014,1.737,0,-400,-150,,,,,,,,,,,,,,,,,,,,,,,,,,,,,,,,,,,,,,,,,,,,,,,,,,,,,,,,,,,,,,,,,,,,,,,,,,,,,,,,,,,f,22,liwenxuan,2022_Apr_09_0910,experiment3,2021.1.4,30.014094619586675,
52,-150,-200,0,one,-150,-200,0,,,,,0,74,74,51,,,,,,,,,,,g,1.5956377999973483,775.5583015000157,None,775.5583015000157,None,777.2071772000054,None,777.2071772000054,None,777.2071772000054,None,779.1735501000076,779.6726201999991,779.1735501000076,779.6726201999991,779.1735501000076,779.6726201999991,777.2071772000054,None,779.7461566300102,None,779.7461566300102,None,779.7461566300102,None,0.01996942999539897,None,779.7461566300102,None,779.7461566300102,None,779.7461566300102,None,779.7461566300102,None,779.7461566300102,None,779.7461566300102,None,779.7598397000111,None,779.7598397000111,None,779.7598397000111,None,0.006508430029498413,0.5065084300294984,779.7598397000111,None,779.7598397000111,None,779.7598397000111,None,779.7598397000111,None,779.7598397000111,None,779.7598397000111,None,781.7305690000067,781.7305690000067,-34.4,1.829,-150,-600,-150,,,,,,,,,,,,,,,,,,,,,,,,,,,,,,,,,,,,,,,,,,,,,,,,,,,,,,,,,,,,,,,,,,,,,,,,,,,,,,,,,,,f,22,liwenxuan,2022_Apr_09_0910,experiment3,2021.1.4,30.014094619586675,
81,-150,-150,-200,two,-150,-150,-200,,,,,0,75,75,80,,,,,,,,,,,a,2.1522304999816697,783.6254037000181,None,783.6254037000181,None,785.8290701000078,None,785.8290701000078,None,785.8290701000078,None,787.8048789000022,788.3032974000089,787.8048789000022,788.3032974000089,787.8048789000022,788.3032974000089,785.8290701000078,None,788.3366539300099,None,788.3366539300099,None,788.3366539300099,None,0.023601730033988133,None,788.3366539300099,None,788.3366539300099,None,788.3366539300099,None,788.3366539300099,None,788.3366539300099,None,788.3366539300099,None,788.3350745000062,None,788.3350745000062,None,788.3350745000062,None,0.014950830023735762,0.5149508300237358,788.3350745000062,None,788.3350745000062,None,788.3350745000062,None,788.3350745000062,None,788.3350745000062,None,788.3350745000062,None,790.3382282300066,None,-6.700000000000003,2.324,-300,-750,-350,,,,,,,,,,,,,,,,,,,,,,,,,,,,,,,,,,,,,,,,,,,,,,,,,,,,,,,,,,,,,,,,,,,,,,,,,,,,,,,,,,,f,22,liwenxuan,2022_Apr_09_0910,experiment3,2021.1.4,30.014094619586675,
88,-200,-200,-150,one,-200,-200,-150,,,,,0,76,76,87,,,,,,,,,,,g,1.6518882999953348,792.6869137000176,None,792.6869137000176,None,794.3871445000113,None,794.3871445000113,None,794.3871445000113,None,796.3533609000151,796.853083199996,796.3533609000151,796.853083199996,796.3533609000151,796.853083199996,794.3871445000113,None,796.886439729997,None,796.886439729997,None,796.886439729997,None,0.02514892999897711,None,796.886439729997,None,796.886439729997,None,796.886439729997,None,796.886439729997,None,796.886439729997,None,796.886439729997,None,796.8863213000004,None,796.8863213000004,None,796.8863213000004,None,0.017776130000129342,0.5177761300001293,796.8863213000004,None,796.8863213000004,None,796.8863213000004,None,796.8863213000004,None,796.8863213000004,None,796.8863213000004,None,798.8559551000071,798.8559551000071,-22.5,2.417,-500,-950,-500,,,,,,,,,,,,,,,,,,,,,,,,,,,,,,,,,,,,,,,,,,,,,,,,,,,,,,,,,,,,,,,,,,,,,,,,,,,,,,,,,,,f,22,liwenxuan,2022_Apr_09_0910,experiment3,2021.1.4,30.014094619586675,
13,0,0,50,one,0,0,50,,,,,0,77,77,12,,,,,,,,,,,l,1.4708600000012666,801.3341781000199,None,801.3341781000199,None,802.8524767000054,None,802.8524767000054,None,802.8524767000054,None,804.7907065000036,805.2820971000183,804.7907065000036,805.2820971000183,804.7907065000036,805.2820971000183,802.8524767000054,None,805.3889872300118,None,805.3889872300118,None,805.3889872300118,None,0.022147430019686,None,805.3889872300118,None,805.3889872300118,None,805.3889872300118,None,805.3889872300118,None,805.3889872300118,None,805.3889872300118,None,805.4059960000159,None,805.4059960000159,None,805.4059960000159,None,0.008868829987477511,0.5088688299874775,805.4059960000159,None,805.4059960000159,None,805.4059960000159,None,805.4059960000159,None,805.4059960000159,None,805.4059960000159,None,807.4013674000162,807.4013674000162,1.0,1.715,-500,-950,-450,,,,,,,,,,,,,,,,,,,,,,,,,,,,,,,,,,,,,,,,,,,,,,,,,,,,,,,,,,,,,,,,,,,,,,,,,,,,,,,,,,,f,22,liwenxuan,2022_Apr_09_0910,experiment3,2021.1.4,30.014094619586675,
92,-200,0,-200,two,-200,0,-200,,,,,0,78,78,91,,,,,,,,,,,g,1.7412438000028487,809.1724653000128,None,809.1724653000128,None,810.968205000012,None,810.968205000012,None,810.968205000012,None,812.9397325000027,813.4821093000064,812.9397325000027,813.4821093000064,812.9397325000027,813.4821093000064,810.968205000012,None,813.5154658300074,None,813.5154658300074,None,813.5154658300074,None,0.015131930005736649,None,813.5154658300074,None,813.5154658300074,None,813.5154658300074,None,813.5154658300074,None,813.5154658300074,None,813.5154658300074,None,813.5299326000095,None,813.5299326000095,None,813.5299326000095,None,0.0060582300066016614,0.5060582300066017,813.5299326000095,None,813.5299326000095,None,813.5299326000095,None,813.5299326000095,None,813.5299326000095,None,813.5299326000095,None,815.531852430015,None,0.20000000000000284,2.494,-700,-950,-650,,,,,,,,,,,,,,,,,,,,,,,,,,,,,,,,,,,,,,,,,,,,,,,,,,,,,,,,,,,,,,,,,,,,,,,,,,,,,,,,,,,f,22,liwenxuan,2022_Apr_09_0910,experiment3,2021.1.4,30.014094619586675,
91,-200,-200,0,two,-200,-200,0,,,,,0,79,79,90,,,,,,,,,,,l,1.6316221999877598,818.0471575999982,None,818.0471575999982,None,819.7516959000204,None,819.7516959000204,None,819.7516959000204,None,821.7037331000029,822.2328864000156,821.7037331000029,822.2328864000156,821.7037331000029,822.2328864000156,819.7516959000204,None,822.2662429300166,None,822.2662429300166,None,822.2662429300166,None,0.02023723002639599,None,822.2662429300166,None,822.2662429300166,None,822.2662429300166,None,822.2662429300166,None,822.2662429300166,None,822.2662429300166,None,822.2850944999955,None,822.2850944999955,None,822.2850944999955,None,0.004974130046321079,0.5049741300463211,822.2850944999955,None,822.2850944999955,None,822.2850944999955,None,822.2850944999955,None,822.2850944999955,None,822.2850944999955,None,824.2698087000172,824.2698087000172,-27.3,1.862,-900,-1150,-650,,,,,,,,,,,,,,,,,,,,,,,,,,,,,,,,,,,,,,,,,,,,,,,,,,,,,,,,,,,,,,,,,,,,,,,,,,,,,,,,,,,f,22,liwenxuan,2022_Apr_09_0910,experiment3,2021.1.4,30.014094619586675,
90,-150,-200,-200,one,-150,-200,-200,,,,,0,80,80,89,,,,,,,,,,,a,2.0995498999836855,826.1963871000044,None,826.1963871000044,None,828.3345955999976,None,828.3345955999976,None,828.3345955999976,None,830.2819271000044,830.7964026000118,830.2819271000044,830.7964026000118,830.2819271000044,830.7964026000118,828.3345955999976,None,830.8635206300154,None,830.8635206300154,None,830.8635206300154,None,0.02736843001912348,None,830.8635206300154,None,830.8635206300154,None,830.8635206300154,None,830.8635206300154,None,830.8635206300154,None,830.8635206300154,None,830.8624062000017,None,830.8624062000017,None,830.8624062000017,None,0.020156930026132613,0.5201569300261326,830.8624062000017,None,830.8624062000017,None,830.8624062000017,None,830.8624062000017,None,830.8624062000017,None,830.8624062000017,None,832.8295923999976,832.8295923999976,-20.0,1.841,-1050,-1350,-850,,,,,,,,,,,,,,,,,,,,,,,,,,,,,,,,,,,,,,,,,,,,,,,,,,,,,,,,,,,,,,,,,,,,,,,,,,,,,,,,,,,f,22,liwenxuan,2022_Apr_09_0910,experiment3,2021.1.4,30.014094619586675,
12,200,0,50,two,200,0,50,,,,,0,81,81,11,,,,,,,,,,,l,1.4329620999924373,834.7276601000049,None,834.7276601000049,None,836.191519999993,None,836.191519999993,None,836.191519999993,None,838.1857201000093,None,838.1857201000093,None,838.1857201000093,None,836.191519999993,None,838.6945278300176,None,838.6945278300176,None,838.6945278300176,None,0.024654830020153895,None,838.6945278300176,None,838.6945278300176,None,838.6945278300176,None,838.6945278300176,None,838.6945278300176,None,838.6945278300176,None,838.6940625999996,None,838.6940625999996,None,838.6940625999996,None,0.01820483003393747,0.5182048300339375,838.6940625999996,None,838.6940625999996,None,838.6940625999996,None,838.6940625999996,None,838.6940625999996,None,838.6940625999996,None,840.6613886000123,840.6613886000123,12.399999999999999,1.926,-850,-1350,-800,,,,,,,,,,,,,,,,,,,,,,,,,,,,,,,,,,,,,,,,,,,,,,,,,,,,,,,,,,,,,,,,,,,,,,,,,,,,,,,,,,,f,22,liwenxuan,2022_Apr_09_0910,experiment3,2021.1.4,30.014094619586675,
82,0,-150,-150,two,0,-150,-150,,,,,0,82,82,81,,,,,,,,,,,a,2.1096433000057004,842.6608614000143,None,842.6608614000143,None,844.8274850000162,None,844.8274850000162,None,844.8274850000162,None,846.7873108000204,847.2943415000045,846.7873108000204,847.2943415000045,846.7873108000204,847.2943415000045,844.8274850000162,None,847.3276980300055,None,847.3276980300055,None,847.3276980300055,None,0.023757329996442422,None,847.3276980300055,None,847.3276980300055,None,847.3276980300055,None,847.3276980300055,None,847.3276980300055,None,847.3276980300055,None,847.3367979000031,None,847.3367979000031,None,847.3367979000031,None,0.009685730008641258,0.5096857300086413,847.3367979000031,None,847.3367979000031,None,847.3367979000031,None,847.3367979000031,None,847.3367979000031,None,847.3367979000031,None,849.3265281000058,849.3265281000058,-0.29999999999999716,1.837,-850,-1500,-950,,,,,,,,,,,,,,,,,,,,,,,,,,,,,,,,,,,,,,,,,,,,,,,,,,,,,,,,,,,,,,,,,,,,,,,,,,,,,,,,,,,f,22,liwenxuan,2022_Apr_09_0910,experiment3,2021.1.4,30.014094619586675,
96,-150,-200,-200,two,-150,-200,-200,,,,,0,83,83,95,,,,,,,,,,,a,1.9092467000009492,851.2266204000043,None,851.2266204000043,None,853.1674033000018,None,853.1674033000018,None,853.1674033000018,None,855.1205125999986,855.6261191999947,855.1205125999986,855.6261191999947,855.1205125999986,855.6261191999947,853.1674033000018,None,855.6799639300065,None,855.6799639300065,None,855.6799639300065,None,0.01666682999348268,None,855.6799639300065,None,855.6799639300065,None,855.6799639300065,None,855.6799639300065,None,855.6799639300065,None,855.6799639300065,None,855.6984969000041,None,855.6984969000041,None,855.6984969000041,None,0.0005547300388570875,0.5005547300388571,855.6984969000041,None,855.6984969000041,None,855.6984969000041,None,855.6984969000041,None,855.6984969000041,None,855.6984969000041,None,857.6724048000178,857.6724048000178,-0.10000000000000142,1.761,-1000,-1700,-1150,,,,,,,,,,,,,,,,,,,,,,,,,,,,,,,,,,,,,,,,,,,,,,,,,,,,,,,,,,,,,,,,,,,,,,,,,,,,,,,,,,,f,22,liwenxuan,2022_Apr_09_0910,experiment3,2021.1.4,30.014094619586675,
95,-200,-150,-200,two,-200,-150,-200,,,,,0,84,84,94,,,,,,,,,,,a,2.0805022999993525,859.5044998000085,None,859.5044998000085,None,861.625014499994,None,861.625014499994,None,861.625014499994,None,863.5903698000184,864.1068884000124,863.5903698000184,864.1068884000124,863.5903698000184,864.1068884000124,861.625014499994,None,864.1402449300134,None,864.1402449300134,None,864.1402449300134,None,0.027299429988488555,None,864.1402449300134,None,864.1402449300134,None,864.1402449300134,None,864.1402449300134,None,864.1402449300134,None,864.1402449300134,None,864.1397330000182,None,864.1397330000182,None,864.1397330000182,None,0.020052530016982928,0.5200525300169829,864.1397330000182,None,864.1397330000182,None,864.1397330000182,None,864.1397330000182,None,864.1397330000182,None,864.1397330000182,None,866.1054492999974,866.1054492999974,0.5,2.308,-1200,-1850,-1350,,,,,,,,,,,,,,,,,,,,,,,,,,,,,,,,,,,,,,,,,,,,,,,,,,,,,,,,,,,,,,,,,,,,,,,,,,,,,,,,,,,f,22,liwenxuan,2022_Apr_09_0910,experiment3,2021.1.4,30.014094619586675,
14,0,50,0,one,0,50,0,,,,,0,85,85,13,,,,,,,,,,,g,1.45721599998069,868.4731202000112,None,868.4731202000112,None,869.9778242000029,None,869.9778242000029,None,869.9778242000029,None,871.9244447000092,872.4574304000125,871.9244447000092,872.4574304000125,871.9244447000092,872.4574304000125,869.9778242000029,None,872.4907869300135,None,872.4907869300135,None,872.4907869300135,None,0.027120130020193756,None,872.4907869300135,None,872.4907869300135,None,872.4907869300135,None,872.4907869300135,None,872.4907869300135,None,872.4907869300135,None,872.4877123000042,None,872.4877123000042,None,872.4877123000042,None,0.020063230011146516,0.5200632300111465,872.4877123000042,None,872.4877123000042,None,872.4877123000042,None,872.4877123000042,None,872.4877123000042,None,872.4877123000042,None,874.4718924000044,874.4718924000044,3.1000000000000014,1.681,-1200,-1800,-1350,,,,,,,,,,,,,,,,,,,,,,,,,,,,,,,,,,,,,,,,,,,,,,,,,,,,,,,,,,,,,,,,,,,,,,,,,,,,,,,,,,,f,22,liwenxuan,2022_Apr_09_0910,experiment3,2021.1.4,30.014094619586675,
72,-200,0,0,two,-200,0,0,,,,,0,86,86,71,,,,,,,,,,,g,1.5463605000113603,876.2090292000212,None,876.2090292000212,None,877.7975671000022,None,877.7975671000022,None,877.7975671000022,None,879.7525150000001,880.2820646000037,879.7525150000001,880.2820646000037,879.7525150000001,880.2820646000037,877.7975671000022,None,880.3154211300047,None,880.3154211300047,None,880.3154211300047,None,0.017214430001331493,None,880.3154211300047,None,880.3154211300047,None,880.3154211300047,None,880.3154211300047,None,880.3154211300047,None,880.3154211300047,None,880.3446686000098,None,880.3446686000098,None,880.3446686000098,None,0.03188715997384861,0.5318871599738486,880.3446686000098,None,880.3446686000098,None,880.3446686000098,None,880.3446686000098,None,880.3446686000098,None,880.3446686000098,None,882.27469630001,882.27469630001,-26.9,1.592,-1400,-1800,-1350,,,,,,,,,,,,,,,,,,,,,,,,,,,,,,,,,,,,,,,,,,,,,,,,,,,,,,,,,,,,,,,,,,,,,,,,,,,,,,,,,,,f,22,liwenxuan,2022_Apr_09_0910,experiment3,2021.1.4,30.014094619586675,
32,50,200,50,two,50,200,50,,,,,0,87,87,31,,,,,,,,,,,g,1.9743726000015158,884.0030677000177,None,884.0030677000177,None,885.998762400006,None,885.998762400006,None,885.998762400006,None,887.9537523000035,888.4643215000106,887.9537523000035,888.4643215000106,887.9537523000035,888.4643215000106,885.998762400006,None,888.5219780300016,None,888.5219780300016,None,888.5219780300016,None,0.027542229974642396,None,888.5219780300016,None,888.5219780300016,None,888.5219780300016,None,888.5219780300016,None,888.5219780300016,None,888.5219780300016,None,888.5177496999968,None,888.5177496999968,None,888.5177496999968,None,0.020546329993521795,0.5205463299935218,888.5177496999968,None,888.5177496999968,None,888.5177496999968,None,888.5177496999968,None,888.5177496999968,None,888.5177496999968,None,890.5008962000138,890.5008962000138,7.799999999999997,1.425,-1350,-1600,-1300,,,,,,,,,,,,,,,,,,,,,,,,,,,,,,,,,,,,,,,,,,,,,,,,,,,,,,,,,,,,,,,,,,,,,,,,,,,,,,,,,,,f,22,liwenxuan,2022_Apr_09_0910,experiment3,2021.1.4,30.014094619586675,
94,-200,-200,-150,two,-200,-200,-150,,,,,0,88,88,93,,,,,,,,,,,g,1.923340699984692,892.0189154999971,None,892.0189154999971,None,894.0009324999992,None,894.0009324999992,None,894.0009324999992,None,895.9558677000168,896.4846941000142,895.9558677000168,896.4846941000142,895.9558677000168,896.4846941000142,894.0009324999992,None,896.5180506300152,None,896.5180506300152,None,896.5180506300152,None,0.02277263000723906,None,896.5180506300152,None,896.5180506300152,None,896.5180506300152,None,896.5180506300152,None,896.5180506300152,None,896.5180506300152,None,896.5204855000193,None,896.5204855000193,None,896.5204855000193,None,0.012812330038286746,0.5128123300382867,896.5204855000193,None,896.5204855000193,None,896.5204855000193,None,896.5204855000193,None,896.5204855000193,None,896.5204855000193,None,898.5170911000168,898.5170911000168,-33.8,1.52,-1550,-1800,-1450,,,,,,,,,,,,,,,,,,,,,,,,,,,,,,,,,,,,,,,,,,,,,,,,,,,,,,,,,,,,,,,,,,,,,,,,,,,,,,,,,,,f,22,liwenxuan,2022_Apr_09_0910,experiment3,2021.1.4,30.014094619586675,
23,0,200,0,two,0,200,0,,,,,0,89,89,22,,,,,,,,,,,l,1.2402072999975644,900.1144831000129,None,900.1144831000129,None,901.4169157000142,None,901.4169157000142,None,901.4169157000142,None,903.3830126000103,903.8915490000218,903.3830126000103,903.8915490000218,903.3830126000103,903.8915490000218,901.4169157000142,None,903.9249055300228,None,903.9249055300228,None,903.9249055300228,None,0.01157893001800403,None,903.9249055300228,None,903.9249055300228,None,903.9249055300228,None,903.9249055300228,None,903.9249055300228,None,903.9249055300228,None,903.9554229000059,None,903.9554229000059,None,903.9554229000059,None,0.025721660000272095,0.5257216600002721,903.9554229000059,None,903.9554229000059,None,903.9554229000059,None,903.9554229000059,None,903.9554229000059,None,903.9554229000059,None,905.9097039000189,905.9097039000189,3.8999999999999986,2.226,-1550,-1600,-1450,,,,,,,,,,,,,,,,,,,,,,,,,,,,,,,,,,,,,,,,,,,,,,,,,,,,,,,,,,,,,,,,,,,,,,,,,,,,,,,,,,,f,22,liwenxuan,2022_Apr_09_0910,experiment3,2021.1.4,30.014094619586675,
4,50,200,0,one,50,200,0,,,,,0,90,90,3,,,,,,,,,,,l,1.3066185000061523,908.2288336000056,None,908.2288336000056,None,909.5752497000212,None,909.5752497000212,None,909.5752497000212,None,911.5483168000064,912.0390299000137,911.5483168000064,912.0390299000137,911.5483168000064,912.0390299000137,909.5752497000212,None,912.1105434300174,None,912.1105434300174,None,912.1105434300174,None,0.022962830000324175,None,912.1105434300174,None,912.1105434300174,None,912.1105434300174,None,912.1105434300174,None,912.1105434300174,None,912.1105434300174,None,912.1122132000164,None,912.1122132000164,None,912.1122132000164,None,0.014323330018669367,0.5143233300186694,912.1122132000164,None,912.1122132000164,None,912.1122132000164,None,912.1122132000164,None,912.1122132000164,None,912.1122132000164,None,914.0974641999928,914.0974641999928,12.200000000000003,1.436,-1500,-1400,-1450,,,,,,,,,,,,,,,,,,,,,,,,,,,,,,,,,,,,,,,,,,,,,,,,,,,,,,,,,,,,,,,,,,,,,,,,,,,,,,,,,,,f,22,liwenxuan,2022_Apr_09_0910,experiment3,2021.1.4,30.014094619586675,
29,50,0,50,one,50,0,50,,,,,0,91,91,28,,,,,,,,,,,l,1.0647489999828395,915.5972980000079,None,915.5972980000079,None,916.6883637999999,None,916.6883637999999,None,916.6883637999999,None,918.6313280000177,919.156739900005,918.6313280000177,919.156739900005,918.6313280000177,919.156739900005,916.6883637999999,None,919.1900964300061,None,919.1900964300061,None,919.1900964300061,None,0.022707829979481176,None,919.1900964300061,None,919.1900964300061,None,919.1900964300061,None,919.1900964300061,None,919.1900964300061,None,919.1900964300061,None,919.1941343999933,None,919.1941343999933,None,919.1941343999933,None,0.015316430013626814,0.5153164300136268,919.1941343999933,None,919.1941343999933,None,919.1941343999933,None,919.1941343999933,None,919.1941343999933,None,919.1941343999933,None,921.1624520000187,921.1624520000187,1.7000000000000028,1.942,-1450,-1400,-1400,,,,,,,,,,,,,,,,,,,,,,,,,,,,,,,,,,,,,,,,,,,,,,,,,,,,,,,,,,,,,,,,,,,,,,,,,,,,,,,,,,,f,22,liwenxuan,2022_Apr_09_0910,experiment3,2021.1.4,30.014094619586675,
15,50,0,0,one,50,0,0,,,,,0,92,92,14,,,,,,,,,,,a,1.1768620999937411,923.1786131999979,None,923.1786131999979,None,924.4085778000008,None,924.4085778000008,None,924.4085778000008,None,926.4160298000206,None,926.4160298000206,None,926.4160298000206,None,924.4085778000008,None,926.9280791300029,None,926.9280791300029,None,926.9280791300029,None,0.02682733000256121,None,926.9280791300029,None,926.9280791300029,None,926.9280791300029,None,926.9280791300029,None,926.9280791300029,None,926.9280791300029,None,926.927943000017,None,926.927943000017,None,926.927943000017,None,0.019537729996955022,0.519537729996955,926.927943000017,None,926.927943000017,None,926.927943000017,None,926.927943000017,None,926.927943000017,None,926.927943000017,None,928.8940865000186,928.8940865000186,15.299999999999997,1.789,-1400,-1400,-1400,,,,,,,,,,,,,,,,,,,,,,,,,,,,,,,,,,,,,,,,,,,,,,,,,,,,,,,,,,,,,,,,,,,,,,,,,,,,,,,,,,,f,22,liwenxuan,2022_Apr_09_0910,experiment3,2021.1.4,30.014094619586675,
39,0,200,200,one,0,200,200,,,,,0,93,93,38,,,,,,,,,,,a,1.1571530000073835,930.7418229000177,None,930.7418229000177,None,931.9308132000151,934.4482059000002,931.9308132000151,934.4482059000002,931.9308132000151,934.4482059000002,933.9472141000151,None,933.9472141000151,None,933.9472141000151,None,931.9308132000151,934.4482059000002,934.4815624300012,None,934.4815624300012,None,934.4815624300012,None,0.01679993001744151,None,934.4815624300012,None,934.4815624300012,None,934.4815624300012,None,934.4815624300012,None,934.4815624300012,None,934.4815624300012,None,934.5066227000207,None,934.5066227000207,None,934.5066227000207,None,0.02612225996563211,0.5261222599656321,934.5066227000207,None,934.5066227000207,None,934.5066227000207,None,934.5066227000207,None,934.5066227000207,None,934.5066227000207,None,936.4928419000062,936.4928419000062,-2.700000000000003,2.35,-1400,-1200,-1200,,,,,,,,,,,,,,,,,,,,,,,,,,,,,,,,,,,,,,,,,,,,,,,,,,,,,,,,,,,,,,,,,,,,,,,,,,,,,,,,,,,f,22,liwenxuan,2022_Apr_09_0910,experiment3,2021.1.4,30.014094619586675,
