trialNumber,mychoice,otherchoice,stay,skip,pointsWon,otherScore,unobtained,choicepos,pos_1,otherscore,allowedkeyresp,trials_2.thisRepN,trials_2.thisTrialN,trials_2.thisN,trials_2.thisIndex,trials.thisRepN,trials.thisTrialN,trials.thisN,trials.thisIndex,image_2.started,image_2.stopped,key_resp_2.keys,key_resp_2.rt,key_resp_2.started,key_resp_2.stopped,key_resp_6.keys,key_resp_6.rt,key_resp_6.started,key_resp_6.stopped,text.started,text.stopped,left_3.started,left_3.stopped,middle_3.started,middle_3.stopped,right_3.started,right_3.stopped,otherleft_1.started,otherleft_1.stopped,othermiddle_1.started,othermiddle_1.stopped,otherright_1.started,otherright_1.stopped,text_2.started,text_2.stopped,left_4.started,left_4.stopped,right_4.started,right_4.stopped,middle_4.started,middle_4.stopped,ISI_3.started,ISI_3.stopped,mypick.started,mypick.stopped,otherpick.started,otherpick.stopped,residal.started,residal.stopped,otherleft_5.started,otherleft_5.stopped,othermiddle_5.started,othermiddle_5.stopped,otherright_5.started,otherright_5.stopped,left_5.started,left_5.stopped,right_5.started,right_5.stopped,middle_5.started,middle_5.stopped,ISI_5.started,ISI_5.stopped,mypick_1.started,mypick_1.stopped,otherpick_1.started,otherpick_1.stopped,residal_1.started,residal_1.stopped,otherleft_6.started,otherleft_6.stopped,othermiddle_6.started,othermiddle_6.stopped,otherright_6.started,otherright_6.stopped,text_3.started,text_3.stopped,rating,ratingrt,totalScore,othertotalScore,unobtainedScore,image_4.started,image_4.stopped,key_resp_3.keys,key_resp_3.rt,key_resp_3.started,key_resp_3.stopped,image_5.started,image_5.stopped,key_resp.keys,key_resp.rt,key_resp.started,key_resp.stopped,otherleft_3.started,otherleft_3.stopped,othermiddle_3.started,othermiddle_3.stopped,otherright_3.started,otherright_3.stopped,text_4.started,text_4.stopped,ISI_2.started,ISI_2.stopped,key_resp_4.keys,key_resp_4.rt,key_resp_4.started,key_resp_4.stopped,otherleft_4.started,otherleft_4.stopped,othermiddle_4.started,othermiddle_4.stopped,otherright_4.started,otherright_4.stopped,text_5.started,text_5.stopped,left.started,left.stopped,right.started,right.stopped,middle.started,middle.stopped,ISI.started,ISI.stopped,mypick_3.started,mypick_3.stopped,otherpick_3.started,otherpick_3.stopped,residal_3.started,residal_3.stopped,otherleft.started,otherleft.stopped,othermiddle.started,othermiddle.stopped,otherright.started,otherright.stopped,right_2.started,right_2.stopped,middle_2.started,middle_2.stopped,left_2.started,left_2.stopped,ISI_4.started,ISI_4.stopped,mypick_4.started,mypick_4.stopped,otherpick_4.started,otherpick_4.stopped,residal_4.started,residal_4.stopped,otherleft_2.started,otherleft_2.stopped,othermiddle_2.started,othermiddle_2.stopped,otherright_2.started,otherright_2.stopped,text_6.started,text_6.stopped,image_3.started,image_3.stopped,key_resp_9.keys,key_resp_9.rt,key_resp_9.started,key_resp_9.stopped,gender,age,participant,date,expName,psychopyVersion,frameRate,
,,,,,,,,,,,,,,,,,,,,38.00281289999839,None,space,4.989261600014288,38.00281289999839,None,,,,,,,,,,,,,,,,,,,,,,,,,,,,,,,,,,,,,,,,,,,,,,,,,,,,,,,,,,,,,,,,,,,,,,,,,,,,,,,,,,,,,,,,,,,,,,,,,,,,,,,,,,,,,,,,,,,,,,,,,,,,,,,,,,,,,,,,,,,,,,,,,,,,,,f,19,MAXINYU,2022_Apr_10_2110,experiment3,2021.1.4,30.30978111970692,
42,50,200,200,one,50,200,200,,,,,0,0,0,41,,,,,,,,,,,g,4.86610629997449,43.1169368000119,None,43.1169368000119,None,48.01438549999148,None,48.01438549999148,None,48.01438549999148,None,49.964606299996376,50.49676680000266,49.964606299996376,50.49676680000266,49.964606299996376,50.49676680000266,48.01438549999148,None,50.53008767000283,None,50.53008767000283,None,50.53008767000283,None,0.01562197000021115,None,50.53008767000283,None,50.53008767000283,None,50.53008767000283,None,50.53008767000283,None,50.53008767000283,None,50.53008767000283,None,50.53758459998062,None,50.53758459998062,None,50.53758459998062,None,0.005407369986642152,0.5054073699866422,50.53758459998062,None,50.53758459998062,None,50.53758459998062,None,50.53758459998062,None,50.53758459998062,None,50.53758459998062,None,52.54648996998439,None,-18.5,7.95,250,200,200,,,,,,,,,,,,,,,,,,,,,,,,,,,,,,,,,,,,,,,,,,,,,,,,,,,,,,,,,,,,,,,,,,,,,,,,,,,,,,,,,,,f,19,MAXINYU,2022_Apr_10_2110,experiment3,2021.1.4,30.30978111970692,
50,0,-200,-150,one,0,-200,-150,,,,,0,1,1,49,,,,,,,,,,,a,3.808978000015486,60.58127249998506,None,60.58127249998506,None,64.427775499993,None,64.427775499993,None,64.427775499993,None,66.39344780001557,66.89356900000712,66.39344780001557,66.89356900000712,66.39344780001557,66.89356900000712,64.427775499993,None,66.92688987000729,None,66.92688987000729,None,66.92688987000729,None,0.019599570077843964,None,66.92688987000729,None,66.92688987000729,None,66.92688987000729,None,66.92688987000729,None,66.92688987000729,None,66.92688987000729,None,66.94518969999626,None,66.94518969999626,None,66.94518969999626,None,0.0072330700349994,0.5072330700349994,66.94518969999626,None,66.94518969999626,None,66.94518969999626,None,66.94518969999626,None,66.94518969999626,None,66.94518969999626,None,68.94312969996827,68.94312969996827,9.5,17.056,250,0,50,,,,,,,,,,,,,,,,,,,,,,,,,,,,,,,,,,,,,,,,,,,,,,,,,,,,,,,,,,,,,,,,,,,,,,,,,,,,,,,,,,,f,19,MAXINYU,2022_Apr_10_2110,experiment3,2021.1.4,30.30978111970692,
30,50,50,0,one,50,50,0,,,,,0,2,2,29,,,,,,,,,,,g,5.675252000044566,86.07459229999222,None,86.07459229999222,None,91.80588860000717,None,91.80588860000717,None,91.80588860000717,None,93.77170199999819,94.27175329998136,93.77170199999819,94.27175329998136,93.77170199999819,94.27175329998136,91.80588860000717,None,94.30507416998152,None,94.30507416998152,None,94.30507416998152,None,0.025702470040414482,None,94.30507416998152,None,94.30507416998152,None,94.30507416998152,None,94.30507416998152,None,94.30507416998152,None,94.30507416998152,None,94.30385889997706,None,94.30385889997706,None,94.30385889997706,None,0.01818667002953589,0.5181866700295359,94.30385889997706,None,94.30385889997706,None,94.30385889997706,None,94.30385889997706,None,94.30385889997706,None,94.30385889997706,None,96.28767589997733,96.28767589997733,0.20000000000000284,18.844,300,50,50,,,,,,,,,,,,,,,,,,,,,,,,,,,,,,,,,,,,,,,,,,,,,,,,,,,,,,,,,,,,,,,,,,,,,,,,,,,,,,,,,,,f,19,MAXINYU,2022_Apr_10_2110,experiment3,2021.1.4,30.30978111970692,
1,0,50,200,one,0,50,200,,,,,0,3,3,0,,,,,,,,,,,l,2.687493800010998,115.18616559996735,None,115.18616559996735,None,117.9193853000179,None,117.9193853000179,None,117.9193853000179,None,119.88348889996996,120.38308150001103,119.88348889996996,120.38308150001103,119.88348889996996,120.38308150001103,117.9193853000179,None,120.45121437000925,None,120.45121437000925,None,120.45121437000925,None,0.020238970057107508,None,120.45121437000925,None,120.45121437000925,None,120.45121437000925,None,120.45121437000925,None,120.45121437000925,None,120.45121437000925,None,120.47035750001669,None,120.47035750001669,None,120.47035750001669,None,0.0035135700600221753,0.5035135700600222,120.47035750001669,None,120.47035750001669,None,120.47035750001669,None,120.47035750001669,None,120.47035750001669,None,120.47035750001669,None,122.45373599999584,122.45373599999584,-12.0,9.737,300,100,250,,,,,,,,,,,,,,,,,,,,,,,,,,,,,,,,,,,,,,,,,,,,,,,,,,,,,,,,,,,,,,,,,,,,,,,,,,,,,,,,,,,f,19,MAXINYU,2022_Apr_10_2110,experiment3,2021.1.4,30.30978111970692,
86,-200,0,-200,one,-200,0,-200,,,,,0,4,4,85,,,,,,,,,,,g,3.173572100000456,132.2627802999923,None,132.2627802999923,None,135.49664779996965,None,135.49664779996965,None,135.49664779996965,None,137.46335029997863,137.9627820000169,137.46335029997863,137.9627820000169,137.46335029997863,137.9627820000169,135.49664779996965,None,137.99610287001707,None,137.99610287001707,None,137.99610287001707,None,0.02535627008182928,None,137.99610287001707,None,137.99610287001707,None,137.99610287001707,None,137.99610287001707,None,137.99610287001707,None,137.99610287001707,None,137.99537479999708,None,137.99537479999708,None,137.99537479999708,None,0.018934670079033822,0.5189346700790338,137.99537479999708,None,137.99537479999708,None,137.99537479999708,None,137.99537479999708,None,137.99537479999708,None,137.99537479999708,None,139.96189099998446,139.96189099998446,-50.0,4.573,100,100,50,,,,,,,,,,,,,,,,,,,,,,,,,,,,,,,,,,,,,,,,,,,,,,,,,,,,,,,,,,,,,,,,,,,,,,,,,,,,,,,,,,,f,19,MAXINYU,2022_Apr_10_2110,experiment3,2021.1.4,30.30978111970692,
90,-150,-200,-200,one,-150,-200,-200,,,,,0,5,5,89,,,,,,,,,,,l,4.427670600009151,144.59387949999655,None,144.59387949999655,None,149.072586699971,None,149.072586699971,None,149.072586699971,None,151.0443907000008,151.54349720000755,151.0443907000008,151.54349720000755,151.0443907000008,151.54349720000755,149.072586699971,None,151.57681807000773,None,151.57681807000773,None,151.57681807000773,None,0.0250169700011611,None,151.57681807000773,None,151.57681807000773,None,151.57681807000773,None,151.57681807000773,None,151.57681807000773,None,151.57681807000773,None,151.57642019999912,None,151.57642019999912,None,151.57642019999912,None,0.018496670061722398,0.5184966700617224,151.57642019999912,None,151.57642019999912,None,151.57642019999912,None,151.57642019999912,None,151.57642019999912,None,151.57642019999912,None,153.5431976999971,153.5431976999971,24.900000000000006,16.468,-50,-100,-150,,,,,,,,,,,,,,,,,,,,,,,,,,,,,,,,,,,,,,,,,,,,,,,,,,,,,,,,,,,,,,,,,,,,,,,,,,,,,,,,,,,f,19,MAXINYU,2022_Apr_10_2110,experiment3,2021.1.4,30.30978111970692,
92,-200,0,-200,two,-200,0,-200,,,,,0,6,6,91,,,,,,,,,,,g,3.721667499979958,170.0781451999792,None,170.0781451999792,None,173.82914430001983,None,173.82914430001983,None,173.82914430001983,None,175.79569190001348,176.3058650000021,175.79569190001348,176.3058650000021,175.79569190001348,176.3058650000021,173.82914430001983,None,176.33918587000227,None,176.33918587000227,None,176.33918587000227,None,0.013911070069298148,None,176.33918587000227,None,176.33918587000227,None,176.33918587000227,None,176.33918587000227,None,176.33918587000227,None,176.33918587000227,None,176.34689749998506,None,176.34689749998506,None,176.34689749998506,None,0.0056606699945405126,0.5056606699945405,176.34689749998506,None,176.34689749998506,None,176.34689749998506,None,176.34689749998506,None,176.34689749998506,None,176.34689749998506,None,178.36187547001174,None,-50.0,9.577,-250,-100,-350,,,,,,,,,,,,,,,,,,,,,,,,,,,,,,,,,,,,,,,,,,,,,,,,,,,,,,,,,,,,,,,,,,,,,,,,,,,,,,,,,,,f,19,MAXINYU,2022_Apr_10_2110,experiment3,2021.1.4,30.30978111970692,
41,200,50,200,one,200,50,200,,,,,0,7,7,40,,,,,,,,,,,g,3.717901099997107,187.98777870001504,None,187.98777870001504,None,191.7529952999903,None,191.7529952999903,None,191.7529952999903,None,193.7192060999805,194.21885379997548,193.7192060999805,194.21885379997548,193.7192060999805,194.21885379997548,191.7529952999903,None,194.25217466997566,None,194.25217466997566,None,194.25217466997566,None,0.025233770022168756,None,194.25217466997566,None,194.25217466997566,None,194.25217466997566,None,194.25217466997566,None,194.25217466997566,None,194.25217466997566,None,194.27213569998275,None,194.27213569998275,None,194.27213569998275,None,0.025271039979998022,0.525271039979998,194.27213569998275,None,194.27213569998275,None,194.27213569998275,None,194.27213569998275,None,194.27213569998275,None,194.27213569998275,None,196.2521142999758,196.2521142999758,50.0,4.034,-50,-50,-150,,,,,,,,,,,,,,,,,,,,,,,,,,,,,,,,,,,,,,,,,,,,,,,,,,,,,,,,,,,,,,,,,,,,,,,,,,,,,,,,,,,f,19,MAXINYU,2022_Apr_10_2110,experiment3,2021.1.4,30.30978111970692,
5,200,50,0,one,200,50,0,,,,,0,8,8,4,,,,,,,,,,,g,3.2876734000165015,200.34848809998948,None,200.34848809998948,None,203.68350179999834,None,203.68350179999834,None,203.68350179999834,None,205.63579450000543,206.1505958000198,205.63579450000543,206.1505958000198,205.63579450000543,206.1505958000198,203.68350179999834,None,206.18391667001998,None,206.18391667001998,None,206.18391667001998,None,0.024982570088468492,None,206.18391667001998,None,206.18391667001998,None,206.18391667001998,None,206.18391667001998,None,206.18391667001998,None,206.18391667001998,None,206.1819521000143,None,206.1819521000143,None,206.1819521000143,None,0.01762217009672895,0.517622170096729,206.1819521000143,None,206.1819521000143,None,206.1819521000143,None,206.1819521000143,None,206.1819521000143,None,206.1819521000143,None,208.15006820001872,208.15006820001872,50.0,3.449,150,0,-150,,,,,,,,,,,,,,,,,,,,,,,,,,,,,,,,,,,,,,,,,,,,,,,,,,,,,,,,,,,,,,,,,,,,,,,,,,,,,,,,,,,f,19,MAXINYU,2022_Apr_10_2110,experiment3,2021.1.4,30.30978111970692,
84,-150,-150,0,two,-150,-150,0,,,,,0,9,9,83,,,,,,,,,,,l,4.77152730000671,211.66625800001202,None,211.66625800001202,None,216.49826889997348,None,216.49826889997348,None,216.49826889997348,None,218.46606020000763,None,218.46606020000763,None,218.46606020000763,None,216.49826889997348,None,218.9975529699994,None,218.9975529699994,None,218.9975529699994,None,0.012515270034782588,None,218.9975529699994,None,218.9975529699994,None,218.9975529699994,None,218.9975529699994,None,218.9975529699994,None,218.9975529699994,None,219.0149046999868,None,219.0149046999868,None,219.0149046999868,None,0.03165734000504017,0.5316573400050402,219.0149046999868,None,219.0149046999868,None,219.0149046999868,None,219.0149046999868,None,219.0149046999868,None,219.0149046999868,None,220.99970420001773,220.99970420001773,0.10000000000000142,3.732,0,-150,-150,,,,,,,,,,,,,,,,,,,,,,,,,,,,,,,,,,,,,,,,,,,,,,,,,,,,,,,,,,,,,,,,,,,,,,,,,,,,,,,,,,,f,19,MAXINYU,2022_Apr_10_2110,experiment3,2021.1.4,30.30978111970692,
56,0,-200,-150,two,0,-200,-150,,,,,0,10,10,55,,,,,,,,,,,a,3.0631712999893352,224.80144890001975,None,224.80144890001975,None,227.91305949998787,None,227.91305949998787,None,227.91305949998787,None,229.87888520001434,230.378324099991,229.87888520001434,230.378324099991,229.87888520001434,230.378324099991,227.91305949998787,None,230.44514286999475,None,230.44514286999475,None,230.44514286999475,None,0.02762126998277381,None,230.44514286999475,None,230.44514286999475,None,230.44514286999475,None,230.44514286999475,None,230.44514286999475,None,230.44514286999475,None,230.4452697999659,None,230.4452697999659,None,230.4452697999659,None,0.013976469985209405,0.5139764699852094,230.4452697999659,None,230.4452697999659,None,230.4452697999659,None,230.4452697999659,None,230.4452697999659,None,230.4452697999659,None,232.44536637000857,None,49.7,4.445,0,-350,-300,,,,,,,,,,,,,,,,,,,,,,,,,,,,,,,,,,,,,,,,,,,,,,,,,,,,,,,,,,,,,,,,,,,,,,,,,,,,,,,,,,,f,19,MAXINYU,2022_Apr_10_2110,experiment3,2021.1.4,30.30978111970692,
21,50,0,0,two,50,0,0,,,,,0,11,11,20,,,,,,,,,,,a,3.09150589996716,236.94300660002045,None,236.94300660002045,None,240.0938737000106,None,240.0938737000106,None,240.0938737000106,None,242.06050069996854,242.57572809996782,242.06050069996854,242.57572809996782,242.06050069996854,242.57572809996782,240.0938737000106,None,242.609048969968,None,242.609048969968,None,242.609048969968,None,0.028053069952875376,None,242.609048969968,None,242.609048969968,None,242.609048969968,None,242.609048969968,None,242.609048969968,None,242.609048969968,None,242.60907700000098,None,242.60907700000098,None,242.60907700000098,None,0.015237270039506257,0.5152372700395063,242.60907700000098,None,242.60907700000098,None,242.60907700000098,None,242.60907700000098,None,242.60907700000098,None,242.60907700000098,None,244.57925179996528,244.57925179996528,24.799999999999997,17.266,50,-350,-300,,,,,,,,,,,,,,,,,,,,,,,,,,,,,,,,,,,,,,,,,,,,,,,,,,,,,,,,,,,,,,,,,,,,,,,,,,,,,,,,,,,f,19,MAXINYU,2022_Apr_10_2110,experiment3,2021.1.4,30.30978111970692,
77,-150,0,-150,one,-150,0,-150,,,,,0,12,12,76,,,,,,,,,,,g,3.5427610999904573,261.9098651999957,None,261.9098651999957,None,265.48839600000065,None,265.48839600000065,None,265.48839600000065,None,267.45443579996936,267.9547976999893,267.45443579996936,267.9547976999893,267.45443579996936,267.9547976999893,265.48839600000065,None,267.98811856998947,None,267.98811856998947,None,267.98811856998947,None,0.02551736996974796,None,267.98811856998947,None,267.98811856998947,None,267.98811856998947,None,267.98811856998947,None,267.98811856998947,None,267.98811856998947,None,267.9873614999815,None,267.9873614999815,None,267.9873614999815,None,0.01833747001364827,0.5183374700136483,267.9873614999815,None,267.9873614999815,None,267.9873614999815,None,267.9873614999815,None,267.9873614999815,None,267.9873614999815,None,269.9542896999628,269.9542896999628,-35.9,10.353,-100,-350,-450,,,,,,,,,,,,,,,,,,,,,,,,,,,,,,,,,,,,,,,,,,,,,,,,,,,,,,,,,,,,,,,,,,,,,,,,,,,,,,,,,,,f,19,MAXINYU,2022_Apr_10_2110,experiment3,2021.1.4,30.30978111970692,
8,0,200,50,two,0,200,50,,,,,0,13,13,7,,,,,,,,,,,g,3.700719200016465,280.36675629997626,None,280.36675629997626,None,284.10215559997596,None,284.10215559997596,None,284.10215559997596,None,286.0502405000152,286.56744339998113,286.0502405000152,286.56744339998113,286.0502405000152,286.56744339998113,284.10215559997596,None,286.634675769991,None,286.634675769991,None,286.634675769991,None,0.02748967002844438,None,286.634675769991,None,286.634675769991,None,286.634675769991,None,286.634675769991,None,286.634675769991,None,286.634675769991,None,286.63395459996536,None,286.63395459996536,None,286.63395459996536,None,0.019276470062322915,0.5192764700623229,286.63395459996536,None,286.63395459996536,None,286.63395459996536,None,286.63395459996536,None,286.63395459996536,None,286.63395459996536,None,288.61804219998885,288.61804219998885,-50.0,7.235,-100,-150,-400,,,,,,,,,,,,,,,,,,,,,,,,,,,,,,,,,,,,,,,,,,,,,,,,,,,,,,,,,,,,,,,,,,,,,,,,,,,,,,,,,,,f,19,MAXINYU,2022_Apr_10_2110,experiment3,2021.1.4,30.30978111970692,
94,-200,-200,-150,two,-200,-200,-150,,,,,0,14,14,93,,,,,,,,,,,a,3.361363799951505,295.9167642999673,None,295.9167642999673,None,299.3312276999932,None,299.3312276999932,None,299.3312276999932,None,301.281183700019,301.7815609999816,301.281183700019,301.7815609999816,301.281183700019,301.7815609999816,299.3312276999932,None,301.84822526997306,None,301.84822526997306,None,301.84822526997306,None,0.02739617001498118,None,301.84822526997306,None,301.84822526997306,None,301.84822526997306,None,301.84822526997306,None,301.84822526997306,None,301.84822526997306,None,301.84743389999494,None,301.84743389999494,None,301.84743389999494,None,0.02029217005474493,0.5202921700547449,301.84743389999494,None,301.84743389999494,None,301.84743389999494,None,301.84743389999494,None,301.84743389999494,None,301.84743389999494,None,303.82337030000053,303.82337030000053,-25.0,20.077,-300,-350,-550,,,,,,,,,,,,,,,,,,,,,,,,,,,,,,,,,,,,,,,,,,,,,,,,,,,,,,,,,,,,,,,,,,,,,,,,,,,,,,,,,,,f,19,MAXINYU,2022_Apr_10_2110,experiment3,2021.1.4,30.30978111970692,
53,-200,-150,0,one,-200,-150,0,,,,,0,15,15,52,,,,,,,,,,,l,1.9513935999711975,323.97318339999765,None,323.97318339999765,None,325.9773456999683,None,325.9773456999683,None,325.9773456999683,None,327.9433160999906,328.4748856999795,327.9433160999906,328.4748856999795,327.9433160999906,328.4748856999795,325.9773456999683,None,328.5082065699797,None,328.5082065699797,None,328.5082065699797,None,0.02632656996138394,None,328.5082065699797,None,328.5082065699797,None,328.5082065699797,None,328.5082065699797,None,328.5082065699797,None,328.5082065699797,None,328.5145431999699,None,328.5145431999699,None,328.5145431999699,None,0.007157370040658861,0.5071573700406589,328.5145431999699,None,328.5145431999699,None,328.5145431999699,None,328.5145431999699,None,328.5145431999699,None,328.5145431999699,None,330.508860300004,330.508860300004,-50.0,4.764,-500,-500,-550,,,,,,,,,,,,,,,,,,,,,,,,,,,,,,,,,,,,,,,,,,,,,,,,,,,,,,,,,,,,,,,,,,,,,,,,,,,,,,,,,,,f,19,MAXINYU,2022_Apr_10_2110,experiment3,2021.1.4,30.30978111970692,
47,200,50,200,two,200,50,200,,,,,0,16,16,46,,,,,,,,,,,g,4.155400799994823,335.34243419999257,None,335.34243419999257,None,339.5232897999813,None,339.5232897999813,None,339.5232897999813,None,341.5068228999735,342.0069552999921,341.5068228999735,342.0069552999921,341.5068228999735,342.0069552999921,339.5232897999813,None,342.0402761699923,None,342.0402761699923,None,342.0402761699923,None,0.027321569970808923,None,342.0402761699923,None,342.0402761699923,None,342.0402761699923,None,342.0402761699923,None,342.0402761699923,None,342.0402761699923,None,342.0395654999884,None,342.0395654999884,None,342.0395654999884,None,0.020573970046825707,0.5205739700468257,342.0395654999884,None,342.0395654999884,None,342.0395654999884,None,342.0395654999884,None,342.0395654999884,None,342.0395654999884,None,344.00679660000606,344.00679660000606,50.0,4.225,-300,-450,-350,,,,,,,,,,,,,,,,,,,,,,,,,,,,,,,,,,,,,,,,,,,,,,,,,,,,,,,,,,,,,,,,,,,,,,,,,,,,,,,,,,,f,19,MAXINYU,2022_Apr_10_2110,experiment3,2021.1.4,30.30978111970692,
12,200,0,50,two,200,0,50,,,,,0,17,17,11,,,,,,,,,,,g,2.8398292000056244,348.2860643999884,None,348.2860643999884,None,351.1881685999688,None,351.1881685999688,None,351.1881685999688,None,353.154898400011,353.6547540000174,353.154898400011,353.6547540000174,353.154898400011,353.6547540000174,351.1881685999688,None,353.6880748700176,None,353.6880748700176,None,353.6880748700176,None,0.02456466999137774,None,353.6880748700176,None,353.6880748700176,None,353.6880748700176,None,353.6880748700176,None,353.6880748700176,None,353.6880748700176,None,353.68707169999834,None,353.68707169999834,None,353.68707169999834,None,0.018080670037306845,0.5180806700373068,353.68707169999834,None,353.68707169999834,None,353.68707169999834,None,353.68707169999834,None,353.68707169999834,None,353.68707169999834,None,355.6544743999839,355.6544743999839,50.0,3.31,-100,-450,-300,,,,,,,,,,,,,,,,,,,,,,,,,,,,,,,,,,,,,,,,,,,,,,,,,,,,,,,,,,,,,,,,,,,,,,,,,,,,,,,,,,,f,19,MAXINYU,2022_Apr_10_2110,experiment3,2021.1.4,30.30978111970692,
93,0,-200,-200,two,0,-200,-200,,,,,0,18,18,92,,,,,,,,,,,g,2.916449499956798,359.02429789997404,None,359.02429789997404,None,362.00399539998034,None,362.00399539998034,None,362.00399539998034,None,363.9783135000034,364.48669380001957,363.9783135000034,364.48669380001957,363.9783135000034,364.48669380001957,362.00399539998034,None,364.52001467001975,None,364.52001467001975,None,364.52001467001975,None,0.02758587000425905,None,364.52001467001975,None,364.52001467001975,None,364.52001467001975,None,364.52001467001975,None,364.52001467001975,None,364.52001467001975,None,364.51830090000294,None,364.51830090000294,None,364.51830090000294,None,0.020226070017088205,0.5202260700170882,364.51830090000294,None,364.51830090000294,None,364.51830090000294,None,364.51830090000294,None,364.51830090000294,None,364.51830090000294,None,366.4853709000163,366.4853709000163,49.900000000000006,3.62,-100,-650,-500,,,,,,,,,,,,,,,,,,,,,,,,,,,,,,,,,,,,,,,,,,,,,,,,,,,,,,,,,,,,,,,,,,,,,,,,,,,,,,,,,,,f,19,MAXINYU,2022_Apr_10_2110,experiment3,2021.1.4,30.30978111970692,
55,0,-150,-200,two,0,-150,-200,,,,,0,19,19,54,,,,,,,,,,,g,2.377192899992224,370.1853134999983,None,370.1853134999983,None,372.6175634000101,None,372.6175634000101,None,372.6175634000101,None,374.5840296999668,375.1090434999787,374.5840296999668,375.1090434999787,374.5840296999668,375.1090434999787,372.6175634000101,None,375.1423643699789,None,375.1423643699789,None,375.1423643699789,None,0.018836670031305403,None,375.1423643699789,None,375.1423643699789,None,375.1423643699789,None,375.1423643699789,None,375.1423643699789,None,375.1423643699789,None,375.1743673000019,None,375.1743673000019,None,375.1743673000019,None,0.024270639929454774,0.5242706399294548,375.1743673000019,None,375.1743673000019,None,375.1743673000019,None,375.1743673000019,None,375.1743673000019,None,375.1743673000019,None,377.1503840999794,377.1503840999794,49.5,8.847,-100,-800,-700,,,,,,,,,,,,,,,,,,,,,,,,,,,,,,,,,,,,,,,,,,,,,,,,,,,,,,,,,,,,,,,,,,,,,,,,,,,,,,,,,,,f,19,MAXINYU,2022_Apr_10_2110,experiment3,2021.1.4,30.30978111970692,
4,50,200,0,one,50,200,0,,,,,0,20,20,3,,,,,,,,,,,g,2.6154004000127316,386.0531552999746,None,386.0531552999746,None,388.71477690001484,None,388.71477690001484,None,388.71477690001484,None,390.66411359998165,391.1639754999778,390.66411359998165,391.1639754999778,390.66411359998165,391.1639754999778,388.71477690001484,None,391.22998897001963,None,391.22998897001963,None,391.22998897001963,None,0.027761870005633682,None,391.22998897001963,None,391.22998897001963,None,391.22998897001963,None,391.22998897001963,None,391.22998897001963,None,391.22998897001963,None,391.22968879999826,None,391.22968879999826,None,391.22968879999826,None,0.020337369991466403,0.5203373699914664,391.22968879999826,None,391.22968879999826,None,391.22968879999826,None,391.22968879999826,None,391.22968879999826,None,391.22968879999826,None,393.21578819997376,393.21578819997376,-11.799999999999997,13.615,-50,-600,-700,,,,,,,,,,,,,,,,,,,,,,,,,,,,,,,,,,,,,,,,,,,,,,,,,,,,,,,,,,,,,,,,,,,,,,,,,,,,,,,,,,,f,19,MAXINYU,2022_Apr_10_2110,experiment3,2021.1.4,30.30978111970692,
22,0,0,200,two,0,0,200,,,,,0,21,21,21,,,,,,,,,,,l,3.162797099968884,406.8917483999976,None,406.8917483999976,None,410.11060050001834,None,410.11060050001834,None,410.11060050001834,None,412.077316800016,412.5764663000009,412.077316800016,412.5764663000009,412.077316800016,412.5764663000009,410.11060050001834,None,412.6097871700011,None,412.6097871700011,None,412.6097871700011,None,0.026102069998160005,None,412.6097871700011,None,412.6097871700011,None,412.6097871700011,None,412.6097871700011,None,412.6097871700011,None,412.6097871700011,None,412.60922250000294,None,412.60922250000294,None,412.60922250000294,None,0.019815869978629053,0.519815869978629,412.60922250000294,None,412.60922250000294,None,412.60922250000294,None,412.60922250000294,None,412.60922250000294,None,412.60922250000294,None,414.5927551999921,414.5927551999921,-11.700000000000003,4.608,-50,-600,-500,,,,,,,,,,,,,,,,,,,,,,,,,,,,,,,,,,,,,,,,,,,,,,,,,,,,,,,,,,,,,,,,,,,,,,,,,,,,,,,,,,,f,19,MAXINYU,2022_Apr_10_2110,experiment3,2021.1.4,30.30978111970692,
3,50,0,200,one,50,0,200,,,,,0,22,22,2,,,,,,,,,,,a,3.3591368999914266,419.2550194999785,None,419.2550194999785,None,422.6746501000016,None,422.6746501000016,None,422.6746501000016,None,424.64100930001587,425.1460714999703,424.64100930001587,425.1460714999703,424.64100930001587,425.1460714999703,422.6746501000016,None,425.17939236997046,None,425.17939236997046,None,425.17939236997046,None,0.026218869956210256,None,425.17939236997046,None,425.17939236997046,None,425.17939236997046,None,425.17939236997046,None,425.17939236997046,None,425.17939236997046,None,425.1747485999949,None,425.1747485999949,None,425.1747485999949,None,0.017246470029931515,0.5172464700299315,425.1747485999949,None,425.1747485999949,None,425.1747485999949,None,425.1747485999949,None,425.1747485999949,None,425.1747485999949,None,427.1760054699669,None,25.0,3.35,0,-600,-300,,,,,,,,,,,,,,,,,,,,,,,,,,,,,,,,,,,,,,,,,,,,,,,,,,,,,,,,,,,,,,,,,,,,,,,,,,,,,,,,,,,f,19,MAXINYU,2022_Apr_10_2110,experiment3,2021.1.4,30.30978111970692,
65,0,-200,0,one,0,-200,0,,,,,0,23,23,64,,,,,,,,,,,l,4.41555709997192,430.5554713999736,None,430.5554713999736,None,435.00557719997596,None,435.00557719997596,None,435.00557719997596,None,436.9555425000144,437.4545782000059,436.9555425000144,437.4545782000059,436.9555425000144,437.4545782000059,435.00557719997596,None,437.52154117000174,None,437.52154117000174,None,437.52154117000174,None,0.02744377008639276,None,437.52154117000174,None,437.52154117000174,None,437.52154117000174,None,437.52154117000174,None,437.52154117000174,None,437.52154117000174,None,437.520925699966,None,437.520925699966,None,437.520925699966,None,0.020667670061811805,0.5206676700618118,437.520925699966,None,437.520925699966,None,437.520925699966,None,437.520925699966,None,437.520925699966,None,437.520925699966,None,439.48817530000815,439.48817530000815,50.0,4.121,0,-800,-300,,,,,,,,,,,,,,,,,,,,,,,,,,,,,,,,,,,,,,,,,,,,,,,,,,,,,,,,,,,,,,,,,,,,,,,,,,,,,,,,,,,f,19,MAXINYU,2022_Apr_10_2110,experiment3,2021.1.4,30.30978111970692,
46,200,200,50,two,200,200,50,,,,,0,24,24,45,,,,,,,,,,,l,2.529237499984447,443.66907080000965,None,443.66907080000965,None,446.252488899976,None,446.252488899976,None,446.252488899976,None,448.2189088999876,448.73678849998396,448.2189088999876,448.73678849998396,448.2189088999876,448.73678849998396,446.252488899976,None,448.77010936998414,None,448.77010936998414,None,448.77010936998414,None,0.027277069981209934,None,448.77010936998414,None,448.77010936998414,None,448.77010936998414,None,448.77010936998414,None,448.77010936998414,None,448.77010936998414,None,448.7690744000138,None,448.7690744000138,None,448.7690744000138,None,0.02028317004442215,0.5202831700444221,448.7690744000138,None,448.7690744000138,None,448.7690744000138,None,448.7690744000138,None,448.7690744000138,None,448.7690744000138,None,450.7534518999746,450.7534518999746,-0.29999999999999716,3.502,200,-600,-250,,,,,,,,,,,,,,,,,,,,,,,,,,,,,,,,,,,,,,,,,,,,,,,,,,,,,,,,,,,,,,,,,,,,,,,,,,,,,,,,,,,f,19,MAXINYU,2022_Apr_10_2110,experiment3,2021.1.4,30.30978111970692,
38,200,0,200,one,200,0,200,,,,,0,25,25,37,,,,,,,,,,,l,4.013545599998906,454.32281059998786,None,454.32281059998786,None,458.40046530001564,None,458.40046530001564,None,458.40046530001564,None,460.3672381999786,460.8671888000099,460.3672381999786,460.8671888000099,460.3672381999786,460.8671888000099,458.40046530001564,None,460.9005096700101,None,460.9005096700101,None,460.9005096700101,None,0.025103270076215267,None,460.9005096700101,None,460.9005096700101,None,460.9005096700101,None,460.9005096700101,None,460.9005096700101,None,460.9005096700101,None,460.8995298999944,None,460.8995298999944,None,460.8995298999944,None,0.01816877006785944,0.5181687700678594,460.8995298999944,None,460.8995298999944,None,460.8995298999944,None,460.8995298999944,None,460.8995298999944,None,460.8995298999944,None,462.88355209998554,462.88355209998554,50.0,3.283,400,-600,-50,,,,,,,,,,,,,,,,,,,,,,,,,,,,,,,,,,,,,,,,,,,,,,,,,,,,,,,,,,,,,,,,,,,,,,,,,,,,,,,,,,,f,19,MAXINYU,2022_Apr_10_2110,experiment3,2021.1.4,30.30978111970692,
17,0,200,0,one,0,200,0,,,,,0,26,26,16,,,,,,,,,,,g,2.5936360000050627,466.24763429997256,None,466.24763429997256,None,468.88236789999064,None,468.88236789999064,None,468.88236789999064,None,470.8319942000089,471.33185419999063,470.8319942000089,471.33185419999063,470.8319942000089,471.33185419999063,468.88236789999064,None,471.3984548699635,None,471.3984548699635,None,471.3984548699635,None,0.02766027004690841,None,471.3984548699635,None,471.3984548699635,None,471.3984548699635,None,471.3984548699635,None,471.3984548699635,None,471.3984548699635,None,471.39752920001047,None,471.39752920001047,None,471.39752920001047,None,0.020763470034580678,0.5207634700345807,471.39752920001047,None,471.39752920001047,None,471.39752920001047,None,471.39752920001047,None,471.39752920001047,None,471.39752920001047,None,473.36481349996757,473.36481349996757,-50.0,3.908,400,-400,-50,,,,,,,,,,,,,,,,,,,,,,,,,,,,,,,,,,,,,,,,,,,,,,,,,,,,,,,,,,,,,,,,,,,,,,,,,,,,,,,,,,,f,19,MAXINYU,2022_Apr_10_2110,experiment3,2021.1.4,30.30978111970692,
18,200,0,0,one,200,0,0,,,,,0,27,27,17,,,,,,,,,,,l,2.432447500003036,477.3481361999875,None,477.3481361999875,None,479.830155499978,None,479.830155499978,None,479.830155499978,None,481.79675400000997,482.33007149997866,481.79675400000997,482.33007149997866,481.79675400000997,482.33007149997866,479.830155499978,None,482.36339236997884,None,482.36339236997884,None,482.36339236997884,None,0.02771306998329237,None,482.36339236997884,None,482.36339236997884,None,482.36339236997884,None,482.36339236997884,None,482.36339236997884,None,482.36339236997884,None,482.3622405999922,None,482.3622405999922,None,482.3622405999922,None,0.020607969956472516,0.5206079699564725,482.3622405999922,None,482.3622405999922,None,482.3622405999922,None,482.3622405999922,None,482.3622405999922,None,482.3622405999922,None,484.34607709996635,484.34607709996635,50.0,3.135,600,-400,-50,,,,,,,,,,,,,,,,,,,,,,,,,,,,,,,,,,,,,,,,,,,,,,,,,,,,,,,,,,,,,,,,,,,,,,,,,,,,,,,,,,,f,19,MAXINYU,2022_Apr_10_2110,experiment3,2021.1.4,30.30978111970692,
9,50,0,200,two,50,0,200,,,,,0,28,28,8,,,,,,,,,,,l,2.517002400010824,487.5961312999716,None,487.5961312999716,None,490.1611243999796,None,490.1611243999796,None,490.1611243999796,None,492.11135879997164,492.6108604000183,492.11135879997164,492.6108604000183,492.11135879997164,492.6108604000183,490.1611243999796,None,492.67767206996797,None,492.67767206996797,None,492.67767206996797,None,0.02734996995422989,None,492.67767206996797,None,492.67767206996797,None,492.67767206996797,None,492.67767206996797,None,492.67767206996797,None,492.67767206996797,None,492.67672990000574,None,492.67672990000574,None,492.67672990000574,None,0.020011069951578975,0.520011069951579,492.67672990000574,None,492.67672990000574,None,492.67672990000574,None,492.67672990000574,None,492.67672990000574,None,492.67672990000574,None,494.6438633999787,494.6438633999787,24.799999999999997,3.354,650,-400,150,,,,,,,,,,,,,,,,,,,,,,,,,,,,,,,,,,,,,,,,,,,,,,,,,,,,,,,,,,,,,,,,,,,,,,,,,,,,,,,,,,,f,19,MAXINYU,2022_Apr_10_2110,experiment3,2021.1.4,30.30978111970692,
75,-150,-150,-200,one,-150,-150,-200,,,,,0,29,29,74,,,,,,,,,,,a,2.1043727000360377,498.0570229999721,None,498.0570229999721,None,500.2273176999879,None,500.2273176999879,None,500.2273176999879,None,502.19263950001914,502.6922123999684,502.19263950001914,502.6922123999684,502.19263950001914,502.6922123999684,500.2273176999879,None,502.76646517000046,None,502.76646517000046,None,502.76646517000046,None,0.01746957004070282,None,502.76646517000046,None,502.76646517000046,None,502.76646517000046,None,502.76646517000046,None,502.76646517000046,None,502.76646517000046,None,502.78353159996914,None,502.78353159996914,None,502.78353159996914,None,8.006999269127846e-05,0.5000800699926913,502.78353159996914,None,502.78353159996914,None,502.78353159996914,None,502.78353159996914,None,502.78353159996914,None,502.78353159996914,None,504.7920148700185,None,0.0,10.22,500,-550,-50,,,,,,,,,,,,,,,,,,,,,,,,,,,,,,,,,,,,,,,,,,,,,,,,,,,,,,,,,,,,,,,,,,,,,,,,,,,,,,,,,,,f,19,MAXINYU,2022_Apr_10_2110,experiment3,2021.1.4,30.30978111970692,
25,200,50,50,one,200,50,50,,,,,0,30,30,24,,,,,,,,,,,a,2.826063000014983,515.0372895000037,None,515.0372895000037,None,517.9227729999693,None,517.9227729999693,None,517.9227729999693,None,519.8890323999804,520.392487199977,519.8890323999804,520.392487199977,519.8890323999804,520.392487199977,517.9227729999693,None,520.4258080699772,None,520.4258080699772,None,520.4258080699772,None,0.020640970033127815,None,520.4258080699772,None,520.4258080699772,None,520.4258080699772,None,520.4258080699772,None,520.4258080699772,None,520.4258080699772,None,520.4297700999887,None,520.4297700999887,None,520.4297700999887,None,0.010151270020287484,0.5101512700202875,520.4297700999887,None,520.4297700999887,None,520.4297700999887,None,520.4297700999887,None,520.4297700999887,None,520.4297700999887,None,522.4062914999668,522.4062914999668,50.0,9.353,700,-500,0,,,,,,,,,,,,,,,,,,,,,,,,,,,,,,,,,,,,,,,,,,,,,,,,,,,,,,,,,,,,,,,,,,,,,,,,,,,,,,,,,,,f,19,MAXINYU,2022_Apr_10_2110,experiment3,2021.1.4,30.30978111970692,
16,0,0,200,one,0,0,200,,,,,0,31,31,15,,,,,,,,,,,a,2.3827487000380643,531.81860649999,None,531.81860649999,None,534.2358756000176,None,534.2358756000176,None,534.2358756000176,None,536.2023612000048,536.7023284999887,536.2023612000048,536.7023284999887,536.2023612000048,536.7023284999887,534.2358756000176,None,536.7356493699888,None,536.7356493699888,None,536.7356493699888,None,0.026001770049333572,None,536.7356493699888,None,536.7356493699888,None,536.7356493699888,None,536.7356493699888,None,536.7356493699888,None,536.7356493699888,None,536.7348613999784,None,536.7348613999784,None,536.7348613999784,None,0.01851837005233392,0.5185183700523339,536.7348613999784,None,536.7348613999784,None,536.7348613999784,None,536.7348613999784,None,536.7348613999784,None,536.7348613999784,None,538.7023106999695,538.7023106999695,0.0,3.247,700,-500,200,,,,,,,,,,,,,,,,,,,,,,,,,,,,,,,,,,,,,,,,,,,,,,,,,,,,,,,,,,,,,,,,,,,,,,,,,,,,,,,,,,,f,19,MAXINYU,2022_Apr_10_2110,experiment3,2021.1.4,30.30978111970692,
32,50,200,50,two,50,200,50,,,,,0,32,32,31,,,,,,,,,,,l,3.069268000021111,542.0048792000161,None,542.0048792000161,None,545.1076121999649,None,545.1076121999649,None,545.1076121999649,None,547.0845624000067,547.583725399978,547.0845624000067,547.583725399978,547.0845624000067,547.583725399978,545.1076121999649,None,547.6170462699781,None,547.6170462699781,None,547.6170462699781,None,0.0258109699934721,None,547.6170462699781,None,547.6170462699781,None,547.6170462699781,None,547.6170462699781,None,547.6170462699781,None,547.6170462699781,None,547.6159953000024,None,547.6159953000024,None,547.6159953000024,None,0.018542669946327806,0.5185426699463278,547.6159953000024,None,547.6159953000024,None,547.6159953000024,None,547.6159953000024,None,547.6159953000024,None,547.6159953000024,None,549.5831324000028,549.5831324000028,-25.1,6.771,750,-300,250,,,,,,,,,,,,,,,,,,,,,,,,,,,,,,,,,,,,,,,,,,,,,,,,,,,,,,,,,,,,,,,,,,,,,,,,,,,,,,,,,,,f,19,MAXINYU,2022_Apr_10_2110,experiment3,2021.1.4,30.30978111970692,
81,-150,-150,-200,two,-150,-150,-200,,,,,0,33,33,80,,,,,,,,,,,g,3.1569543999503367,556.4157284999965,None,556.4157284999965,None,559.6151911999914,None,559.6151911999914,None,559.6151911999914,None,561.5807957999641,562.0808630000101,561.5807957999641,562.0808630000101,561.5807957999641,562.0808630000101,559.6151911999914,None,562.1474657699989,None,562.1474657699989,None,562.1474657699989,None,0.027284469979349524,None,562.1474657699989,None,562.1474657699989,None,562.1474657699989,None,562.1474657699989,None,562.1474657699989,None,562.1474657699989,None,562.1460541000124,None,562.1460541000124,None,562.1460541000124,None,0.018088070035446435,0.5180880700354464,562.1460541000124,None,562.1460541000124,None,562.1460541000124,None,562.1460541000124,None,562.1460541000124,None,562.1460541000124,None,564.1130555999698,564.1130555999698,13.200000000000003,5.835,600,-450,50,,,,,,,,,,,,,,,,,,,,,,,,,,,,,,,,,,,,,,,,,,,,,,,,,,,,,,,,,,,,,,,,,,,,,,,,,,,,,,,,,,,f,19,MAXINYU,2022_Apr_10_2110,experiment3,2021.1.4,30.30978111970692,
82,0,-150,-150,two,0,-150,-150,,,,,0,34,34,81,,,,,,,,,,,g,3.292464400001336,570.0133678999846,None,570.0133678999846,None,573.3619348999928,None,573.3619348999928,None,573.3619348999928,None,575.3115769000142,575.8113349999767,575.3115769000142,575.8113349999767,575.3115769000142,575.8113349999767,573.3619348999928,None,575.878287870012,None,575.878287870012,None,575.878287870012,None,0.027659270039293915,None,575.878287870012,None,575.878287870012,None,575.878287870012,None,575.878287870012,None,575.878287870012,None,575.878287870012,None,575.8771938999998,None,575.8771938999998,None,575.8771938999998,None,0.02024767000693828,0.5202476700069383,575.8771938999998,None,575.8771938999998,None,575.8771938999998,None,575.8771938999998,None,575.8771938999998,None,575.8771938999998,None,577.8449113999959,577.8449113999959,24.799999999999997,8.595,600,-600,-100,,,,,,,,,,,,,,,,,,,,,,,,,,,,,,,,,,,,,,,,,,,,,,,,,,,,,,,,,,,,,,,,,,,,,,,,,,,,,,,,,,,f,19,MAXINYU,2022_Apr_10_2110,experiment3,2021.1.4,30.30978111970692,
87,0,-200,-200,one,0,-200,-200,,,,,0,35,35,86,,,,,,,,,,,g,3.7275628999923356,586.5050265999744,None,586.5050265999744,None,590.2751991999685,None,590.2751991999685,None,590.2751991999685,None,592.2344302000129,592.7580048000091,592.2344302000129,592.7580048000091,592.2344302000129,592.7580048000091,590.2751991999685,None,592.7913256700092,None,592.7913256700092,None,592.7913256700092,None,0.02690167009131983,None,592.7913256700092,None,592.7913256700092,None,592.7913256700092,None,592.7913256700092,None,592.7913256700092,None,592.7913256700092,None,592.7906488999724,None,592.7906488999724,None,592.7906488999724,None,0.020209770067594945,0.520209770067595,592.7906488999724,None,592.7906488999724,None,592.7906488999724,None,592.7906488999724,None,592.7906488999724,None,592.7906488999724,None,594.76490249997,594.76490249997,25.099999999999994,5.39,600,-800,-300,,,,,,,,,,,,,,,,,,,,,,,,,,,,,,,,,,,,,,,,,,,,,,,,,,,,,,,,,,,,,,,,,,,,,,,,,,,,,,,,,,,f,19,MAXINYU,2022_Apr_10_2110,experiment3,2021.1.4,30.30978111970692,
69,-150,0,0,two,-150,0,0,,,,,0,36,36,68,,,,,,,,,,,g,2.24491459998535,600.2370801999932,None,600.2370801999932,None,602.5230035000131,None,602.5230035000131,None,602.5230035000131,None,604.4723922999692,604.9727502000169,604.4723922999692,604.9727502000169,604.4723922999692,604.9727502000169,602.5230035000131,None,605.038864170009,None,605.038864170009,None,605.038864170009,None,0.02745386998867616,None,605.038864170009,None,605.038864170009,None,605.038864170009,None,605.038864170009,None,605.038864170009,None,605.038864170009,None,605.0387135000201,None,605.0387135000201,None,605.0387135000201,None,0.020311070082243532,0.5203110700822435,605.0387135000201,None,605.0387135000201,None,605.0387135000201,None,605.0387135000201,None,605.0387135000201,None,605.0387135000201,None,607.0066531000193,607.0066531000193,-50.0,3.945,450,-800,-300,,,,,,,,,,,,,,,,,,,,,,,,,,,,,,,,,,,,,,,,,,,,,,,,,,,,,,,,,,,,,,,,,,,,,,,,,,,,,,,,,,,f,19,MAXINYU,2022_Apr_10_2110,experiment3,2021.1.4,30.30978111970692,
35,50,0,50,two,50,0,50,,,,,0,37,37,34,,,,,,,,,,,l,3.292518600006588,611.0099795999704,None,611.0099795999704,None,614.3372743999935,None,614.3372743999935,None,614.3372743999935,None,616.2868957999744,616.7867310000001,616.2868957999744,616.7867310000001,616.2868957999744,616.7867310000001,614.3372743999935,None,616.8532557699771,None,616.8532557699771,None,616.8532557699771,None,0.02783467003609985,None,616.8532557699771,None,616.8532557699771,None,616.8532557699771,None,616.8532557699771,None,616.8532557699771,None,616.8532557699771,None,616.8525713999989,None,616.8525713999989,None,616.8525713999989,None,0.02088286995422095,0.520882869954221,616.8525713999989,None,616.8525713999989,None,616.8525713999989,None,616.8525713999989,None,616.8525713999989,None,616.8525713999989,None,618.8197655999684,618.8197655999684,24.799999999999997,3.308,500,-800,-250,,,,,,,,,,,,,,,,,,,,,,,,,,,,,,,,,,,,,,,,,,,,,,,,,,,,,,,,,,,,,,,,,,,,,,,,,,,,,,,,,,,f,19,MAXINYU,2022_Apr_10_2110,experiment3,2021.1.4,30.30978111970692,
28,0,50,50,one,0,50,50,,,,,0,38,38,27,,,,,,,,,,,l,2.712906400032807,622.1893330999883,None,622.1893330999883,None,624.9518029000028,None,624.9518029000028,None,624.9518029000028,None,626.9014212000184,627.4012029999867,626.9014212000184,627.4012029999867,626.9014212000184,627.4012029999867,624.9518029000028,None,627.4685835700191,None,627.4685835700191,None,627.4685835700191,None,0.028109770093578845,None,627.4685835700191,None,627.4685835700191,None,627.4685835700191,None,627.4685835700191,None,627.4685835700191,None,627.4685835700191,None,627.4672196999891,None,627.4672196999891,None,627.4672196999891,None,0.021000670094508678,0.5210006700945087,627.4672196999891,None,627.4672196999891,None,627.4672196999891,None,627.4672196999891,None,627.4672196999891,None,627.4672196999891,None,629.4510628000135,629.4510628000135,-25.3,4.849,500,-750,-200,,,,,,,,,,,,,,,,,,,,,,,,,,,,,,,,,,,,,,,,,,,,,,,,,,,,,,,,,,,,,,,,,,,,,,,,,,,,,,,,,,,f,19,MAXINYU,2022_Apr_10_2110,experiment3,2021.1.4,30.30978111970692,
60,-200,0,-150,two,-200,0,-150,,,,,0,39,39,59,,,,,,,,,,,a,3.547338599979412,634.3532622000203,None,634.3532622000203,None,637.9326372999931,None,637.9326372999931,None,637.9326372999931,None,639.8988363000099,640.398841999995,639.8988363000099,640.398841999995,639.8988363000099,640.398841999995,637.9326372999931,None,640.4321628699952,None,640.4321628699952,None,640.4321628699952,None,0.025487469974905252,None,640.4321628699952,None,640.4321628699952,None,640.4321628699952,None,640.4321628699952,None,640.4321628699952,None,640.4321628699952,None,640.4311553000007,None,640.4311553000007,None,640.4311553000007,None,0.01771127007668838,0.5177112700766884,640.4311553000007,None,640.4311553000007,None,640.4311553000007,None,640.4311553000007,None,640.4311553000007,None,640.4311553000007,None,642.4149982999661,642.4149982999661,-50.0,2.719,300,-750,-350,,,,,,,,,,,,,,,,,,,,,,,,,,,,,,,,,,,,,,,,,,,,,,,,,,,,,,,,,,,,,,,,,,,,,,,,,,,,,,,,,,,f,19,MAXINYU,2022_Apr_10_2110,experiment3,2021.1.4,30.30978111970692,
45,0,200,200,two,0,200,200,,,,,0,40,40,44,,,,,,,,,,,l,3.0894790000165813,645.1951254999731,None,645.1951254999731,None,648.3308485000161,None,648.3308485000161,None,648.3308485000161,None,650.2981307000155,None,650.2981307000155,None,650.2981307000155,None,648.3308485000161,None,650.8302110699995,None,650.8302110699995,None,650.8302110699995,None,0.02596916997572407,None,650.8302110699995,None,650.8302110699995,None,650.8302110699995,None,650.8302110699995,None,650.8302110699995,None,650.8302110699995,None,650.8293230999843,None,650.8293230999843,None,650.8293230999843,None,0.018691369972657412,0.5186913699726574,650.8293230999843,None,650.8293230999843,None,650.8293230999843,None,650.8293230999843,None,650.8293230999843,None,650.8293230999843,None,652.7966413999675,652.7966413999675,-50.0,4.331,300,-550,-150,,,,,,,,,,,,,,,,,,,,,,,,,,,,,,,,,,,,,,,,,,,,,,,,,,,,,,,,,,,,,,,,,,,,,,,,,,,,,,,,,,,f,19,MAXINYU,2022_Apr_10_2110,experiment3,2021.1.4,30.30978111970692,
59,-200,-150,0,two,-200,-150,0,,,,,0,41,41,58,,,,,,,,,,,g,2.157555699988734,657.1956704999902,None,657.1956704999902,None,659.3954240999883,None,659.3954240999883,None,659.3954240999883,None,661.3448287000065,661.8447470999672,661.3448287000065,661.8447470999672,661.3448287000065,661.8447470999672,659.3954240999883,None,661.9113780699961,None,661.9113780699961,None,661.9113780699961,None,0.02762617007829249,None,661.9113780699961,None,661.9113780699961,None,661.9113780699961,None,661.9113780699961,None,661.9113780699961,None,661.9113780699961,None,661.9105362999835,None,661.9105362999835,None,661.9105362999835,None,0.02055856998777017,0.5205585699877702,661.9105362999835,None,661.9105362999835,None,661.9105362999835,None,661.9105362999835,None,661.9105362999835,None,661.9105362999835,None,663.8774316000054,663.8774316000054,-50.0,3.115,100,-700,-150,,,,,,,,,,,,,,,,,,,,,,,,,,,,,,,,,,,,,,,,,,,,,,,,,,,,,,,,,,,,,,,,,,,,,,,,,,,,,,,,,,,f,19,MAXINYU,2022_Apr_10_2110,experiment3,2021.1.4,30.30978111970692,
74,-150,-200,-150,one,-150,-200,-150,,,,,0,42,42,73,,,,,,,,,,,g,2.957023599999957,667.0481051999959,None,667.0481051999959,None,670.0598240999971,None,670.0598240999971,None,670.0598240999971,None,672.0260254999739,672.5259829999995,672.0260254999739,672.5259829999995,672.0260254999739,672.5259829999995,670.0598240999971,None,672.5593038699997,None,672.5593038699997,None,672.5593038699997,None,0.025260369991883636,None,672.5593038699997,None,672.5593038699997,None,672.5593038699997,None,672.5593038699997,None,672.5593038699997,None,672.5593038699997,None,672.5581370000145,None,672.5581370000145,None,672.5581370000145,None,0.01763417007168755,0.5176341700716875,672.5581370000145,None,672.5581370000145,None,672.5581370000145,None,672.5581370000145,None,672.5581370000145,None,672.5581370000145,None,674.5422628999804,674.5422628999804,25.200000000000003,4.649,-50,-900,-300,,,,,,,,,,,,,,,,,,,,,,,,,,,,,,,,,,,,,,,,,,,,,,,,,,,,,,,,,,,,,,,,,,,,,,,,,,,,,,,,,,,f,19,MAXINYU,2022_Apr_10_2110,experiment3,2021.1.4,30.30978111970692,
29,50,0,50,one,50,0,50,,,,,0,43,43,28,,,,,,,,,,,g,2.3159169999998994,679.2533139999723,None,679.2533139999723,None,681.6082045999938,None,681.6082045999938,None,681.6082045999938,None,683.557863999973,684.0579757000087,683.557863999973,684.0579757000087,683.557863999973,684.0579757000087,681.6082045999938,None,684.124105770007,None,684.124105770007,None,684.124105770007,None,0.02786907000700012,None,684.124105770007,None,684.124105770007,None,684.124105770007,None,684.124105770007,None,684.124105770007,None,684.124105770007,None,684.1265725999838,None,684.1265725999838,None,684.1265725999838,None,0.013855969998985529,0.5138559699989855,684.1265725999838,None,684.1265725999838,None,684.1265725999838,None,684.1265725999838,None,684.1265725999838,None,684.1265725999838,None,686.1266580700001,None,24.900000000000006,2.682,0,-900,-250,,,,,,,,,,,,,,,,,,,,,,,,,,,,,,,,,,,,,,,,,,,,,,,,,,,,,,,,,,,,,,,,,,,,,,,,,,,,,,,,,,,f,19,MAXINYU,2022_Apr_10_2110,experiment3,2021.1.4,30.30978111970692,
95,-200,-150,-200,two,-200,-150,-200,,,,,0,44,44,94,,,,,,,,,,,g,2.595001899986528,688.8355632000021,None,688.8355632000021,None,691.4721930999658,None,691.4721930999658,None,691.4721930999658,None,693.4383754999726,693.9384668999701,693.4383754999726,693.9384668999701,693.4383754999726,693.9384668999701,691.4721930999658,None,693.9717877699702,None,693.9717877699702,None,693.9717877699702,None,0.025373170035891235,None,693.9717877699702,None,693.9717877699702,None,693.9717877699702,None,693.9717877699702,None,693.9717877699702,None,693.9717877699702,None,693.9707635999657,None,693.9707635999657,None,693.9707635999657,None,0.018538470030762255,0.5185384700307623,693.9707635999657,None,693.9707635999657,None,693.9707635999657,None,693.9707635999657,None,693.9707635999657,None,693.9707635999657,None,695.9380419999943,695.9380419999943,-25.1,3.758,-200,-1050,-450,,,,,,,,,,,,,,,,,,,,,,,,,,,,,,,,,,,,,,,,,,,,,,,,,,,,,,,,,,,,,,,,,,,,,,,,,,,,,,,,,,,f,19,MAXINYU,2022_Apr_10_2110,experiment3,2021.1.4,30.30978111970692,
96,-150,-200,-200,two,-150,-200,-200,,,,,0,45,45,95,,,,,,,,,,,a,2.7670033000176772,699.7547096000053,None,699.7547096000053,None,702.5698210999835,None,702.5698210999835,None,702.5698210999835,None,704.5365604999824,705.0529102999717,704.5365604999824,705.0529102999717,704.5365604999824,705.0529102999717,702.5698210999835,None,705.0862311699718,None,705.0862311699718,None,705.0862311699718,None,0.026516970014199615,None,705.0862311699718,None,705.0862311699718,None,705.0862311699718,None,705.0862311699718,None,705.0862311699718,None,705.0862311699718,None,705.0875915999641,None,705.0875915999641,None,705.0875915999641,None,0.018565169943030924,0.5185651699430309,705.0875915999641,None,705.0875915999641,None,705.0875915999641,None,705.0875915999641,None,705.0875915999641,None,705.0875915999641,None,707.0531010999694,707.0531010999694,25.0,2.735,-350,-1250,-650,,,,,,,,,,,,,,,,,,,,,,,,,,,,,,,,,,,,,,,,,,,,,,,,,,,,,,,,,,,,,,,,,,,,,,,,,,,,,,,,,,,f,19,MAXINYU,2022_Apr_10_2110,experiment3,2021.1.4,30.30978111970692,
83,-150,0,-150,two,-150,0,-150,,,,,0,46,46,82,,,,,,,,,,,a,2.395953200000804,709.8865689999657,None,709.8865689999657,None,712.3183127999655,None,712.3183127999655,None,712.3183127999655,None,714.2849996999721,714.7843845000025,714.2849996999721,714.7843845000025,714.2849996999721,714.7843845000025,712.3183127999655,None,714.8177053700026,None,714.8177053700026,None,714.8177053700026,None,0.02561956999124959,None,714.8177053700026,None,714.8177053700026,None,714.8177053700026,None,714.8177053700026,None,714.8177053700026,None,714.8177053700026,None,714.8168119000038,None,714.8168119000038,None,714.8168119000038,None,0.0184010699740611,0.5184010699740611,714.8168119000038,None,714.8168119000038,None,714.8168119000038,None,714.8168119000038,None,714.8168119000038,None,714.8168119000038,None,716.8006702999701,716.8006702999701,-37.0,6.416,-500,-1250,-800,,,,,,,,,,,,,,,,,,,,,,,,,,,,,,,,,,,,,,,,,,,,,,,,,,,,,,,,,,,,,,,,,,,,,,,,,,,,,,,,,,,f,19,MAXINYU,2022_Apr_10_2110,experiment3,2021.1.4,30.30978111970692,
67,0,0,-150,two,0,0,-150,,,,,0,47,47,66,,,,,,,,,,,l,3.344783600012306,723.2739474999835,None,723.2739474999835,None,726.6451079999679,None,726.6451079999679,None,726.6451079999679,None,728.6153745999909,729.1148668999667,728.6153745999909,729.1148668999667,728.6153745999909,729.1148668999667,726.6451079999679,None,729.1481877699669,None,729.1481877699669,None,729.1481877699669,None,0.02562737005064264,None,729.1481877699669,None,729.1481877699669,None,729.1481877699669,None,729.1481877699669,None,729.1481877699669,None,729.1481877699669,None,729.1466965000145,None,729.1466965000145,None,729.1466965000145,None,0.018673569953534752,0.5186735699535348,729.1466965000145,None,729.1466965000145,None,729.1466965000145,None,729.1466965000145,None,729.1466965000145,None,729.1466965000145,None,731.1310869000154,731.1310869000154,-0.10000000000000142,4.971,-500,-1250,-950,,,,,,,,,,,,,,,,,,,,,,,,,,,,,,,,,,,,,,,,,,,,,,,,,,,,,,,,,,,,,,,,,,,,,,,,,,,,,,,,,,,f,19,MAXINYU,2022_Apr_10_2110,experiment3,2021.1.4,30.30978111970692,
33,50,50,200,two,50,50,200,,,,,0,48,48,32,,,,,,,,,,,l,3.600277699995786,736.1656070000026,None,736.1656070000026,None,739.8126734999823,None,739.8126734999823,None,739.8126734999823,None,741.7789380999748,742.2794126999797,741.7789380999748,742.2794126999797,741.7789380999748,742.2794126999797,739.8126734999823,None,742.3127335699799,None,742.3127335699799,None,742.3127335699799,None,0.02572637004777789,None,742.3127335699799,None,742.3127335699799,None,742.3127335699799,None,742.3127335699799,None,742.3127335699799,None,742.3127335699799,None,742.3113589999848,None,742.3113589999848,None,742.3113589999848,None,0.018961870053317398,0.5189618700533174,742.3113589999848,None,742.3113589999848,None,742.3113589999848,None,742.3113589999848,None,742.3113589999848,None,742.3113589999848,None,744.2953923000023,744.2953923000023,0.10000000000000142,6.219,-450,-1200,-750,,,,,,,,,,,,,,,,,,,,,,,,,,,,,,,,,,,,,,,,,,,,,,,,,,,,,,,,,,,,,,,,,,,,,,,,,,,,,,,,,,,f,19,MAXINYU,2022_Apr_10_2110,experiment3,2021.1.4,30.30978111970692,
64,0,0,-200,one,0,0,-200,,,,,0,49,49,63,,,,,,,,,,,a,2.6545336000272073,750.5781389999902,None,750.5781389999902,None,753.2778744999669,None,753.2778744999669,None,753.2778744999669,None,755.2287458999781,755.7596028000116,755.2287458999781,755.7596028000116,755.2287458999781,755.7596028000116,753.2778744999669,None,755.7929236700118,None,755.7929236700118,None,755.7929236700118,None,0.027433570008724928,None,755.7929236700118,None,755.7929236700118,None,755.7929236700118,None,755.7929236700118,None,755.7929236700118,None,755.7929236700118,None,755.792209599982,None,755.792209599982,None,755.792209599982,None,0.020608170074410737,0.5206081700744107,755.792209599982,None,755.792209599982,None,755.792209599982,None,755.792209599982,None,755.792209599982,None,755.792209599982,None,757.7790892000194,757.7790892000194,12.700000000000003,6.829,-450,-1200,-950,,,,,,,,,,,,,,,,,,,,,,,,,,,,,,,,,,,,,,,,,,,,,,,,,,,,,,,,,,,,,,,,,,,,,,,,,,,,,,,,,,,f,19,MAXINYU,2022_Apr_10_2110,experiment3,2021.1.4,30.30978111970692,
13,0,0,50,one,0,0,50,,,,,0,50,50,12,,,,,,,,,,,a,3.32045709999511,764.6628321000026,None,764.6628321000026,None,768.0407859999686,None,768.0407859999686,None,768.0407859999686,None,769.9902409999631,770.4901018000091,769.9902409999631,770.4901018000091,769.9902409999631,770.4901018000091,768.0407859999686,None,770.5568214700149,None,770.5568214700149,None,770.5568214700149,None,0.027760969998780638,None,770.5568214700149,None,770.5568214700149,None,770.5568214700149,None,770.5568214700149,None,770.5568214700149,None,770.5568214700149,None,770.5564361999859,None,770.5564361999859,None,770.5564361999859,None,0.021180470066610724,0.5211804700666107,770.5564361999859,None,770.5564361999859,None,770.5564361999859,None,770.5564361999859,None,770.5564361999859,None,770.5564361999859,None,772.5401260000071,772.5401260000071,-11.899999999999999,7.277,-450,-1200,-900,,,,,,,,,,,,,,,,,,,,,,,,,,,,,,,,,,,,,,,,,,,,,,,,,,,,,,,,,,,,,,,,,,,,,,,,,,,,,,,,,,,f,19,MAXINYU,2022_Apr_10_2110,experiment3,2021.1.4,30.30978111970692,
79,-200,-150,-150,two,-200,-150,-150,,,,,0,51,51,78,,,,,,,,,,,l,3.773058300022967,779.8744219999644,None,779.8744219999644,None,783.7052728999988,None,783.7052728999988,None,783.7052728999988,None,785.6705503999838,786.1728628000128,785.6705503999838,786.1728628000128,785.6705503999838,786.1728628000128,783.7052728999988,None,786.2061836700129,None,786.2061836700129,None,786.2061836700129,None,0.025726170046254992,None,786.2061836700129,None,786.2061836700129,None,786.2061836700129,None,786.2061836700129,None,786.2061836700129,None,786.2061836700129,None,786.2040673000156,None,786.2040673000156,None,786.2040673000156,None,0.016746170003898442,0.5167461700038984,786.2040673000156,None,786.2040673000156,None,786.2040673000156,None,786.2040673000156,None,786.2040673000156,None,786.2040673000156,None,788.1864128999878,788.1864128999878,-25.1,5.937,-650,-1350,-1050,,,,,,,,,,,,,,,,,,,,,,,,,,,,,,,,,,,,,,,,,,,,,,,,,,,,,,,,,,,,,,,,,,,,,,,,,,,,,,,,,,,f,19,MAXINYU,2022_Apr_10_2110,experiment3,2021.1.4,30.30978111970692,
80,-150,-200,-150,two,-150,-200,-150,,,,,0,52,52,79,,,,,,,,,,,g,3.7088653999962844,794.1864601999987,None,794.1864601999987,None,797.9139131999691,None,797.9139131999691,None,797.9139131999691,None,799.8843068999704,800.3848658999777,799.8843068999704,800.3848658999777,799.8843068999704,800.3848658999777,797.9139131999691,None,800.4181867699779,None,800.4181867699779,None,800.4181867699779,None,0.024868169974070042,None,800.4181867699779,None,800.4181867699779,None,800.4181867699779,None,800.4181867699779,None,800.4181867699779,None,800.4181867699779,None,800.4224726000102,None,800.4224726000102,None,800.4224726000102,None,0.011238369974307716,0.5112383699743077,800.4224726000102,None,800.4224726000102,None,800.4224726000102,None,800.4224726000102,None,800.4224726000102,None,800.4224726000102,None,802.4064779999899,802.4064779999899,12.299999999999997,7.051,-800,-1550,-1200,,,,,,,,,,,,,,,,,,,,,,,,,,,,,,,,,,,,,,,,,,,,,,,,,,,,,,,,,,,,,,,,,,,,,,,,,,,,,,,,,,,f,19,MAXINYU,2022_Apr_10_2110,experiment3,2021.1.4,30.30978111970692,
11,200,50,0,two,200,50,0,,,,,0,53,53,10,,,,,,,,,,,g,3.7308265000465326,809.5195191999665,None,809.5195191999665,None,813.298530799977,None,813.298530799977,None,813.298530799977,None,815.265814399987,None,815.265814399987,None,815.265814399987,None,813.298530799977,None,815.7979860699677,None,815.7979860699677,None,815.7979860699677,None,0.02612476999638602,None,815.7979860699677,None,815.7979860699677,None,815.7979860699677,None,815.7979860699677,None,815.7979860699677,None,815.7979860699677,None,815.7972908999654,None,815.7972908999654,None,815.7972908999654,None,0.019532670034095645,0.5195326700340956,815.7972908999654,None,815.7972908999654,None,815.7972908999654,None,815.7972908999654,None,815.7972908999654,None,815.7972908999654,None,817.7807572999736,817.7807572999736,38.2,4.285,-600,-1500,-1200,,,,,,,,,,,,,,,,,,,,,,,,,,,,,,,,,,,,,,,,,,,,,,,,,,,,,,,,,,,,,,,,,,,,,,,,,,,,,,,,,,,f,19,MAXINYU,2022_Apr_10_2110,experiment3,2021.1.4,30.30978111970692,
78,-150,-150,0,one,-150,-150,0,,,,,0,54,54,77,,,,,,,,,,,g,2.5638516999897547,822.1312503999798,None,822.1312503999798,None,824.7461544999969,None,824.7461544999969,None,824.7461544999969,None,826.6956624999875,827.2178526999778,826.6956624999875,827.2178526999778,826.6956624999875,827.2178526999778,824.7461544999969,None,827.2511735699779,None,827.2511735699779,None,827.2511735699779,None,0.023438069969415665,None,827.2511735699779,None,827.2511735699779,None,827.2511735699779,None,827.2511735699779,None,827.2511735699779,None,827.2511735699779,None,827.2561410999624,None,827.2561410999624,None,827.2561410999624,None,0.014538270013872534,0.5145382700138725,827.2561410999624,None,827.2561410999624,None,827.2561410999624,None,827.2561410999624,None,827.2561410999624,None,827.2561410999624,None,829.2285717999912,829.2285717999912,-11.700000000000003,5.962,-750,-1650,-1200,,,,,,,,,,,,,,,,,,,,,,,,,,,,,,,,,,,,,,,,,,,,,,,,,,,,,,,,,,,,,,,,,,,,,,,,,,,,,,,,,,,f,19,MAXINYU,2022_Apr_10_2110,experiment3,2021.1.4,30.30978111970692,
73,-200,-150,-150,one,-200,-150,-150,,,,,0,55,55,72,,,,,,,,,,,g,2.7456138999550603,835.2494053000119,None,835.2494053000119,None,838.0476090000011,None,838.0476090000011,None,838.0476090000011,None,840.0267216999782,840.5270144999959,840.0267216999782,840.5270144999959,840.0267216999782,840.5270144999959,838.0476090000011,None,840.560335369996,None,840.560335369996,None,840.560335369996,None,0.027278869994916022,None,840.560335369996,None,840.560335369996,None,840.560335369996,None,840.560335369996,None,840.560335369996,None,840.560335369996,None,840.5590348999831,None,840.5590348999831,None,840.5590348999831,None,0.01954517001286149,0.5195451700128615,840.5590348999831,None,840.5590348999831,None,840.5590348999831,None,840.5590348999831,None,840.5590348999831,None,840.5590348999831,None,842.542934499972,842.542934499972,-50.0,5.379,-950,-1800,-1350,,,,,,,,,,,,,,,,,,,,,,,,,,,,,,,,,,,,,,,,,,,,,,,,,,,,,,,,,,,,,,,,,,,,,,,,,,,,,,,,,,,f,19,MAXINYU,2022_Apr_10_2110,experiment3,2021.1.4,30.30978111970692,
7,0,50,200,two,0,50,200,,,,,0,56,56,6,,,,,,,,,,,l,5.180255299957935,847.97449589998,None,847.97449589998,None,853.1903938999749,None,853.1903938999749,None,853.1903938999749,None,855.1579025000101,855.6568949999637,855.1579025000101,855.6568949999637,855.1579025000101,855.6568949999637,853.1903938999749,None,855.6902158699638,None,855.6902158699638,None,855.6902158699638,None,0.026210169948171824,None,855.6902158699638,None,855.6902158699638,None,855.6902158699638,None,855.6902158699638,None,855.6902158699638,None,855.6902158699638,None,855.6895597999683,None,855.6895597999683,None,855.6895597999683,None,0.019716469978448004,0.519716469978448,855.6895597999683,None,855.6895597999683,None,855.6895597999683,None,855.6895597999683,None,855.6895597999683,None,855.6895597999683,None,857.6735574000049,857.6735574000049,-25.5,10.969,-950,-1750,-1150,,,,,,,,,,,,,,,,,,,,,,,,,,,,,,,,,,,,,,,,,,,,,,,,,,,,,,,,,,,,,,,,,,,,,,,,,,,,,,,,,,,f,19,MAXINYU,2022_Apr_10_2110,experiment3,2021.1.4,30.30978111970692,
71,0,-200,0,two,0,-200,0,,,,,0,57,57,70,,,,,,,,,,,a,3.3654330000281334,868.7014845999656,None,868.7014845999656,None,872.1208940999932,None,872.1208940999932,None,872.1208940999932,None,874.0871900999919,874.5865764999762,874.0871900999919,874.5865764999762,874.0871900999919,874.5865764999762,872.1208940999932,None,874.6198973699763,None,874.6198973699763,None,874.6198973699763,None,0.0257189700496383,None,874.6198973699763,None,874.6198973699763,None,874.6198973699763,None,874.6198973699763,None,874.6198973699763,None,874.6198973699763,None,874.6190423999797,None,874.6190423999797,None,874.6190423999797,None,0.018948569952044636,0.5189485699520446,874.6190423999797,None,874.6190423999797,None,874.6190423999797,None,874.6190423999797,None,874.6190423999797,None,874.6190423999797,None,876.6190913700091,None,25.099999999999994,6.481,-950,-1950,-1150,,,,,,,,,,,,,,,,,,,,,,,,,,,,,,,,,,,,,,,,,,,,,,,,,,,,,,,,,,,,,,,,,,,,,,,,,,,,,,,,,,,f,19,MAXINYU,2022_Apr_10_2110,experiment3,2021.1.4,30.30978111970692,
2,0,200,50,one,0,200,50,,,,,0,58,58,1,,,,,,,,,,,g,4.638150200014934,883.1181635999819,None,883.1181635999819,None,887.8006527000107,None,887.8006527000107,None,887.8006527000107,None,889.7503226000117,890.2668850999908,889.7503226000117,890.2668850999908,889.7503226000117,890.2668850999908,887.8006527000107,None,890.3002059699909,None,890.3002059699909,None,890.3002059699909,None,0.02549087005900219,None,890.3002059699909,None,890.3002059699909,None,890.3002059699909,None,890.3002059699909,None,890.3002059699909,None,890.3002059699909,None,890.2992205999908,None,890.2992205999908,None,890.2992205999908,None,0.01813487004255876,0.5181348700425588,890.2992205999908,None,890.2992205999908,None,890.2992205999908,None,890.2992205999908,None,890.2992205999908,None,890.2992205999908,None,892.2661489999737,892.2661489999737,-50.0,5.797,-950,-1750,-1100,,,,,,,,,,,,,,,,,,,,,,,,,,,,,,,,,,,,,,,,,,,,,,,,,,,,,,,,,,,,,,,,,,,,,,,,,,,,,,,,,,,f,19,MAXINYU,2022_Apr_10_2110,experiment3,2021.1.4,30.30978111970692,
39,0,200,200,one,0,200,200,,,,,0,59,59,38,,,,,,,,,,,l,3.236787500034552,898.1331857999903,None,898.1331857999903,None,901.4313547000056,None,901.4313547000056,None,901.4313547000056,None,903.3808862000005,903.8807646000059,903.3808862000005,903.8807646000059,903.3808862000005,903.8807646000059,901.4313547000056,None,903.9476022699789,None,903.9476022699789,None,903.9476022699789,None,0.02758866996737197,None,903.9476022699789,None,903.9476022699789,None,903.9476022699789,None,903.9476022699789,None,903.9476022699789,None,903.9476022699789,None,903.9466608999646,None,903.9466608999646,None,903.9466608999646,None,0.020144370035268366,0.5201443700352684,903.9466608999646,None,903.9466608999646,None,903.9466608999646,None,903.9466608999646,None,903.9466608999646,None,903.9466608999646,None,905.930303399975,905.930303399975,-50.0,12.776,-950,-1550,-900,,,,,,,,,,,,,,,,,,,,,,,,,,,,,,,,,,,,,,,,,,,,,,,,,,,,,,,,,,,,,,,,,,,,,,,,,,,,,,,,,,,f,19,MAXINYU,2022_Apr_10_2110,experiment3,2021.1.4,30.30978111970692,
57,-150,0,-200,two,-150,0,-200,,,,,0,60,60,56,,,,,,,,,,,g,3.529371699958574,918.7779890999664,None,918.7779890999664,None,922.3617114999797,None,922.3617114999797,None,922.3617114999797,None,924.3280558999977,924.860045599984,924.3280558999977,924.860045599984,924.3280558999977,924.860045599984,922.3617114999797,None,924.8933664699841,None,924.8933664699841,None,924.8933664699841,None,0.027563070063479245,None,924.8933664699841,None,924.8933664699841,None,924.8933664699841,None,924.8933664699841,None,924.8933664699841,None,924.8933664699841,None,924.892887199996,None,924.892887199996,None,924.892887199996,None,0.020123470050748438,0.5201234700507484,924.892887199996,None,924.892887199996,None,924.892887199996,None,924.892887199996,None,924.892887199996,None,924.892887199996,None,926.8766406999785,926.8766406999785,-25.5,9.504,-1100,-1550,-1100,,,,,,,,,,,,,,,,,,,,,,,,,,,,,,,,,,,,,,,,,,,,,,,,,,,,,,,,,,,,,,,,,,,,,,,,,,,,,,,,,,,f,19,MAXINYU,2022_Apr_10_2110,experiment3,2021.1.4,30.30978111970692,
19,0,0,50,two,0,0,50,,,,,0,61,61,18,,,,,,,,,,,g,2.777535800007172,936.4389008000144,None,936.4389008000144,None,939.2574523999938,None,939.2574523999938,None,939.2574523999938,None,941.2243386000046,941.7235424999963,941.2243386000046,941.7235424999963,941.2243386000046,941.7235424999963,939.2574523999938,None,941.7568633699964,None,941.7568633699964,None,941.7568633699964,None,0.02615456999046728,None,941.7568633699964,None,941.7568633699964,None,941.7568633699964,None,941.7568633699964,None,941.7568633699964,None,941.7568633699964,None,941.7558911999804,None,941.7558911999804,None,941.7558911999804,None,0.019858970015775412,0.5198589700157754,941.7558911999804,None,941.7558911999804,None,941.7558911999804,None,941.7558911999804,None,941.7558911999804,None,941.7558911999804,None,943.7156997999991,943.7156997999991,-24.8,9.291,-1100,-1550,-1050,,,,,,,,,,,,,,,,,,,,,,,,,,,,,,,,,,,,,,,,,,,,,,,,,,,,,,,,,,,,,,,,,,,,,,,,,,,,,,,,,,,f,19,MAXINYU,2022_Apr_10_2110,experiment3,2021.1.4,30.30978111970692,
54,-200,0,-150,one,-200,0,-150,,,,,0,62,62,53,,,,,,,,,,,g,2.6334581000264734,953.1402422999963,None,953.1402422999963,None,955.7937111000065,None,955.7937111000065,None,955.7937111000065,None,957.7535399000044,958.2533431000193,957.7535399000044,958.2533431000193,957.7535399000044,958.2533431000193,955.7937111000065,None,958.3202875699906,None,958.3202875699906,None,958.3202875699906,None,0.027454769995529205,None,958.3202875699906,None,958.3202875699906,None,958.3202875699906,None,958.3202875699906,None,958.3202875699906,None,958.3202875699906,None,958.3193006999791,None,958.3193006999791,None,958.3193006999791,None,0.019732570042833686,0.5197325700428337,958.3193006999791,None,958.3193006999791,None,958.3193006999791,None,958.3193006999791,None,958.3193006999791,None,958.3193006999791,None,960.3042310000164,960.3042310000164,-50.0,4.168,-1300,-1550,-1200,,,,,,,,,,,,,,,,,,,,,,,,,,,,,,,,,,,,,,,,,,,,,,,,,,,,,,,,,,,,,,,,,,,,,,,,,,,,,,,,,,,f,19,MAXINYU,2022_Apr_10_2110,experiment3,2021.1.4,30.30978111970692,
26,50,200,50,one,50,200,50,,,,,0,63,63,25,,,,,,,,,,,l,3.271054499957245,964.5370269999839,None,964.5370269999839,None,967.8516717000166,None,967.8516717000166,None,967.8516717000166,None,969.8013522999827,970.3011546999915,969.8013522999827,970.3011546999915,969.8013522999827,970.3011546999915,967.8516717000166,None,970.3678582699911,None,970.3678582699911,None,970.3678582699911,None,0.027288870071060956,None,970.3678582699911,None,970.3678582699911,None,970.3678582699911,None,970.3678582699911,None,970.3678582699911,None,970.3678582699911,None,970.3673067999771,None,970.3673067999771,None,970.3673067999771,None,0.019896970014087856,0.5198969700140879,970.3673067999771,None,970.3673067999771,None,970.3673067999771,None,970.3673067999771,None,970.3673067999771,None,970.3673067999771,None,972.3518658999819,972.3518658999819,-25.0,4.685,-1250,-1350,-1150,,,,,,,,,,,,,,,,,,,,,,,,,,,,,,,,,,,,,,,,,,,,,,,,,,,,,,,,,,,,,,,,,,,,,,,,,,,,,,,,,,,f,19,MAXINYU,2022_Apr_10_2110,experiment3,2021.1.4,30.30978111970692,
27,50,50,200,one,50,50,200,,,,,0,64,64,26,,,,,,,,,,,a,3.6043940999661572,977.101562099997,None,977.101562099997,None,980.7683414000203,None,980.7683414000203,None,980.7683414000203,None,982.731767099991,None,982.731767099991,None,982.731767099991,None,980.7683414000203,None,983.2707226699974,None,983.2707226699974,None,983.2707226699974,None,0.019098369986750185,None,983.2707226699974,None,983.2707226699974,None,983.2707226699974,None,983.2707226699974,None,983.2707226699974,None,983.2707226699974,None,983.2802297999733,None,983.2802297999733,None,983.2802297999733,None,0.010944170004222542,0.5109441700042225,983.2802297999733,None,983.2802297999733,None,983.2802297999733,None,983.2802297999733,None,983.2802297999733,None,983.2802297999733,None,985.2481392999762,985.2481392999762,-25.0,6.562,-1200,-1300,-950,,,,,,,,,,,,,,,,,,,,,,,,,,,,,,,,,,,,,,,,,,,,,,,,,,,,,,,,,,,,,,,,,,,,,,,,,,,,,,,,,,,f,19,MAXINYU,2022_Apr_10_2110,experiment3,2021.1.4,30.30978111970692,
40,200,200,50,one,200,200,50,,,,,0,65,65,39,,,,,,,,,,,l,3.392139400006272,991.8973523000022,None,991.8973523000022,None,995.3464818999637,None,995.3464818999637,None,995.3464818999637,None,997.3126132999896,997.8168483999907,997.3126132999896,997.8168483999907,997.3126132999896,997.8168483999907,995.3464818999637,None,997.8501692699908,None,997.8501692699908,None,997.8501692699908,None,0.023153670015744865,None,997.8501692699908,None,997.8501692699908,None,997.8501692699908,None,997.8501692699908,None,997.8501692699908,None,997.8501692699908,None,997.8555448999978,None,997.8555448999978,None,997.8555448999978,None,0.013349269982427359,0.5133492699824274,997.8555448999978,None,997.8555448999978,None,997.8555448999978,None,997.8555448999978,None,997.8555448999978,None,997.8555448999978,None,999.8288329999777,999.8288329999777,-0.10000000000000142,5.123,-1000,-1100,-900,,,,,,,,,,,,,,,,,,,,,,,,,,,,,,,,,,,,,,,,,,,,,,,,,,,,,,,,,,,,,,,,,,,,,,,,,,,,,,,,,,,f,19,MAXINYU,2022_Apr_10_2110,experiment3,2021.1.4,30.30978111970692,
48,50,200,200,two,50,200,200,,,,,0,66,66,47,,,,,,,,,,,g,3.2053912000264972,1005.0083939000033,None,1005.0083939000033,None,1008.2771371999988,None,1008.2771371999988,None,1008.2771371999988,None,1010.2264891999657,1010.7266000999953,1010.2264891999657,1010.7266000999953,1010.2264891999657,1010.7266000999953,1008.2771371999988,None,1010.7934885700058,None,1010.7934885700058,None,1010.7934885700058,None,0.02720657008467242,None,1010.7934885700058,None,1010.7934885700058,None,1010.7934885700058,None,1010.7934885700058,None,1010.7934885700058,None,1010.7934885700058,None,1010.7924273000099,None,1010.7924273000099,None,1010.7924273000099,None,0.01992617006180808,0.5199261700618081,1010.7924273000099,None,1010.7924273000099,None,1010.7924273000099,None,1010.7924273000099,None,1010.7924273000099,None,1010.7924273000099,None,1012.7596707000048,1012.7596707000048,-25.2,5.835,-950,-900,-700,,,,,,,,,,,,,,,,,,,,,,,,,,,,,,,,,,,,,,,,,,,,,,,,,,,,,,,,,,,,,,,,,,,,,,,,,,,,,,,,,,,f,19,MAXINYU,2022_Apr_10_2110,experiment3,2021.1.4,30.30978111970692,
63,-150,0,0,one,-150,0,0,,,,,0,67,67,62,,,,,,,,,,,l,3.127792999963276,1018.6590794000076,None,1018.6590794000076,None,1021.8411672000075,None,1021.8411672000075,None,1021.8411672000075,None,1023.7908093999722,1024.290943800006,1023.7908093999722,1024.290943800006,1023.7908093999722,1024.290943800006,1021.8411672000075,None,1024.3571154699719,None,1024.3571154699719,None,1024.3571154699719,None,0.02743017004104331,None,1024.3571154699719,None,1024.3571154699719,None,1024.3571154699719,None,1024.3571154699719,None,1024.3571154699719,None,1024.3571154699719,None,1024.3566334999632,None,1024.3566334999632,None,1024.3566334999632,None,0.02021957002580166,0.5202195700258017,1024.3566334999632,None,1024.3566334999632,None,1024.3566334999632,None,1024.3566334999632,None,1024.3566334999632,None,1024.3566334999632,None,1026.3403244999936,1026.3403244999936,-50.0,4.897,-1100,-900,-700,,,,,,,,,,,,,,,,,,,,,,,,,,,,,,,,,,,,,,,,,,,,,,,,,,,,,,,,,,,,,,,,,,,,,,,,,,,,,,,,,,,f,19,MAXINYU,2022_Apr_10_2110,experiment3,2021.1.4,30.30978111970692,
31,200,50,50,two,200,50,50,,,,,0,68,68,30,,,,,,,,,,,g,13.34303990000626,1031.306728399999,None,1031.306728399999,None,1044.7031540999888,None,1044.7031540999888,None,1044.7031540999888,None,1046.6697375999647,1047.1929392999737,1046.6697375999647,1047.1929392999737,1046.6697375999647,1047.1929392999737,1044.7031540999888,None,1047.2262601699738,None,1047.2262601699738,None,1047.2262601699738,None,0.017682170029729605,None,1047.2262601699738,None,1047.2262601699738,None,1047.2262601699738,None,1047.2262601699738,None,1047.2262601699738,None,1047.2262601699738,None,1047.256559500005,None,1047.256559500005,None,1047.256559500005,None,0.03277253994019702,0.532772539940197,1047.256559500005,None,1047.256559500005,None,1047.256559500005,None,1047.256559500005,None,1047.256559500005,None,1047.256559500005,None,1049.2022370999912,1049.2022370999912,24.700000000000003,11.202,-900,-850,-650,,,,,,,,,,,,,,,,,,,,,,,,,,,,,,,,,,,,,,,,,,,,,,,,,,,,,,,,,,,,,,,,,,,,,,,,,,,,,,,,,,,f,19,MAXINYU,2022_Apr_10_2110,experiment3,2021.1.4,30.30978111970692,
76,0,-150,-150,one,0,-150,-150,,,,,0,69,69,75,,,,,,,,,,,g,2.032176500011701,1060.5358161000186,None,1060.5358161000186,None,1062.6012993999757,None,1062.6012993999757,None,1062.6012993999757,None,1064.5663270999794,1065.0663407999673,1064.5663270999794,1065.0663407999673,1064.5663270999794,1065.0663407999673,1062.6012993999757,None,1065.1365765699709,None,1065.1365765699709,None,1065.1365765699709,None,0.027349270007107407,None,1065.1365765699709,None,1065.1365765699709,None,1065.1365765699709,None,1065.1365765699709,None,1065.1365765699709,None,1065.1365765699709,None,1065.1345954000135,None,1065.1345954000135,None,1065.1345954000135,None,0.017945470055565238,0.5179454700555652,1065.1345954000135,None,1065.1345954000135,None,1065.1345954000135,None,1065.1345954000135,None,1065.1345954000135,None,1065.1345954000135,None,1067.117205699964,1067.117205699964,25.099999999999994,7.322,-900,-1000,-800,,,,,,,,,,,,,,,,,,,,,,,,,,,,,,,,,,,,,,,,,,,,,,,,,,,,,,,,,,,,,,,,,,,,,,,,,,,,,,,,,,,f,19,MAXINYU,2022_Apr_10_2110,experiment3,2021.1.4,30.30978111970692,
61,0,0,-150,one,0,0,-150,,,,,0,70,70,60,,,,,,,,,,,g,3.3880060999654233,1074.5313360000146,None,1074.5313360000146,None,1077.9633314000093,None,1077.9633314000093,None,1077.9633314000093,None,1079.9129146999912,1080.4130530999973,1079.9129146999912,1080.4130530999973,1079.9129146999912,1080.4130530999973,1077.9633314000093,None,1080.4797644699981,None,1080.4797644699981,None,1080.4797644699981,None,0.027526070014573634,None,1080.4797644699981,None,1080.4797644699981,None,1080.4797644699981,None,1080.4797644699981,None,1080.4797644699981,None,1080.4797644699981,None,1080.479149199964,None,1080.479149199964,None,1080.479149199964,None,0.0201760699856095,0.5201760699856095,1080.479149199964,None,1080.479149199964,None,1080.479149199964,None,1080.479149199964,None,1080.479149199964,None,1080.479149199964,None,1082.462664199993,1082.462664199993,-0.20000000000000284,5.423,-900,-1000,-950,,,,,,,,,,,,,,,,,,,,,,,,,,,,,,,,,,,,,,,,,,,,,,,,,,,,,,,,,,,,,,,,,,,,,,,,,,,,,,,,,,,f,19,MAXINYU,2022_Apr_10_2110,experiment3,2021.1.4,30.30978111970692,
89,-200,-150,-200,one,-200,-150,-200,,,,,0,71,71,88,,,,,,,,,,,g,2.684298000007402,1087.945681400015,None,1087.945681400015,None,1090.6942720999941,None,1090.6942720999941,None,1090.6942720999941,None,1092.6440823000157,1093.1446319000097,1092.6440823000157,1093.1446319000097,1092.6440823000157,1093.1446319000097,1090.6942720999941,None,1093.2111480699793,None,1093.2111480699793,None,1093.2111480699793,None,0.02559887000825256,None,1093.2111480699793,None,1093.2111480699793,None,1093.2111480699793,None,1093.2111480699793,None,1093.2111480699793,None,1093.2111480699793,None,1093.2114348000032,None,1093.2114348000032,None,1093.2114348000032,None,0.016037370020058006,0.516037370020058,1093.2114348000032,None,1093.2114348000032,None,1093.2114348000032,None,1093.2114348000032,None,1093.2114348000032,None,1093.2114348000032,None,1095.2130478700099,None,-25.5,10.541,-1100,-1150,-1150,,,,,,,,,,,,,,,,,,,,,,,,,,,,,,,,,,,,,,,,,,,,,,,,,,,,,,,,,,,,,,,,,,,,,,,,,,,,,,,,,,,f,19,MAXINYU,2022_Apr_10_2110,experiment3,2021.1.4,30.30978111970692,
58,-150,-200,0,two,-150,-200,0,,,,,0,72,72,57,,,,,,,,,,,l,2.9915485000237823,1105.7826312999823,None,1105.7826312999823,None,1108.8075990999932,None,1108.8075990999932,None,1108.8075990999932,None,1110.756974799966,1111.2578058000072,1110.756974799966,1111.2578058000072,1110.756974799966,1111.2578058000072,1108.8075990999932,None,1111.323986569984,None,1111.323986569984,None,1111.323986569984,None,0.027128370013087988,None,1111.323986569984,None,1111.323986569984,None,1111.323986569984,None,1111.323986569984,None,1111.323986569984,None,1111.323986569984,None,1111.3231278000167,None,1111.3231278000167,None,1111.3231278000167,None,0.019510570040438324,0.5195105700404383,1111.3231278000167,None,1111.3231278000167,None,1111.3231278000167,None,1111.3231278000167,None,1111.3231278000167,None,1111.3231278000167,None,1113.2903428999707,1113.2903428999707,25.200000000000003,10.848,-1250,-1350,-1150,,,,,,,,,,,,,,,,,,,,,,,,,,,,,,,,,,,,,,,,,,,,,,,,,,,,,,,,,,,,,,,,,,,,,,,,,,,,,,,,,,,f,19,MAXINYU,2022_Apr_10_2110,experiment3,2021.1.4,30.30978111970692,
68,0,-150,0,two,0,-150,0,,,,,0,73,73,67,,,,,,,,,,,a,3.012436000048183,1124.1932661000174,None,1124.1932661000174,None,1127.2308177999803,None,1127.2308177999803,None,1127.2308177999803,None,1129.2032506999676,1129.703456899966,1129.2032506999676,1129.703456899966,1129.2032506999676,1129.703456899966,1127.2308177999803,None,1129.7367777699662,None,1129.7367777699662,None,1129.7367777699662,None,0.02532807004172355,None,1129.7367777699662,None,1129.7367777699662,None,1129.7367777699662,None,1129.7367777699662,None,1129.7367777699662,None,1129.7367777699662,None,1129.7357590000029,None,1129.7357590000029,None,1129.7357590000029,None,0.018012470041867346,0.5180124700418673,1129.7357590000029,None,1129.7357590000029,None,1129.7357590000029,None,1129.7357590000029,None,1129.7357590000029,None,1129.7357590000029,None,1131.7197820000001,1131.7197820000001,25.0,6.689,-1250,-1500,-1150,,,,,,,,,,,,,,,,,,,,,,,,,,,,,,,,,,,,,,,,,,,,,,,,,,,,,,,,,,,,,,,,,,,,,,,,,,,,,,,,,,,f,19,MAXINYU,2022_Apr_10_2110,experiment3,2021.1.4,30.30978111970692,
66,-200,0,0,one,-200,0,0,,,,,0,74,74,65,,,,,,,,,,,a,3.2904111999669112,1138.466168200015,None,1138.466168200015,None,1141.8176400999655,None,1141.8176400999655,None,1141.8176400999655,None,1143.771404500003,1144.3006121999933,1143.771404500003,1144.3006121999933,1143.771404500003,1144.3006121999933,1141.8176400999655,None,1144.3339330699935,None,1144.3339330699935,None,1144.3339330699935,None,0.027512270025908947,None,1144.3339330699935,None,1144.3339330699935,None,1144.3339330699935,None,1144.3339330699935,None,1144.3339330699935,None,1144.3339330699935,None,1144.3333849000046,None,1144.3333849000046,None,1144.3333849000046,None,0.021187370060943067,0.5211873700609431,1144.3333849000046,None,1144.3333849000046,None,1144.3333849000046,None,1144.3333849000046,None,1144.3333849000046,None,1144.3333849000046,None,1146.317021099967,1146.317021099967,-50.0,7.836,-1450,-1500,-1150,,,,,,,,,,,,,,,,,,,,,,,,,,,,,,,,,,,,,,,,,,,,,,,,,,,,,,,,,,,,,,,,,,,,,,,,,,,,,,,,,,,f,19,MAXINYU,2022_Apr_10_2110,experiment3,2021.1.4,30.30978111970692,
23,0,200,0,two,0,200,0,,,,,0,75,75,22,,,,,,,,,,,l,4.1663015999947675,1154.2120868999627,None,1154.2120868999627,None,1158.4147276000003,None,1158.4147276000003,None,1158.4147276000003,None,1160.3807990999776,1160.8813390000141,1160.3807990999776,1160.8813390000141,1160.3807990999776,1160.8813390000141,1158.4147276000003,None,1160.9146598700142,None,1160.9146598700142,None,1160.9146598700142,None,0.025276369997300208,None,1160.9146598700142,None,1160.9146598700142,None,1160.9146598700142,None,1160.9146598700142,None,1160.9146598700142,None,1160.9146598700142,None,1160.9134786999784,None,1160.9134786999784,None,1160.9134786999784,None,0.0168769700685516,0.5168769700685516,1160.9134786999784,None,1160.9134786999784,None,1160.9134786999784,None,1160.9134786999784,None,1160.9134786999784,None,1160.9134786999784,None,1162.883002699993,1162.883002699993,-50.0,7.941,-1450,-1300,-1150,,,,,,,,,,,,,,,,,,,,,,,,,,,,,,,,,,,,,,,,,,,,,,,,,,,,,,,,,,,,,,,,,,,,,,,,,,,,,,,,,,,f,19,MAXINYU,2022_Apr_10_2110,experiment3,2021.1.4,30.30978111970692,
88,-200,-200,-150,one,-200,-200,-150,,,,,0,76,76,87,,,,,,,,,,,g,2.255719600012526,1170.881486499973,None,1170.881486499973,None,1173.1778590999893,None,1173.1778590999893,None,1173.1778590999893,None,1175.145617000002,1175.6453765999759,1175.145617000002,1175.6453765999759,1175.145617000002,1175.6453765999759,1173.1778590999893,None,1175.678697469976,None,1175.678697469976,None,1175.678697469976,None,0.025458670046646148,None,1175.678697469976,None,1175.678697469976,None,1175.678697469976,None,1175.678697469976,None,1175.678697469976,None,1175.678697469976,None,1175.6771442000172,None,1175.6771442000172,None,1175.6771442000172,None,0.018522369966376573,0.5185223699663766,1175.6771442000172,None,1175.6771442000172,None,1175.6771442000172,None,1175.6771442000172,None,1175.6771442000172,None,1175.6771442000172,None,1177.6442675999715,1177.6442675999715,0.0,3.469,-1650,-1500,-1300,,,,,,,,,,,,,,,,,,,,,,,,,,,,,,,,,,,,,,,,,,,,,,,,,,,,,,,,,,,,,,,,,,,,,,,,,,,,,,,,,,,f,19,MAXINYU,2022_Apr_10_2110,experiment3,2021.1.4,30.30978111970692,
70,0,0,-200,two,0,0,-200,,,,,0,77,77,69,,,,,,,,,,,g,2.2781224999926053,1181.1763423999655,None,1181.1763423999655,None,1183.499351400009,None,1183.499351400009,None,1183.499351400009,None,1185.442778799974,1185.9425406999653,1185.442778799974,1185.9425406999653,1185.442778799974,1185.9425406999653,1183.499351400009,None,1186.0100407699763,None,1186.0100407699763,None,1186.0100407699763,None,0.027545470045879483,None,1186.0100407699763,None,1186.0100407699763,None,1186.0100407699763,None,1186.0100407699763,None,1186.0100407699763,None,1186.0100407699763,None,1186.0082605999778,None,1186.0082605999778,None,1186.0082605999778,None,0.01995557005284354,0.5199555700528435,1186.0082605999778,None,1186.0082605999778,None,1186.0082605999778,None,1186.0082605999778,None,1186.0082605999778,None,1186.0082605999778,None,1187.975264400011,1187.975264400011,-0.5,3.503,-1650,-1500,-1500,,,,,,,,,,,,,,,,,,,,,,,,,,,,,,,,,,,,,,,,,,,,,,,,,,,,,,,,,,,,,,,,,,,,,,,,,,,,,,,,,,,f,19,MAXINYU,2022_Apr_10_2110,experiment3,2021.1.4,30.30978111970692,
15,50,0,0,one,50,0,0,,,,,0,78,78,14,,,,,,,,,,,g,2.3797741000307724,1191.5421638999833,None,1191.5421638999833,None,1193.9744247999624,None,1193.9744247999624,None,1193.9744247999624,None,1195.9405604999629,1196.4436087000067,1195.9405604999629,1196.4436087000067,1195.9405604999629,1196.4436087000067,1193.9744247999624,None,1196.4769295700069,None,1196.4769295700069,None,1196.4769295700069,None,0.024235070042777807,None,1196.4769295700069,None,1196.4769295700069,None,1196.4769295700069,None,1196.4769295700069,None,1196.4769295700069,None,1196.4769295700069,None,1196.482305500016,None,1196.482305500016,None,1196.482305500016,None,0.011555970006156713,0.5115559700061567,1196.482305500016,None,1196.482305500016,None,1196.482305500016,None,1196.482305500016,None,1196.482305500016,None,1196.482305500016,None,1198.473399600014,1198.473399600014,25.099999999999994,6.703,-1600,-1500,-1500,,,,,,,,,,,,,,,,,,,,,,,,,,,,,,,,,,,,,,,,,,,,,,,,,,,,,,,,,,,,,,,,,,,,,,,,,,,,,,,,,,,f,19,MAXINYU,2022_Apr_10_2110,experiment3,2021.1.4,30.30978111970692,
51,-150,0,-200,one,-150,0,-200,,,,,0,79,79,50,,,,,,,,,,,g,2.8553860999527387,1205.2394330999814,None,1205.2394330999814,None,1208.1388338999823,None,1208.1388338999823,None,1208.1388338999823,None,1210.104480399983,1210.6043267999776,1210.104480399983,1210.6043267999776,1210.104480399983,1210.6043267999776,1208.1388338999823,None,1210.6709523699653,None,1210.6709523699653,None,1210.6709523699653,None,0.02776076993905008,None,1210.6709523699653,None,1210.6709523699653,None,1210.6709523699653,None,1210.6709523699653,None,1210.6709523699653,None,1210.6709523699653,None,1210.670282999985,None,1210.670282999985,None,1210.670282999985,None,0.02003867004532367,0.5200386700453237,1210.670282999985,None,1210.670282999985,None,1210.670282999985,None,1210.670282999985,None,1210.670282999985,None,1210.670282999985,None,1212.6416377999703,1212.6416377999703,-25.0,13.79,-1750,-1500,-1700,,,,,,,,,,,,,,,,,,,,,,,,,,,,,,,,,,,,,,,,,,,,,,,,,,,,,,,,,,,,,,,,,,,,,,,,,,,,,,,,,,,f,19,MAXINYU,2022_Apr_10_2110,experiment3,2021.1.4,30.30978111970692,
37,200,200,0,one,200,200,0,,,,,0,80,80,36,,,,,,,,,,,a,2.9571790999616496,1226.4877995999996,None,1226.4877995999996,None,1229.4840489000198,None,1229.4840489000198,None,1229.4840489000198,None,1231.4504205000121,1231.9503519000136,1231.4504205000121,1231.9503519000136,1231.4504205000121,1231.9503519000136,1229.4840489000198,None,1231.9836727700138,None,1231.9836727700138,None,1231.9836727700138,None,0.02515467000193894,None,1231.9836727700138,None,1231.9836727700138,None,1231.9836727700138,None,1231.9836727700138,None,1231.9836727700138,None,1231.9836727700138,None,1231.9825332000037,None,1231.9825332000037,None,1231.9825332000037,None,0.017755870067048818,0.5177558700670488,1231.9825332000037,None,1231.9825332000037,None,1231.9825332000037,None,1231.9825332000037,None,1231.9825332000037,None,1231.9825332000037,None,1233.9499783999636,1233.9499783999636,-0.10000000000000142,4.113,-1550,-1300,-1700,,,,,,,,,,,,,,,,,,,,,,,,,,,,,,,,,,,,,,,,,,,,,,,,,,,,,,,,,,,,,,,,,,,,,,,,,,,,,,,,,,,f,19,MAXINYU,2022_Apr_10_2110,experiment3,2021.1.4,30.30978111970692,
6,200,0,50,one,200,0,50,,,,,0,81,81,5,,,,,,,,,,,a,2.921592900005635,1238.1199166000006,None,1238.1199166000006,None,1241.0984417999862,None,1241.0984417999862,None,1241.0984417999862,None,1243.0478793999646,1243.5646863000002,1243.0478793999646,1243.5646863000002,1243.0478793999646,1243.5646863000002,1241.0984417999862,None,1243.5980071700003,None,1243.5980071700003,None,1243.5980071700003,None,0.02611337008420378,None,1243.5980071700003,None,1243.5980071700003,None,1243.5980071700003,None,1243.5980071700003,None,1243.5980071700003,None,1243.5980071700003,None,1243.5972039999906,None,1243.5972039999906,None,1243.5972039999906,None,0.01954076997935772,0.5195407699793577,1243.5972039999906,None,1243.5972039999906,None,1243.5972039999906,None,1243.5972039999906,None,1243.5972039999906,None,1243.5972039999906,None,1245.5879693999887,1245.5879693999887,12.700000000000003,8.875,-1350,-1300,-1650,,,,,,,,,,,,,,,,,,,,,,,,,,,,,,,,,,,,,,,,,,,,,,,,,,,,,,,,,,,,,,,,,,,,,,,,,,,,,,,,,,,f,19,MAXINYU,2022_Apr_10_2110,experiment3,2021.1.4,30.30978111970692,
91,-200,-200,0,two,-200,-200,0,,,,,0,82,82,90,,,,,,,,,,,g,2.1263451000559144,1254.5626111999736,None,1254.5626111999736,None,1256.7460960000171,None,1256.7460960000171,None,1256.7460960000171,None,1258.7118694999954,1259.244756900007,1258.7118694999954,1259.244756900007,1258.7118694999954,1259.244756900007,1256.7460960000171,None,1259.278077770007,None,1259.278077770007,None,1259.278077770007,None,0.02748987008817494,None,1259.278077770007,None,1259.278077770007,None,1259.278077770007,None,1259.278077770007,None,1259.278077770007,None,1259.278077770007,None,1259.2771847000113,None,1259.2771847000113,None,1259.2771847000113,None,0.02010967006208375,0.5201096700620838,1259.2771847000113,None,1259.2771847000113,None,1259.2771847000113,None,1259.2771847000113,None,1259.2771847000113,None,1259.2771847000113,None,1261.2447942,1261.2447942,-0.10000000000000142,2.781,-1550,-1500,-1650,,,,,,,,,,,,,,,,,,,,,,,,,,,,,,,,,,,,,,,,,,,,,,,,,,,,,,,,,,,,,,,,,,,,,,,,,,,,,,,,,,,f,19,MAXINYU,2022_Apr_10_2110,experiment3,2021.1.4,30.30978111970692,
10,50,200,0,two,50,200,0,,,,,0,83,83,9,,,,,,,,,,,g,2.294293899962213,1264.0814376000199,None,1264.0814376000199,None,1266.4271370999631,None,1266.4271370999631,None,1266.4271370999631,None,1268.3931953000138,1268.8931048999657,1268.3931953000138,1268.8931048999657,1268.3931953000138,1268.8931048999657,1266.4271370999631,None,1268.9264257699658,None,1268.9264257699658,None,1268.9264257699658,None,0.025309169956017286,None,1268.9264257699658,None,1268.9264257699658,None,1268.9264257699658,None,1268.9264257699658,None,1268.9264257699658,None,1268.9264257699658,None,1268.9254433999886,None,1268.9254433999886,None,1268.9254433999886,None,0.018873470020480454,0.5188734700204805,1268.9254433999886,None,1268.9254433999886,None,1268.9254433999886,None,1268.9254433999886,None,1268.9254433999886,None,1268.9254433999886,None,1270.892581299995,1270.892581299995,-25.2,9.925,-1500,-1300,-1650,,,,,,,,,,,,,,,,,,,,,,,,,,,,,,,,,,,,,,,,,,,,,,,,,,,,,,,,,,,,,,,,,,,,,,,,,,,,,,,,,,,f,19,MAXINYU,2022_Apr_10_2110,experiment3,2021.1.4,30.30978111970692,
14,0,50,0,one,0,50,0,,,,,0,84,84,13,,,,,,,,,,,a,3.0450416000094265,1280.8711077999906,None,1280.8711077999906,None,1283.9734951999853,None,1283.9734951999853,None,1283.9734951999853,None,1285.922839900013,1286.4232758000144,1285.922839900013,1286.4232758000144,1285.922839900013,1286.4232758000144,1283.9734951999853,None,1286.4928841700137,None,1286.4928841700137,None,1286.4928841700137,None,0.026033970061689615,None,1286.4928841700137,None,1286.4928841700137,None,1286.4928841700137,None,1286.4928841700137,None,1286.4928841700137,None,1286.4928841700137,None,1286.4931464999681,None,1286.4931464999681,None,1286.4931464999681,None,0.01573757000733167,0.5157375700073317,1286.4931464999681,None,1286.4931464999681,None,1286.4931464999681,None,1286.4931464999681,None,1286.4931464999681,None,1286.4931464999681,None,1288.4897290999652,1288.4897290999652,-25.1,6.694,-1500,-1250,-1650,,,,,,,,,,,,,,,,,,,,,,,,,,,,,,,,,,,,,,,,,,,,,,,,,,,,,,,,,,,,,,,,,,,,,,,,,,,,,,,,,,,f,19,MAXINYU,2022_Apr_10_2110,experiment3,2021.1.4,30.30978111970692,
43,200,200,0,two,200,200,0,,,,,0,85,85,42,,,,,,,,,,,g,1.9874096999992616,1295.2424194000196,None,1295.2424194000196,None,1297.2876462999848,None,1297.2876462999848,None,1297.2876462999848,None,1299.254238799971,1299.753489399969,1299.254238799971,1299.753489399969,1299.254238799971,1299.753489399969,1297.2876462999848,None,1299.7868102699692,None,1299.7868102699692,None,1299.7868102699692,None,0.023906270042061806,None,1299.7868102699692,None,1299.7868102699692,None,1299.7868102699692,None,1299.7868102699692,None,1299.7868102699692,None,1299.7868102699692,None,1299.7859477999737,None,1299.7859477999737,None,1299.7859477999737,None,0.015348169952630997,0.515348169952631,1299.7859477999737,None,1299.7859477999737,None,1299.7859477999737,None,1299.7859477999737,None,1299.7859477999737,None,1299.7859477999737,None,1301.7865379699913,None,0.0,3.503,-1300,-1050,-1650,,,,,,,,,,,,,,,,,,,,,,,,,,,,,,,,,,,,,,,,,,,,,,,,,,,,,,,,,,,,,,,,,,,,,,,,,,,,,,,,,,,f,19,MAXINYU,2022_Apr_10_2110,experiment3,2021.1.4,30.30978111970692,
34,0,50,50,two,0,50,50,,,,,0,86,86,33,,,,,,,,,,,g,2.007123599993065,1305.3347268999787,None,1305.3347268999787,None,1307.4025737000047,None,1307.4025737000047,None,1307.4025737000047,None,1309.3685391999898,1309.8682089999784,1309.3685391999898,1309.8682089999784,1309.3685391999898,1309.8682089999784,1307.4025737000047,None,1309.935076370003,None,1309.935076370003,None,1309.935076370003,None,0.02786897000623867,None,1309.935076370003,None,1309.935076370003,None,1309.935076370003,None,1309.935076370003,None,1309.935076370003,None,1309.935076370003,None,1309.9351366999908,None,1309.9351366999908,None,1309.9351366999908,None,0.019752170075662434,0.5197521700756624,1309.9351366999908,None,1309.9351366999908,None,1309.9351366999908,None,1309.9351366999908,None,1309.9351366999908,None,1309.9351366999908,None,1311.9012587000034,1311.9012587000034,-25.1,3.316,-1300,-1000,-1600,,,,,,,,,,,,,,,,,,,,,,,,,,,,,,,,,,,,,,,,,,,,,,,,,,,,,,,,,,,,,,,,,,,,,,,,,,,,,,,,,,,f,19,MAXINYU,2022_Apr_10_2110,experiment3,2021.1.4,30.30978111970692,
62,0,-150,0,one,0,-150,0,,,,,0,87,87,61,,,,,,,,,,,l,2.1436791999731213,1315.2722377000027,None,1315.2722377000027,None,1317.4677579000127,None,1317.4677579000127,None,1317.4677579000127,None,1319.433213900018,1319.9336552000022,1319.433213900018,1319.9336552000022,1319.433213900018,1319.9336552000022,1317.4677579000127,None,1319.9669760700024,None,1319.9669760700024,None,1319.9669760700024,None,0.024989070079755038,None,1319.9669760700024,None,1319.9669760700024,None,1319.9669760700024,None,1319.9669760700024,None,1319.9669760700024,None,1319.9669760700024,None,1319.9653146999772,None,1319.9653146999772,None,1319.9653146999772,None,0.01732137001818046,0.5173213700181805,1319.9653146999772,None,1319.9653146999772,None,1319.9653146999772,None,1319.9653146999772,None,1319.9653146999772,None,1319.9653146999772,None,1321.9323229999864,1321.9323229999864,25.0,7.959,-1300,-1150,-1600,,,,,,,,,,,,,,,,,,,,,,,,,,,,,,,,,,,,,,,,,,,,,,,,,,,,,,,,,,,,,,,,,,,,,,,,,,,,,,,,,,,f,19,MAXINYU,2022_Apr_10_2110,experiment3,2021.1.4,30.30978111970692,
44,200,0,200,two,200,0,200,,,,,0,88,88,43,,,,,,,,,,,l,2.749981199973263,1329.9453716999851,None,1329.9453716999851,None,1332.751043999975,None,1332.751043999975,None,1332.751043999975,None,1334.7178648000117,1335.2466972999973,1334.7178648000117,1335.2466972999973,1334.7178648000117,1335.2466972999973,1332.751043999975,None,1335.2800181699974,None,1335.2800181699974,None,1335.2800181699974,None,0.02751486998749897,None,1335.2800181699974,None,1335.2800181699974,None,1335.2800181699974,None,1335.2800181699974,None,1335.2800181699974,None,1335.2800181699974,None,1335.2792984999833,None,1335.2792984999833,None,1335.2792984999833,None,0.019953469978645444,0.5199534699786454,1335.2792984999833,None,1335.2792984999833,None,1335.2792984999833,None,1335.2792984999833,None,1335.2792984999833,None,1335.2792984999833,None,1337.2480331999832,1337.2480331999832,0.0,10.681,-1100,-1150,-1400,,,,,,,,,,,,,,,,,,,,,,,,,,,,,,,,,,,,,,,,,,,,,,,,,,,,,,,,,,,,,,,,,,,,,,,,,,,,,,,,,,,f,19,MAXINYU,2022_Apr_10_2110,experiment3,2021.1.4,30.30978111970692,
24,200,0,0,two,200,0,0,,,,,0,89,89,23,,,,,,,,,,,g,2.572382499987725,1347.994896899967,None,1347.994896899967,None,1350.6268498999998,None,1350.6268498999998,None,1350.6268498999998,None,1352.579302099999,1353.1098742000177,1352.579302099999,1353.1098742000177,1352.579302099999,1353.1098742000177,1350.6268498999998,None,1353.1431950700178,None,1353.1431950700178,None,1353.1431950700178,None,0.02736356999957934,None,1353.1431950700178,None,1353.1431950700178,None,1353.1431950700178,None,1353.1431950700178,None,1353.1431950700178,None,1353.1431950700178,None,1353.1429214999662,None,1353.1429214999662,None,1353.1429214999662,None,0.01995566999539733,0.5199556699953973,1353.1429214999662,None,1353.1429214999662,None,1353.1429214999662,None,1353.1429214999662,None,1353.1429214999662,None,1353.1429214999662,None,1355.127163600002,1355.127163600002,49.5,7.168,-900,-1150,-1400,,,,,,,,,,,,,,,,,,,,,,,,,,,,,,,,,,,,,,,,,,,,,,,,,,,,,,,,,,,,,,,,,,,,,,,,,,,,,,,,,,,f,19,MAXINYU,2022_Apr_10_2110,experiment3,2021.1.4,30.30978111970692,
52,-150,-200,0,one,-150,-200,0,,,,,0,90,90,51,,,,,,,,,,,g,2.823359200032428,1362.3788150000037,None,1362.3788150000037,None,1365.2577286000014,None,1365.2577286000014,None,1365.2577286000014,None,1367.2068704999983,1367.7071766000008,1367.2068704999983,1367.7071766000008,1367.2068704999983,1367.7071766000008,1365.2577286000014,None,1367.7741233699896,None,1367.7741233699896,None,1367.7741233699896,None,0.027474269969388843,None,1367.7741233699896,None,1367.7741233699896,None,1367.7741233699896,None,1367.7741233699896,None,1367.7741233699896,None,1367.7741233699896,None,1367.7728450999712,None,1367.7728450999712,None,1367.7728450999712,None,0.02085647004423663,0.5208564700442366,1367.7728450999712,None,1367.7728450999712,None,1367.7728450999712,None,1367.7728450999712,None,1367.7728450999712,None,1367.7728450999712,None,1369.756807799975,1369.756807799975,24.799999999999997,5.479,-1050,-1350,-1400,,,,,,,,,,,,,,,,,,,,,,,,,,,,,,,,,,,,,,,,,,,,,,,,,,,,,,,,,,,,,,,,,,,,,,,,,,,,,,,,,,,f,19,MAXINYU,2022_Apr_10_2110,experiment3,2021.1.4,30.30978111970692,
85,-200,-200,0,one,-200,-200,0,,,,,0,91,91,84,,,,,,,,,,,a,2.317975900019519,1375.2899615999777,None,1375.2899615999777,None,1377.6555784000084,None,1377.6555784000084,None,1377.6555784000084,None,1379.6213805999723,1380.1220233999775,1379.6213805999723,1380.1220233999775,1379.6213805999723,1380.1220233999775,1377.6555784000084,None,1380.1553442699776,None,1380.1553442699776,None,1380.1553442699776,None,0.025761369965039194,None,1380.1553442699776,None,1380.1553442699776,None,1380.1553442699776,None,1380.1553442699776,None,1380.1553442699776,None,1380.1553442699776,None,1380.1535749000032,None,1380.1535749000032,None,1380.1535749000032,None,0.01862497004913166,0.5186249700491317,1380.1535749000032,None,1380.1535749000032,None,1380.1535749000032,None,1380.1535749000032,None,1380.1535749000032,None,1380.1535749000032,None,1382.1239137999946,1382.1239137999946,-25.2,3.652,-1250,-1550,-1400,,,,,,,,,,,,,,,,,,,,,,,,,,,,,,,,,,,,,,,,,,,,,,,,,,,,,,,,,,,,,,,,,,,,,,,,,,,,,,,,,,,f,19,MAXINYU,2022_Apr_10_2110,experiment3,2021.1.4,30.30978111970692,
49,0,-150,-200,one,0,-150,-200,,,,,0,92,92,48,,,,,,,,,,,g,3.0031467999797314,1385.8389726000023,None,1385.8389726000023,None,1388.9030187000171,None,1388.9030187000171,None,1388.9030187000171,None,1390.8524899000186,1391.3527431999682,1390.8524899000186,1391.3527431999682,1390.8524899000186,1391.3527431999682,1388.9030187000171,None,1391.4192045699863,None,1391.4192045699863,None,1391.4192045699863,None,0.027478970063384622,None,1391.4192045699863,None,1391.4192045699863,None,1391.4192045699863,None,1391.4192045699863,None,1391.4192045699863,None,1391.4192045699863,None,1391.4182932999684,None,1391.4182932999684,None,1391.4182932999684,None,0.020295269961934537,0.5202952699619345,1391.4182932999684,None,1391.4182932999684,None,1391.4182932999684,None,1391.4182932999684,None,1391.4182932999684,None,1391.4182932999684,None,1393.4021203999873,1393.4021203999873,25.099999999999994,7.214,-1250,-1700,-1600,,,,,,,,,,,,,,,,,,,,,,,,,,,,,,,,,,,,,,,,,,,,,,,,,,,,,,,,,,,,,,,,,,,,,,,,,,,,,,,,,,,f,19,MAXINYU,2022_Apr_10_2110,experiment3,2021.1.4,30.30978111970692,
36,50,50,0,two,50,50,0,,,,,0,93,93,35,,,,,,,,,,,l,2.687732100021094,1400.669675400015,None,1400.669675400015,None,1403.421112000011,None,1403.421112000011,None,1403.421112000011,None,1405.3668643999845,1405.8830545999808,1405.3668643999845,1405.8830545999808,1405.3668643999845,1405.8830545999808,1403.421112000011,None,1405.9587970700056,None,1405.9587970700056,None,1405.9587970700056,None,0.02697867003735155,None,1405.9587970700056,None,1405.9587970700056,None,1405.9587970700056,None,1405.9587970700056,None,1405.9587970700056,None,1405.9587970700056,None,1405.9536244000192,None,1405.9536244000192,None,1405.9536244000192,None,0.019061369996052235,0.5190613699960522,1405.9536244000192,None,1405.9536244000192,None,1405.9536244000192,None,1405.9536244000192,None,1405.9536244000192,None,1405.9536244000192,None,1407.9324340000167,1407.9324340000167,0.0,2.784,-1200,-1650,-1600,,,,,,,,,,,,,,,,,,,,,,,,,,,,,,,,,,,,,,,,,,,,,,,,,,,,,,,,,,,,,,,,,,,,,,,,,,,,,,,,,,,f,19,MAXINYU,2022_Apr_10_2110,experiment3,2021.1.4,30.30978111970692,
