trialNumber,mychoice,otherchoice,stay,skip,pointsWon,otherScore,unobtained,choicepos,pos_1,otherscore,allowedkeyresp,trials_2.thisRepN,trials_2.thisTrialN,trials_2.thisN,trials_2.thisIndex,trials.thisRepN,trials.thisTrialN,trials.thisN,trials.thisIndex,image_2.started,image_2.stopped,key_resp_2.keys,key_resp_2.rt,key_resp_2.started,key_resp_2.stopped,key_resp_6.keys,key_resp_6.rt,key_resp_6.started,key_resp_6.stopped,text.started,text.stopped,left_3.started,left_3.stopped,middle_3.started,middle_3.stopped,right_3.started,right_3.stopped,otherleft_1.started,otherleft_1.stopped,othermiddle_1.started,othermiddle_1.stopped,otherright_1.started,otherright_1.stopped,text_2.started,text_2.stopped,left_4.started,left_4.stopped,right_4.started,right_4.stopped,middle_4.started,middle_4.stopped,ISI_3.started,ISI_3.stopped,mypick.started,mypick.stopped,otherpick.started,otherpick.stopped,residal.started,residal.stopped,otherleft_5.started,otherleft_5.stopped,othermiddle_5.started,othermiddle_5.stopped,otherright_5.started,otherright_5.stopped,left_5.started,left_5.stopped,right_5.started,right_5.stopped,middle_5.started,middle_5.stopped,ISI_5.started,ISI_5.stopped,mypick_1.started,mypick_1.stopped,otherpick_1.started,otherpick_1.stopped,residal_1.started,residal_1.stopped,otherleft_6.started,otherleft_6.stopped,othermiddle_6.started,othermiddle_6.stopped,otherright_6.started,otherright_6.stopped,text_3.started,text_3.stopped,rating,ratingrt,totalScore,othertotalScore,unobtainedScore,image_4.started,image_4.stopped,key_resp_3.keys,key_resp_3.rt,key_resp_3.started,key_resp_3.stopped,image_5.started,image_5.stopped,key_resp.keys,key_resp.rt,key_resp.started,key_resp.stopped,otherleft_3.started,otherleft_3.stopped,othermiddle_3.started,othermiddle_3.stopped,otherright_3.started,otherright_3.stopped,text_4.started,text_4.stopped,ISI_2.started,ISI_2.stopped,key_resp_4.keys,key_resp_4.rt,key_resp_4.started,key_resp_4.stopped,otherleft_4.started,otherleft_4.stopped,othermiddle_4.started,othermiddle_4.stopped,otherright_4.started,otherright_4.stopped,text_5.started,text_5.stopped,left.started,left.stopped,right.started,right.stopped,middle.started,middle.stopped,ISI.started,ISI.stopped,mypick_3.started,mypick_3.stopped,otherpick_3.started,otherpick_3.stopped,residal_3.started,residal_3.stopped,otherleft.started,otherleft.stopped,othermiddle.started,othermiddle.stopped,otherright.started,otherright.stopped,right_2.started,right_2.stopped,middle_2.started,middle_2.stopped,left_2.started,left_2.stopped,ISI_4.started,ISI_4.stopped,mypick_4.started,mypick_4.stopped,otherpick_4.started,otherpick_4.stopped,residal_4.started,residal_4.stopped,otherleft_2.started,otherleft_2.stopped,othermiddle_2.started,othermiddle_2.stopped,otherright_2.started,otherright_2.stopped,text_6.started,text_6.stopped,image_3.started,image_3.stopped,key_resp_9.keys,key_resp_9.rt,key_resp_9.started,key_resp_9.stopped,gender,age,participant,date,expName,psychopyVersion,frameRate,
,,,,,,,,,,,,,,,,,,,,39.87659060000442,None,space,2.879820300004212,39.87659060000442,None,,,,,,,,,,,,,,,,,,,,,,,,,,,,,,,,,,,,,,,,,,,,,,,,,,,,,,,,,,,,,,,,,,,,,,,,,,,,,,,,,,,,,,,,,,,,,,,,,,,,,,,,,,,,,,,,,,,,,,,,,,,,,,,,,,,,,,,,,,,,,,,,,,,,,,f,25,wanglulu,2022_Apr_09_0959,experiment3,2021.1.4,None,
16,0,0,200,one,0,0,200,,,,,0,0,0,15,,,,,,,,,,,g,10.672446799988393,42.87114949998795,None,42.87114949998795,None,53.60611250001239,None,53.60611250001239,None,53.60611250001239,None,55.623114099988015,None,55.623114099988015,None,55.623114099988015,None,53.60611250001239,None,56.13894250000594,None,56.13894250000594,None,56.13894250000594,None,0.000673700007610023,None,56.13894250000594,None,56.13894250000594,None,56.13894250000594,None,56.13894250000594,None,56.13894250000594,None,56.13894250000594,None,56.178715399990324,None,56.178715399990324,None,56.178715399990324,None,0.015641533333109692,0.5156415333331097,56.178715399990324,None,56.178715399990324,None,56.178715399990324,None,56.178715399990324,None,56.178715399990324,None,56.178715399990324,None,58.18969699999434,58.18969699999434,-14.5,5.996,200,0,200,,,,,,,,,,,,,,,,,,,,,,,,,,,,,,,,,,,,,,,,,,,,,,,,,,,,,,,,,,,,,,,,,,,,,,,,,,,,,,,,,,,f,25,wanglulu,2022_Apr_09_0959,experiment3,2021.1.4,None,
1,0,50,200,one,0,50,200,,,,,0,1,1,0,,,,,,,,,,,a,4.782477800006745,64.31080909998855,None,64.31080909998855,None,69.13347440000507,None,69.13347440000507,None,69.13347440000507,None,71.13718389999121,None,71.13718389999121,None,71.13718389999121,None,69.13347440000507,None,71.66012993333473,None,71.66012993333473,None,71.66012993333473,None,0.0029554333013948053,None,71.66012993333473,None,71.66012993333473,None,71.66012993333473,None,71.66012993333473,None,71.66012993333473,None,71.66012993333473,None,71.68404069999815,None,71.68404069999815,None,71.68404069999815,None,0.0070729999570176005,0.5070729999570176,71.68404069999815,None,71.68404069999815,None,71.68404069999815,None,71.68404069999815,None,71.68404069999815,None,71.68404069999815,None,73.68226370000048,73.68226370000048,-6.200000000000003,4.354,200,50,400,,,,,,,,,,,,,,,,,,,,,,,,,,,,,,,,,,,,,,,,,,,,,,,,,,,,,,,,,,,,,,,,,,,,,,,,,,,,,,,,,,,f,25,wanglulu,2022_Apr_09_0959,experiment3,2021.1.4,None,
59,-200,-150,0,two,-200,-150,0,,,,,0,2,2,58,,,,,,,,,,,g,5.606373699993128,78.11693180000293,None,78.11693180000293,None,83.78102369999397,None,83.78102369999397,None,83.78102369999397,None,85.778555900004,None,85.778555900004,None,85.778555900004,None,83.78102369999397,None,86.3253363333429,None,86.3253363333429,None,86.3253363333429,None,0.00803683334379457,None,86.3253363333429,None,86.3253363333429,None,86.3253363333429,None,86.3253363333429,None,86.3253363333429,None,86.3253363333429,None,86.34975560000748,None,86.34975560000748,None,86.34975560000748,None,0.008117499994114041,0.508117499994114,86.34975560000748,None,86.34975560000748,None,86.34975560000748,None,86.34975560000748,None,86.34975560000748,None,86.34975560000748,None,88.35181900000316,88.35181900000316,-25.7,3.468,0,-100,400,,,,,,,,,,,,,,,,,,,,,,,,,,,,,,,,,,,,,,,,,,,,,,,,,,,,,,,,,,,,,,,,,,,,,,,,,,,,,,,,,,,f,25,wanglulu,2022_Apr_09_0959,experiment3,2021.1.4,None,
53,-200,-150,0,one,-200,-150,0,,,,,0,3,3,52,,,,,,,,,,,g,5.359061399998609,91.8987868000113,None,91.8987868000113,None,97.29025769999134,None,97.29025769999134,None,97.29025769999134,None,99.3365424000076,None,99.3365424000076,None,99.3365424000076,None,97.29025769999134,None,99.80337606667696,None,99.80337606667696,None,99.80337606667696,None,0.00873816668172367,None,99.80337606667696,None,99.80337606667696,None,99.80337606667696,None,99.80337606667696,None,99.80337606667696,None,99.80337606667696,None,99.8149248000118,None,99.8149248000118,None,99.8149248000118,None,0.0017226666677743196,0.5017226666677743,99.8149248000118,None,99.8149248000118,None,99.8149248000118,None,99.8149248000118,None,99.8149248000118,None,99.8149248000118,None,101.81962896665597,None,-23.8,9.751,-200,-250,400,,,,,,,,,,,,,,,,,,,,,,,,,,,,,,,,,,,,,,,,,,,,,,,,,,,,,,,,,,,,,,,,,,,,,,,,,,,,,,,,,,,f,25,wanglulu,2022_Apr_09_0959,experiment3,2021.1.4,None,
65,0,-200,0,one,0,-200,0,,,,,0,4,4,64,,,,,,,,,,,g,5.62374050001381,111.61809910001466,None,111.61809910001466,None,117.27760380000109,None,117.27760380000109,None,117.27760380000109,None,119.29967529998976,None,119.29967529998976,None,119.29967529998976,None,117.27760380000109,None,119.78408756666273,None,119.78408756666273,None,119.78408756666273,None,0.010769466665806249,None,119.78408756666273,None,119.78408756666273,None,119.78408756666273,None,119.78408756666273,None,119.78408756666273,None,119.78408756666273,None,119.79684779999661,None,119.79684779999661,None,119.79684779999661,None,0.0015397666429635137,0.5015397666429635,119.79684779999661,None,119.79684779999661,None,119.79684779999661,None,119.79684779999661,None,119.79684779999661,None,119.79684779999661,None,121.78800359999877,121.78800359999877,25.200000000000003,7.61,-200,-450,400,,,,,,,,,,,,,,,,,,,,,,,,,,,,,,,,,,,,,,,,,,,,,,,,,,,,,,,,,,,,,,,,,,,,,,,,,,,,,,,,,,,f,25,wanglulu,2022_Apr_09_0959,experiment3,2021.1.4,None,
74,-150,-200,-150,one,-150,-200,-150,,,,,0,5,5,73,,,,,,,,,,,l,9.338706599985017,129.45611940001254,None,129.45611940001254,None,138.8282978000061,None,138.8282978000061,None,138.8282978000061,None,140.83673469998757,None,140.83673469998757,None,140.83673469998757,None,138.8282978000061,None,141.3385604666585,None,141.3385604666585,None,141.3385604666585,None,0.009748766635311767,None,141.3385604666585,None,141.3385604666585,None,141.3385604666585,None,141.3385604666585,None,141.3385604666585,None,141.3385604666585,None,141.35580180000397,None,141.35580180000397,None,141.35580180000397,None,0.0028006666398141533,0.5028006666398142,141.35580180000397,None,141.35580180000397,None,141.35580180000397,None,141.35580180000397,None,141.35580180000397,None,141.35580180000397,None,143.34430319999228,143.34430319999228,0.0,5.496,-350,-650,250,,,,,,,,,,,,,,,,,,,,,,,,,,,,,,,,,,,,,,,,,,,,,,,,,,,,,,,,,,,,,,,,,,,,,,,,,,,,,,,,,,,f,25,wanglulu,2022_Apr_09_0959,experiment3,2021.1.4,None,
56,0,-200,-150,two,0,-200,-150,,,,,0,6,6,55,,,,,,,,,,,a,7.309782399999676,148.90541139998822,None,148.90541139998822,None,156.25896340000327,None,156.25896340000327,None,156.25896340000327,None,158.2417381000123,None,158.2417381000123,None,158.2417381000123,None,156.25896340000327,None,158.77267896666697,None,158.77267896666697,None,158.77267896666697,None,0.005332466651452705,None,158.77267896666697,None,158.77267896666697,None,158.77267896666697,None,158.77267896666697,None,158.77267896666697,None,158.77267896666697,None,158.8040641999978,None,158.8040641999978,None,158.8040641999978,None,0.008515933324815705,0.5085159333248157,158.8040641999978,None,158.8040641999978,None,158.8040641999978,None,158.8040641999978,None,158.8040641999978,None,158.8040641999978,None,160.78904090001015,160.78904090001015,49.8,3.517,-350,-850,100,,,,,,,,,,,,,,,,,,,,,,,,,,,,,,,,,,,,,,,,,,,,,,,,,,,,,,,,,,,,,,,,,,,,,,,,,,,,,,,,,,,f,25,wanglulu,2022_Apr_09_0959,experiment3,2021.1.4,None,
4,50,200,0,one,50,200,0,,,,,0,7,7,3,,,,,,,,,,,g,12.123763999989023,164.40263669998967,None,164.40263669998967,None,176.58609669998987,None,176.58609669998987,None,176.58609669998987,None,178.56795709999278,None,178.56795709999278,None,178.56795709999278,None,176.58609669998987,None,179.12055043332708,None,179.12055043332708,None,179.12055043332708,None,0.014265933335991576,None,179.12055043332708,None,179.12055043332708,None,179.12055043332708,None,179.12055043332708,None,179.12055043332708,None,179.12055043332708,None,179.16782870001043,None,179.16782870001043,None,179.16782870001043,None,0.006173899979330599,0.5061738999793306,179.16782870001043,None,179.16782870001043,None,179.16782870001043,None,179.16782870001043,None,179.16782870001043,None,179.16782870001043,None,181.16588200000115,181.16588200000115,-8.399999999999999,3.247,-300,-650,100,,,,,,,,,,,,,,,,,,,,,,,,,,,,,,,,,,,,,,,,,,,,,,,,,,,,,,,,,,,,,,,,,,,,,,,,,,,,,,,,,,,f,25,wanglulu,2022_Apr_09_0959,experiment3,2021.1.4,None,
29,50,0,50,one,50,0,50,,,,,0,8,8,28,,,,,,,,,,,g,13.604789099976188,184.48602829998708,None,184.48602829998708,None,198.1491226000071,None,198.1491226000071,None,198.1491226000071,None,200.1185375000059,200.64413709999644,200.1185375000059,200.64413709999644,200.1185375000059,200.64413709999644,198.1491226000071,None,200.66080376666312,None,200.66080376666312,None,200.66080376666312,None,0.009651866654166952,None,200.66080376666312,None,200.66080376666312,None,200.66080376666312,None,200.66080376666312,None,200.66080376666312,None,200.66080376666312,None,200.67670199999702,None,200.67670199999702,None,200.67670199999702,None,0.00234346668003127,0.5023434666800313,200.67670199999702,None,200.67670199999702,None,200.67670199999702,None,200.67670199999702,None,200.67670199999702,None,200.67670199999702,None,202.67934100001003,202.67934100001003,13.899999999999999,3.118,-250,-650,150,,,,,,,,,,,,,,,,,,,,,,,,,,,,,,,,,,,,,,,,,,,,,,,,,,,,,,,,,,,,,,,,,,,,,,,,,,,,,,,,,,,f,25,wanglulu,2022_Apr_09_0959,experiment3,2021.1.4,None,
57,-150,0,-200,two,-150,0,-200,,,,,0,9,9,56,,,,,,,,,,,l,6.663128599990159,205.87477250001393,None,205.87477250001393,None,212.57768529999885,None,212.57768529999885,None,212.57768529999885,None,214.53899450000608,215.0664148000069,214.53899450000608,215.0664148000069,214.53899450000608,215.0664148000069,212.57768529999885,None,215.08308146667358,None,215.08308146667358,None,215.08308146667358,None,0.0005770666466560215,None,215.08308146667358,None,215.08308146667358,None,215.08308146667358,None,215.08308146667358,None,215.08308146667358,None,215.08308146667358,None,215.12846010000794,None,215.12846010000794,None,215.12846010000794,None,0.015563500026473776,0.5155635000264738,215.12846010000794,None,215.12846010000794,None,215.12846010000794,None,215.12846010000794,None,215.12846010000794,None,215.12846010000794,None,217.12561019998975,217.12561019998975,-24.9,4.966,-400,-650,-50,,,,,,,,,,,,,,,,,,,,,,,,,,,,,,,,,,,,,,,,,,,,,,,,,,,,,,,,,,,,,,,,,,,,,,,,,,,,,,,,,,,f,25,wanglulu,2022_Apr_09_0959,experiment3,2021.1.4,None,
73,-200,-150,-150,one,-200,-150,-150,,,,,0,10,10,72,,,,,,,,,,,a,3.4754433000052813,222.1413179000083,None,222.1413179000083,None,225.66818070001318,None,225.66818070001318,None,225.66818070001318,None,227.67104019998806,None,227.67104019998806,None,227.67104019998806,None,225.66818070001318,None,228.19988493334,None,228.19988493334,None,228.19988493334,None,0.016622033348539844,None,228.19988493334,None,228.19988493334,None,228.19988493334,None,228.19988493334,None,228.19988493334,None,228.19988493334,None,228.22344170001452,None,228.22344170001452,None,228.22344170001452,None,0.000893033342435956,0.500893033342436,228.22344170001452,None,228.22344170001452,None,228.22344170001452,None,228.22344170001452,None,228.22344170001452,None,228.22344170001452,None,230.22289126666536,None,12.299999999999997,26.304,-600,-800,-200,,,,,,,,,,,,,,,,,,,,,,,,,,,,,,,,,,,,,,,,,,,,,,,,,,,,,,,,,,,,,,,,,,,,,,,,,,,,,,,,,,,f,25,wanglulu,2022_Apr_09_0959,experiment3,2021.1.4,None,
89,-200,-150,-200,one,-200,-150,-200,,,,,0,11,11,88,,,,,,,,,,,a,4.5443246999930125,256.57096049998654,None,256.57096049998654,None,261.1838514000119,None,261.1838514000119,None,261.1838514000119,None,263.1832660000073,None,263.1832660000073,None,263.1832660000073,None,261.1838514000119,None,263.6901585666676,None,263.6901585666676,None,263.6901585666676,None,0.0033534666581545025,None,263.6901585666676,None,263.6901585666676,None,263.6901585666676,None,263.6901585666676,None,263.6901585666676,None,263.6901585666676,None,263.7348709999933,None,263.7348709999933,None,263.7348709999933,None,0.016052299964940175,0.5160522999649402,263.7348709999933,None,263.7348709999933,None,263.7348709999933,None,263.7348709999933,None,263.7348709999933,None,263.7348709999933,None,265.71521409999696,265.71521409999696,-50.0,4.474,-800,-950,-400,,,,,,,,,,,,,,,,,,,,,,,,,,,,,,,,,,,,,,,,,,,,,,,,,,,,,,,,,,,,,,,,,,,,,,,,,,,,,,,,,,,f,25,wanglulu,2022_Apr_09_0959,experiment3,2021.1.4,None,
47,200,50,200,two,200,50,200,,,,,0,12,12,46,,,,,,,,,,,g,2.4898734999878798,270.3127710999979,None,270.3127710999979,None,272.842899100011,None,272.842899100011,None,272.842899100011,None,274.84462720001466,None,274.84462720001466,None,274.84462720001466,None,272.842899100011,None,275.35923636667235,None,275.35923636667235,None,275.35923636667235,None,0.0019277666870038956,None,275.35923636667235,None,275.35923636667235,None,275.35923636667235,None,275.35923636667235,None,275.35923636667235,None,275.35923636667235,None,275.3982929000049,None,275.3982929000049,None,275.3982929000049,None,0.0030500332941301167,0.5030500332941301,275.3982929000049,None,275.3982929000049,None,275.3982929000049,None,275.3982929000049,None,275.3982929000049,None,275.3982929000049,None,277.3967976999993,277.3967976999993,48.5,2.858,-600,-900,-200,,,,,,,,,,,,,,,,,,,,,,,,,,,,,,,,,,,,,,,,,,,,,,,,,,,,,,,,,,,,,,,,,,,,,,,,,,,,,,,,,,,f,25,wanglulu,2022_Apr_09_0959,experiment3,2021.1.4,None,
26,50,200,50,one,50,200,50,,,,,0,13,13,25,,,,,,,,,,,g,2.5709465999971144,280.3141048999969,None,280.3141048999969,None,282.93577440001536,None,282.93577440001536,None,282.93577440001536,None,284.9375975000148,None,284.9375975000148,None,284.9375975000148,None,282.93577440001536,None,285.44194646666097,None,285.44194646666097,None,285.44194646666097,None,0.002075766649795696,None,285.44194646666097,None,285.44194646666097,None,285.44194646666097,None,285.44194646666097,None,285.44194646666097,None,285.44194646666097,None,285.48358580001513,None,285.48358580001513,None,285.48358580001513,None,0.004135733324801549,0.5041357333248015,285.48358580001513,None,285.48358580001513,None,285.48358580001513,None,285.48358580001513,None,285.48358580001513,None,285.48358580001513,None,287.46739959999104,287.46739959999104,-24.1,3.465,-550,-700,-150,,,,,,,,,,,,,,,,,,,,,,,,,,,,,,,,,,,,,,,,,,,,,,,,,,,,,,,,,,,,,,,,,,,,,,,,,,,,,,,,,,,f,25,wanglulu,2022_Apr_09_0959,experiment3,2021.1.4,None,
46,200,200,50,two,200,200,50,,,,,0,14,14,45,,,,,,,,,,,g,4.637879499990959,290.99812199998996,None,290.99812199998996,None,295.6929303999932,None,295.6929303999932,None,295.6929303999932,None,297.6988881000143,None,297.6988881000143,None,297.6988881000143,None,295.6929303999932,None,298.1929303666732,None,298.1929303666732,None,298.1929303666732,None,0.010758466669358313,None,298.1929303666732,None,298.1929303666732,None,298.1929303666732,None,298.1929303666732,None,298.1929303666732,None,298.1929303666732,None,298.2087090999994,None,298.2087090999994,None,298.2087090999994,None,0.004361566650914028,0.504361566650914,298.2087090999994,None,298.2087090999994,None,298.2087090999994,None,298.2087090999994,None,298.2087090999994,None,298.2087090999994,None,300.1973772000056,300.1973772000056,-0.10000000000000142,2.163,-350,-500,-100,,,,,,,,,,,,,,,,,,,,,,,,,,,,,,,,,,,,,,,,,,,,,,,,,,,,,,,,,,,,,,,,,,,,,,,,,,,,,,,,,,,f,25,wanglulu,2022_Apr_09_0959,experiment3,2021.1.4,None,
61,0,0,-150,one,0,0,-150,,,,,0,15,15,60,,,,,,,,,,,g,2.1950116000080016,302.41687760001514,None,302.41687760001514,None,304.6652730999922,None,304.6652730999922,None,304.6652730999922,None,306.66862159999437,None,306.66862159999437,None,306.66862159999437,None,304.6652730999922,None,307.1966127333367,None,307.1966127333367,None,307.1966127333367,None,0.009857333323452622,None,307.1966127333367,None,307.1966127333367,None,307.1966127333367,None,307.1966127333367,None,307.1966127333367,None,307.1966127333367,None,307.2174897000077,None,307.2174897000077,None,307.2174897000077,None,0.012282999989110976,0.512282999989111,307.2174897000077,None,307.2174897000077,None,307.2174897000077,None,307.2174897000077,None,307.2174897000077,None,307.2174897000077,None,309.22403049998684,309.22403049998684,8.700000000000003,4.232,-350,-500,-250,,,,,,,,,,,,,,,,,,,,,,,,,,,,,,,,,,,,,,,,,,,,,,,,,,,,,,,,,,,,,,,,,,,,,,,,,,,,,,,,,,,f,25,wanglulu,2022_Apr_09_0959,experiment3,2021.1.4,None,
62,0,-150,0,one,0,-150,0,,,,,0,16,16,61,,,,,,,,,,,g,1.827813599986257,313.5108799999871,None,313.5108799999871,None,315.3877342999913,None,315.3877342999913,None,315.3877342999913,None,317.3672216999985,None,317.3672216999985,None,317.3672216999985,None,315.3877342999913,None,317.889028366659,None,317.889028366659,None,317.889028366659,None,0.003668566670967266,None,317.889028366659,None,317.889028366659,None,317.889028366659,None,317.889028366659,None,317.889028366659,None,317.889028366659,None,317.91876890001004,None,317.91876890001004,None,317.91876890001004,None,0.00467343331547454,0.5046734333154745,317.91876890001004,None,317.91876890001004,None,317.91876890001004,None,317.91876890001004,None,317.91876890001004,None,317.91876890001004,None,319.9220839666707,None,50.0,2.189,-350,-650,-250,,,,,,,,,,,,,,,,,,,,,,,,,,,,,,,,,,,,,,,,,,,,,,,,,,,,,,,,,,,,,,,,,,,,,,,,,,,,,,,,,,,f,25,wanglulu,2022_Apr_09_0959,experiment3,2021.1.4,None,
75,-150,-150,-200,one,-150,-150,-200,,,,,0,17,17,74,,,,,,,,,,,g,2.1640078999917023,322.1563876,None,322.1563876,None,324.3581578999874,None,324.3581578999874,None,324.3581578999874,None,326.3320692999987,326.8733033000026,326.3320692999987,326.8733033000026,326.3320692999987,326.8733033000026,324.3581578999874,None,326.9066366333359,None,326.9066366333359,None,326.9066366333359,None,0.01264603334129788,None,326.9066366333359,None,326.9066366333359,None,326.9066366333359,None,326.9066366333359,None,326.9066366333359,None,326.9066366333359,None,326.9273438999953,None,326.9273438999953,None,326.9273438999953,None,0.013385899976128712,0.5133858999761287,326.9273438999953,None,326.9273438999953,None,326.9273438999953,None,326.9273438999953,None,326.9273438999953,None,326.9273438999953,None,328.937188699987,328.937188699987,0.6000000000000014,2.233,-500,-800,-450,,,,,,,,,,,,,,,,,,,,,,,,,,,,,,,,,,,,,,,,,,,,,,,,,,,,,,,,,,,,,,,,,,,,,,,,,,,,,,,,,,,f,25,wanglulu,2022_Apr_09_0959,experiment3,2021.1.4,None,
15,50,0,0,one,50,0,0,,,,,0,18,18,14,,,,,,,,,,,l,1.9486555000185035,331.22500639999635,None,331.22500639999635,None,333.21416370000225,None,333.21416370000225,None,333.21416370000225,None,335.19893119999324,335.72042880000663,335.19893119999324,335.72042880000663,335.19893119999324,335.72042880000663,333.21416370000225,None,335.7370954666733,None,335.7370954666733,None,335.7370954666733,None,0.010987866669893265,None,335.7370954666733,None,335.7370954666733,None,335.7370954666733,None,335.7370954666733,None,335.7370954666733,None,335.7370954666733,None,335.75193749999744,None,335.75193749999744,None,335.75193749999744,None,0.0041732666722964495,0.5041732666722964,335.75193749999744,None,335.75193749999744,None,335.75193749999744,None,335.75193749999744,None,335.75193749999744,None,335.75193749999744,None,337.7516103000089,337.7516103000089,2.299999999999997,1.527,-450,-800,-450,,,,,,,,,,,,,,,,,,,,,,,,,,,,,,,,,,,,,,,,,,,,,,,,,,,,,,,,,,,,,,,,,,,,,,,,,,,,,,,,,,,f,25,wanglulu,2022_Apr_09_0959,experiment3,2021.1.4,None,
68,0,-150,0,two,0,-150,0,,,,,0,19,19,67,,,,,,,,,,,l,1.5401404000003822,339.33215999999084,None,339.33215999999084,None,340.900655800011,None,340.900655800011,None,340.900655800011,None,342.8847863000119,None,342.8847863000119,None,342.8847863000119,None,340.900655800011,None,343.41732346665617,None,343.41732346665617,None,343.41732346665617,None,0.01153376666479744,None,343.41732346665617,None,343.41732346665617,None,343.41732346665617,None,343.41732346665617,None,343.41732346665617,None,343.41732346665617,None,343.43397290000576,None,343.43397290000576,None,343.43397290000576,None,0.004368566646007821,0.5043685666460078,343.43397290000576,None,343.43397290000576,None,343.43397290000576,None,343.43397290000576,None,343.43397290000576,None,343.43397290000576,None,345.4345167000138,345.4345167000138,8.399999999999999,1.797,-450,-950,-450,,,,,,,,,,,,,,,,,,,,,,,,,,,,,,,,,,,,,,,,,,,,,,,,,,,,,,,,,,,,,,,,,,,,,,,,,,,,,,,,,,,f,25,wanglulu,2022_Apr_09_0959,experiment3,2021.1.4,None,
17,0,200,0,one,0,200,0,,,,,0,20,20,16,,,,,,,,,,,l,1.957439499994507,347.2871157999907,None,347.2871157999907,None,349.2925541999866,None,349.2925541999866,None,349.2925541999866,None,351.3060975999979,None,351.3060975999979,None,351.3060975999979,None,349.2925541999866,None,351.79921006667814,None,351.79921006667814,None,351.79921006667814,None,0.01143316671368666,None,351.79921006667814,None,351.79921006667814,None,351.79921006667814,None,351.79921006667814,None,351.79921006667814,None,351.79921006667814,None,351.8150278000103,None,351.8150278000103,None,351.8150278000103,None,0.004132566682528704,0.5041325666825287,351.8150278000103,None,351.8150278000103,None,351.8150278000103,None,351.8150278000103,None,351.8150278000103,None,351.8150278000103,None,353.81941686667074,None,-50.0,2.281,-450,-750,-450,,,,,,,,,,,,,,,,,,,,,,,,,,,,,,,,,,,,,,,,,,,,,,,,,,,,,,,,,,,,,,,,,,,,,,,,,,,,,,,,,,,f,25,wanglulu,2022_Apr_09_0959,experiment3,2021.1.4,None,
41,200,50,200,one,200,50,200,,,,,0,21,21,40,,,,,,,,,,,l,1.7670247000060044,356.13701999999466,None,356.13701999999466,None,357.9287803999905,None,357.9287803999905,None,357.9287803999905,None,359.9323623999953,None,359.9323623999953,None,359.9323623999953,None,357.9287803999905,None,360.44770596665717,None,360.44770596665717,None,360.44770596665717,None,0.011119966657133773,None,360.44770596665717,None,360.44770596665717,None,360.44770596665717,None,360.44770596665717,None,360.44770596665717,None,360.44770596665717,None,360.4636984000099,None,360.4636984000099,None,360.4636984000099,None,0.003397066640900448,0.5033970666409004,360.4636984000099,None,360.4636984000099,None,360.4636984000099,None,360.4636984000099,None,360.4636984000099,None,360.4636984000099,None,362.4643080666758,None,49.400000000000006,2.717,-250,-700,-250,,,,,,,,,,,,,,,,,,,,,,,,,,,,,,,,,,,,,,,,,,,,,,,,,,,,,,,,,,,,,,,,,,,,,,,,,,,,,,,,,,,f,25,wanglulu,2022_Apr_09_0959,experiment3,2021.1.4,None,
69,-150,0,0,two,-150,0,0,,,,,0,22,22,68,,,,,,,,,,,l,1.6436716999742202,365.21763759999885,None,365.21763759999885,None,366.906593599997,None,366.906593599997,None,366.906593599997,None,368.90576500000316,None,368.90576500000316,None,368.90576500000316,None,366.906593599997,None,369.4133123666727,None,369.4133123666727,None,369.4133123666727,None,0.01096336665796116,None,369.4133123666727,None,369.4133123666727,None,369.4133123666727,None,369.4133123666727,None,369.4133123666727,None,369.4133123666727,None,369.4285113000078,None,369.4285113000078,None,369.4285113000078,None,0.004651966650271788,0.5046519666502718,369.4285113000078,None,369.4285113000078,None,369.4285113000078,None,369.4285113000078,None,369.4285113000078,None,369.4285113000078,None,371.414935000008,371.414935000008,-41.1,1.878,-400,-700,-250,,,,,,,,,,,,,,,,,,,,,,,,,,,,,,,,,,,,,,,,,,,,,,,,,,,,,,,,,,,,,,,,,,,,,,,,,,,,,,,,,,,f,25,wanglulu,2022_Apr_09_0959,experiment3,2021.1.4,None,
40,200,200,50,one,200,200,50,,,,,0,23,23,39,,,,,,,,,,,g,3.5536392999929376,373.3488126999873,None,373.3488126999873,None,376.95503380001173,None,376.95503380001173,None,376.95503380001173,None,378.9822339999955,None,378.9822339999955,None,378.9822339999955,None,376.95503380001173,None,379.4683421666598,None,379.4683421666598,None,379.4683421666598,None,0.0019315666577313095,None,379.4683421666598,None,379.4683421666598,None,379.4683421666598,None,379.4683421666598,None,379.4683421666598,None,379.4683421666598,None,379.49124070000835,None,379.49124070000835,None,379.49124070000835,None,0.007954433298436925,0.5079544332984369,379.49124070000835,None,379.49124070000835,None,379.49124070000835,None,379.49124070000835,None,379.49124070000835,None,379.49124070000835,None,381.4941456000088,381.4941456000088,-1.0,1.811,-200,-500,-200,,,,,,,,,,,,,,,,,,,,,,,,,,,,,,,,,,,,,,,,,,,,,,,,,,,,,,,,,,,,,,,,,,,,,,,,,,,,,,,,,,,f,25,wanglulu,2022_Apr_09_0959,experiment3,2021.1.4,None,
25,200,50,50,one,200,50,50,,,,,0,24,24,24,,,,,,,,,,,g,1.3500475999899209,383.38030839999556,None,383.38030839999556,None,384.77587919999496,None,384.77587919999496,None,384.77587919999496,None,386.75617360000615,387.2648138999939,386.75617360000615,387.2648138999939,386.75617360000615,387.2648138999939,384.77587919999496,None,387.2981472333272,None,387.2981472333272,None,387.2981472333272,None,0.013580633298261091,None,387.2981472333272,None,387.2981472333272,None,387.2981472333272,None,387.2981472333272,None,387.2981472333272,None,387.2981472333272,None,387.3148399000056,None,387.3148399000056,None,387.3148399000056,None,0.014968699950259179,0.5149686999502592,387.3148399000056,None,387.3148399000056,None,387.3148399000056,None,387.3148399000056,None,387.3148399000056,None,387.3148399000056,None,389.3268081000133,389.3268081000133,42.5,1.452,0,-450,-150,,,,,,,,,,,,,,,,,,,,,,,,,,,,,,,,,,,,,,,,,,,,,,,,,,,,,,,,,,,,,,,,,,,,,,,,,,,,,,,,,,,f,25,wanglulu,2022_Apr_09_0959,experiment3,2021.1.4,None,
85,-200,-200,0,one,-200,-200,0,,,,,0,25,25,84,,,,,,,,,,,g,1.5083881999889854,390.83637020000606,None,390.83637020000606,None,392.4079423999938,None,392.4079423999938,None,392.4079423999938,None,394.3912821999984,394.9143424000067,394.3912821999984,394.9143424000067,394.3912821999984,394.9143424000067,392.4079423999938,None,394.93100906667337,None,394.93100906667337,None,394.93100906667337,None,0.00457026669755578,None,394.93100906667337,None,394.93100906667337,None,394.93100906667337,None,394.93100906667337,None,394.93100906667337,None,394.93100906667337,None,394.9613672000123,None,394.9613672000123,None,394.9613672000123,None,0.0080575333267916,0.5080575333267916,394.9613672000123,None,394.9613672000123,None,394.9613672000123,None,394.9613672000123,None,394.9613672000123,None,394.9613672000123,None,396.956271300005,396.956271300005,-13.700000000000003,3.988,-200,-650,-150,,,,,,,,,,,,,,,,,,,,,,,,,,,,,,,,,,,,,,,,,,,,,,,,,,,,,,,,,,,,,,,,,,,,,,,,,,,,,,,,,,,f,25,wanglulu,2022_Apr_09_0959,experiment3,2021.1.4,None,
2,0,200,50,one,0,200,50,,,,,0,26,26,1,,,,,,,,,,,a,1.3635990000038873,401.01055800000904,None,401.01055800000904,None,402.41273790001287,None,402.41273790001287,None,402.41273790001287,None,404.4229762000032,None,404.4229762000032,None,404.4229762000032,None,402.41273790001287,None,404.9062423666803,None,404.9062423666803,None,404.9062423666803,None,0.011073566682171077,None,404.9062423666803,None,404.9062423666803,None,404.9062423666803,None,404.9062423666803,None,404.9062423666803,None,404.9062423666803,None,404.92098689998966,None,404.92098689998966,None,404.92098689998966,None,0.0038603666762355715,0.5038603666762356,404.92098689998966,None,404.92098689998966,None,404.92098689998966,None,404.92098689998966,None,404.92098689998966,None,404.92098689998966,None,406.9091776999994,406.9091776999994,-9.100000000000001,1.576,-200,-450,-100,,,,,,,,,,,,,,,,,,,,,,,,,,,,,,,,,,,,,,,,,,,,,,,,,,,,,,,,,,,,,,,,,,,,,,,,,,,,,,,,,,,f,25,wanglulu,2022_Apr_09_0959,experiment3,2021.1.4,None,
54,-200,0,-150,one,-200,0,-150,,,,,0,27,27,53,,,,,,,,,,,a,1.0823516999953426,408.55781070000376,None,408.55781070000376,None,409.6890382000129,None,409.6890382000129,None,409.6890382000129,None,411.6632876000076,412.20747739999206,411.6632876000076,412.20747739999206,411.6632876000076,412.20747739999206,409.6890382000129,None,412.2241440666587,None,412.2241440666587,None,412.2241440666587,None,0.0050555666675791144,None,412.2241440666587,None,412.2241440666587,None,412.2241440666587,None,412.2241440666587,None,412.2241440666587,None,412.2241440666587,None,412.2591032999917,None,412.2591032999917,None,412.2591032999917,None,0.006586333329323679,0.5065863333293237,412.2591032999917,None,412.2591032999917,None,412.2591032999917,None,412.2591032999917,None,412.2591032999917,None,412.2591032999917,None,414.25143199999,414.25143199999,-50.0,1.377,-400,-450,-250,,,,,,,,,,,,,,,,,,,,,,,,,,,,,,,,,,,,,,,,,,,,,,,,,,,,,,,,,,,,,,,,,,,,,,,,,,,,,,,,,,,f,25,wanglulu,2022_Apr_09_0959,experiment3,2021.1.4,None,
87,0,-200,-200,one,0,-200,-200,,,,,0,28,28,86,,,,,,,,,,,a,1.3635869000281673,415.7158783999912,None,415.7158783999912,None,417.11985560000176,None,417.11985560000176,None,417.11985560000176,None,419.088751400006,419.6190067999996,419.088751400006,419.6190067999996,419.088751400006,419.6190067999996,417.11985560000176,None,419.6356734666663,None,419.6356734666663,None,419.6356734666663,None,0.011092466651462018,None,419.6356734666663,None,419.6356734666663,None,419.6356734666663,None,419.6356734666663,None,419.6356734666663,None,419.6356734666663,None,419.65244060000987,None,419.65244060000987,None,419.65244060000987,None,0.004342866683145985,0.504342866683146,419.65244060000987,None,419.65244060000987,None,419.65244060000987,None,419.65244060000987,None,419.65244060000987,None,419.65244060000987,None,421.65254539999296,421.65254539999296,40.5,1.483,-400,-650,-450,,,,,,,,,,,,,,,,,,,,,,,,,,,,,,,,,,,,,,,,,,,,,,,,,,,,,,,,,,,,,,,,,,,,,,,,,,,,,,,,,,,f,25,wanglulu,2022_Apr_09_0959,experiment3,2021.1.4,None,
11,200,50,0,two,200,50,0,,,,,0,29,29,10,,,,,,,,,,,a,1.4210904000210576,423.1895343000069,None,423.1895343000069,None,424.63946909998776,None,424.63946909998776,None,424.63946909998776,None,426.6347647999937,None,426.6347647999937,None,426.6347647999937,None,424.63946909998776,None,427.1575701666627,None,427.1575701666627,None,427.1575701666627,None,0.00461916666245088,None,427.1575701666627,None,427.1575701666627,None,427.1575701666627,None,427.1575701666627,None,427.1575701666627,None,427.1575701666627,None,427.18908559999545,None,427.18908559999545,None,427.18908559999545,None,0.007392633357085288,0.5073926333570853,427.18908559999545,None,427.18908559999545,None,427.18908559999545,None,427.18908559999545,None,427.18908559999545,None,427.18908559999545,None,429.2010680999956,429.2010680999956,50.0,5.948,-200,-600,-450,,,,,,,,,,,,,,,,,,,,,,,,,,,,,,,,,,,,,,,,,,,,,,,,,,,,,,,,,,,,,,,,,,,,,,,,,,,,,,,,,,,f,25,wanglulu,2022_Apr_09_0959,experiment3,2021.1.4,None,
34,0,50,50,two,0,50,50,,,,,0,30,30,33,,,,,,,,,,,g,3.29507900000317,435.20524489998934,None,435.20524489998934,None,438.5518490000104,None,438.5518490000104,None,438.5518490000104,None,440.5717786999885,None,440.5717786999885,None,440.5717786999885,None,438.5518490000104,None,441.0775165333257,None,441.0775165333257,None,441.0775165333257,None,0.012175333336926997,None,441.0775165333257,None,441.0775165333257,None,441.0775165333257,None,441.0775165333257,None,441.0775165333257,None,441.0775165333257,None,441.10962480001035,None,441.10962480001035,None,441.10962480001035,None,0.006386699969880283,0.5063866999698803,441.10962480001035,None,441.10962480001035,None,441.10962480001035,None,441.10962480001035,None,441.10962480001035,None,441.10962480001035,None,443.0978213000053,443.0978213000053,-5.700000000000003,1.499,-200,-550,-400,,,,,,,,,,,,,,,,,,,,,,,,,,,,,,,,,,,,,,,,,,,,,,,,,,,,,,,,,,,,,,,,,,,,,,,,,,,,,,,,,,,f,25,wanglulu,2022_Apr_09_0959,experiment3,2021.1.4,None,
10,50,200,0,two,50,200,0,,,,,0,31,31,9,,,,,,,,,,,g,1.2768061000097077,444.6523895999999,None,444.6523895999999,None,445.9645242000115,None,445.9645242000115,None,445.9645242000115,None,447.9639797999989,None,447.9639797999989,None,447.9639797999989,None,445.9645242000115,None,448.50286466666535,None,448.50286466666535,None,448.50286466666535,None,0.0002155666588805616,None,448.50286466666535,None,448.50286466666535,None,448.50286466666535,None,448.50286466666535,None,448.50286466666535,None,448.50286466666535,None,448.5422127000056,None,448.5422127000056,None,448.5422127000056,None,0.0020473333133850247,0.502047333313385,448.5422127000056,None,448.5422127000056,None,448.5422127000056,None,448.5422127000056,None,448.5422127000056,None,448.5422127000056,None,450.5312935000111,450.5312935000111,-22.1,1.538,-150,-350,-400,,,,,,,,,,,,,,,,,,,,,,,,,,,,,,,,,,,,,,,,,,,,,,,,,,,,,,,,,,,,,,,,,,,,,,,,,,,,,,,,,,,f,25,wanglulu,2022_Apr_09_0959,experiment3,2021.1.4,None,
82,0,-150,-150,two,0,-150,-150,,,,,0,32,32,81,,,,,,,,,,,g,1.3916499000042677,452.1337792999984,None,452.1337792999984,None,453.58004380000057,None,453.58004380000057,None,453.58004380000057,None,455.5872215999989,None,455.5872215999989,None,455.5872215999989,None,453.58004380000057,None,456.095530966679,None,456.095530966679,None,456.095530966679,None,0.008576766646001488,None,456.095530966679,None,456.095530966679,None,456.095530966679,None,456.095530966679,None,456.095530966679,None,456.095530966679,None,456.1264594999957,None,456.1264594999957,None,456.1264594999957,None,0.007418333349050954,0.507418333349051,456.1264594999957,None,456.1264594999957,None,456.1264594999957,None,456.1264594999957,None,456.1264594999957,None,456.1264594999957,None,458.11660030001076,458.11660030001076,14.799999999999997,1.33,-150,-500,-550,,,,,,,,,,,,,,,,,,,,,,,,,,,,,,,,,,,,,,,,,,,,,,,,,,,,,,,,,,,,,,,,,,,,,,,,,,,,,,,,,,,f,25,wanglulu,2022_Apr_09_0959,experiment3,2021.1.4,None,
55,0,-150,-200,two,0,-150,-200,,,,,0,33,33,54,,,,,,,,,,,g,1.744438399997307,459.5125849999895,None,459.5125849999895,None,461.309241400013,None,461.309241400013,None,461.309241400013,None,463.3088119000022,None,463.3088119000022,None,463.3088119000022,None,461.309241400013,None,463.8344242333337,None,463.8344242333337,None,463.8344242333337,None,0.010574833315331489,None,463.8344242333337,None,463.8344242333337,None,463.8344242333337,None,463.8344242333337,None,463.8344242333337,None,463.8344242333337,None,463.84957510000095,None,463.84957510000095,None,463.84957510000095,None,0.00015483333845622838,0.5001548333384562,463.84957510000095,None,463.84957510000095,None,463.84957510000095,None,463.84957510000095,None,463.84957510000095,None,463.84957510000095,None,465.8599581999879,465.8599581999879,23.299999999999997,4.604,-150,-650,-750,,,,,,,,,,,,,,,,,,,,,,,,,,,,,,,,,,,,,,,,,,,,,,,,,,,,,,,,,,,,,,,,,,,,,,,,,,,,,,,,,,,f,25,wanglulu,2022_Apr_09_0959,experiment3,2021.1.4,None,
3,50,0,200,one,50,0,200,,,,,0,34,34,2,,,,,,,,,,,g,2.605924600007711,470.5432062000036,None,470.5432062000036,None,473.2258340000117,None,473.2258340000117,None,473.2258340000117,None,475.2251749999996,None,475.2251749999996,None,475.2251749999996,None,473.2258340000117,None,475.7401764333267,None,475.7401764333267,None,475.7401764333267,None,0.011853933334350586,None,475.7401764333267,None,475.7401764333267,None,475.7401764333267,None,475.7401764333267,None,475.7401764333267,None,475.7401764333267,None,475.7588792000024,None,475.7588792000024,None,475.7588792000024,None,0.013505499984603375,0.5135054999846034,475.7588792000024,None,475.7588792000024,None,475.7588792000024,None,475.7588792000024,None,475.7588792000024,None,475.7588792000024,None,477.73149470001226,477.73149470001226,26.299999999999997,2.497,-100,-650,-550,,,,,,,,,,,,,,,,,,,,,,,,,,,,,,,,,,,,,,,,,,,,,,,,,,,,,,,,,,,,,,,,,,,,,,,,,,,,,,,,,,,f,25,wanglulu,2022_Apr_09_0959,experiment3,2021.1.4,None,
9,50,0,200,two,50,0,200,,,,,0,35,35,8,,,,,,,,,,,a,1.9313605999923311,480.3105106000148,None,480.3105106000148,None,482.2682838999899,None,482.2682838999899,None,482.2682838999899,None,484.25427919998765,None,484.25427919998765,None,484.25427919998765,None,482.2682838999899,None,484.7738831666686,None,484.7738831666686,None,484.7738831666686,None,0.010987466666847467,None,484.7738831666686,None,484.7738831666686,None,484.7738831666686,None,484.7738831666686,None,484.7738831666686,None,484.7738831666686,None,484.79875399998855,None,484.79875399998855,None,484.79875399998855,None,0.013534433324821293,0.5135344333248213,484.79875399998855,None,484.79875399998855,None,484.79875399998855,None,484.79875399998855,None,484.79875399998855,None,484.79875399998855,None,486.80637760000536,486.80637760000536,25.900000000000006,1.971,-50,-650,-350,,,,,,,,,,,,,,,,,,,,,,,,,,,,,,,,,,,,,,,,,,,,,,,,,,,,,,,,,,,,,,,,,,,,,,,,,,,,,,,,,,,f,25,wanglulu,2022_Apr_09_0959,experiment3,2021.1.4,None,
32,50,200,50,two,50,200,50,,,,,0,36,36,31,,,,,,,,,,,a,1.4579124999872874,488.8360427999869,None,488.8360427999869,None,490.35439100000076,None,490.35439100000076,None,490.35439100000076,None,492.3309905999922,492.8740414000058,492.3309905999922,492.8740414000058,492.3309905999922,492.8740414000058,490.35439100000076,None,492.89070806667246,None,492.89070806667246,None,492.89070806667246,None,0.008900666667614132,None,492.89070806667246,None,492.89070806667246,None,492.89070806667246,None,492.89070806667246,None,492.89070806667246,None,492.89070806667246,None,492.90440050000325,None,492.90440050000325,None,492.90440050000325,None,0.0021618666651193053,0.5021618666651193,492.90440050000325,None,492.90440050000325,None,492.90440050000325,None,492.90440050000325,None,492.90440050000325,None,492.90440050000325,None,494.90450186666953,None,-5.0,1.591,0,-450,-300,,,,,,,,,,,,,,,,,,,,,,,,,,,,,,,,,,,,,,,,,,,,,,,,,,,,,,,,,,,,,,,,,,,,,,,,,,,,,,,,,,,f,25,wanglulu,2022_Apr_09_0959,experiment3,2021.1.4,None,
20,0,50,0,two,0,50,0,,,,,0,37,37,19,,,,,,,,,,,a,1.2169059999869205,496.54008690000046,None,496.54008690000046,None,497.8185994999949,None,497.8185994999949,None,497.8185994999949,None,499.79236059999675,None,499.79236059999675,None,499.79236059999675,None,497.8185994999949,None,500.3307652666738,None,500.3307652666738,None,500.3307652666738,None,0.0029413666925393045,None,500.3307652666738,None,500.3307652666738,None,500.3307652666738,None,500.3307652666738,None,500.3307652666738,None,500.3307652666738,None,500.36750510000275,None,500.36750510000275,None,500.36750510000275,None,0.0050342332979198545,0.5050342332979199,500.36750510000275,None,500.36750510000275,None,500.36750510000275,None,500.36750510000275,None,500.36750510000275,None,500.36750510000275,None,502.37052669998957,502.37052669998957,0.20000000000000284,2.184,0,-400,-300,,,,,,,,,,,,,,,,,,,,,,,,,,,,,,,,,,,,,,,,,,,,,,,,,,,,,,,,,,,,,,,,,,,,,,,,,,,,,,,,,,,f,25,wanglulu,2022_Apr_09_0959,experiment3,2021.1.4,None,
36,50,50,0,two,50,50,0,,,,,0,38,38,35,,,,,,,,,,,a,1.3842211999872234,504.60725749999983,None,504.60725749999983,None,506.02361800000654,None,506.02361800000654,None,506.02361800000654,None,508.04040490000625,None,508.04040490000625,None,508.04040490000625,None,506.02361800000654,None,508.5601330333234,None,508.5601330333234,None,508.5601330333234,None,0.015355033305240795,None,508.5601330333234,None,508.5601330333234,None,508.5601330333234,None,508.5601330333234,None,508.5601330333234,None,508.5601330333234,None,508.5771366000117,None,508.5771366000117,None,508.5771366000117,None,0.0010282333241775632,0.5010282333241776,508.5771366000117,None,508.5771366000117,None,508.5771366000117,None,508.5771366000117,None,508.5771366000117,None,508.5771366000117,None,510.58495079999557,510.58495079999557,-7.899999999999999,1.771,50,-350,-300,,,,,,,,,,,,,,,,,,,,,,,,,,,,,,,,,,,,,,,,,,,,,,,,,,,,,,,,,,,,,,,,,,,,,,,,,,,,,,,,,,,f,25,wanglulu,2022_Apr_09_0959,experiment3,2021.1.4,None,
83,-150,0,-150,two,-150,0,-150,,,,,0,39,39,82,,,,,,,,,,,a,1.3797445000091102,512.4150462000107,None,512.4150462000107,None,513.8464557999978,None,513.8464557999978,None,513.8464557999978,None,515.8338709000091,516.344134599989,515.8338709000091,516.344134599989,515.8338709000091,516.344134599989,513.8464557999978,None,516.3608012666557,None,516.3608012666557,None,516.3608012666557,None,0.0034488666569814086,None,516.3608012666557,None,516.3608012666557,None,516.3608012666557,None,516.3608012666557,None,516.3608012666557,None,516.3608012666557,None,516.3936621999892,None,516.3936621999892,None,516.3936621999892,None,0.004791233310243115,0.5047912333102431,516.3936621999892,None,516.3936621999892,None,516.3936621999892,None,516.3936621999892,None,516.3936621999892,None,516.3936621999892,None,518.3783269000123,518.3783269000123,-49.0,1.772,-100,-350,-450,,,,,,,,,,,,,,,,,,,,,,,,,,,,,,,,,,,,,,,,,,,,,,,,,,,,,,,,,,,,,,,,,,,,,,,,,,,,,,,,,,,f,25,wanglulu,2022_Apr_09_0959,experiment3,2021.1.4,None,
7,0,50,200,two,0,50,200,,,,,0,40,40,6,,,,,,,,,,,g,1.8230575999768917,520.2327768999967,None,520.2327768999967,None,522.0929515000025,None,522.0929515000025,None,522.0929515000025,None,524.103346799995,None,524.103346799995,None,524.103346799995,None,522.0929515000025,None,524.6155395666758,None,524.6155395666758,None,524.6155395666758,None,0.011000066675478593,None,524.6155395666758,None,524.6155395666758,None,524.6155395666758,None,524.6155395666758,None,524.6155395666758,None,524.6155395666758,None,524.6319527000014,None,524.6319527000014,None,524.6319527000014,None,0.004218966671032831,0.5042189666710328,524.6319527000014,None,524.6319527000014,None,524.6319527000014,None,524.6319527000014,None,524.6319527000014,None,524.6319527000014,None,526.6315952666666,None,-10.5,1.654,-100,-300,-250,,,,,,,,,,,,,,,,,,,,,,,,,,,,,,,,,,,,,,,,,,,,,,,,,,,,,,,,,,,,,,,,,,,,,,,,,,,,,,,,,,,f,25,wanglulu,2022_Apr_09_0959,experiment3,2021.1.4,None,
38,200,0,200,one,200,0,200,,,,,0,41,41,37,,,,,,,,,,,g,1.0717009000072721,528.3285052000138,None,528.3285052000138,None,529.4490471000026,None,529.4490471000026,None,529.4490471000026,None,531.4548148000031,None,531.4548148000031,None,531.4548148000031,None,529.4490471000026,None,531.9810142666722,None,531.9810142666722,None,531.9810142666722,None,0.011000266677001491,None,531.9810142666722,None,531.9810142666722,None,531.9810142666722,None,531.9810142666722,None,531.9810142666722,None,531.9810142666722,None,531.9965148000047,None,531.9965148000047,None,531.9965148000047,None,0.0035142666893079877,0.503514266689308,531.9965148000047,None,531.9965148000047,None,531.9965148000047,None,531.9965148000047,None,531.9965148000047,None,531.9965148000047,None,533.9974054666566,None,50.0,3.331,100,-300,-50,,,,,,,,,,,,,,,,,,,,,,,,,,,,,,,,,,,,,,,,,,,,,,,,,,,,,,,,,,,,,,,,,,,,,,,,,,,,,,,,,,,f,25,wanglulu,2022_Apr_09_0959,experiment3,2021.1.4,None,
80,-150,-200,-150,two,-150,-200,-150,,,,,0,42,42,79,,,,,,,,,,,g,1.2858277000195812,537.3662995999912,None,537.3662995999912,None,538.7160217000055,None,538.7160217000055,None,538.7160217000055,None,540.7122447000002,None,540.7122447000002,None,540.7122447000002,None,538.7160217000055,None,541.2424504666744,None,541.2424504666744,None,541.2424504666744,None,0.005344166653230786,None,541.2424504666744,None,541.2424504666744,None,541.2424504666744,None,541.2424504666744,None,541.2424504666744,None,541.2424504666744,None,541.2635527999955,None,541.2635527999955,None,541.2635527999955,None,0.012183433340396732,0.5121834333403967,541.2635527999955,None,541.2635527999955,None,541.2635527999955,None,541.2635527999955,None,541.2635527999955,None,541.2635527999955,None,543.2628455999948,543.2628455999948,2.5,1.654,-50,-500,-200,,,,,,,,,,,,,,,,,,,,,,,,,,,,,,,,,,,,,,,,,,,,,,,,,,,,,,,,,,,,,,,,,,,,,,,,,,,,,,,,,,,f,25,wanglulu,2022_Apr_09_0959,experiment3,2021.1.4,None,
78,-150,-150,0,one,-150,-150,0,,,,,0,43,43,77,,,,,,,,,,,g,1.0123615999764297,544.9749306000012,None,544.9749306000012,None,546.0129016000137,None,546.0129016000137,None,546.0129016000137,None,548.018513899995,None,548.018513899995,None,548.018513899995,None,546.0129016000137,None,548.5162450666578,None,548.5162450666578,None,548.5162450666578,None,0.005356766661861911,None,548.5162450666578,None,548.5162450666578,None,548.5162450666578,None,548.5162450666578,None,548.5162450666578,None,548.5162450666578,None,548.5498023999971,None,548.5498023999971,None,548.5498023999971,None,0.008433333307038993,0.508433333307039,548.5498023999971,None,548.5498023999971,None,548.5498023999971,None,548.5498023999971,None,548.5498023999971,None,548.5498023999971,None,550.5367351000023,550.5367351000023,0.29999999999999716,3.032,-200,-650,-200,,,,,,,,,,,,,,,,,,,,,,,,,,,,,,,,,,,,,,,,,,,,,,,,,,,,,,,,,,,,,,,,,,,,,,,,,,,,,,,,,,,f,25,wanglulu,2022_Apr_09_0959,experiment3,2021.1.4,None,
19,0,0,50,two,0,0,50,,,,,0,44,44,18,,,,,,,,,,,g,1.2044029000098817,553.6269939999911,None,553.6269939999911,None,554.8925782000006,None,554.8925782000006,None,554.8925782000006,None,556.8685346000129,557.3932784000062,556.8685346000129,557.3932784000062,556.8685346000129,557.3932784000062,554.8925782000006,None,557.4099450666729,None,557.4099450666729,None,557.4099450666729,None,0.011030666704755276,None,557.4099450666729,None,557.4099450666729,None,557.4099450666729,None,557.4099450666729,None,557.4099450666729,None,557.4099450666729,None,557.4254403999948,None,557.4254403999948,None,557.4254403999948,None,0.003933266649255529,0.5039332666492555,557.4254403999948,None,557.4254403999948,None,557.4254403999948,None,557.4254403999948,None,557.4254403999948,None,557.4254403999948,None,559.4258252000145,559.4258252000145,-2.0,1.532,-200,-650,-150,,,,,,,,,,,,,,,,,,,,,,,,,,,,,,,,,,,,,,,,,,,,,,,,,,,,,,,,,,,,,,,,,,,,,,,,,,,,,,,,,,,f,25,wanglulu,2022_Apr_09_0959,experiment3,2021.1.4,None,
71,0,-200,0,two,0,-200,0,,,,,0,45,45,70,,,,,,,,,,,g,1.025157500000205,561.0136644000013,None,561.0136644000013,None,562.0837608000147,None,562.0837608000147,None,562.0837608000147,None,564.0754260999965,None,564.0754260999965,None,564.0754260999965,None,562.0837608000147,None,564.5757782666808,None,564.5757782666808,None,564.5757782666808,None,0.010970066679874435,None,564.5757782666808,None,564.5757782666808,None,564.5757782666808,None,564.5757782666808,None,564.5757782666808,None,564.5757782666808,None,564.5900982999883,None,564.5900982999883,None,564.5900982999883,None,0.004429966676980257,0.5044299666769803,564.5900982999883,None,564.5900982999883,None,564.5900982999883,None,564.5900982999883,None,564.5900982999883,None,564.5900982999883,None,566.591065766672,None,49.3,1.52,-200,-850,-150,,,,,,,,,,,,,,,,,,,,,,,,,,,,,,,,,,,,,,,,,,,,,,,,,,,,,,,,,,,,,,,,,,,,,,,,,,,,,,,,,,,f,25,wanglulu,2022_Apr_09_0959,experiment3,2021.1.4,None,
70,0,0,-200,two,0,0,-200,,,,,0,46,46,69,,,,,,,,,,,g,1.162000899988925,568.152878199995,None,568.152878199995,None,569.3576998999924,None,569.3576998999924,None,569.3576998999924,None,571.3570229999896,None,571.3570229999896,None,571.3570229999896,None,569.3576998999924,None,571.8958530333261,None,571.8958530333261,None,571.8958530333261,None,0.011318233300698921,None,571.8958530333261,None,571.8958530333261,None,571.8958530333261,None,571.8958530333261,None,571.8958530333261,None,571.8958530333261,None,571.9201528000121,None,571.9201528000121,None,571.9201528000121,None,0.014117399987298995,0.514117399987299,571.9201528000121,None,571.9201528000121,None,571.9201528000121,None,571.9201528000121,None,571.9201528000121,None,571.9201528000121,None,573.9126698999899,573.9126698999899,0.0,1.206,-200,-850,-350,,,,,,,,,,,,,,,,,,,,,,,,,,,,,,,,,,,,,,,,,,,,,,,,,,,,,,,,,,,,,,,,,,,,,,,,,,,,,,,,,,,f,25,wanglulu,2022_Apr_09_0959,experiment3,2021.1.4,None,
44,200,0,200,two,200,0,200,,,,,0,47,47,43,,,,,,,,,,,g,1.1289892999920994,575.1925924000097,None,575.1925924000097,None,576.353886500001,None,576.353886500001,None,576.353886500001,None,578.3689055000141,None,578.3689055000141,None,578.3689055000141,None,576.353886500001,None,578.8548552666655,None,578.8548552666655,None,578.8548552666655,None,0.011206866649445146,None,578.8548552666655,None,578.8548552666655,None,578.8548552666655,None,578.8548552666655,None,578.8548552666655,None,578.8548552666655,None,578.8708435000153,None,578.8708435000153,None,578.8708435000153,None,0.0040923666674643755,0.5040923666674644,578.8708435000153,None,578.8708435000153,None,578.8708435000153,None,578.8708435000153,None,578.8708435000153,None,578.8708435000153,None,580.8519127999898,580.8519127999898,50.0,1.208,0,-850,-150,,,,,,,,,,,,,,,,,,,,,,,,,,,,,,,,,,,,,,,,,,,,,,,,,,,,,,,,,,,,,,,,,,,,,,,,,,,,,,,,,,,f,25,wanglulu,2022_Apr_09_0959,experiment3,2021.1.4,None,
6,200,0,50,one,200,0,50,,,,,0,48,48,5,,,,,,,,,,,g,1.12500510000973,582.1414262999897,None,582.1414262999897,None,583.321296500013,None,583.321296500013,None,583.321296500013,None,585.3065184000006,None,585.3065184000006,None,585.3065184000006,None,583.321296500013,None,585.8166636666613,None,585.8166636666613,None,585.8166636666613,None,0.005167066672584042,None,585.8166636666613,None,585.8166636666613,None,585.8166636666613,None,585.8166636666613,None,585.8166636666613,None,585.8166636666613,None,585.8350374999864,None,585.8350374999864,None,585.8350374999864,None,0.01206213331897743,0.5120621333189774,585.8350374999864,None,585.8350374999864,None,585.8350374999864,None,585.8350374999864,None,585.8350374999864,None,585.8350374999864,None,587.8432714999944,587.8432714999944,50.0,1.421,200,-850,-100,,,,,,,,,,,,,,,,,,,,,,,,,,,,,,,,,,,,,,,,,,,,,,,,,,,,,,,,,,,,,,,,,,,,,,,,,,,,,,,,,,,f,25,wanglulu,2022_Apr_09_0959,experiment3,2021.1.4,None,
43,200,200,0,two,200,200,0,,,,,0,49,49,42,,,,,,,,,,,g,1.1738253000075929,589.3540971000039,None,589.3540971000039,None,590.5476810999971,None,590.5476810999971,None,590.5476810999971,None,592.5373449999897,593.0382354999892,592.5373449999897,593.0382354999892,592.5373449999897,593.0382354999892,590.5476810999971,None,593.0549021666559,None,593.0549021666559,None,593.0549021666559,None,0.008214566652895883,None,593.0549021666559,None,593.0549021666559,None,593.0549021666559,None,593.0549021666559,None,593.0549021666559,None,593.0549021666559,None,593.0689494000108,None,593.0689494000108,None,593.0689494000108,None,0.0001182666455861181,0.5001182666455861,593.0689494000108,None,593.0689494000108,None,593.0689494000108,None,593.0689494000108,None,593.0689494000108,None,593.0689494000108,None,595.0841794000007,595.0841794000007,-5.899999999999999,2.074,400,-650,-100,,,,,,,,,,,,,,,,,,,,,,,,,,,,,,,,,,,,,,,,,,,,,,,,,,,,,,,,,,,,,,,,,,,,,,,,,,,,,,,,,,,f,25,wanglulu,2022_Apr_09_0959,experiment3,2021.1.4,None,
60,-200,0,-150,two,-200,0,-150,,,,,0,50,50,59,,,,,,,,,,,l,1.3744833999953698,597.2160121999914,None,597.2160121999914,None,598.6348343999998,None,598.6348343999998,None,598.6348343999998,None,600.6237300999928,None,600.6237300999928,None,600.6237300999928,None,598.6348343999998,None,601.1419121666734,None,601.1419121666734,None,601.1419121666734,None,0.0033552666718605906,None,601.1419121666734,None,601.1419121666734,None,601.1419121666734,None,601.1419121666734,None,601.1419121666734,None,601.1419121666734,None,601.1773977999983,None,601.1773977999983,None,601.1773977999983,None,0.005201533320359886,0.5052015333203599,601.1773977999983,None,601.1773977999983,None,601.1773977999983,None,601.1773977999983,None,601.1773977999983,None,601.1773977999983,None,603.1584448000067,603.1584448000067,-45.9,3.626,200,-650,-250,,,,,,,,,,,,,,,,,,,,,,,,,,,,,,,,,,,,,,,,,,,,,,,,,,,,,,,,,,,,,,,,,,,,,,,,,,,,,,,,,,,f,25,wanglulu,2022_Apr_09_0959,experiment3,2021.1.4,None,
76,0,-150,-150,one,0,-150,-150,,,,,0,51,51,75,,,,,,,,,,,g,1.2355772000155412,606.8857742999971,None,606.8857742999971,None,608.1798341000103,None,608.1798341000103,None,608.1798341000103,None,610.1551318000129,None,610.1551318000129,None,610.1551318000129,None,608.1798341000103,None,610.7060621333444,None,610.7060621333444,None,610.7060621333444,None,0.012366233335342258,None,610.7060621333444,None,610.7060621333444,None,610.7060621333444,None,610.7060621333444,None,610.7060621333444,None,610.7060621333444,None,610.7356536000152,None,610.7356536000152,None,610.7356536000152,None,0.010481100005563349,0.5104811000055633,610.7356536000152,None,610.7356536000152,None,610.7356536000152,None,610.7356536000152,None,610.7356536000152,None,610.7356536000152,None,612.714749900013,612.714749900013,44.400000000000006,1.633,200,-800,-400,,,,,,,,,,,,,,,,,,,,,,,,,,,,,,,,,,,,,,,,,,,,,,,,,,,,,,,,,,,,,,,,,,,,,,,,,,,,,,,,,,,f,25,wanglulu,2022_Apr_09_0959,experiment3,2021.1.4,None,
35,50,0,50,two,50,0,50,,,,,0,52,52,34,,,,,,,,,,,g,1.6023626000096556,614.4494172999985,None,614.4494172999985,None,616.0756026000017,None,616.0756026000017,None,616.0756026000017,None,618.0696189999871,None,618.0696189999871,None,618.0696189999871,None,616.0756026000017,None,618.5759723666745,None,618.5759723666745,None,618.5759723666745,None,0.004708666674559936,None,618.5759723666745,None,618.5759723666745,None,618.5759723666745,None,618.5759723666745,None,618.5759723666745,None,618.5759723666745,None,618.59468129999,None,618.59468129999,None,618.59468129999,None,0.011851533345179632,0.5118515333451796,618.59468129999,None,618.59468129999,None,618.59468129999,None,618.59468129999,None,618.59468129999,None,618.59468129999,None,620.596664566667,None,48.8,1.237,250,-800,-350,,,,,,,,,,,,,,,,,,,,,,,,,,,,,,,,,,,,,,,,,,,,,,,,,,,,,,,,,,,,,,,,,,,,,,,,,,,,,,,,,,,f,25,wanglulu,2022_Apr_09_0959,experiment3,2021.1.4,None,
79,-200,-150,-150,two,-200,-150,-150,,,,,0,53,53,78,,,,,,,,,,,g,0.9104750999831595,621.8804145999893,None,621.8804145999893,None,622.8303092000133,None,622.8303092000133,None,622.8303092000133,None,624.8181188000017,None,624.8181188000017,None,624.8181188000017,None,622.8303092000133,None,625.3346697666605,None,625.3346697666605,None,625.3346697666605,None,0.011628966662101448,None,625.3346697666605,None,625.3346697666605,None,625.3346697666605,None,625.3346697666605,None,625.3346697666605,None,625.3346697666605,None,625.346431300015,None,625.346431300015,None,625.346431300015,None,0.0032125666621141136,0.5032125666621141,625.346431300015,None,625.346431300015,None,625.346431300015,None,625.346431300015,None,625.346431300015,None,625.346431300015,None,627.3367928999942,627.3367928999942,-23.7,1.217,50,-950,-500,,,,,,,,,,,,,,,,,,,,,,,,,,,,,,,,,,,,,,,,,,,,,,,,,,,,,,,,,,,,,,,,,,,,,,,,,,,,,,,,,,,f,25,wanglulu,2022_Apr_09_0959,experiment3,2021.1.4,None,
37,200,200,0,one,200,200,0,,,,,0,54,54,36,,,,,,,,,,,g,1.1263048000109848,628.6288644000015,None,628.6288644000015,None,629.7814799000043,None,629.7814799000043,None,629.7814799000043,None,631.7945479000045,None,631.7945479000045,None,631.7945479000045,None,629.7814799000043,None,632.3116610666659,None,632.3116610666659,None,632.3116610666659,None,0.010512566659599543,None,632.3116610666659,None,632.3116610666659,None,632.3116610666659,None,632.3116610666659,None,632.3116610666659,None,632.3116610666659,None,632.3278855000099,None,632.3278855000099,None,632.3278855000099,None,0.0026883666578214616,0.5026883666578215,632.3278855000099,None,632.3278855000099,None,632.3278855000099,None,632.3278855000099,None,632.3278855000099,None,632.3278855000099,None,634.3397382666628,None,0.29999999999999716,5.605,250,-750,-500,,,,,,,,,,,,,,,,,,,,,,,,,,,,,,,,,,,,,,,,,,,,,,,,,,,,,,,,,,,,,,,,,,,,,,,,,,,,,,,,,,,f,25,wanglulu,2022_Apr_09_0959,experiment3,2021.1.4,None,
49,0,-150,-200,one,0,-150,-200,,,,,0,55,55,48,,,,,,,,,,,a,5.587142000003951,640.0275861000118,None,640.0275861000118,None,645.6500199000002,None,645.6500199000002,None,645.6500199000002,None,647.6966333999881,None,647.6966333999881,None,647.6966333999881,None,645.6500199000002,None,648.1669751666816,None,648.1669751666816,None,648.1669751666816,None,0.0029919666703790426,None,648.1669751666816,None,648.1669751666816,None,648.1669751666816,None,648.1669751666816,None,648.1669751666816,None,648.1669751666816,None,648.2031720000086,None,648.2031720000086,None,648.2031720000086,None,0.00462163332849741,0.5046216333284974,648.2031720000086,None,648.2031720000086,None,648.2031720000086,None,648.2031720000086,None,648.2031720000086,None,648.2031720000086,None,650.1763838999905,650.1763838999905,50.0,2.898,250,-900,-700,,,,,,,,,,,,,,,,,,,,,,,,,,,,,,,,,,,,,,,,,,,,,,,,,,,,,,,,,,,,,,,,,,,,,,,,,,,,,,,,,,,f,25,wanglulu,2022_Apr_09_0959,experiment3,2021.1.4,None,
77,-150,0,-150,one,-150,0,-150,,,,,0,56,56,76,,,,,,,,,,,a,1.9268364000017755,653.1774959999893,None,653.1774959999893,None,655.1573884999962,None,655.1573884999962,None,655.1573884999962,None,657.1226669999887,657.655282599997,657.1226669999887,657.655282599997,657.1226669999887,657.655282599997,655.1573884999962,None,657.6719492666637,None,657.6719492666637,None,657.6719492666637,None,0.009715666645206511,None,657.6719492666637,None,657.6719492666637,None,657.6719492666637,None,657.6719492666637,None,657.6719492666637,None,657.6719492666637,None,657.6877101999999,None,657.6877101999999,None,657.6877101999999,None,0.0023182666627690196,0.502318266662769,657.6877101999999,None,657.6877101999999,None,657.6877101999999,None,657.6877101999999,None,657.6877101999999,None,657.6877101999999,None,659.6948634000146,659.6948634000146,-24.8,3.881,100,-900,-850,,,,,,,,,,,,,,,,,,,,,,,,,,,,,,,,,,,,,,,,,,,,,,,,,,,,,,,,,,,,,,,,,,,,,,,,,,,,,,,,,,,f,25,wanglulu,2022_Apr_09_0959,experiment3,2021.1.4,None,
30,50,50,0,one,50,50,0,,,,,0,57,57,29,,,,,,,,,,,g,1.5558345000026748,663.636169800011,None,663.636169800011,None,665.2550447999965,None,665.2550447999965,None,665.2550447999965,None,667.2622592000116,None,667.2622592000116,None,667.2622592000116,None,665.2550447999965,None,667.7939086333286,None,667.7939086333286,None,667.7939086333286,None,0.01656763334176503,None,667.7939086333286,None,667.7939086333286,None,667.7939086333286,None,667.7939086333286,None,667.7939086333286,None,667.7939086333286,None,667.8298501000099,None,667.8298501000099,None,667.8298501000099,None,0.013006699999095872,0.5130066999990959,667.8298501000099,None,667.8298501000099,None,667.8298501000099,None,667.8298501000099,None,667.8298501000099,None,667.8298501000099,None,669.8205702000123,669.8205702000123,1.5,1.484,150,-850,-850,,,,,,,,,,,,,,,,,,,,,,,,,,,,,,,,,,,,,,,,,,,,,,,,,,,,,,,,,,,,,,,,,,,,,,,,,,,,,,,,,,,f,25,wanglulu,2022_Apr_09_0959,experiment3,2021.1.4,None,
66,-200,0,0,one,-200,0,0,,,,,0,58,58,65,,,,,,,,,,,g,1.294631600001594,671.359018099989,None,671.359018099989,None,672.707868700003,None,672.707868700003,None,672.707868700003,None,674.703964299988,None,674.703964299988,None,674.703964299988,None,672.707868700003,None,675.2200038666817,None,675.2200038666817,None,675.2200038666817,None,0.011328566673910245,None,675.2200038666817,None,675.2200038666817,None,675.2200038666817,None,675.2200038666817,None,675.2200038666817,None,675.2200038666817,None,675.2357141000102,None,675.2357141000102,None,675.2357141000102,None,0.004814566666027531,0.5048145666660275,675.2357141000102,None,675.2357141000102,None,675.2357141000102,None,675.2357141000102,None,675.2357141000102,None,675.2357141000102,None,677.2243367999909,677.2243367999909,-50.0,3.489,-50,-850,-850,,,,,,,,,,,,,,,,,,,,,,,,,,,,,,,,,,,,,,,,,,,,,,,,,,,,,,,,,,,,,,,,,,,,,,,,,,,,,,,,,,,f,25,wanglulu,2022_Apr_09_0959,experiment3,2021.1.4,None,
50,0,-200,-150,one,0,-200,-150,,,,,0,59,59,49,,,,,,,,,,,g,1.5834448999958113,680.7722013999883,None,680.7722013999883,None,682.424821499997,None,682.424821499997,None,682.424821499997,None,684.4018562000128,None,684.4018562000128,None,684.4018562000128,None,682.424821499997,None,684.918311666672,None,684.918311666672,None,684.918311666672,None,0.010985466680722311,None,684.918311666672,None,684.918311666672,None,684.918311666672,None,684.918311666672,None,684.918311666672,None,684.918311666672,None,684.9338754999917,None,684.9338754999917,None,684.9338754999917,None,0.0040073666896205395,0.5040073666896205,684.9338754999917,None,684.9338754999917,None,684.9338754999917,None,684.9338754999917,None,684.9338754999917,None,684.9338754999917,None,686.958014200005,686.958014200005,48.8,1.649,-50,-1050,-1000,,,,,,,,,,,,,,,,,,,,,,,,,,,,,,,,,,,,,,,,,,,,,,,,,,,,,,,,,,,,,,,,,,,,,,,,,,,,,,,,,,,f,25,wanglulu,2022_Apr_09_0959,experiment3,2021.1.4,None,
52,-150,-200,0,one,-150,-200,0,,,,,0,60,60,51,,,,,,,,,,,g,3.9406535999733023,688.6704407999932,None,688.6704407999932,None,692.6390263999929,None,692.6390263999929,None,692.6390263999929,None,694.6491804000107,None,694.6491804000107,None,694.6491804000107,None,692.6390263999929,None,695.1573279666811,None,695.1573279666811,None,695.1573279666811,None,0.010929666663287207,None,695.1573279666811,None,695.1573279666811,None,695.1573279666811,None,695.1573279666811,None,695.1573279666811,None,695.1573279666811,None,695.1683733999962,None,695.1683733999962,None,695.1683733999962,None,0.003114566672593355,0.5031145666725934,695.1683733999962,None,695.1683733999962,None,695.1683733999962,None,695.1683733999962,None,695.1683733999962,None,695.1683733999962,None,697.1763683666688,None,12.700000000000003,1.415,-200,-1250,-1000,,,,,,,,,,,,,,,,,,,,,,,,,,,,,,,,,,,,,,,,,,,,,,,,,,,,,,,,,,,,,,,,,,,,,,,,,,,,,,,,,,,f,25,wanglulu,2022_Apr_09_0959,experiment3,2021.1.4,None,
86,-200,0,-200,one,-200,0,-200,,,,,0,61,61,85,,,,,,,,,,,g,135.4884030999965,698.6362326999952,None,698.6362326999952,None,834.1723915000039,None,834.1723915000039,None,834.1723915000039,None,836.1718337000057,None,836.1718337000057,None,836.1718337000057,None,834.1723915000039,None,836.6877826666789,None,836.6877826666789,None,836.6877826666789,None,0.011089166684541851,None,836.6877826666789,None,836.6877826666789,None,836.6877826666789,None,836.6877826666789,None,836.6877826666789,None,836.6877826666789,None,836.704613400012,None,836.704613400012,None,836.704613400012,None,0.004231266677379608,0.5042312666773796,836.704613400012,None,836.704613400012,None,836.704613400012,None,836.704613400012,None,836.704613400012,None,836.704613400012,None,838.7044433666781,None,-36.9,2.186,-400,-1250,-1200,,,,,,,,,,,,,,,,,,,,,,,,,,,,,,,,,,,,,,,,,,,,,,,,,,,,,,,,,,,,,,,,,,,,,,,,,,,,,,,,,,,f,25,wanglulu,2022_Apr_09_0959,experiment3,2021.1.4,None,
81,-150,-150,-200,two,-150,-150,-200,,,,,0,62,62,80,,,,,,,,,,,l,1.9595782999822404,840.9344310000015,None,840.9344310000015,None,842.9479364000144,None,842.9479364000144,None,842.9479364000144,None,844.9375058000151,None,844.9375058000151,None,844.9375058000151,None,842.9479364000144,None,845.4637878333237,None,845.4637878333237,None,845.4637878333237,None,0.01293933330453001,None,845.4637878333237,None,845.4637878333237,None,845.4637878333237,None,845.4637878333237,None,845.4637878333237,None,845.4637878333237,None,845.4778447000135,None,845.4778447000135,None,845.4778447000135,None,0.000878233287949115,0.5008782332879491,845.4778447000135,None,845.4778447000135,None,845.4778447000135,None,845.4778447000135,None,845.4778447000135,None,845.4778447000135,None,847.4796425999957,847.4796425999957,0.29999999999999716,15.947,-550,-1400,-1400,,,,,,,,,,,,,,,,,,,,,,,,,,,,,,,,,,,,,,,,,,,,,,,,,,,,,,,,,,,,,,,,,,,,,,,,,,,,,,,,,,,f,25,wanglulu,2022_Apr_09_0959,experiment3,2021.1.4,None,
12,200,0,50,two,200,0,50,,,,,0,63,63,11,,,,,,,,,,,g,1.7436913000128698,863.5045837000071,None,863.5045837000071,None,865.3012478000019,None,865.3012478000019,None,865.3012478000019,None,867.300040400005,None,867.300040400005,None,867.300040400005,None,865.3012478000019,None,867.8164784666772,None,867.8164784666772,None,867.8164784666772,None,0.010942466673441231,None,867.8164784666772,None,867.8164784666772,None,867.8164784666772,None,867.8164784666772,None,867.8164784666772,None,867.8164784666772,None,867.8318827000039,None,867.8318827000039,None,867.8318827000039,None,0.0036481666611507535,0.5036481666611508,867.8318827000039,None,867.8318827000039,None,867.8318827000039,None,867.8318827000039,None,867.8318827000039,None,867.8318827000039,None,869.8325234666738,None,50.0,19.962,-350,-1400,-1350,,,,,,,,,,,,,,,,,,,,,,,,,,,,,,,,,,,,,,,,,,,,,,,,,,,,,,,,,,,,,,,,,,,,,,,,,,,,,,,,,,,f,25,wanglulu,2022_Apr_09_0959,experiment3,2021.1.4,None,
5,200,50,0,one,200,50,0,,,,,0,64,64,4,,,,,,,,,,,l,2.8189968000224326,889.859886899998,None,889.859886899998,None,892.7103851000138,None,892.7103851000138,None,892.7103851000138,None,894.6884155999869,895.2113247000088,894.6884155999869,895.2113247000088,894.6884155999869,895.2113247000088,892.7103851000138,None,895.2279913666755,None,895.2279913666755,None,895.2279913666755,None,0.010931566677754745,None,895.2279913666755,None,895.2279913666755,None,895.2279913666755,None,895.2279913666755,None,895.2279913666755,None,895.2279913666755,None,895.2438678999897,None,895.2438678999897,None,895.2438678999897,None,0.0028831666568294168,0.5028831666568294,895.2438678999897,None,895.2438678999897,None,895.2438678999897,None,895.2438678999897,None,895.2438678999897,None,895.2438678999897,None,897.243249766678,None,50.0,7.836,-150,-1350,-1350,,,,,,,,,,,,,,,,,,,,,,,,,,,,,,,,,,,,,,,,,,,,,,,,,,,,,,,,,,,,,,,,,,,,,,,,,,,,,,,,,,,f,25,wanglulu,2022_Apr_09_0959,experiment3,2021.1.4,None,
64,0,0,-200,one,0,0,-200,,,,,0,65,65,63,,,,,,,,,,,l,2.953131599992048,905.1201273000042,None,905.1201273000042,None,908.1195360000129,None,908.1195360000129,None,908.1195360000129,None,910.1449387999892,None,910.1449387999892,None,910.1449387999892,None,908.1195360000129,None,910.6413468666763,None,910.6413468666763,None,910.6413468666763,None,0.010964366665575653,None,910.6413468666763,None,910.6413468666763,None,910.6413468666763,None,910.6413468666763,None,910.6413468666763,None,910.6413468666763,None,910.6593240000075,None,910.6593240000075,None,910.6593240000075,None,0.00363976665539667,0.5036397666553967,910.6593240000075,None,910.6593240000075,None,910.6593240000075,None,910.6593240000075,None,910.6593240000075,None,910.6593240000075,None,912.6563696000085,912.6563696000085,1.8999999999999986,1.658,-150,-1350,-1550,,,,,,,,,,,,,,,,,,,,,,,,,,,,,,,,,,,,,,,,,,,,,,,,,,,,,,,,,,,,,,,,,,,,,,,,,,,,,,,,,,,f,25,wanglulu,2022_Apr_09_0959,experiment3,2021.1.4,None,
39,0,200,200,one,0,200,200,,,,,0,66,66,38,,,,,,,,,,,l,4.516170899994904,914.3733040000079,None,914.3733040000079,None,918.9105913999956,None,918.9105913999956,None,918.9105913999956,None,920.9288500999974,None,920.9288500999974,None,920.9288500999974,None,918.9105913999956,None,921.4383983666814,None,921.4383983666814,None,921.4383983666814,None,0.011141366674564779,None,921.4383983666814,None,921.4383983666814,None,921.4383983666814,None,921.4383983666814,None,921.4383983666814,None,921.4383983666814,None,921.4538584999973,None,921.4538584999973,None,921.4538584999973,None,0.004347466659964994,0.504347466659965,921.4538584999973,None,921.4538584999973,None,921.4538584999973,None,921.4538584999973,None,921.4538584999973,None,921.4538584999973,None,923.4542925666649,None,-27.0,3.106,-150,-1150,-1350,,,,,,,,,,,,,,,,,,,,,,,,,,,,,,,,,,,,,,,,,,,,,,,,,,,,,,,,,,,,,,,,,,,,,,,,,,,,,,,,,,,f,25,wanglulu,2022_Apr_09_0959,experiment3,2021.1.4,None,
14,0,50,0,one,0,50,0,,,,,0,67,67,13,,,,,,,,,,,a,1.8593995999835897,926.6004322000081,None,926.6004322000081,None,928.5105021999916,None,928.5105021999916,None,928.5105021999916,None,930.5197832999984,None,930.5197832999984,None,930.5197832999984,None,928.5105021999916,None,931.0197664666669,None,931.0197664666669,None,931.0197664666669,None,0.010949466668535024,None,931.0197664666669,None,931.0197664666669,None,931.0197664666669,None,931.0197664666669,None,931.0197664666669,None,931.0197664666669,None,931.0355174000142,None,931.0355174000142,None,931.0355174000142,None,0.0038762666808906943,0.5038762666808907,931.0355174000142,None,931.0355174000142,None,931.0355174000142,None,931.0355174000142,None,931.0355174000142,None,931.0355174000142,None,933.0389300000097,933.0389300000097,-1.0,4.144,-150,-1100,-1350,,,,,,,,,,,,,,,,,,,,,,,,,,,,,,,,,,,,,,,,,,,,,,,,,,,,,,,,,,,,,,,,,,,,,,,,,,,,,,,,,,,f,25,wanglulu,2022_Apr_09_0959,experiment3,2021.1.4,None,
33,50,50,200,two,50,50,200,,,,,0,68,68,32,,,,,,,,,,,a,1.203747099993052,937.2527214000002,None,937.2527214000002,None,938.4847149999987,None,938.4847149999987,None,938.4847149999987,None,940.4896521999908,None,940.4896521999908,None,940.4896521999908,None,938.4847149999987,None,940.9843580666677,None,940.9843580666677,None,940.9843580666677,None,0.010408266651211306,None,940.9843580666677,None,940.9843580666677,None,940.9843580666677,None,940.9843580666677,None,940.9843580666677,None,940.9843580666677,None,941.000269799988,None,941.000269799988,None,941.000269799988,None,0.003020366682903841,0.5030203666829038,941.000269799988,None,941.000269799988,None,941.000269799988,None,941.000269799988,None,941.000269799988,None,941.000269799988,None,943.0007786666722,None,1.2999999999999972,2.451,-100,-1050,-1150,,,,,,,,,,,,,,,,,,,,,,,,,,,,,,,,,,,,,,,,,,,,,,,,,,,,,,,,,,,,,,,,,,,,,,,,,,,,,,,,,,,f,25,wanglulu,2022_Apr_09_0959,experiment3,2021.1.4,None,
24,200,0,0,two,200,0,0,,,,,0,69,69,23,,,,,,,,,,,a,1.1243916999956127,945.5155365999963,None,945.5155365999963,None,946.6874873999914,None,946.6874873999914,None,946.6874873999914,None,948.6720722999889,None,948.6720722999889,None,948.6720722999889,None,946.6874873999914,None,949.1998013666637,None,949.1998013666637,None,949.1998013666637,None,0.01064776669954881,None,949.1998013666637,None,949.1998013666637,None,949.1998013666637,None,949.1998013666637,None,949.1998013666637,None,949.1998013666637,None,949.2149359000032,None,949.2149359000032,None,949.2149359000032,None,0.0032731666578911245,0.5032731666578911,949.2149359000032,None,949.2149359000032,None,949.2149359000032,None,949.2149359000032,None,949.2149359000032,None,949.2149359000032,None,951.2026812999975,951.2026812999975,50.0,4.424,100,-1050,-1150,,,,,,,,,,,,,,,,,,,,,,,,,,,,,,,,,,,,,,,,,,,,,,,,,,,,,,,,,,,,,,,,,,,,,,,,,,,,,,,,,,,f,25,wanglulu,2022_Apr_09_0959,experiment3,2021.1.4,None,
45,0,200,200,two,0,200,200,,,,,0,70,70,44,,,,,,,,,,,a,2.6399396999913733,955.6870924000104,None,955.6870924000104,None,958.3648089999915,None,958.3648089999915,None,958.3648089999915,None,960.3643426999915,None,960.3643426999915,None,960.3643426999915,None,958.3648089999915,None,960.8860858666633,None,960.8860858666633,None,960.8860858666633,None,0.005550766654778272,None,960.8860858666633,None,960.8860858666633,None,960.8860858666633,None,960.8860858666633,None,960.8860858666633,None,960.8860858666633,None,960.911745999998,None,960.911745999998,None,960.911745999998,None,0.006500633287942037,0.506500633287942,960.911745999998,None,960.911745999998,None,960.911745999998,None,960.911745999998,None,960.911745999998,None,960.911745999998,None,962.9137056666698,None,-47.0,5.196,100,-850,-950,,,,,,,,,,,,,,,,,,,,,,,,,,,,,,,,,,,,,,,,,,,,,,,,,,,,,,,,,,,,,,,,,,,,,,,,,,,,,,,,,,,f,25,wanglulu,2022_Apr_09_0959,experiment3,2021.1.4,None,
27,50,50,200,one,50,50,200,,,,,0,71,71,26,,,,,,,,,,,a,1.5077168999996502,968.1514047000092,None,968.1514047000092,None,969.7135026000033,None,969.7135026000033,None,969.7135026000033,None,971.6954314000031,972.2129608000105,971.6954314000031,972.2129608000105,971.6954314000031,972.2129608000105,969.7135026000033,None,972.2296274666771,None,972.2296274666771,None,972.2296274666771,None,0.003630366671131924,None,972.2296274666771,None,972.2296274666771,None,972.2296274666771,None,972.2296274666771,None,972.2296274666771,None,972.2296274666771,None,972.2669809999934,None,972.2669809999934,None,972.2669809999934,None,0.0038778333400841802,0.5038778333400842,972.2669809999934,None,972.2669809999934,None,972.2669809999934,None,972.2669809999934,None,972.2669809999934,None,972.2669809999934,None,974.277794900001,974.277794900001,-0.7999999999999972,3.375,150,-800,-750,,,,,,,,,,,,,,,,,,,,,,,,,,,,,,,,,,,,,,,,,,,,,,,,,,,,,,,,,,,,,,,,,,,,,,,,,,,,,,,,,,,f,25,wanglulu,2022_Apr_09_0959,experiment3,2021.1.4,None,
84,-150,-150,0,two,-150,-150,0,,,,,0,72,72,83,,,,,,,,,,,g,1.4843563999747857,977.7078691000061,None,977.7078691000061,None,979.2205946999893,None,979.2205946999893,None,979.2205946999893,None,981.2182379000005,None,981.2182379000005,None,981.2182379000005,None,979.2205946999893,None,981.769751833323,None,981.769751833323,None,981.769751833323,None,0.016032533283578232,None,981.769751833323,None,981.769751833323,None,981.769751833323,None,981.769751833323,None,981.769751833323,None,981.769751833323,None,981.7938841000141,None,981.7938841000141,None,981.7938841000141,None,0.0006050333322491497,0.5006050333322491,981.7938841000141,None,981.7938841000141,None,981.7938841000141,None,981.7938841000141,None,981.7938841000141,None,981.7938841000141,None,983.7929625666623,None,-0.10000000000000142,1.1,0,-950,-750,,,,,,,,,,,,,,,,,,,,,,,,,,,,,,,,,,,,,,,,,,,,,,,,,,,,,,,,,,,,,,,,,,,,,,,,,,,,,,,,,,,f,25,wanglulu,2022_Apr_09_0959,experiment3,2021.1.4,None,
31,200,50,50,two,200,50,50,,,,,0,73,73,30,,,,,,,,,,,g,2.001183200016385,984.9435580999998,None,984.9435580999998,None,986.9936618999927,None,986.9936618999927,None,986.9936618999927,None,988.9917921999877,None,988.9917921999877,None,988.9917921999877,None,986.9936618999927,None,989.4870744666589,None,989.4870744666589,None,989.4870744666589,None,0.00021146662766113877,None,989.4870744666589,None,989.4870744666589,None,989.4870744666589,None,989.4870744666589,None,989.4870744666589,None,989.4870744666589,None,989.5116370999895,None,989.5116370999895,None,989.5116370999895,None,0.0063016333151608706,0.5063016333151609,989.5116370999895,None,989.5116370999895,None,989.5116370999895,None,989.5116370999895,None,989.5116370999895,None,989.5116370999895,None,991.5244548000046,991.5244548000046,50.0,1.417,200,-900,-700,,,,,,,,,,,,,,,,,,,,,,,,,,,,,,,,,,,,,,,,,,,,,,,,,,,,,,,,,,,,,,,,,,,,,,,,,,,,,,,,,,,f,25,wanglulu,2022_Apr_09_0959,experiment3,2021.1.4,None,
23,0,200,0,two,0,200,0,,,,,0,74,74,22,,,,,,,,,,,g,1.2500026999914553,992.9970805000048,None,992.9970805000048,None,994.2999355999928,None,994.2999355999928,None,994.2999355999928,None,996.2898840999987,None,996.2898840999987,None,996.2898840999987,None,994.2999355999928,None,996.8142061666624,None,996.8142061666624,None,996.8142061666624,None,0.0032264666515402496,None,996.8142061666624,None,996.8142061666624,None,996.8142061666624,None,996.8142061666624,None,996.8142061666624,None,996.8142061666624,None,996.8459714000055,None,996.8459714000055,None,996.8459714000055,None,0.005689333309419453,0.5056893333094195,996.8459714000055,None,996.8459714000055,None,996.8459714000055,None,996.8459714000055,None,996.8459714000055,None,996.8459714000055,None,998.8566932000103,998.8566932000103,-50.0,1.286,200,-700,-700,,,,,,,,,,,,,,,,,,,,,,,,,,,,,,,,,,,,,,,,,,,,,,,,,,,,,,,,,,,,,,,,,,,,,,,,,,,,,,,,,,,f,25,wanglulu,2022_Apr_09_0959,experiment3,2021.1.4,None,
94,-200,-200,-150,two,-200,-200,-150,,,,,0,75,75,93,,,,,,,,,,,g,1.221072499989532,1000.2066994000052,None,1000.2066994000052,None,1001.4874916000117,None,1001.4874916000117,None,1001.4874916000117,None,1003.488870000001,None,1003.488870000001,None,1003.488870000001,None,1001.4874916000117,None,1004.0054489666693,None,1004.0054489666693,None,1004.0054489666693,None,0.01097226666752249,None,1004.0054489666693,None,1004.0054489666693,None,1004.0054489666693,None,1004.0054489666693,None,1004.0054489666693,None,1004.0054489666693,None,1004.0280114999914,None,1004.0280114999914,None,1004.0280114999914,None,0.003921666648238897,0.5039216666482389,1004.0280114999914,None,1004.0280114999914,None,1004.0280114999914,None,1004.0280114999914,None,1004.0280114999914,None,1004.0280114999914,None,1006.0384355999995,1006.0384355999995,-7.5,1.661,0,-900,-850,,,,,,,,,,,,,,,,,,,,,,,,,,,,,,,,,,,,,,,,,,,,,,,,,,,,,,,,,,,,,,,,,,,,,,,,,,,,,,,,,,,f,25,wanglulu,2022_Apr_09_0959,experiment3,2021.1.4,None,
90,-150,-200,-200,one,-150,-200,-200,,,,,0,76,76,89,,,,,,,,,,,g,1.148676599987084,1007.7753045000136,None,1007.7753045000136,None,1008.9662278000033,None,1008.9662278000033,None,1008.9662278000033,None,1010.9784220999863,None,1010.9784220999863,None,1010.9784220999863,None,1008.9662278000033,None,1011.481810166679,None,1011.481810166679,None,1011.481810166679,None,0.003295666683698073,None,1011.481810166679,None,1011.481810166679,None,1011.481810166679,None,1011.481810166679,None,1011.481810166679,None,1011.481810166679,None,1011.5145128000004,None,1011.5145128000004,None,1011.5145128000004,None,0.0032977333466988057,0.5032977333466988,1011.5145128000004,None,1011.5145128000004,None,1011.5145128000004,None,1011.5145128000004,None,1011.5145128000004,None,1011.5145128000004,None,1013.5201627666577,None,25.700000000000003,4.265,-150,-1100,-1050,,,,,,,,,,,,,,,,,,,,,,,,,,,,,,,,,,,,,,,,,,,,,,,,,,,,,,,,,,,,,,,,,,,,,,,,,,,,,,,,,,,f,25,wanglulu,2022_Apr_09_0959,experiment3,2021.1.4,None,
42,50,200,200,one,50,200,200,,,,,0,77,77,41,,,,,,,,,,,g,1.3589179999835324,1017.8233079999918,None,1017.8233079999918,None,1019.2431068000151,None,1019.2431068000151,None,1019.2431068000151,None,1021.2351991999894,None,1021.2351991999894,None,1021.2351991999894,None,1019.2431068000151,None,1021.7581841666581,None,1021.7581841666581,None,1021.7581841666581,None,0.003973466664319858,None,1021.7581841666581,None,1021.7581841666581,None,1021.7581841666581,None,1021.7581841666581,None,1021.7581841666581,None,1021.7581841666581,None,1021.7857373000006,None,1021.7857373000006,None,1021.7857373000006,None,0.007670033344766125,0.5076700333447661,1021.7857373000006,None,1021.7857373000006,None,1021.7857373000006,None,1021.7857373000006,None,1021.7857373000006,None,1021.7857373000006,None,1023.7881993000046,1023.7881993000046,-6.600000000000001,1.881,-100,-900,-850,,,,,,,,,,,,,,,,,,,,,,,,,,,,,,,,,,,,,,,,,,,,,,,,,,,,,,,,,,,,,,,,,,,,,,,,,,,,,,,,,,,f,25,wanglulu,2022_Apr_09_0959,experiment3,2021.1.4,None,
96,-150,-200,-200,two,-150,-200,-200,,,,,0,78,78,95,,,,,,,,,,,g,1.5729508999793325,1025.7558144000068,None,1025.7558144000068,None,1027.381300100009,None,1027.381300100009,None,1027.381300100009,None,1029.362629899988,None,1029.362629899988,None,1029.362629899988,None,1027.381300100009,None,1029.8843788666748,None,1029.8843788666748,None,1029.8843788666748,None,0.01087896665558219,None,1029.8843788666748,None,1029.8843788666748,None,1029.8843788666748,None,1029.8843788666748,None,1029.8843788666748,None,1029.8843788666748,None,1029.8996256999962,None,1029.8996256999962,None,1029.8996256999962,None,0.003772566677071154,0.5037725666770712,1029.8996256999962,None,1029.8996256999962,None,1029.8996256999962,None,1029.8996256999962,None,1029.8996256999962,None,1029.8996256999962,None,1031.8892692000081,1031.8892692000081,14.200000000000003,1.998,-250,-1100,-1050,,,,,,,,,,,,,,,,,,,,,,,,,,,,,,,,,,,,,,,,,,,,,,,,,,,,,,,,,,,,,,,,,,,,,,,,,,,,,,,,,,,f,25,wanglulu,2022_Apr_09_0959,experiment3,2021.1.4,None,
92,-200,0,-200,two,-200,0,-200,,,,,0,79,79,91,,,,,,,,,,,g,1.5020561999990605,1033.9543598000018,None,1033.9543598000018,None,1035.4952477999905,None,1035.4952477999905,None,1035.4952477999905,None,1037.4925551000051,None,1037.4925551000051,None,1037.4925551000051,None,1035.4952477999905,None,1038.0168000666638,None,1038.0168000666638,None,1038.0168000666638,None,0.0031393666577059776,None,1038.0168000666638,None,1038.0168000666638,None,1038.0168000666638,None,1038.0168000666638,None,1038.0168000666638,None,1038.0168000666638,None,1038.05413579999,None,1038.05413579999,None,1038.05413579999,None,0.0030089333304204047,0.5030089333304204,1038.05413579999,None,1038.05413579999,None,1038.05413579999,None,1038.05413579999,None,1038.05413579999,None,1038.05413579999,None,1040.064829799987,1040.064829799987,-48.3,3.354,-450,-1100,-1250,,,,,,,,,,,,,,,,,,,,,,,,,,,,,,,,,,,,,,,,,,,,,,,,,,,,,,,,,,,,,,,,,,,,,,,,,,,,,,,,,,,f,25,wanglulu,2022_Apr_09_0959,experiment3,2021.1.4,None,
18,200,0,0,one,200,0,0,,,,,0,80,80,17,,,,,,,,,,,l,1.6963252999994438,1043.481648099987,None,1043.481648099987,None,1045.219661799987,None,1045.219661799987,None,1045.219661799987,None,1047.2110557999986,None,1047.2110557999986,None,1047.2110557999986,None,1045.219661799987,None,1047.7548144666691,None,1047.7548144666691,None,1047.7548144666691,None,0.0025704666622914374,None,1047.7548144666691,None,1047.7548144666691,None,1047.7548144666691,None,1047.7548144666691,None,1047.7548144666691,None,1047.7548144666691,None,1047.7917967000103,None,1047.7917967000103,None,1047.7917967000103,None,0.003780633327551186,0.5037806333275512,1047.7917967000103,None,1047.7917967000103,None,1047.7917967000103,None,1047.7917967000103,None,1047.7917967000103,None,1047.7917967000103,None,1049.7823408000113,1049.7823408000113,49.8,1.07,-250,-1100,-1250,,,,,,,,,,,,,,,,,,,,,,,,,,,,,,,,,,,,,,,,,,,,,,,,,,,,,,,,,,,,,,,,,,,,,,,,,,,,,,,,,,,f,25,wanglulu,2022_Apr_09_0959,experiment3,2021.1.4,None,
8,0,200,50,two,0,200,50,,,,,0,81,81,7,,,,,,,,,,,l,1.2928420999960508,1050.913977499993,None,1050.913977499993,None,1052.2436203999969,None,1052.2436203999969,None,1052.2436203999969,None,1054.2581248999923,None,1054.2581248999923,None,1054.2581248999923,None,1052.2436203999969,None,1054.7519638666747,None,1054.7519638666747,None,1054.7519638666747,None,0.00198786667897366,None,1054.7519638666747,None,1054.7519638666747,None,1054.7519638666747,None,1054.7519638666747,None,1054.7519638666747,None,1054.7519638666747,None,1054.791767399991,None,1054.791767399991,None,1054.791767399991,None,0.0029353333229664713,0.5029353333229665,1054.791767399991,None,1054.791767399991,None,1054.791767399991,None,1054.791767399991,None,1054.791767399991,None,1054.791767399991,None,1056.7728887000121,1056.7728887000121,-50.0,1.836,-250,-900,-1200,,,,,,,,,,,,,,,,,,,,,,,,,,,,,,,,,,,,,,,,,,,,,,,,,,,,,,,,,,,,,,,,,,,,,,,,,,,,,,,,,,,f,25,wanglulu,2022_Apr_09_0959,experiment3,2021.1.4,None,
93,0,-200,-200,two,0,-200,-200,,,,,0,82,82,92,,,,,,,,,,,l,1.2746489999990445,1058.7124960999936,None,1058.7124960999936,None,1060.0119619999896,None,1060.0119619999896,None,1060.0119619999896,None,1062.0330258999893,None,1062.0330258999893,None,1062.0330258999893,None,1060.0119619999896,None,1062.533806866679,None,1062.533806866679,None,1062.533806866679,None,0.0038019666681066155,None,1062.533806866679,None,1062.533806866679,None,1062.533806866679,None,1062.533806866679,None,1062.533806866679,None,1062.533806866679,None,1062.565622299997,None,1062.565622299997,None,1062.565622299997,None,0.007352733373409137,0.5073527333734091,1062.565622299997,None,1062.565622299997,None,1062.565622299997,None,1062.565622299997,None,1062.565622299997,None,1062.565622299997,None,1064.5790103999898,1064.5790103999898,44.900000000000006,1.812,-250,-1100,-1400,,,,,,,,,,,,,,,,,,,,,,,,,,,,,,,,,,,,,,,,,,,,,,,,,,,,,,,,,,,,,,,,,,,,,,,,,,,,,,,,,,,f,25,wanglulu,2022_Apr_09_0959,experiment3,2021.1.4,None,
58,-150,-200,0,two,-150,-200,0,,,,,0,83,83,57,,,,,,,,,,,l,1.256821500021033,1066.4470017999993,None,1066.4470017999993,None,1067.7746247999894,None,1067.7746247999894,None,1067.7746247999894,None,1069.7536508000048,None,1069.7536508000048,None,1069.7536508000048,None,1067.7746247999894,None,1070.2812423666803,None,1070.2812423666803,None,1070.2812423666803,None,0.0031499666802119464,None,1070.2812423666803,None,1070.2812423666803,None,1070.2812423666803,None,1070.2812423666803,None,1070.2812423666803,None,1070.2812423666803,None,1070.3137580000039,None,1070.3137580000039,None,1070.3137580000039,None,0.0070143333286978304,0.5070143333286978,1070.3137580000039,None,1070.3137580000039,None,1070.3137580000039,None,1070.3137580000039,None,1070.3137580000039,None,1070.3137580000039,None,1072.3089742999873,1072.3089742999873,-12.200000000000003,1.959,-400,-1300,-1400,,,,,,,,,,,,,,,,,,,,,,,,,,,,,,,,,,,,,,,,,,,,,,,,,,,,,,,,,,,,,,,,,,,,,,,,,,,,,,,,,,,f,25,wanglulu,2022_Apr_09_0959,experiment3,2021.1.4,None,
95,-200,-150,-200,two,-200,-150,-200,,,,,0,84,84,94,,,,,,,,,,,l,1.3232065000047442,1074.3418256999867,None,1074.3418256999867,None,1075.718122499995,None,1075.718122499995,None,1075.718122499995,None,1077.705548500002,1078.2168877999939,1077.705548500002,1078.2168877999939,1077.705548500002,1078.2168877999939,1075.718122499995,None,1078.2335544666605,None,1078.2335544666605,None,1078.2335544666605,None,0.002008066658163443,None,1078.2335544666605,None,1078.2335544666605,None,1078.2335544666605,None,1078.2335544666605,None,1078.2335544666605,None,1078.2335544666605,None,1078.252529099991,None,1078.252529099991,None,1078.252529099991,None,0.010847633326193318,0.5108476333261933,1078.252529099991,None,1078.252529099991,None,1078.252529099991,None,1078.252529099991,None,1078.252529099991,None,1078.252529099991,None,1080.25720610001,1080.25720610001,-15.0,19.095,-600,-1450,-1600,,,,,,,,,,,,,,,,,,,,,,,,,,,,,,,,,,,,,,,,,,,,,,,,,,,,,,,,,,,,,,,,,,,,,,,,,,,,,,,,,,,f,25,wanglulu,2022_Apr_09_0959,experiment3,2021.1.4,None,
28,0,50,50,one,0,50,50,,,,,0,85,85,27,,,,,,,,,,,g,2.1814111999992747,1099.423264699988,None,1099.423264699988,None,1101.6547011999937,None,1101.6547011999937,None,1101.6547011999937,None,1103.6346569999878,None,1103.6346569999878,None,1103.6346569999878,None,1101.6547011999937,None,1104.1770035333252,None,1104.1770035333252,None,1104.1770035333252,None,0.014418133301660419,None,1104.1770035333252,None,1104.1770035333252,None,1104.1770035333252,None,1104.1770035333252,None,1104.1770035333252,None,1104.1770035333252,None,1104.195395799994,None,1104.195395799994,None,1104.195395799994,None,0.014980199979618192,0.5149801999796182,1104.195395799994,None,1104.195395799994,None,1104.195395799994,None,1104.195395799994,None,1104.195395799994,None,1104.195395799994,None,1106.1916417999892,1106.1916417999892,-10.100000000000001,1.7,-600,-1400,-1550,,,,,,,,,,,,,,,,,,,,,,,,,,,,,,,,,,,,,,,,,,,,,,,,,,,,,,,,,,,,,,,,,,,,,,,,,,,,,,,,,,,f,25,wanglulu,2022_Apr_09_0959,experiment3,2021.1.4,None,
63,-150,0,0,one,-150,0,0,,,,,0,86,86,62,,,,,,,,,,,a,1.5820574999961536,1107.952652100008,None,1107.952652100008,None,1109.5622772999923,None,1109.5622772999923,None,1109.5622772999923,None,1111.5744765000127,None,1111.5744765000127,None,1111.5744765000127,None,1109.5622772999923,None,1112.0909734666677,None,1112.0909734666677,None,1112.0909734666677,None,0.001958066684892401,None,1112.0909734666677,None,1112.0909734666677,None,1112.0909734666677,None,1112.0909734666677,None,1112.0909734666677,None,1112.0909734666677,None,1112.1359300999902,None,1112.1359300999902,None,1112.1359300999902,None,0.012266600009752437,0.5122666000097524,1112.1359300999902,None,1112.1359300999902,None,1112.1359300999902,None,1112.1359300999902,None,1112.1359300999902,None,1112.1359300999902,None,1114.1228444000008,1114.1228444000008,-48.5,1.717,-750,-1400,-1550,,,,,,,,,,,,,,,,,,,,,,,,,,,,,,,,,,,,,,,,,,,,,,,,,,,,,,,,,,,,,,,,,,,,,,,,,,,,,,,,,,,f,25,wanglulu,2022_Apr_09_0959,experiment3,2021.1.4,None,
51,-150,0,-200,one,-150,0,-200,,,,,0,87,87,50,,,,,,,,,,,g,1.6327393999963533,1115.8997766000102,None,1115.8997766000102,None,1117.568462299998,None,1117.568462299998,None,1117.568462299998,None,1119.5665235999913,None,1119.5665235999913,None,1119.5665235999913,None,1117.568462299998,None,1120.074397566674,None,1120.074397566674,None,1120.074397566674,None,0.003038766677491367,None,1120.074397566674,None,1120.074397566674,None,1120.074397566674,None,1120.074397566674,None,1120.074397566674,None,1120.074397566674,None,1120.119247499999,None,1120.119247499999,None,1120.119247499999,None,0.011724300013156608,0.5117243000131566,1120.119247499999,None,1120.119247499999,None,1120.119247499999,None,1120.119247499999,None,1120.119247499999,None,1120.119247499999,None,1122.132587,1122.132587,-48.6,4.388,-900,-1400,-1750,,,,,,,,,,,,,,,,,,,,,,,,,,,,,,,,,,,,,,,,,,,,,,,,,,,,,,,,,,,,,,,,,,,,,,,,,,,,,,,,,,,f,25,wanglulu,2022_Apr_09_0959,experiment3,2021.1.4,None,
91,-200,-200,0,two,-200,-200,0,,,,,0,88,88,90,,,,,,,,,,,l,1.7428994000074454,1126.585098600015,None,1126.585098600015,None,1128.3547455999942,None,1128.3547455999942,None,1128.3547455999942,None,1130.3662444000074,None,1130.3662444000074,None,1130.3662444000074,None,1128.3547455999942,None,1130.8808472666753,None,1130.8808472666753,None,1130.8808472666753,None,0.011231766664423048,None,1130.8808472666753,None,1130.8808472666753,None,1130.8808472666753,None,1130.8808472666753,None,1130.8808472666753,None,1130.8808472666753,None,1130.9077912000066,None,1130.9077912000066,None,1130.9077912000066,None,0.013628733344376087,0.5136287333443761,1130.9077912000066,None,1130.9077912000066,None,1130.9077912000066,None,1130.9077912000066,None,1130.9077912000066,None,1130.9077912000066,None,1132.9134016000025,1132.9134016000025,-0.10000000000000142,2.454,-1100,-1600,-1750,,,,,,,,,,,,,,,,,,,,,,,,,,,,,,,,,,,,,,,,,,,,,,,,,,,,,,,,,,,,,,,,,,,,,,,,,,,,,,,,,,,f,25,wanglulu,2022_Apr_09_0959,experiment3,2021.1.4,None,
48,50,200,200,two,50,200,200,,,,,0,89,89,47,,,,,,,,,,,g,1.4388463999785017,1135.4271188999992,None,1135.4271188999992,None,1136.9135707000096,None,1136.9135707000096,None,1136.9135707000096,None,1138.9148483999888,None,1138.9148483999888,None,1138.9148483999888,None,1136.9135707000096,None,1139.4296243666652,None,1139.4296243666652,None,1139.4296243666652,None,0.011046766652725637,None,1139.4296243666652,None,1139.4296243666652,None,1139.4296243666652,None,1139.4296243666652,None,1139.4296243666652,None,1139.4296243666652,None,1139.4558435000072,None,1139.4558435000072,None,1139.4558435000072,None,0.0012787666346412152,0.5012787666346412,1139.4558435000072,None,1139.4558435000072,None,1139.4558435000072,None,1139.4558435000072,None,1139.4558435000072,None,1139.4558435000072,None,1141.4459036999906,1141.4459036999906,-13.799999999999997,2.952,-1050,-1400,-1550,,,,,,,,,,,,,,,,,,,,,,,,,,,,,,,,,,,,,,,,,,,,,,,,,,,,,,,,,,,,,,,,,,,,,,,,,,,,,,,,,,,f,25,wanglulu,2022_Apr_09_0959,experiment3,2021.1.4,None,
21,50,0,0,two,50,0,0,,,,,0,90,90,20,,,,,,,,,,,g,1.8372760999773163,1144.4678840000124,None,1144.4678840000124,None,1146.3452703999938,None,1146.3452703999938,None,1146.3452703999938,None,1148.3302065999887,None,1148.3302065999887,None,1148.3302065999887,None,1146.3452703999938,None,1148.8734693333467,None,1148.8734693333467,None,1148.8734693333467,None,0.013220633321907371,None,1148.8734693333467,None,1148.8734693333467,None,1148.8734693333467,None,1148.8734693333467,None,1148.8734693333467,None,1148.8734693333467,None,1148.9122621999995,None,1148.9122621999995,None,1148.9122621999995,None,0.007237999991048127,0.5072379999910481,1148.9122621999995,None,1148.9122621999995,None,1148.9122621999995,None,1148.9122621999995,None,1148.9122621999995,None,1148.9122621999995,None,1150.9170971999993,1150.9170971999993,8.299999999999997,1.528,-1000,-1400,-1550,,,,,,,,,,,,,,,,,,,,,,,,,,,,,,,,,,,,,,,,,,,,,,,,,,,,,,,,,,,,,,,,,,,,,,,,,,,,,,,,,,,f,25,wanglulu,2022_Apr_09_0959,experiment3,2021.1.4,None,
67,0,0,-150,two,0,0,-150,,,,,0,91,91,66,,,,,,,,,,,g,5.651559699996142,1152.5275138000143,None,1152.5275138000143,None,1158.2426399000105,None,1158.2426399000105,None,1158.2426399000105,None,1160.2521319999942,None,1160.2521319999942,None,1160.2521319999942,None,1158.2426399000105,None,1160.7419927666817,None,1160.7419927666817,None,1160.7419927666817,None,0.011029666668036953,None,1160.7419927666817,None,1160.7419927666817,None,1160.7419927666817,None,1160.7419927666817,None,1160.7419927666817,None,1160.7419927666817,None,1160.7573477000115,None,1160.7573477000115,None,1160.7573477000115,None,0.00395246667903848,0.5039524666790385,1160.7573477000115,None,1160.7573477000115,None,1160.7573477000115,None,1160.7573477000115,None,1160.7573477000115,None,1160.7573477000115,None,1162.7571060666562,None,-5.700000000000003,1.715,-1000,-1400,-1700,,,,,,,,,,,,,,,,,,,,,,,,,,,,,,,,,,,,,,,,,,,,,,,,,,,,,,,,,,,,,,,,,,,,,,,,,,,,,,,,,,,f,25,wanglulu,2022_Apr_09_0959,experiment3,2021.1.4,None,
22,0,0,200,two,0,0,200,,,,,0,92,92,21,,,,,,,,,,,l,2.4218278000189457,1164.5071370000078,None,1164.5071370000078,None,1166.9628916000074,None,1166.9628916000074,None,1166.9628916000074,None,1168.9358166999882,None,1168.9358166999882,None,1168.9358166999882,None,1166.9628916000074,None,1169.4617894666774,None,1169.4617894666774,None,1169.4617894666774,None,0.005403866671258584,None,1169.4617894666774,None,1169.4617894666774,None,1169.4617894666774,None,1169.4617894666774,None,1169.4617894666774,None,1169.4617894666774,None,1169.494491599995,None,1169.494491599995,None,1169.494491599995,None,0.009000633319374174,0.5090006333193742,1169.494491599995,None,1169.494491599995,None,1169.494491599995,None,1169.494491599995,None,1169.494491599995,None,1169.494491599995,None,1171.489557599998,1171.489557599998,2.0,3.495,-1000,-1400,-1500,,,,,,,,,,,,,,,,,,,,,,,,,,,,,,,,,,,,,,,,,,,,,,,,,,,,,,,,,,,,,,,,,,,,,,,,,,,,,,,,,,,f,25,wanglulu,2022_Apr_09_0959,experiment3,2021.1.4,None,
88,-200,-200,-150,one,-200,-200,-150,,,,,0,93,93,87,,,,,,,,,,,l,6.625739100010833,1175.0610944000073,None,1175.0610944000073,None,1181.7208985000034,None,1181.7208985000034,None,1181.7208985000034,None,1183.6894959000056,1184.2217040999967,1183.6894959000056,1184.2217040999967,1183.6894959000056,1184.2217040999967,1181.7208985000034,None,1184.2383707666634,None,1184.2383707666634,None,1184.2383707666634,None,0.008987166685983539,None,1184.2383707666634,None,1184.2383707666634,None,1184.2383707666634,None,1184.2383707666634,None,1184.2383707666634,None,1184.2383707666634,None,1184.25765829999,None,1184.25765829999,None,1184.25765829999,None,0.014729733316926286,0.5147297333169263,1184.25765829999,None,1184.25765829999,None,1184.25765829999,None,1184.25765829999,None,1184.25765829999,None,1184.25765829999,None,1186.2773720000114,1186.2773720000114,-12.5,1.616,-1200,-1600,-1650,,,,,,,,,,,,,,,,,,,,,,,,,,,,,,,,,,,,,,,,,,,,,,,,,,,,,,,,,,,,,,,,,,,,,,,,,,,,,,,,,,,f,25,wanglulu,2022_Apr_09_0959,experiment3,2021.1.4,None,
72,-200,0,0,two,-200,0,0,,,,,0,94,94,71,,,,,,,,,,,l,3.0802669000113383,1187.969191799988,None,1187.969191799988,None,1191.0826509000035,None,1191.0826509000035,None,1191.0826509000035,None,1193.092857200012,None,1193.092857200012,None,1193.092857200012,None,1191.0826509000035,None,1193.5958993666611,None,1193.5958993666611,None,1193.5958993666611,None,0.011765266652218997,None,1193.5958993666611,None,1193.5958993666611,None,1193.5958993666611,None,1193.5958993666611,None,1193.5958993666611,None,1193.5958993666611,None,1193.6085553999874,None,1193.6085553999874,None,1193.6085553999874,None,0.0015273666649591178,0.5015273666649591,1193.6085553999874,None,1193.6085553999874,None,1193.6085553999874,None,1193.6085553999874,None,1193.6085553999874,None,1193.6085553999874,None,1195.6188902666656,None,-45.8,2.113,-1400,-1600,-1650,,,,,,,,,,,,,,,,,,,,,,,,,,,,,,,,,,,,,,,,,,,,,,,,,,,,,,,,,,,,,,,,,,,,,,,,,,,,,,,,,,,f,25,wanglulu,2022_Apr_09_0959,experiment3,2021.1.4,None,
13,0,0,50,one,0,0,50,,,,,0,95,95,12,,,,,,,,,,,l,1.3616967000125442,1197.7841597000079,None,1197.7841597000079,None,1199.1700705999974,None,1199.1700705999974,None,1199.1700705999974,None,1201.1670674000052,None,1201.1670674000052,None,1201.1670674000052,None,1199.1700705999974,None,1201.683549966667,None,1201.683549966667,None,1201.683549966667,None,0.011344466649461538,None,1201.683549966667,None,1201.683549966667,None,1201.683549966667,None,1201.683549966667,None,1201.683549966667,None,1201.683549966667,None,1201.6992753999948,None,1201.6992753999948,None,1201.6992753999948,None,0.0038816666638012975,0.5038816666638013,1201.6992753999948,None,1201.6992753999948,None,1201.6992753999948,None,1201.6992753999948,None,1201.6992753999948,None,1201.6992753999948,None,1203.6922496999905,1203.6922496999905,-15.299999999999997,1.306,-1400,-1600,-1600,,,,,,,,,,,,,,,,,,,,,,,,,,,,,,,,,,,,,,,,,,,,,,,,,,,,,,,,,,,,,,,,,,,,,,,,,,,,,,,,,,,f,25,wanglulu,2022_Apr_09_0959,experiment3,2021.1.4,None,
,,,,,,,,,,,,,,,,,,,,,,,,,,,,,,,,,,,,,,,,,,,,,,,,,,,,,,,,,,,,,,,,,,,,,,,,,,,,,,,,,,,,,,,,,,,,,1205.1509040000092,None,space,3.7959332000173163,1205.1509040000092,None,,,,,,,,,,,,,,,,,,,,,,,,,,,,,,,,,,,,,,,,,,,,,,,,,,,,,,,,,,,,,,,,,,,,,,,,,,,,,f,25,wanglulu,2022_Apr_09_0959,experiment3,2021.1.4,None,
,,,,,,,,,,,,,,,,,,,,,,,,,,,,,,,,,,,,,,,,,,,,,,,,,,,,,,,,,,,,,,,,,,,,,,,,,,,,,,,,,,,,,,,,,,,,,,,,,,,1209.0540364999906,None,space,1.815666999988025,1209.0540364999906,None,,,,,,,,,,,,,,,,,,,,,,,,,,,,,,,,,,,,,,,,,,,,,,,,,,,,,,,,,,,,,,,,,,,,,,,f,25,wanglulu,2022_Apr_09_0959,experiment3,2021.1.4,None,
46,200,200,50,,200,,50,left,"[-12, 4]",200,"'g', 'l'",,,,,0,0,0,45,,,,,,,,,,,,,,,,,,,,,,,,,,,,,,,,,,,,,,,,,,,,,,,,,,,,,,,,,,,,,,,,,,,,,-0.7999999999999972,2.262,-1200,-1400,-1550,,,,,,,,,,,,,1212.9888610999915,None,1212.9888610999915,None,1212.9888610999915,None,1210.9745953000092,None,0.013240366679383442,0.5132403666793834,l,3.8059416000032797,1213.4119707999926,None,1213.4119707999926,None,1213.4119707999926,None,1213.4119707999926,None,1213.4119707999926,None,1217.2486801666712,None,1217.2486801666712,None,1217.2486801666712,None,0.005954366672085598,None,1217.2486801666712,None,1217.2486801666712,None,1217.2486801666712,None,1217.2486801666712,None,1217.2486801666712,None,1217.2486801666712,None,1217.2694447000104,None,1217.2694447000104,None,1217.2694447000104,None,0.01176293331081979,0.5117629333108198,1217.2694447000104,None,1217.2694447000104,None,1217.2694447000104,None,1217.2694447000104,None,1217.2694447000104,None,1217.2694447000104,None,1219.2662765000132,1219.2662765000132,,,,,,,f,25,wanglulu,2022_Apr_09_0959,experiment3,2021.1.4,None,
