trialNumber,mychoice,otherchoice,stay,skip,pointsWon,otherScore,unobtained,choicepos,pos_1,otherscore,allowedkeyresp,trials_2.thisRepN,trials_2.thisTrialN,trials_2.thisN,trials_2.thisIndex,trials.thisRepN,trials.thisTrialN,trials.thisN,trials.thisIndex,image_2.started,image_2.stopped,key_resp_2.keys,key_resp_2.rt,key_resp_2.started,key_resp_2.stopped,key_resp_6.keys,key_resp_6.rt,key_resp_6.started,key_resp_6.stopped,text.started,text.stopped,left_3.started,left_3.stopped,middle_3.started,middle_3.stopped,right_3.started,right_3.stopped,otherleft_1.started,otherleft_1.stopped,othermiddle_1.started,othermiddle_1.stopped,otherright_1.started,otherright_1.stopped,text_2.started,text_2.stopped,left_4.started,left_4.stopped,right_4.started,right_4.stopped,middle_4.started,middle_4.stopped,ISI_3.started,ISI_3.stopped,mypick.started,mypick.stopped,otherpick.started,otherpick.stopped,residal.started,residal.stopped,otherleft_5.started,otherleft_5.stopped,othermiddle_5.started,othermiddle_5.stopped,otherright_5.started,otherright_5.stopped,left_5.started,left_5.stopped,right_5.started,right_5.stopped,middle_5.started,middle_5.stopped,ISI_5.started,ISI_5.stopped,mypick_1.started,mypick_1.stopped,otherpick_1.started,otherpick_1.stopped,residal_1.started,residal_1.stopped,otherleft_6.started,otherleft_6.stopped,othermiddle_6.started,othermiddle_6.stopped,otherright_6.started,otherright_6.stopped,text_3.started,text_3.stopped,rating,ratingrt,totalScore,othertotalScore,unobtainedScore,image_4.started,image_4.stopped,key_resp_3.keys,key_resp_3.rt,key_resp_3.started,key_resp_3.stopped,image_5.started,image_5.stopped,key_resp.keys,key_resp.rt,key_resp.started,key_resp.stopped,otherleft_3.started,otherleft_3.stopped,othermiddle_3.started,othermiddle_3.stopped,otherright_3.started,otherright_3.stopped,text_4.started,text_4.stopped,ISI_2.started,ISI_2.stopped,key_resp_4.keys,key_resp_4.rt,key_resp_4.started,key_resp_4.stopped,otherleft_4.started,otherleft_4.stopped,othermiddle_4.started,othermiddle_4.stopped,otherright_4.started,otherright_4.stopped,text_5.started,text_5.stopped,left.started,left.stopped,right.started,right.stopped,middle.started,middle.stopped,ISI.started,ISI.stopped,mypick_3.started,mypick_3.stopped,otherpick_3.started,otherpick_3.stopped,residal_3.started,residal_3.stopped,otherleft.started,otherleft.stopped,othermiddle.started,othermiddle.stopped,otherright.started,otherright.stopped,right_2.started,right_2.stopped,middle_2.started,middle_2.stopped,left_2.started,left_2.stopped,ISI_4.started,ISI_4.stopped,mypick_4.started,mypick_4.stopped,otherpick_4.started,otherpick_4.stopped,residal_4.started,residal_4.stopped,otherleft_2.started,otherleft_2.stopped,othermiddle_2.started,othermiddle_2.stopped,otherright_2.started,otherright_2.stopped,text_6.started,text_6.stopped,image_3.started,image_3.stopped,key_resp_9.keys,key_resp_9.rt,key_resp_9.started,key_resp_9.stopped,gender,age,participant,date,expName,psychopyVersion,frameRate,
,,,,,,,,,,,,,,,,,,,,41.28551229997538,None,space,2.1249671000114176,41.28551229997538,None,,,,,,,,,,,,,,,,,,,,,,,,,,,,,,,,,,,,,,,,,,,,,,,,,,,,,,,,,,,,,,,,,,,,,,,,,,,,,,,,,,,,,,,,,,,,,,,,,,,,,,,,,,,,,,,,,,,,,,,,,,,,,,,,,,,,,,,,,,,,,,,,,,,,,,f,24,wjr,2022_Apr_10_1456,experiment3,2021.1.4,30.143252796678798,
38,200,0,200,one,200,0,200,,,,,0,0,0,37,,,,,,,,,,,a,2.9380088000034448,43.48749759999919,None,43.48749759999919,None,46.46631219997653,None,46.46631219997653,None,46.46631219997653,None,48.448162199987564,None,48.448162199987564,None,48.448162199987564,None,46.46631219997653,None,48.96494396665754,None,48.96494396665754,None,48.96494396665754,None,0.0013661666598636657,None,48.96494396665754,None,48.96494396665754,None,48.96494396665754,None,48.96494396665754,None,48.96494396665754,None,48.96494396665754,None,48.9868209999986,None,48.9868209999986,None,48.9868209999986,None,0.007964733318658546,0.5079647333186585,48.9868209999986,None,48.9868209999986,None,48.9868209999986,None,48.9868209999986,None,48.9868209999986,None,48.9868209999986,None,50.98192969997763,50.98192969997763,50.0,4.123,400,0,200,,,,,,,,,,,,,,,,,,,,,,,,,,,,,,,,,,,,,,,,,,,,,,,,,,,,,,,,,,,,,,,,,,,,,,,,,,,,,,,,,,,f,24,wjr,2022_Apr_10_1456,experiment3,2021.1.4,30.143252796678798,
86,-200,0,-200,one,-200,0,-200,,,,,0,1,1,85,,,,,,,,,,,l,3.5807903000095394,55.230375099985395,None,55.230375099985395,None,58.88297439998132,None,58.88297439998132,None,58.88297439998132,None,60.879521199996816,None,60.879521199996816,None,60.879521199996816,None,58.88297439998132,None,61.396444866641346,None,61.396444866641346,None,61.396444866641346,None,0.0034670666500460356,None,61.396444866641346,None,61.396444866641346,None,61.396444866641346,None,61.396444866641346,None,61.396444866641346,None,61.396444866641346,None,61.41587989998516,None,61.41587989998516,None,61.41587989998516,None,0.011526733316713944,0.5115267333167139,61.41587989998516,None,61.41587989998516,None,61.41587989998516,None,61.41587989998516,None,61.41587989998516,None,61.41587989998516,None,63.41239769998356,63.41239769998356,-25.6,6.07,200,0,0,,,,,,,,,,,,,,,,,,,,,,,,,,,,,,,,,,,,,,,,,,,,,,,,,,,,,,,,,,,,,,,,,,,,,,,,,,,,,,,,,,,f,24,wjr,2022_Apr_10_1456,experiment3,2021.1.4,30.143252796678798,
80,-150,-200,-150,two,-150,-200,-150,,,,,0,2,2,79,,,,,,,,,,,g,3.6134805000037886,69.5414313999936,None,69.5414313999936,None,73.1935885999992,None,73.1935885999992,None,73.1935885999992,None,75.17478390000178,None,75.17478390000178,None,75.17478390000178,None,73.1935885999992,None,75.70346413332348,None,75.70346413332348,None,75.70346413332348,None,0.015013333322713152,None,75.70346413332348,None,75.70346413332348,None,75.70346413332348,None,75.70346413332348,None,75.70346413332348,None,75.70346413332348,None,75.73101109999698,None,75.73101109999698,None,75.73101109999698,None,0.013398299983236939,0.5133982999832369,75.73101109999698,None,75.73101109999698,None,75.73101109999698,None,75.73101109999698,None,75.73101109999698,None,75.73101109999698,None,77.72573569999076,77.72573569999076,12.700000000000003,3.705,50,-200,-150,,,,,,,,,,,,,,,,,,,,,,,,,,,,,,,,,,,,,,,,,,,,,,,,,,,,,,,,,,,,,,,,,,,,,,,,,,,,,,,,,,,f,24,wjr,2022_Apr_10_1456,experiment3,2021.1.4,30.143252796678798,
62,0,-150,0,one,0,-150,0,,,,,0,3,3,61,,,,,,,,,,,l,2.3811070999945514,81.48942469997564,None,81.48942469997564,None,83.90077589999419,None,83.90077589999419,None,83.90077589999419,None,85.89112109999405,None,85.89112109999405,None,85.89112109999405,None,83.90077589999419,None,86.40963206664698,None,86.40963206664698,None,86.40963206664698,None,0.010111866664374247,None,86.40963206664698,None,86.40963206664698,None,86.40963206664698,None,86.40963206664698,None,86.40963206664698,None,86.40963206664698,None,86.42407229999662,None,86.42407229999662,None,86.42407229999662,None,0.0012422666477505118,0.5012422666477505,86.42407229999662,None,86.42407229999662,None,86.42407229999662,None,86.42407229999662,None,86.42407229999662,None,86.42407229999662,None,88.42321216664665,None,-0.7000000000000028,3.565,50,-350,-150,,,,,,,,,,,,,,,,,,,,,,,,,,,,,,,,,,,,,,,,,,,,,,,,,,,,,,,,,,,,,,,,,,,,,,,,,,,,,,,,,,,f,24,wjr,2022_Apr_10_1456,experiment3,2021.1.4,30.143252796678798,
28,0,50,50,one,0,50,50,,,,,0,4,4,27,,,,,,,,,,,g,3.5870407999900635,92.02675759998965,None,92.02675759998965,None,95.66378199998871,None,95.66378199998871,None,95.66378199998871,None,97.67214979999699,None,97.67214979999699,None,97.67214979999699,None,95.66378199998871,None,98.18788566664831,None,98.18788566664831,None,98.18788566664831,None,0.009211666649207473,None,98.18788566664831,None,98.18788566664831,None,98.18788566664831,None,98.18788566664831,None,98.18788566664831,None,98.18788566664831,None,98.20312829999602,None,98.20312829999602,None,98.20312829999602,None,0.001977266656467691,0.5019772666564677,98.20312829999602,None,98.20312829999602,None,98.20312829999602,None,98.20312829999602,None,98.20312829999602,None,98.20312829999602,None,100.18790779999108,100.18790779999108,7.5,2.914,50,-300,-100,,,,,,,,,,,,,,,,,,,,,,,,,,,,,,,,,,,,,,,,,,,,,,,,,,,,,,,,,,,,,,,,,,,,,,,,,,,,,,,,,,,f,24,wjr,2022_Apr_10_1456,experiment3,2021.1.4,30.143252796678798,
40,200,200,50,one,200,200,50,,,,,0,5,5,39,,,,,,,,,,,a,3.378741099993931,103.15808470000047,None,103.15808470000047,None,106.58592759998282,None,106.58592759998282,None,106.58592759998282,None,108.57530659998883,None,108.57530659998883,None,108.57530659998883,None,106.58592759998282,None,109.08556136666836,None,109.08556136666836,None,109.08556136666836,None,0.009465066686971113,None,109.08556136666836,None,109.08556136666836,None,109.08556136666836,None,109.08556136666836,None,109.08556136666836,None,109.08556136666836,None,109.10177609999664,None,109.10177609999664,None,109.10177609999664,None,0.003039066679775715,0.5030390666797757,109.10177609999664,None,109.10177609999664,None,109.10177609999664,None,109.10177609999664,None,109.10177609999664,None,109.10177609999664,None,111.1027494666671,None,36.7,2.498,250,-100,-50,,,,,,,,,,,,,,,,,,,,,,,,,,,,,,,,,,,,,,,,,,,,,,,,,,,,,,,,,,,,,,,,,,,,,,,,,,,,,,,,,,,f,24,wjr,2022_Apr_10_1456,experiment3,2021.1.4,30.143252796678798,
76,0,-150,-150,one,0,-150,-150,,,,,0,6,6,75,,,,,,,,,,,g,2.2025362999993376,113.63521869998658,None,113.63521869998658,None,115.89769039998646,None,115.89769039998646,None,115.89769039998646,None,117.9223393999855,None,117.9223393999855,None,117.9223393999855,None,115.89769039998646,None,118.4213727666686,None,118.4213727666686,None,118.4213727666686,None,0.008969966671429574,None,118.4213727666686,None,118.4213727666686,None,118.4213727666686,None,118.4213727666686,None,118.4213727666686,None,118.4213727666686,None,118.43702499999199,None,118.43702499999199,None,118.43702499999199,None,0.01569243334233761,0.5156924333423376,118.43702499999199,None,118.43702499999199,None,118.43702499999199,None,118.43702499999199,None,118.43702499999199,None,118.43702499999199,None,120.43968716665792,None,12.799999999999997,2.084,250,-250,-200,,,,,,,,,,,,,,,,,,,,,,,,,,,,,,,,,,,,,,,,,,,,,,,,,,,,,,,,,,,,,,,,,,,,,,,,,,,,,,,,,,,f,24,wjr,2022_Apr_10_1456,experiment3,2021.1.4,30.143252796678798,
93,0,-200,-200,two,0,-200,-200,,,,,0,7,7,92,,,,,,,,,,,a,2.7667270000092685,122.60110069997609,None,122.60110069997609,None,125.41223529999843,None,125.41223529999843,None,125.41223529999843,None,127.42280549998395,None,127.42280549998395,None,127.42280549998395,None,125.41223529999843,None,127.91303546665974,None,127.91303546665974,None,127.91303546665974,None,0.007332366687478498,None,127.91303546665974,None,127.91303546665974,None,127.91303546665974,None,127.91303546665974,None,127.91303546665974,None,127.91303546665974,None,127.92829599999823,None,127.92829599999823,None,127.92829599999823,None,0.014719033322762698,0.5147190333227627,127.92829599999823,None,127.92829599999823,None,127.92829599999823,None,127.92829599999823,None,127.92829599999823,None,127.92829599999823,None,129.93140066665754,None,12.600000000000001,4.438,250,-450,-400,,,,,,,,,,,,,,,,,,,,,,,,,,,,,,,,,,,,,,,,,,,,,,,,,,,,,,,,,,,,,,,,,,,,,,,,,,,,,,,,,,,f,24,wjr,2022_Apr_10_1456,experiment3,2021.1.4,30.143252796678798,
63,-150,0,0,one,-150,0,0,,,,,0,8,8,62,,,,,,,,,,,g,2.0801458999922033,134.41168719998677,None,134.41168719998677,None,136.5651751999976,None,136.5651751999976,None,136.5651751999976,None,138.5476094999758,None,138.5476094999758,None,138.5476094999758,None,136.5651751999976,None,139.06368166665587,None,139.06368166665587,None,139.06368166665587,None,0.011462366674095392,None,139.06368166665587,None,139.06368166665587,None,139.06368166665587,None,139.06368166665587,None,139.06368166665587,None,139.06368166665587,None,139.0801481999806,None,139.0801481999806,None,139.0801481999806,None,0.004600166663294658,0.5046001666632947,139.0801481999806,None,139.0801481999806,None,139.0801481999806,None,139.0801481999806,None,139.0801481999806,None,139.0801481999806,None,141.08072559998254,141.08072559998254,-13.5,1.734,100,-450,-400,,,,,,,,,,,,,,,,,,,,,,,,,,,,,,,,,,,,,,,,,,,,,,,,,,,,,,,,,,,,,,,,,,,,,,,,,,,,,,,,,,,f,24,wjr,2022_Apr_10_1456,experiment3,2021.1.4,30.143252796678798,
25,200,50,50,one,200,50,50,,,,,0,9,9,24,,,,,,,,,,,g,4.8333611999987625,142.87337089999346,None,142.87337089999346,None,147.7635983999935,None,147.7635983999935,None,147.7635983999935,None,149.74506249997648,None,149.74506249997648,None,149.74506249997648,None,147.7635983999935,None,150.26185546664445,None,150.26185546664445,None,150.26185546664445,None,0.011250266688875854,None,150.26185546664445,None,150.26185546664445,None,150.26185546664445,None,150.26185546664445,None,150.26185546664445,None,150.26185546664445,None,150.2777558999951,None,150.2777558999951,None,150.2777558999951,None,0.0036676666350103915,0.5036676666350104,150.2777558999951,None,150.2777558999951,None,150.2777558999951,None,150.2777558999951,None,150.2777558999951,None,150.2777558999951,None,152.2771323666423,None,24.299999999999997,2.877,300,-400,-350,,,,,,,,,,,,,,,,,,,,,,,,,,,,,,,,,,,,,,,,,,,,,,,,,,,,,,,,,,,,,,,,,,,,,,,,,,,,,,,,,,,f,24,wjr,2022_Apr_10_1456,experiment3,2021.1.4,30.143252796678798,
88,-200,-200,-150,one,-200,-200,-150,,,,,0,10,10,87,,,,,,,,,,,l,3.420799800020177,155.19328339997446,None,155.19328339997446,None,158.6771519999893,None,158.6771519999893,None,158.6771519999893,None,160.67640389999724,None,160.67640389999724,None,160.67640389999724,None,158.6771519999893,None,161.1804910666581,None,161.1804910666581,None,161.1804910666581,None,0.0027074666577391326,None,161.1804910666581,None,161.1804910666581,None,161.1804910666581,None,161.1804910666581,None,161.1804910666581,None,161.1804910666581,None,161.21168639999814,None,161.21168639999814,None,161.21168639999814,None,0.004866933333687484,0.5048669333336875,161.21168639999814,None,161.21168639999814,None,161.21168639999814,None,161.21168639999814,None,161.21168639999814,None,161.21168639999814,None,163.20492150000064,163.20492150000064,0.8999999999999986,2.594,100,-600,-500,,,,,,,,,,,,,,,,,,,,,,,,,,,,,,,,,,,,,,,,,,,,,,,,,,,,,,,,,,,,,,,,,,,,,,,,,,,,,,,,,,,f,24,wjr,2022_Apr_10_1456,experiment3,2021.1.4,30.143252796678798,
60,-200,0,-150,two,-200,0,-150,,,,,0,11,11,59,,,,,,,,,,,a,3.808462300017709,165.8752625999914,None,165.8752625999914,None,169.73293999998714,None,169.73293999998714,None,169.73293999998714,None,171.7426717999915,None,171.7426717999915,None,171.7426717999915,None,169.73293999998714,None,172.24136356666375,None,172.24136356666375,None,172.24136356666375,None,0.010738566663349047,None,172.24136356666375,None,172.24136356666375,None,172.24136356666375,None,172.24136356666375,None,172.24136356666375,None,172.24136356666375,None,172.256956600002,None,172.256956600002,None,172.256956600002,None,0.002808366669341922,0.5028083666693419,172.256956600002,None,172.256956600002,None,172.256956600002,None,172.256956600002,None,172.256956600002,None,172.256956600002,None,174.25667646664468,None,-36.5,2.32,-100,-600,-650,,,,,,,,,,,,,,,,,,,,,,,,,,,,,,,,,,,,,,,,,,,,,,,,,,,,,,,,,,,,,,,,,,,,,,,,,,,,,,,,,,,f,24,wjr,2022_Apr_10_1456,experiment3,2021.1.4,30.143252796678798,
23,0,200,0,two,0,200,0,,,,,0,12,12,22,,,,,,,,,,,g,1.4341800000111107,176.64057339998544,None,176.64057339998544,None,178.13952629998676,None,178.13952629998676,None,178.13952629998676,None,180.1320649999834,None,180.1320649999834,None,180.1320649999834,None,178.13952629998676,None,180.65608716666273,None,180.65608716666273,None,180.65608716666273,None,0.01089966666768305,None,180.65608716666273,None,180.65608716666273,None,180.65608716666273,None,180.65608716666273,None,180.65608716666273,None,180.65608716666273,None,180.671357299987,None,180.671357299987,None,180.671357299987,None,0.004049166658660397,0.5040491666586604,180.671357299987,None,180.671357299987,None,180.671357299987,None,180.671357299987,None,180.671357299987,None,180.671357299987,None,182.6578382999869,182.6578382999869,-13.399999999999999,3.691,-100,-400,-650,,,,,,,,,,,,,,,,,,,,,,,,,,,,,,,,,,,,,,,,,,,,,,,,,,,,,,,,,,,,,,,,,,,,,,,,,,,,,,,,,,,f,24,wjr,2022_Apr_10_1456,experiment3,2021.1.4,30.143252796678798,
50,0,-200,-150,one,0,-200,-150,,,,,0,13,13,49,,,,,,,,,,,l,2.0023502000258304,186.42181999998866,None,186.42181999998866,None,188.46979350000038,None,188.46979350000038,None,188.46979350000038,None,190.47143340000184,None,190.47143340000184,None,190.47143340000184,None,188.46979350000038,None,190.9602735666597,None,190.9602735666597,None,190.9602735666597,None,0.0028568666602950543,None,190.9602735666597,None,190.9602735666597,None,190.9602735666597,None,190.9602735666597,None,190.9602735666597,None,190.9602735666597,None,190.99412829999346,None,190.99412829999346,None,190.99412829999346,None,0.004520033340668306,0.5045200333406683,190.99412829999346,None,190.99412829999346,None,190.99412829999346,None,190.99412829999346,None,190.99412829999346,None,190.99412829999346,None,192.9868959999876,192.9868959999876,25.099999999999994,2.375,-100,-600,-800,,,,,,,,,,,,,,,,,,,,,,,,,,,,,,,,,,,,,,,,,,,,,,,,,,,,,,,,,,,,,,,,,,,,,,,,,,,,,,,,,,,f,24,wjr,2022_Apr_10_1456,experiment3,2021.1.4,30.143252796678798,
51,-150,0,-200,one,-150,0,-200,,,,,0,14,14,50,,,,,,,,,,,l,1.3141650999896228,195.4171402999782,None,195.4171402999782,None,196.75735079997685,None,196.75735079997685,None,196.75735079997685,None,198.76936609999393,None,198.76936609999393,None,198.76936609999393,None,196.75735079997685,None,199.30546513331552,None,199.30546513331552,None,199.30546513331552,None,0.010350033320719376,None,199.30546513331552,None,199.30546513331552,None,199.30546513331552,None,199.30546513331552,None,199.30546513331552,None,199.30546513331552,None,199.3219530999777,None,199.3219530999777,None,199.3219530999777,None,0.00010813333210535347,0.5001081333321054,199.3219530999777,None,199.3219530999777,None,199.3219530999777,None,199.3219530999777,None,199.3219530999777,None,199.3219530999777,None,201.33554249998997,201.33554249998997,-13.799999999999997,3.98,-250,-600,-1000,,,,,,,,,,,,,,,,,,,,,,,,,,,,,,,,,,,,,,,,,,,,,,,,,,,,,,,,,,,,,,,,,,,,,,,,,,,,,,,,,,,f,24,wjr,2022_Apr_10_1456,experiment3,2021.1.4,30.143252796678798,
22,0,0,200,two,0,0,200,,,,,0,15,15,21,,,,,,,,,,,l,0.8994600000150967,205.36746649999986,None,205.36746649999986,None,206.301349699992,None,206.301349699992,None,206.301349699992,None,208.32899599999655,None,208.32899599999655,None,208.32899599999655,None,206.301349699992,None,208.80710456666228,None,208.80710456666228,None,208.80710456666228,None,0.0037672666658181697,None,208.80710456666228,None,208.80710456666228,None,208.80710456666228,None,208.80710456666228,None,208.80710456666228,None,208.80710456666228,None,208.84861319998163,None,208.84861319998163,None,208.84861319998163,None,0.014880900009302422,0.5148809000093024,208.84861319998163,None,208.84861319998163,None,208.84861319998163,None,208.84861319998163,None,208.84861319998163,None,208.84861319998163,None,210.8508889999939,210.8508889999939,13.399999999999999,2.278,-250,-600,-800,,,,,,,,,,,,,,,,,,,,,,,,,,,,,,,,,,,,,,,,,,,,,,,,,,,,,,,,,,,,,,,,,,,,,,,,,,,,,,,,,,,f,24,wjr,2022_Apr_10_1456,experiment3,2021.1.4,30.143252796678798,
55,0,-150,-200,two,0,-150,-200,,,,,0,16,16,54,,,,,,,,,,,l,0.8127269000106025,213.1962635999953,None,213.1962635999953,None,214.0838435999758,None,214.0838435999758,None,214.0838435999758,None,216.10547819998465,None,216.10547819998465,None,216.10547819998465,None,214.0838435999758,None,216.58772256665205,None,216.58772256665205,None,216.58772256665205,None,0.006534766667755321,None,216.58772256665205,None,216.58772256665205,None,216.58772256665205,None,216.58772256665205,None,216.58772256665205,None,216.58772256665205,None,216.60636869998416,None,216.60636869998416,None,216.60636869998416,None,0.012300233327550814,0.5123002333275508,216.60636869998416,None,216.60636869998416,None,216.60636869998416,None,216.60636869998416,None,216.60636869998416,None,216.60636869998416,None,218.59872339997673,218.59872339997673,4.600000000000001,2.278,-250,-750,-1000,,,,,,,,,,,,,,,,,,,,,,,,,,,,,,,,,,,,,,,,,,,,,,,,,,,,,,,,,,,,,,,,,,,,,,,,,,,,,,,,,,,f,24,wjr,2022_Apr_10_1456,experiment3,2021.1.4,30.143252796678798,
18,200,0,0,one,200,0,0,,,,,0,17,17,17,,,,,,,,,,,l,1.7311028999974951,220.94856499999878,None,220.94856499999878,None,222.71485029999167,None,222.71485029999167,None,222.71485029999167,None,224.71184959998936,None,224.71184959998936,None,224.71184959998936,None,222.71485029999167,None,225.20647276664775,None,225.20647276664775,None,225.20647276664775,None,0.008316766645293683,None,225.20647276664775,None,225.20647276664775,None,225.20647276664775,None,225.20647276664775,None,225.20647276664775,None,225.20647276664775,None,225.21892519999528,None,225.21892519999528,None,225.21892519999528,None,0.00044826665543951094,0.5004482666554395,225.21892519999528,None,225.21892519999528,None,225.21892519999528,None,225.21892519999528,None,225.21892519999528,None,225.21892519999528,None,227.23165539998445,227.23165539998445,28.400000000000006,2.232,-50,-750,-1000,,,,,,,,,,,,,,,,,,,,,,,,,,,,,,,,,,,,,,,,,,,,,,,,,,,,,,,,,,,,,,,,,,,,,,,,,,,,,,,,,,,f,24,wjr,2022_Apr_10_1456,experiment3,2021.1.4,30.143252796678798,
54,-200,0,-150,one,-200,0,-150,,,,,0,18,18,53,,,,,,,,,,,l,1.4782697999908123,229.5301997999777,None,229.5301997999777,None,231.04588549997425,None,231.04588549997425,None,231.04588549997425,None,233.0520608999941,None,233.0520608999941,None,233.0520608999941,None,231.04588549997425,None,233.57115366665337,None,233.57115366665337,None,233.57115366665337,None,0.0058364666474517435,None,233.57115366665337,None,233.57115366665337,None,233.57115366665337,None,233.57115366665337,None,233.57115366665337,None,233.57115366665337,None,233.59418019998702,None,233.59418019998702,None,233.59418019998702,None,0.014127033326076344,0.5141270333260763,233.59418019998702,None,233.59418019998702,None,233.59418019998702,None,233.59418019998702,None,233.59418019998702,None,233.59418019998702,None,235.57870049998746,235.57870049998746,-37.6,4.722,-250,-750,-1150,,,,,,,,,,,,,,,,,,,,,,,,,,,,,,,,,,,,,,,,,,,,,,,,,,,,,,,,,,,,,,,,,,,,,,,,,,,,,,,,,,,f,24,wjr,2022_Apr_10_1456,experiment3,2021.1.4,30.143252796678798,
9,50,0,200,two,50,0,200,,,,,0,19,19,8,,,,,,,,,,,l,1.039473499986343,240.361931499996,None,240.361931499996,None,241.44420559998252,None,241.44420559998252,None,241.44420559998252,None,243.46102199997404,None,243.46102199997404,None,243.46102199997404,None,241.44420559998252,None,243.9433479666516,None,243.9433479666516,None,243.9433479666516,None,0.010476066643605009,None,243.9433479666516,None,243.9433479666516,None,243.9433479666516,None,243.9433479666516,None,243.9433479666516,None,243.9433479666516,None,243.97174339997582,None,243.97174339997582,None,243.97174339997582,None,0.011388533312128857,0.5113885333121289,243.97174339997582,None,243.97174339997582,None,243.97174339997582,None,243.97174339997582,None,243.97174339997582,None,243.97174339997582,None,245.96606819998124,245.96606819998124,5.100000000000001,2.085,-200,-750,-950,,,,,,,,,,,,,,,,,,,,,,,,,,,,,,,,,,,,,,,,,,,,,,,,,,,,,,,,,,,,,,,,,,,,,,,,,,,,,,,,,,,f,24,wjr,2022_Apr_10_1456,experiment3,2021.1.4,30.143252796678798,
24,200,0,0,two,200,0,0,,,,,0,20,20,23,,,,,,,,,,,l,0.6568918999982998,248.12566679998417,None,248.12566679998417,None,248.83246789997793,None,248.83246789997793,None,248.83246789997793,None,250.8064017999859,None,250.8064017999859,None,250.8064017999859,None,248.83246789997793,None,251.3255216666478,None,251.3255216666478,None,251.3255216666478,None,0.011162966664414853,None,251.3255216666478,None,251.3255216666478,None,251.3255216666478,None,251.3255216666478,None,251.3255216666478,None,251.3255216666478,None,251.3414286999905,None,251.3414286999905,None,251.3414286999905,None,0.0037539666518568993,0.5037539666518569,251.3414286999905,None,251.3414286999905,None,251.3414286999905,None,251.3414286999905,None,251.3414286999905,None,251.3414286999905,None,253.34158899998874,253.34158899998874,34.599999999999994,2.593,0,-750,-950,,,,,,,,,,,,,,,,,,,,,,,,,,,,,,,,,,,,,,,,,,,,,,,,,,,,,,,,,,,,,,,,,,,,,,,,,,,,,,,,,,,f,24,wjr,2022_Apr_10_1456,experiment3,2021.1.4,30.143252796678798,
30,50,50,0,one,50,50,0,,,,,0,21,21,29,,,,,,,,,,,l,1.9515021999832243,256.00769899997977,None,256.00769899997977,None,258.0241829000006,None,258.0241829000006,None,258.0241829000006,None,260.0243046999967,None,260.0243046999967,None,260.0243046999967,None,258.0241829000006,None,260.5402398666522,None,260.5402398666522,None,260.5402398666522,None,0.01141676664701663,None,260.5402398666522,None,260.5402398666522,None,260.5402398666522,None,260.5402398666522,None,260.5402398666522,None,260.5402398666522,None,260.55645419997745,None,260.55645419997745,None,260.55645419997745,None,0.0041476666810922325,0.5041476666810922,260.55645419997745,None,260.55645419997745,None,260.55645419997745,None,260.55645419997745,None,260.55645419997745,None,260.55645419997745,None,262.55633926665564,None,7.799999999999997,2.08,50,-700,-950,,,,,,,,,,,,,,,,,,,,,,,,,,,,,,,,,,,,,,,,,,,,,,,,,,,,,,,,,,,,,,,,,,,,,,,,,,,,,,,,,,,f,24,wjr,2022_Apr_10_1456,experiment3,2021.1.4,30.143252796678798,
85,-200,-200,0,one,-200,-200,0,,,,,0,22,22,84,,,,,,,,,,,l,2.0463302000134718,264.6751710999815,None,264.6751710999815,None,266.7571456999867,None,266.7571456999867,None,266.7571456999867,None,268.76236729999073,None,268.76236729999073,None,268.76236729999073,None,266.7571456999867,None,269.29356423332547,None,269.29356423332547,None,269.29356423332547,None,0.008638833329314366,None,269.29356423332547,None,269.29356423332547,None,269.29356423332547,None,269.29356423332547,None,269.29356423332547,None,269.29356423332547,None,269.3110939999751,None,269.3110939999751,None,269.3110939999751,None,0.014945599978091195,0.5149455999780912,269.3110939999751,None,269.3110939999751,None,269.3110939999751,None,269.3110939999751,None,269.3110939999751,None,269.3110939999751,None,271.293972399988,271.293972399988,35.400000000000006,2.062,-150,-900,-950,,,,,,,,,,,,,,,,,,,,,,,,,,,,,,,,,,,,,,,,,,,,,,,,,,,,,,,,,,,,,,,,,,,,,,,,,,,,,,,,,,,f,24,wjr,2022_Apr_10_1456,experiment3,2021.1.4,30.143252796678798,
52,-150,-200,0,one,-150,-200,0,,,,,0,23,23,51,,,,,,,,,,,l,0.7358585000038147,273.41064119999646,None,273.41064119999646,None,274.1795917999989,None,274.1795917999989,None,274.1795917999989,None,276.1995764999883,None,276.1995764999883,None,276.1995764999883,None,274.1795917999989,None,276.7060945333292,None,276.7060945333292,None,276.7060945333292,None,0.008122233324684203,None,276.7060945333292,None,276.7060945333292,None,276.7060945333292,None,276.7060945333292,None,276.7060945333292,None,276.7060945333292,None,276.7216081999941,None,276.7216081999941,None,276.7216081999941,None,0.014358899992657825,0.5143588999926578,276.7216081999941,None,276.7216081999941,None,276.7216081999941,None,276.7216081999941,None,276.7216081999941,None,276.7216081999941,None,278.7369464999938,278.7369464999938,13.799999999999997,2.086,-300,-1100,-950,,,,,,,,,,,,,,,,,,,,,,,,,,,,,,,,,,,,,,,,,,,,,,,,,,,,,,,,,,,,,,,,,,,,,,,,,,,,,,,,,,,f,24,wjr,2022_Apr_10_1456,experiment3,2021.1.4,30.143252796678798,
53,-200,-150,0,one,-200,-150,0,,,,,0,24,24,52,,,,,,,,,,,l,2.305958900018595,280.88727559999097,None,280.88727559999097,None,283.2364395999757,None,283.2364395999757,None,283.2364395999757,None,285.2190857999958,None,285.2190857999958,None,285.2190857999958,None,283.2364395999757,None,285.75178216665904,None,285.75178216665904,None,285.75178216665904,None,0.009648066654335707,None,285.75178216665904,None,285.75178216665904,None,285.75178216665904,None,285.75178216665904,None,285.75178216665904,None,285.75178216665904,None,285.76818009998533,None,285.76818009998533,None,285.76818009998533,None,0.002637466648593545,0.5026374666485935,285.76818009998533,None,285.76818009998533,None,285.76818009998533,None,285.76818009998533,None,285.76818009998533,None,285.76818009998533,None,287.7687798666632,None,-10.5,2.586,-500,-1250,-950,,,,,,,,,,,,,,,,,,,,,,,,,,,,,,,,,,,,,,,,,,,,,,,,,,,,,,,,,,,,,,,,,,,,,,,,,,,,,,,,,,,f,24,wjr,2022_Apr_10_1456,experiment3,2021.1.4,30.143252796678798,
20,0,50,0,two,0,50,0,,,,,0,25,25,19,,,,,,,,,,,l,2.0783510000037495,290.40175759998965,None,290.40175759998965,None,292.5342301999917,None,292.5342301999917,None,292.5342301999917,None,294.5157248999749,None,294.5157248999749,None,294.5157248999749,None,292.5342301999917,None,295.03415866665114,None,295.03415866665114,None,295.03415866665114,None,0.011178966698935255,None,295.03415866665114,None,295.03415866665114,None,295.03415866665114,None,295.03415866665114,None,295.03415866665114,None,295.03415866665114,None,295.04937359999167,None,295.04937359999167,None,295.04937359999167,None,0.004137366660870612,0.5041373666608706,295.04937359999167,None,295.04937359999167,None,295.04937359999167,None,295.04937359999167,None,295.04937359999167,None,295.04937359999167,None,297.0500998666432,None,-7.100000000000001,1.523,-500,-1200,-950,,,,,,,,,,,,,,,,,,,,,,,,,,,,,,,,,,,,,,,,,,,,,,,,,,,,,,,,,,,,,,,,,,,,,,,,,,,,,,,,,,,f,24,wjr,2022_Apr_10_1456,experiment3,2021.1.4,30.143252796678798,
26,50,200,50,one,50,200,50,,,,,0,26,26,25,,,,,,,,,,,l,1.0271762000047602,298.64934629999334,None,298.64934629999334,None,299.71617239998886,None,299.71617239998886,None,299.71617239998886,None,301.70332979998784,None,301.70332979998784,None,301.70332979998784,None,299.71617239998886,None,302.21556326665836,None,302.21556326665836,None,302.21556326665836,None,0.006006866664392874,None,302.21556326665836,None,302.21556326665836,None,302.21556326665836,None,302.21556326665836,None,302.21556326665836,None,302.21556326665836,None,302.24022099998547,None,302.24022099998547,None,302.24022099998547,None,0.009022433310747147,0.5090224333107471,302.24022099998547,None,302.24022099998547,None,302.24022099998547,None,302.24022099998547,None,302.24022099998547,None,302.24022099998547,None,304.2402399999846,304.2402399999846,-6.700000000000003,2.142,-450,-1000,-900,,,,,,,,,,,,,,,,,,,,,,,,,,,,,,,,,,,,,,,,,,,,,,,,,,,,,,,,,,,,,,,,,,,,,,,,,,,,,,,,,,,f,24,wjr,2022_Apr_10_1456,experiment3,2021.1.4,30.143252796678798,
41,200,50,200,one,200,50,200,,,,,0,27,27,40,,,,,,,,,,,g,1.8808728999865707,306.4554351999832,None,306.4554351999832,None,308.37348189999466,None,308.37348189999466,None,308.37348189999466,None,310.40115039999364,None,310.40115039999364,None,310.40115039999364,None,308.37348189999466,None,310.90300586665785,None,310.90300586665785,None,310.90300586665785,None,0.0015374666545540094,None,310.90300586665785,None,310.90300586665785,None,310.90300586665785,None,310.90300586665785,None,310.90300586665785,None,310.90300586665785,None,310.93502699999954,None,310.93502699999954,None,310.93502699999954,None,0.005054433335317299,0.5050544333353173,310.93502699999954,None,310.93502699999954,None,310.93502699999954,None,310.93502699999954,None,310.93502699999954,None,310.93502699999954,None,312.93000529997516,312.93000529997516,10.299999999999997,3.154,-250,-950,-700,,,,,,,,,,,,,,,,,,,,,,,,,,,,,,,,,,,,,,,,,,,,,,,,,,,,,,,,,,,,,,,,,,,,,,,,,,,,,,,,,,,f,24,wjr,2022_Apr_10_1456,experiment3,2021.1.4,30.143252796678798,
6,200,0,50,one,200,0,50,,,,,0,28,28,5,,,,,,,,,,,g,2.003193699987605,316.1669448999746,None,316.1669448999746,None,318.22918769999524,None,318.22918769999524,None,318.22918769999524,None,320.2316529999953,None,320.2316529999953,None,320.2316529999953,None,318.22918769999524,None,320.7295672666553,None,320.7295672666553,None,320.7295672666553,None,0.0024648666731081903,None,320.7295672666553,None,320.7295672666553,None,320.7295672666553,None,320.7295672666553,None,320.7295672666553,None,320.7295672666553,None,320.7695601999876,None,320.7695601999876,None,320.7695601999876,None,0.0008176332921721041,0.5008176332921721,320.7695601999876,None,320.7695601999876,None,320.7695601999876,None,320.7695601999876,None,320.7695601999876,None,320.7695601999876,None,322.7617476999876,322.7617476999876,34.0,2.86,-50,-950,-650,,,,,,,,,,,,,,,,,,,,,,,,,,,,,,,,,,,,,,,,,,,,,,,,,,,,,,,,,,,,,,,,,,,,,,,,,,,,,,,,,,,f,24,wjr,2022_Apr_10_1456,experiment3,2021.1.4,30.143252796678798,
91,-200,-200,0,two,-200,-200,0,,,,,0,29,29,90,,,,,,,,,,,g,3.676827100018272,325.6924913999974,None,325.6924913999974,None,329.4268073999847,None,329.4268073999847,None,329.4268073999847,None,331.4267379999801,None,331.4267379999801,None,331.4267379999801,None,329.4268073999847,None,331.92725676665236,None,331.92725676665236,None,331.92725676665236,None,0.010916866653133184,None,331.92725676665236,None,331.92725676665236,None,331.92725676665236,None,331.92725676665236,None,331.92725676665236,None,331.92725676665236,None,331.94196809999994,None,331.94196809999994,None,331.94196809999994,None,0.003575666662072763,0.5035756666620728,331.94196809999994,None,331.94196809999994,None,331.94196809999994,None,331.94196809999994,None,331.94196809999994,None,331.94196809999994,None,333.943615966655,None,10.299999999999997,1.822,-250,-1150,-650,,,,,,,,,,,,,,,,,,,,,,,,,,,,,,,,,,,,,,,,,,,,,,,,,,,,,,,,,,,,,,,,,,,,,,,,,,,,,,,,,,,f,24,wjr,2022_Apr_10_1456,experiment3,2021.1.4,30.143252796678798,
94,-200,-200,-150,two,-200,-200,-150,,,,,0,30,30,93,,,,,,,,,,,a,0.9336736999975983,335.81305529997917,None,335.81305529997917,None,336.7976153999916,None,336.7976153999916,None,336.7976153999916,None,338.79179239997757,339.2965509999776,338.79179239997757,339.2965509999776,338.79179239997757,339.2965509999776,336.7976153999916,None,339.3132176666443,None,339.3132176666443,None,339.3132176666443,None,0.00953636661870405,None,339.3132176666443,None,339.3132176666443,None,339.3132176666443,None,339.3132176666443,None,339.3132176666443,None,339.3132176666443,None,339.32794219997595,None,339.32794219997595,None,339.32794219997595,None,0.016441533312899992,0.5164415333129,339.32794219997595,None,339.32794219997595,None,339.32794219997595,None,339.32794219997595,None,339.32794219997595,None,339.32794219997595,None,341.3484841999889,341.3484841999889,0.10000000000000142,2.023,-450,-1350,-800,,,,,,,,,,,,,,,,,,,,,,,,,,,,,,,,,,,,,,,,,,,,,,,,,,,,,,,,,,,,,,,,,,,,,,,,,,,,,,,,,,,f,24,wjr,2022_Apr_10_1456,experiment3,2021.1.4,30.143252796678798,
49,0,-150,-200,one,0,-150,-200,,,,,0,31,31,48,,,,,,,,,,,g,1.7367812000156846,343.4464052999974,None,343.4464052999974,None,345.2406452999858,None,345.2406452999858,None,345.2406452999858,None,347.240270099981,None,347.240270099981,None,347.240270099981,None,345.2406452999858,None,347.7562965666623,None,347.7562965666623,None,347.7562965666623,None,0.009969966660719365,None,347.7562965666623,None,347.7562965666623,None,347.7562965666623,None,347.7562965666623,None,347.7562965666623,None,347.7562965666623,None,347.77338169998256,None,347.77338169998256,None,347.77338169998256,None,0.0033438666723668575,0.5033438666723669,347.77338169998256,None,347.77338169998256,None,347.77338169998256,None,347.77338169998256,None,347.77338169998256,None,347.77338169998256,None,349.77339749998646,349.77339749998646,11.5,1.883,-450,-1500,-1000,,,,,,,,,,,,,,,,,,,,,,,,,,,,,,,,,,,,,,,,,,,,,,,,,,,,,,,,,,,,,,,,,,,,,,,,,,,,,,,,,,,f,24,wjr,2022_Apr_10_1456,experiment3,2021.1.4,30.143252796678798,
10,50,200,0,two,50,200,0,,,,,0,32,32,9,,,,,,,,,,,g,0.8857760000100825,351.7230823999853,None,351.7230823999853,None,352.65594849997433,None,352.65594849997433,None,352.65594849997433,None,354.63885669998126,None,354.63885669998126,None,354.63885669998126,None,352.65594849997433,None,355.161813066665,None,355.161813066665,None,355.161813066665,None,0.008574566687457263,None,355.161813066665,None,355.161813066665,None,355.161813066665,None,355.161813066665,None,355.161813066665,None,355.161813066665,None,355.1779705999943,None,355.1779705999943,None,355.1779705999943,None,0.014812433335464448,0.5148124333354644,355.1779705999943,None,355.1779705999943,None,355.1779705999943,None,355.1779705999943,None,355.1779705999943,None,355.1779705999943,None,357.1713091999991,357.1713091999991,-10.899999999999999,1.636,-400,-1300,-1000,,,,,,,,,,,,,,,,,,,,,,,,,,,,,,,,,,,,,,,,,,,,,,,,,,,,,,,,,,,,,,,,,,,,,,,,,,,,,,,,,,,f,24,wjr,2022_Apr_10_1456,experiment3,2021.1.4,30.143252796678798,
79,-200,-150,-150,two,-200,-150,-150,,,,,0,33,33,78,,,,,,,,,,,l,1.4339259999978822,358.8718470999738,None,358.8718470999738,None,360.35799949997454,None,360.35799949997454,None,360.35799949997454,None,362.35743489998276,None,362.35743489998276,None,362.35743489998276,None,360.35799949997454,None,362.8916796333292,None,362.8916796333292,None,362.8916796333292,None,0.007612233341205865,None,362.8916796333292,None,362.8916796333292,None,362.8916796333292,None,362.8916796333292,None,362.8916796333292,None,362.8916796333292,None,362.9116180999845,None,362.9116180999845,None,362.9116180999845,None,0.012305799988098443,0.5123057999880984,362.9116180999845,None,362.9116180999845,None,362.9116180999845,None,362.9116180999845,None,362.9116180999845,None,362.9116180999845,None,364.9197099999874,364.9197099999874,-14.399999999999999,1.751,-600,-1450,-1150,,,,,,,,,,,,,,,,,,,,,,,,,,,,,,,,,,,,,,,,,,,,,,,,,,,,,,,,,,,,,,,,,,,,,,,,,,,,,,,,,,,f,24,wjr,2022_Apr_10_1456,experiment3,2021.1.4,30.143252796678798,
69,-150,0,0,two,-150,0,0,,,,,0,34,34,68,,,,,,,,,,,g,2.217977799999062,366.73668939998606,None,366.73668939998606,None,368.98205689998576,None,368.98205689998576,None,368.98205689998576,None,370.9736668999831,None,370.9736668999831,None,370.9736668999831,None,368.98205689998576,None,371.50211696664724,None,371.50211696664724,None,371.50211696664724,None,0.011015866650268435,None,371.50211696664724,None,371.50211696664724,None,371.50211696664724,None,371.50211696664724,None,371.50211696664724,None,371.50211696664724,None,371.5175201999955,None,371.5175201999955,None,371.5175201999955,None,0.003827366657787934,0.5038273666577879,371.5175201999955,None,371.5175201999955,None,371.5175201999955,None,371.5175201999955,None,371.5175201999955,None,371.5175201999955,None,373.5180592999968,373.5180592999968,-27.4,1.922,-750,-1450,-1150,,,,,,,,,,,,,,,,,,,,,,,,,,,,,,,,,,,,,,,,,,,,,,,,,,,,,,,,,,,,,,,,,,,,,,,,,,,,,,,,,,,f,24,wjr,2022_Apr_10_1456,experiment3,2021.1.4,30.143252796678798,
95,-200,-150,-200,two,-200,-150,-200,,,,,0,35,35,94,,,,,,,,,,,g,1.635639899992384,375.4990946999751,None,375.4990946999751,None,377.1974042999791,None,377.1974042999791,None,377.1974042999791,None,379.1841241999937,None,379.1841241999937,None,379.1841241999937,None,377.1974042999791,None,379.6851552666669,None,379.6851552666669,None,379.6851552666669,None,0.00962986669037491,None,379.6851552666669,None,379.6851552666669,None,379.6851552666669,None,379.6851552666669,None,379.6851552666669,None,379.6851552666669,None,379.69967789997463,None,379.69967789997463,None,379.69967789997463,None,0.002436466660583392,0.5024364666605834,379.69967789997463,None,379.69967789997463,None,379.69967789997463,None,379.69967789997463,None,379.69967789997463,None,379.69967789997463,None,381.70064956666124,None,-27.2,2.969,-950,-1600,-1350,,,,,,,,,,,,,,,,,,,,,,,,,,,,,,,,,,,,,,,,,,,,,,,,,,,,,,,,,,,,,,,,,,,,,,,,,,,,,,,,,,,f,24,wjr,2022_Apr_10_1456,experiment3,2021.1.4,30.143252796678798,
45,0,200,200,two,0,200,200,,,,,0,36,36,44,,,,,,,,,,,g,1.0255127999989782,384.7164504999819,None,384.7164504999819,None,385.7895679999783,None,385.7895679999783,None,385.7895679999783,None,387.7919151999813,None,387.7919151999813,None,387.7919151999813,None,385.7895679999783,None,388.3218213666444,None,388.3218213666444,None,388.3218213666444,None,0.002406066661933437,None,388.3218213666444,None,388.3218213666444,None,388.3218213666444,None,388.3218213666444,None,388.3218213666444,None,388.3218213666444,None,388.355644700001,None,388.355644700001,None,388.355644700001,None,0.005992333317408338,0.5059923333174083,388.355644700001,None,388.355644700001,None,388.355644700001,None,388.355644700001,None,388.355644700001,None,388.355644700001,None,390.3532622999919,390.3532622999919,-30.0,1.637,-950,-1400,-1150,,,,,,,,,,,,,,,,,,,,,,,,,,,,,,,,,,,,,,,,,,,,,,,,,,,,,,,,,,,,,,,,,,,,,,,,,,,,,,,,,,,f,24,wjr,2022_Apr_10_1456,experiment3,2021.1.4,30.143252796678798,
96,-150,-200,-200,two,-150,-200,-200,,,,,0,37,37,95,,,,,,,,,,,a,1.5254763000120874,392.0821001000004,None,392.0821001000004,None,393.65064559999155,None,393.65064559999155,None,393.65064559999155,None,395.68263219998335,None,395.68263219998335,None,395.68263219998335,None,393.65064559999155,None,396.1608899666501,None,396.1608899666501,None,396.1608899666501,None,0.00759126665070653,None,396.1608899666501,None,396.1608899666501,None,396.1608899666501,None,396.1608899666501,None,396.1608899666501,None,396.1608899666501,None,396.1792194999871,None,396.1792194999871,None,396.1792194999871,None,0.000682966667227447,0.5006829666672274,396.1792194999871,None,396.1792194999871,None,396.1792194999871,None,396.1792194999871,None,396.1792194999871,None,396.1792194999871,None,398.1802426999784,398.1802426999784,4.399999999999999,3.036,-1100,-1600,-1350,,,,,,,,,,,,,,,,,,,,,,,,,,,,,,,,,,,,,,,,,,,,,,,,,,,,,,,,,,,,,,,,,,,,,,,,,,,,,,,,,,,f,24,wjr,2022_Apr_10_1456,experiment3,2021.1.4,30.143252796678798,
59,-200,-150,0,two,-200,-150,0,,,,,0,38,38,58,,,,,,,,,,,a,1.8462176999892108,401.27946719998727,None,401.27946719998727,None,403.1628523999825,None,403.1628523999825,None,403.1628523999825,None,405.1465758999984,None,405.1465758999984,None,405.1465758999984,None,403.1628523999825,None,405.6621824666547,None,405.6621824666547,None,405.6621824666547,None,0.010758266667835414,None,405.6621824666547,None,405.6621824666547,None,405.6621824666547,None,405.6621824666547,None,405.6621824666547,None,405.6621824666547,None,405.6782714999863,None,405.6782714999863,None,405.6782714999863,None,0.003999666660092771,0.5039996666600928,405.6782714999863,None,405.6782714999863,None,405.6782714999863,None,405.6782714999863,None,405.6782714999863,None,405.6782714999863,None,407.67823699998553,407.67823699998553,-4.600000000000001,2.106,-1300,-1750,-1350,,,,,,,,,,,,,,,,,,,,,,,,,,,,,,,,,,,,,,,,,,,,,,,,,,,,,,,,,,,,,,,,,,,,,,,,,,,,,,,,,,,f,24,wjr,2022_Apr_10_1456,experiment3,2021.1.4,30.143252796678798,
83,-150,0,-150,two,-150,0,-150,,,,,0,39,39,82,,,,,,,,,,,l,1.886036099982448,409.8436356999737,None,409.8436356999737,None,411.7777001999784,None,411.7777001999784,None,411.7777001999784,None,413.7596028999833,None,413.7596028999833,None,413.7596028999833,None,411.7777001999784,None,414.26679606666244,None,414.26679606666244,None,414.26679606666244,None,0.008686466666404158,None,414.26679606666244,None,414.26679606666244,None,414.26679606666244,None,414.26679606666244,None,414.26679606666244,None,414.26679606666244,None,414.2787498999969,None,414.2787498999969,None,414.2787498999969,None,0.0011263666965533048,0.5011263666965533,414.2787498999969,None,414.2787498999969,None,414.2787498999969,None,414.2787498999969,None,414.2787498999969,None,414.2787498999969,None,416.29380106664416,None,-14.799999999999997,1.523,-1450,-1750,-1500,,,,,,,,,,,,,,,,,,,,,,,,,,,,,,,,,,,,,,,,,,,,,,,,,,,,,,,,,,,,,,,,,,,,,,,,,,,,,,,,,,,f,24,wjr,2022_Apr_10_1456,experiment3,2021.1.4,30.143252796678798,
42,50,200,200,one,50,200,200,,,,,0,40,40,41,,,,,,,,,,,g,1.2863050000160001,417.86024829998496,None,417.86024829998496,None,419.2168055999791,None,419.2168055999791,None,419.2168055999791,None,421.21553989997483,None,421.21553989997483,None,421.21553989997483,None,419.2168055999791,None,421.7105792666591,None,421.7105792666591,None,421.7105792666591,None,0.00911576664657332,None,421.7105792666591,None,421.7105792666591,None,421.7105792666591,None,421.7105792666591,None,421.7105792666591,None,421.7105792666591,None,421.7270087999932,None,421.7270087999932,None,421.7270087999932,None,0.015549733332591131,0.5155497333325911,421.7270087999932,None,421.7270087999932,None,421.7270087999932,None,421.7270087999932,None,421.7270087999932,None,421.7270087999932,None,423.7418619999953,423.7418619999953,-13.0,2.775,-1400,-1550,-1300,,,,,,,,,,,,,,,,,,,,,,,,,,,,,,,,,,,,,,,,,,,,,,,,,,,,,,,,,,,,,,,,,,,,,,,,,,,,,,,,,,,f,24,wjr,2022_Apr_10_1456,experiment3,2021.1.4,30.143252796678798,
64,0,0,-200,one,0,0,-200,,,,,0,41,41,63,,,,,,,,,,,l,1.5770742000022437,426.57427969999844,None,426.57427969999844,None,428.2030783999944,None,428.2030783999944,None,428.2030783999944,None,430.19109929999104,None,430.19109929999104,None,430.19109929999104,None,428.2030783999944,None,430.71027366666044,None,430.71027366666044,None,430.71027366666044,None,0.005627066653687507,None,430.71027366666044,None,430.71027366666044,None,430.71027366666044,None,430.71027366666044,None,430.71027366666044,None,430.71027366666044,None,430.75864049998927,None,430.75864049998927,None,430.75864049998927,None,0.0015885333414189517,0.501588533341419,430.75864049998927,None,430.75864049998927,None,430.75864049998927,None,430.75864049998927,None,430.75864049998927,None,430.75864049998927,None,432.7401267999958,432.7401267999958,-0.7000000000000028,2.905,-1400,-1550,-1500,,,,,,,,,,,,,,,,,,,,,,,,,,,,,,,,,,,,,,,,,,,,,,,,,,,,,,,,,,,,,,,,,,,,,,,,,,,,,,,,,,,f,24,wjr,2022_Apr_10_1456,experiment3,2021.1.4,30.143252796678798,
32,50,200,50,two,50,200,50,,,,,0,42,42,31,,,,,,,,,,,a,1.5300475000112783,435.7408242999809,None,435.7408242999809,None,437.30599959997926,None,437.30599959997926,None,437.30599959997926,None,439.2858723999816,439.7900378999766,439.2858723999816,439.7900378999766,439.2858723999816,439.7900378999766,437.30599959997926,None,439.8233712333099,None,439.8233712333099,None,439.8233712333099,None,0.013529633288271725,None,439.8233712333099,None,439.8233712333099,None,439.8233712333099,None,439.8233712333099,None,439.8233712333099,None,439.8233712333099,None,439.85697860000073,None,439.85697860000073,None,439.85697860000073,None,0.0073373999912291765,0.5073373999912292,439.85697860000073,None,439.85697860000073,None,439.85697860000073,None,439.85697860000073,None,439.85697860000073,None,439.85697860000073,None,441.87189539999235,441.87189539999235,-13.799999999999997,1.737,-1350,-1350,-1450,,,,,,,,,,,,,,,,,,,,,,,,,,,,,,,,,,,,,,,,,,,,,,,,,,,,,,,,,,,,,,,,,,,,,,,,,,,,,,,,,,,f,24,wjr,2022_Apr_10_1456,experiment3,2021.1.4,30.143252796678798,
37,200,200,0,one,200,200,0,,,,,0,43,43,36,,,,,,,,,,,g,1.9386149999918416,443.686065899994,None,443.686065899994,None,445.6453502999793,None,445.6453502999793,None,445.6453502999793,None,447.6271587999945,None,447.6271587999945,None,447.6271587999945,None,445.6453502999793,None,448.1478475666411,None,448.1478475666411,None,448.1478475666411,None,0.002497866633348167,None,448.1478475666411,None,448.1478475666411,None,448.1478475666411,None,448.1478475666411,None,448.1478475666411,None,448.1478475666411,None,448.1711427999835,None,448.1711427999835,None,448.1711427999835,None,0.007314133312320337,0.5073141333123203,448.1711427999835,None,448.1711427999835,None,448.1711427999835,None,448.1711427999835,None,448.1711427999835,None,448.1711427999835,None,450.17492140000104,450.17492140000104,8.700000000000003,1.39,-1150,-1150,-1450,,,,,,,,,,,,,,,,,,,,,,,,,,,,,,,,,,,,,,,,,,,,,,,,,,,,,,,,,,,,,,,,,,,,,,,,,,,,,,,,,,,f,24,wjr,2022_Apr_10_1456,experiment3,2021.1.4,30.143252796678798,
81,-150,-150,-200,two,-150,-150,-200,,,,,0,44,44,80,,,,,,,,,,,a,0.5195961999997962,451.6316088999738,None,451.6316088999738,None,452.19943359997706,None,452.19943359997706,None,452.19943359997706,None,454.2172922999889,None,454.2172922999889,None,454.2172922999889,None,452.19943359997706,None,454.71904626666606,None,454.71904626666606,None,454.71904626666606,None,0.010465066676260903,None,454.71904626666606,None,454.71904626666606,None,454.71904626666606,None,454.71904626666606,None,454.71904626666606,None,454.71904626666606,None,454.73479679998127,None,454.73479679998127,None,454.73479679998127,None,0.003671966667752713,0.5036719666677527,454.73479679998127,None,454.73479679998127,None,454.73479679998127,None,454.73479679998127,None,454.73479679998127,None,454.73479679998127,None,456.73500266665746,None,-8.0,4.223,-1300,-1300,-1650,,,,,,,,,,,,,,,,,,,,,,,,,,,,,,,,,,,,,,,,,,,,,,,,,,,,,,,,,,,,,,,,,,,,,,,,,,,,,,,,,,,f,24,wjr,2022_Apr_10_1456,experiment3,2021.1.4,30.143252796678798,
90,-150,-200,-200,one,-150,-200,-200,,,,,0,45,45,89,,,,,,,,,,,a,0.5548150000104215,461.0016632999759,None,461.0016632999759,None,461.59175120000145,None,461.59175120000145,None,461.59175120000145,None,463.58427219997975,None,463.58427219997975,None,463.58427219997975,None,461.59175120000145,None,464.10099956664294,None,464.10099956664294,None,464.10099956664294,None,0.010933166660834104,None,464.10099956664294,None,464.10099956664294,None,464.10099956664294,None,464.10099956664294,None,464.10099956664294,None,464.10099956664294,None,464.1160937999957,None,464.1160937999957,None,464.1160937999957,None,0.0037103666400071234,0.5037103666400071,464.1160937999957,None,464.1160937999957,None,464.1160937999957,None,464.1160937999957,None,464.1160937999957,None,464.1160937999957,None,466.11779496664917,None,2.700000000000003,2.304,-1450,-1500,-1850,,,,,,,,,,,,,,,,,,,,,,,,,,,,,,,,,,,,,,,,,,,,,,,,,,,,,,,,,,,,,,,,,,,,,,,,,,,,,,,,,,,f,24,wjr,2022_Apr_10_1456,experiment3,2021.1.4,30.143252796678798,
71,0,-200,0,two,0,-200,0,,,,,0,46,46,70,,,,,,,,,,,g,0.7988852999988012,468.50036079998245,None,468.50036079998245,None,469.34945660000085,None,469.34945660000085,None,469.34945660000085,None,471.3365878999757,None,471.3365878999757,None,471.3365878999757,None,469.34945660000085,None,471.84905516665117,None,471.84905516665117,None,471.84905516665117,None,0.010704966669436544,None,471.84905516665117,None,471.84905516665117,None,471.84905516665117,None,471.84905516665117,None,471.84905516665117,None,471.84905516665117,None,471.86479279998457,None,471.86479279998457,None,471.86479279998457,None,0.0038246666663326323,0.5038246666663326,471.86479279998457,None,471.86479279998457,None,471.86479279998457,None,471.86479279998457,None,471.86479279998457,None,471.86479279998457,None,473.8648793666546,None,5.0,2.138,-1450,-1700,-1850,,,,,,,,,,,,,,,,,,,,,,,,,,,,,,,,,,,,,,,,,,,,,,,,,,,,,,,,,,,,,,,,,,,,,,,,,,,,,,,,,,,f,24,wjr,2022_Apr_10_1456,experiment3,2021.1.4,30.143252796678798,
31,200,50,50,two,200,50,50,,,,,0,47,47,30,,,,,,,,,,,a,1.5928416000097059,476.0460257999948,None,476.0460257999948,None,477.6967667999852,None,477.6967667999852,None,477.6967667999852,None,479.70404260000214,None,479.70404260000214,None,479.70404260000214,None,477.6967667999852,None,480.221130666647,None,480.221130666647,None,480.221130666647,None,0.0006978666642680764,None,480.221130666647,None,480.221130666647,None,480.221130666647,None,480.221130666647,None,480.221130666647,None,480.221130666647,None,480.25825759998406,None,480.25825759998406,None,480.25825759998406,None,0.0005923333228565753,0.5005923333228566,480.25825759998406,None,480.25825759998406,None,480.25825759998406,None,480.25825759998406,None,480.25825759998406,None,480.25825759998406,None,482.26395396664543,None,21.099999999999994,1.3,-1250,-1650,-1800,,,,,,,,,,,,,,,,,,,,,,,,,,,,,,,,,,,,,,,,,,,,,,,,,,,,,,,,,,,,,,,,,,,,,,,,,,,,,,,,,,,f,24,wjr,2022_Apr_10_1456,experiment3,2021.1.4,30.143252796678798,
73,-200,-150,-150,one,-200,-150,-150,,,,,0,48,48,72,,,,,,,,,,,g,1.8802876999834552,483.60239669997827,None,483.60239669997827,None,485.5426341999846,None,485.5426341999846,None,485.5426341999846,None,487.56176839998807,None,487.56176839998807,None,487.56176839998807,None,485.5426341999846,None,488.04638316666046,None,488.04638316666046,None,488.04638316666046,None,0.010535466659348458,None,488.04638316666046,None,488.04638316666046,None,488.04638316666046,None,488.04638316666046,None,488.04638316666046,None,488.04638316666046,None,488.06183699998655,None,488.06183699998655,None,488.06183699998655,None,0.0030884666775818914,0.5030884666775819,488.06183699998655,None,488.06183699998655,None,488.06183699998655,None,488.06183699998655,None,488.06183699998655,None,488.06183699998655,None,490.0621200666685,None,-11.899999999999999,1.906,-1450,-1800,-1950,,,,,,,,,,,,,,,,,,,,,,,,,,,,,,,,,,,,,,,,,,,,,,,,,,,,,,,,,,,,,,,,,,,,,,,,,,,,,,,,,,,f,24,wjr,2022_Apr_10_1456,experiment3,2021.1.4,30.143252796678798,
56,0,-200,-150,two,0,-200,-150,,,,,0,49,49,55,,,,,,,,,,,g,0.4641469999914989,492.01298020000104,None,492.01298020000104,None,492.518737699982,None,492.518737699982,None,492.518737699982,None,494.51458349998575,None,494.51458349998575,None,494.51458349998575,None,492.518737699982,None,495.02788576664557,None,495.02788576664557,None,495.02788576664557,None,0.011031066649593413,None,495.02788576664557,None,495.02788576664557,None,495.02788576664557,None,495.02788576664557,None,495.02788576664557,None,495.02788576664557,None,495.0437415999768,None,495.0437415999768,None,495.0437415999768,None,0.0036491666396614164,0.5036491666396614,495.0437415999768,None,495.0437415999768,None,495.0437415999768,None,495.0437415999768,None,495.0437415999768,None,495.0437415999768,None,497.0443835666558,None,9.399999999999999,2.022,-1450,-2000,-2100,,,,,,,,,,,,,,,,,,,,,,,,,,,,,,,,,,,,,,,,,,,,,,,,,,,,,,,,,,,,,,,,,,,,,,,,,,,,,,,,,,,f,24,wjr,2022_Apr_10_1456,experiment3,2021.1.4,30.143252796678798,
48,50,200,200,two,50,200,200,,,,,0,50,50,47,,,,,,,,,,,a,0.3396653000090737,499.1072386999731,None,499.1072386999731,None,499.49394639997627,None,499.49394639997627,None,499.49394639997627,None,501.4662244999781,None,501.4662244999781,None,501.4662244999781,None,499.49394639997627,None,501.9848087666653,None,501.9848087666653,None,501.9848087666653,None,0.006156966672278941,None,501.9848087666653,None,501.9848087666653,None,501.9848087666653,None,501.9848087666653,None,501.9848087666653,None,501.9848087666653,None,502.016269499989,None,502.016269499989,None,502.016269499989,None,0.013890133326640353,0.5138901333266404,502.016269499989,None,502.016269499989,None,502.016269499989,None,502.016269499989,None,502.016269499989,None,502.016269499989,None,503.9926479999849,503.9926479999849,-4.100000000000001,1.935,-1400,-1800,-1900,,,,,,,,,,,,,,,,,,,,,,,,,,,,,,,,,,,,,,,,,,,,,,,,,,,,,,,,,,,,,,,,,,,,,,,,,,,,,,,,,,,f,24,wjr,2022_Apr_10_1456,experiment3,2021.1.4,30.143252796678798,
58,-150,-200,0,two,-150,-200,0,,,,,0,51,51,57,,,,,,,,,,,a,0.2524192000273615,506.02671179999015,None,506.02671179999015,None,506.33138899999904,None,506.33138899999904,None,506.33138899999904,None,508.3421875999775,None,508.3421875999775,None,508.3421875999775,None,506.33138899999904,None,508.84231146664047,None,508.84231146664047,None,508.84231146664047,None,0.010949166637146845,None,508.84231146664047,None,508.84231146664047,None,508.84231146664047,None,508.84231146664047,None,508.84231146664047,None,508.84231146664047,None,508.85762819999945,None,508.85762819999945,None,508.85762819999945,None,0.004194866633042693,0.5041948666330427,508.85762819999945,None,508.85762819999945,None,508.85762819999945,None,508.85762819999945,None,508.85762819999945,None,508.85762819999945,None,510.85841529999743,510.85841529999743,-8.0,3.386,-1550,-2000,-1900,,,,,,,,,,,,,,,,,,,,,,,,,,,,,,,,,,,,,,,,,,,,,,,,,,,,,,,,,,,,,,,,,,,,,,,,,,,,,,,,,,,f,24,wjr,2022_Apr_10_1456,experiment3,2021.1.4,30.143252796678798,
19,0,0,50,two,0,0,50,,,,,0,52,52,18,,,,,,,,,,,l,1.633954899996752,514.3035703999922,None,514.3035703999922,None,515.984209599992,None,515.984209599992,None,515.984209599992,None,517.9903061999939,None,517.9903061999939,None,517.9903061999939,None,515.984209599992,None,518.5061878666495,None,518.5061878666495,None,518.5061878666495,None,0.010566066659521312,None,518.5061878666495,None,518.5061878666495,None,518.5061878666495,None,518.5061878666495,None,518.5061878666495,None,518.5061878666495,None,518.5223899999983,None,518.5223899999983,None,518.5223899999983,None,0.003511866641929373,0.5035118666419294,518.5223899999983,None,518.5223899999983,None,518.5223899999983,None,518.5223899999983,None,518.5223899999983,None,518.5223899999983,None,520.5232933999796,520.5232933999796,6.799999999999997,1.835,-1550,-2000,-1850,,,,,,,,,,,,,,,,,,,,,,,,,,,,,,,,,,,,,,,,,,,,,,,,,,,,,,,,,,,,,,,,,,,,,,,,,,,,,,,,,,,f,24,wjr,2022_Apr_10_1456,experiment3,2021.1.4,30.143252796678798,
14,0,50,0,one,0,50,0,,,,,0,53,53,13,,,,,,,,,,,g,0.620932099991478,522.4113968999882,None,522.4113968999882,None,523.0774585999898,None,523.0774585999898,None,523.0774585999898,None,525.0898287000018,None,525.0898287000018,None,525.0898287000018,None,523.0774585999898,None,525.5895448666454,None,525.5895448666454,None,525.5895448666454,None,0.0007358666625805199,None,525.5895448666454,None,525.5895448666454,None,525.5895448666454,None,525.5895448666454,None,525.5895448666454,None,525.5895448666454,None,525.622292199987,None,525.622292199987,None,525.622292199987,None,0.015343799983384088,0.5153437999833841,525.622292199987,None,525.622292199987,None,525.622292199987,None,525.622292199987,None,525.622292199987,None,525.622292199987,None,527.6216201999923,527.6216201999923,5.799999999999997,1.687,-1550,-1950,-1850,,,,,,,,,,,,,,,,,,,,,,,,,,,,,,,,,,,,,,,,,,,,,,,,,,,,,,,,,,,,,,,,,,,,,,,,,,,,,,,,,,,f,24,wjr,2022_Apr_10_1456,experiment3,2021.1.4,30.143252796678798,
82,0,-150,-150,two,0,-150,-150,,,,,0,54,54,81,,,,,,,,,,,a,0.9746967000246514,529.3716888999916,None,529.3716888999916,None,530.3636055999959,None,530.3636055999959,None,530.3636055999959,None,532.370889999991,None,532.370889999991,None,532.370889999991,None,530.3636055999959,None,532.871025066652,None,532.871025066652,None,532.871025066652,None,0.010833466658368707,None,532.871025066652,None,532.871025066652,None,532.871025066652,None,532.871025066652,None,532.871025066652,None,532.871025066652,None,532.886180499976,None,532.886180499976,None,532.886180499976,None,0.004248566663591191,0.5042485666635912,532.886180499976,None,532.886180499976,None,532.886180499976,None,532.886180499976,None,532.886180499976,None,532.886180499976,None,534.8885956666529,None,4.100000000000001,2.332,-1550,-2100,-2000,,,,,,,,,,,,,,,,,,,,,,,,,,,,,,,,,,,,,,,,,,,,,,,,,,,,,,,,,,,,,,,,,,,,,,,,,,,,,,,,,,,f,24,wjr,2022_Apr_10_1456,experiment3,2021.1.4,30.143252796678798,
68,0,-150,0,two,0,-150,0,,,,,0,55,55,67,,,,,,,,,,,l,0.7361820000223815,537.2644442000019,None,537.2644442000019,None,538.0367107999919,None,538.0367107999919,None,538.0367107999919,None,540.0336785999825,None,540.0336785999825,None,540.0336785999825,None,538.0367107999919,None,540.5522503666618,None,540.5522503666618,None,540.5522503666618,None,0.011300666665192693,None,540.5522503666618,None,540.5522503666618,None,540.5522503666618,None,540.5522503666618,None,540.5522503666618,None,540.5522503666618,None,540.5681630999898,None,540.5681630999898,None,540.5681630999898,None,0.003377466695383191,0.5033774666953832,540.5681630999898,None,540.5681630999898,None,540.5681630999898,None,540.5681630999898,None,540.5681630999898,None,540.5681630999898,None,542.5687011666635,None,4.200000000000003,2.273,-1550,-2250,-2000,,,,,,,,,,,,,,,,,,,,,,,,,,,,,,,,,,,,,,,,,,,,,,,,,,,,,,,,,,,,,,,,,,,,,,,,,,,,,,,,,,,f,24,wjr,2022_Apr_10_1456,experiment3,2021.1.4,30.143252796678798,
43,200,200,0,two,200,200,0,,,,,0,56,56,42,,,,,,,,,,,g,0.42858420000993647,544.8829032999929,None,544.8829032999929,None,545.3682767999999,None,545.3682767999999,None,545.3682767999999,None,547.3681065999845,None,547.3681065999845,None,547.3681065999845,None,545.3682767999999,None,547.8847414666418,None,547.8847414666418,None,547.8847414666418,None,0.011110566643765196,None,547.8847414666418,None,547.8847414666418,None,547.8847414666418,None,547.8847414666418,None,547.8847414666418,None,547.8847414666418,None,547.8996662999853,None,547.8996662999853,None,547.8996662999853,None,0.003475466655800119,0.5034754666558001,547.8996662999853,None,547.8996662999853,None,547.8996662999853,None,547.8996662999853,None,547.8996662999853,None,547.8996662999853,None,549.90069756666,None,7.600000000000001,1.382,-1350,-2050,-2000,,,,,,,,,,,,,,,,,,,,,,,,,,,,,,,,,,,,,,,,,,,,,,,,,,,,,,,,,,,,,,,,,,,,,,,,,,,,,,,,,,,f,24,wjr,2022_Apr_10_1456,experiment3,2021.1.4,30.143252796678798,
47,200,50,200,two,200,50,200,,,,,0,57,57,46,,,,,,,,,,,g,0.8921740999794565,551.3208586999972,None,551.3208586999972,None,552.2502673999988,None,552.2502673999988,None,552.2502673999988,None,554.2664221999876,None,554.2664221999876,None,554.2664221999876,None,552.2502673999988,None,554.7664241666537,None,554.7664241666537,None,554.7664241666537,None,0.010621366673149168,None,554.7664241666537,None,554.7664241666537,None,554.7664241666537,None,554.7664241666537,None,554.7664241666537,None,554.7664241666537,None,554.7821200999897,None,554.7821200999897,None,554.7821200999897,None,0.003944566647987813,0.5039445666479878,554.7821200999897,None,554.7821200999897,None,554.7821200999897,None,554.7821200999897,None,554.7821200999897,None,554.7821200999897,None,556.7814825666467,None,10.200000000000003,1.452,-1150,-2000,-1800,,,,,,,,,,,,,,,,,,,,,,,,,,,,,,,,,,,,,,,,,,,,,,,,,,,,,,,,,,,,,,,,,,,,,,,,,,,,,,,,,,,f,24,wjr,2022_Apr_10_1456,experiment3,2021.1.4,30.143252796678798,
7,0,50,200,two,0,50,200,,,,,0,58,58,6,,,,,,,,,,,l,3.565953299985267,558.282802599977,None,558.282802599977,None,561.8946873999957,None,561.8946873999957,None,561.8946873999957,None,563.8812872999988,None,563.8812872999988,None,563.8812872999988,None,561.8946873999957,None,564.3980625666484,None,564.3980625666484,None,564.3980625666484,None,0.0110135666327551,None,564.3980625666484,None,564.3980625666484,None,564.3980625666484,None,564.3980625666484,None,564.3980625666484,None,564.3980625666484,None,564.4134124999982,None,564.4134124999982,None,564.4134124999982,None,0.0035146666632499546,0.50351466666325,564.4134124999982,None,564.4134124999982,None,564.4134124999982,None,564.4134124999982,None,564.4134124999982,None,564.4134124999982,None,566.4143457999744,566.4143457999744,-4.100000000000001,4.431,-1150,-1950,-1600,,,,,,,,,,,,,,,,,,,,,,,,,,,,,,,,,,,,,,,,,,,,,,,,,,,,,,,,,,,,,,,,,,,,,,,,,,,,,,,,,,,f,24,wjr,2022_Apr_10_1456,experiment3,2021.1.4,30.143252796678798,
15,50,0,0,one,50,0,0,,,,,0,59,59,14,,,,,,,,,,,l,0.9242116999812424,570.9004813999927,None,570.9004813999927,None,571.865332299989,None,571.865332299989,None,571.865332299989,None,573.8503018999763,None,573.8503018999763,None,573.8503018999763,None,571.865332299989,None,574.3798162666537,None,574.3798162666537,None,574.3798162666537,None,0.004442666657269001,None,574.3798162666537,None,574.3798162666537,None,574.3798162666537,None,574.3798162666537,None,574.3798162666537,None,574.3798162666537,None,574.4152674999787,None,574.4152674999787,None,574.4152674999787,None,0.005805233289720491,0.5058052332897205,574.4152674999787,None,574.4152674999787,None,574.4152674999787,None,574.4152674999787,None,574.4152674999787,None,574.4152674999787,None,576.4120368000004,576.4120368000004,5.399999999999999,1.42,-1100,-1950,-1600,,,,,,,,,,,,,,,,,,,,,,,,,,,,,,,,,,,,,,,,,,,,,,,,,,,,,,,,,,,,,,,,,,,,,,,,,,,,,,,,,,,f,24,wjr,2022_Apr_10_1456,experiment3,2021.1.4,30.143252796678798,
35,50,0,50,two,50,0,50,,,,,0,60,60,34,,,,,,,,,,,g,2.023098600009689,577.8968334999809,None,577.8968334999809,None,579.9614124999789,None,579.9614124999789,None,579.9614124999789,None,581.961176199984,None,581.961176199984,None,581.961176199984,None,579.9614124999789,None,582.4613775666551,None,582.4613775666551,None,582.4613775666551,None,0.011325466650305316,None,582.4613775666551,None,582.4613775666551,None,582.4613775666551,None,582.4613775666551,None,582.4613775666551,None,582.4613775666551,None,582.4762431999843,None,582.4762431999843,None,582.4762431999843,None,0.004597866674885154,0.5045978666748852,582.4762431999843,None,582.4762431999843,None,582.4762431999843,None,582.4762431999843,None,582.4762431999843,None,582.4762431999843,None,584.4772203999746,584.4772203999746,2.5,3.218,-1050,-1950,-1550,,,,,,,,,,,,,,,,,,,,,,,,,,,,,,,,,,,,,,,,,,,,,,,,,,,,,,,,,,,,,,,,,,,,,,,,,,,,,,,,,,,f,24,wjr,2022_Apr_10_1456,experiment3,2021.1.4,30.143252796678798,
12,200,0,50,two,200,0,50,,,,,0,61,61,11,,,,,,,,,,,a,0.1255008000007365,587.7773214999761,None,587.7773214999761,None,587.9433333999768,None,587.9433333999768,None,587.9433333999768,None,589.9347847999888,None,589.9347847999888,None,589.9347847999888,None,587.9433333999768,None,590.4651194666551,None,590.4651194666551,None,590.4651194666551,None,0.0012290666345506907,None,590.4651194666551,None,590.4651194666551,None,590.4651194666551,None,590.4651194666551,None,590.4651194666551,None,590.4651194666551,None,590.505342599994,None,590.505342599994,None,590.505342599994,None,0.0007641333504579961,0.500764133350458,590.505342599994,None,590.505342599994,None,590.505342599994,None,590.505342599994,None,590.505342599994,None,590.505342599994,None,592.5088010999898,592.5088010999898,1.5,3.002,-850,-1950,-1500,,,,,,,,,,,,,,,,,,,,,,,,,,,,,,,,,,,,,,,,,,,,,,,,,,,,,,,,,,,,,,,,,,,,,,,,,,,,,,,,,,,f,24,wjr,2022_Apr_10_1456,experiment3,2021.1.4,30.143252796678798,
34,0,50,50,two,0,50,50,,,,,0,62,62,33,,,,,,,,,,,l,0.556185200024629,595.5751722999848,None,595.5751722999848,None,596.1970798999828,None,596.1970798999828,None,596.1970798999828,None,598.2081359000003,None,598.2081359000003,None,598.2081359000003,None,596.1970798999828,None,598.6935157666487,None,598.6935157666487,None,598.6935157666487,None,0.010387966671260074,None,598.6935157666487,None,598.6935157666487,None,598.6935157666487,None,598.6935157666487,None,598.6935157666487,None,598.6935157666487,None,598.7071341999981,None,598.7071341999981,None,598.7071341999981,None,0.0029523666598834097,0.5029523666598834,598.7071341999981,None,598.7071341999981,None,598.7071341999981,None,598.7071341999981,None,598.7071341999981,None,598.7071341999981,None,600.707207966658,None,-2.0,2.093,-850,-1900,-1450,,,,,,,,,,,,,,,,,,,,,,,,,,,,,,,,,,,,,,,,,,,,,,,,,,,,,,,,,,,,,,,,,,,,,,,,,,,,,,,,,,,f,24,wjr,2022_Apr_10_1456,experiment3,2021.1.4,30.143252796678798,
16,0,0,200,one,0,0,200,,,,,0,63,63,15,,,,,,,,,,,g,1.422549099981552,602.8740455999796,None,602.8740455999796,None,604.3328258999973,None,604.3328258999973,None,604.3328258999973,None,606.3427777999896,None,606.3427777999896,None,606.3427777999896,None,604.3328258999973,None,606.8463841666564,None,606.8463841666564,None,606.8463841666564,None,0.004451566637726501,None,606.8463841666564,None,606.8463841666564,None,606.8463841666564,None,606.8463841666564,None,606.8463841666564,None,606.8463841666564,None,606.896260199981,None,606.896260199981,None,606.896260199981,None,0.012303299969062209,0.5123032999690622,606.896260199981,None,606.896260199981,None,606.896260199981,None,606.896260199981,None,606.896260199981,None,606.896260199981,None,608.8777165999927,608.8777165999927,3.3999999999999986,2.32,-850,-1900,-1250,,,,,,,,,,,,,,,,,,,,,,,,,,,,,,,,,,,,,,,,,,,,,,,,,,,,,,,,,,,,,,,,,,,,,,,,,,,,,,,,,,,f,24,wjr,2022_Apr_10_1456,experiment3,2021.1.4,30.143252796678798,
1,0,50,200,one,0,50,200,,,,,0,64,64,0,,,,,,,,,,,a,1.5938435999851208,611.2865646999853,None,611.2865646999853,None,612.9383443999977,None,612.9383443999977,None,612.9383443999977,None,614.9375968999811,None,614.9375968999811,None,614.9375968999811,None,612.9383443999977,None,615.4552699666567,None,615.4552699666567,None,615.4552699666567,None,0.00987446666113101,None,615.4552699666567,None,615.4552699666567,None,615.4552699666567,None,615.4552699666567,None,615.4552699666567,None,615.4552699666567,None,615.4718408999906,None,615.4718408999906,None,615.4718408999906,None,0.002625866705784574,0.5026258667057846,615.4718408999906,None,615.4718408999906,None,615.4718408999906,None,615.4718408999906,None,615.4718408999906,None,615.4718408999906,None,617.4862509999948,617.4862509999948,-7.899999999999999,1.791,-850,-1850,-1050,,,,,,,,,,,,,,,,,,,,,,,,,,,,,,,,,,,,,,,,,,,,,,,,,,,,,,,,,,,,,,,,,,,,,,,,,,,,,,,,,,,f,24,wjr,2022_Apr_10_1456,experiment3,2021.1.4,30.143252796678798,
33,50,50,200,two,50,50,200,,,,,0,65,65,32,,,,,,,,,,,a,2.041710299992701,619.3705249999766,None,619.3705249999766,None,621.4704071999877,None,621.4704071999877,None,621.4704071999877,None,623.4696868999745,None,623.4696868999745,None,623.4696868999745,None,621.4704071999877,None,623.9861549666423,None,623.9861549666423,None,623.9861549666423,None,0.011272766656475142,None,623.9861549666423,None,623.9861549666423,None,623.9861549666423,None,623.9861549666423,None,623.9861549666423,None,623.9861549666423,None,624.0017282999761,None,624.0017282999761,None,624.0017282999761,None,0.004568566655507311,0.5045685666555073,624.0017282999761,None,624.0017282999761,None,624.0017282999761,None,624.0017282999761,None,624.0017282999761,None,624.0017282999761,None,626.0022760999855,626.0022760999855,5.200000000000003,1.462,-800,-1800,-850,,,,,,,,,,,,,,,,,,,,,,,,,,,,,,,,,,,,,,,,,,,,,,,,,,,,,,,,,,,,,,,,,,,,,,,,,,,,,,,,,,,f,24,wjr,2022_Apr_10_1456,experiment3,2021.1.4,30.143252796678798,
21,50,0,0,two,50,0,0,,,,,0,66,66,20,,,,,,,,,,,a,1.9149429999815766,627.5352934999974,None,627.5352934999974,None,629.500289299991,None,629.500289299991,None,629.500289299991,None,631.4874220999773,None,631.4874220999773,None,631.4874220999773,None,629.500289299991,None,632.0014965666671,None,632.0014965666671,None,632.0014965666671,None,0.010407266672700644,None,632.0014965666671,None,632.0014965666671,None,632.0014965666671,None,632.0014965666671,None,632.0014965666671,None,632.0014965666671,None,632.0179544999846,None,632.0179544999846,None,632.0179544999846,None,0.004068466660100967,0.504068466660101,632.0179544999846,None,632.0179544999846,None,632.0179544999846,None,632.0179544999846,None,632.0179544999846,None,632.0179544999846,None,634.0186237999878,634.0186237999878,5.200000000000003,2.503,-750,-1800,-850,,,,,,,,,,,,,,,,,,,,,,,,,,,,,,,,,,,,,,,,,,,,,,,,,,,,,,,,,,,,,,,,,,,,,,,,,,,,,,,,,,,f,24,wjr,2022_Apr_10_1456,experiment3,2021.1.4,30.143252796678798,
4,50,200,0,one,50,200,0,,,,,0,67,67,3,,,,,,,,,,,l,2.6242542999971192,636.5846473999845,None,636.5846473999845,None,639.2327612999943,None,639.2327612999943,None,639.2327612999943,None,641.2593937999918,None,641.2593937999918,None,641.2593937999918,None,639.2327612999943,None,641.7417736666432,None,641.7417736666432,None,641.7417736666432,None,0.0032189666526392102,None,641.7417736666432,None,641.7417736666432,None,641.7417736666432,None,641.7417736666432,None,641.7417736666432,None,641.7417736666432,None,641.7822164999961,None,641.7822164999961,None,641.7822164999961,None,0.001417333318386227,0.5014173333183862,641.7822164999961,None,641.7822164999961,None,641.7822164999961,None,641.7822164999961,None,641.7822164999961,None,641.7822164999961,None,643.7823216666623,None,15.599999999999994,7.32,-700,-1600,-850,,,,,,,,,,,,,,,,,,,,,,,,,,,,,,,,,,,,,,,,,,,,,,,,,,,,,,,,,,,,,,,,,,,,,,,,,,,,,,,,,,,f,24,wjr,2022_Apr_10_1456,experiment3,2021.1.4,30.143252796678798,
66,-200,0,0,one,-200,0,0,,,,,0,68,68,65,,,,,,,,,,,g,0.18688520000432618,651.1449892999954,None,651.1449892999954,None,651.3640675999923,None,651.3640675999923,None,651.3640675999923,None,653.3470842999814,None,653.3470842999814,None,653.3470842999814,None,651.3640675999923,None,653.8634054666657,None,653.8634054666657,None,653.8634054666657,None,0.011222466680919752,None,653.8634054666657,None,653.8634054666657,None,653.8634054666657,None,653.8634054666657,None,653.8634054666657,None,653.8634054666657,None,653.8916087999824,None,653.8916087999824,None,653.8916087999824,None,0.013057533331448212,0.5130575333314482,653.8916087999824,None,653.8916087999824,None,653.8916087999824,None,653.8916087999824,None,653.8916087999824,None,653.8916087999824,None,655.8856604999746,655.8856604999746,-35.2,2.352,-900,-1600,-850,,,,,,,,,,,,,,,,,,,,,,,,,,,,,,,,,,,,,,,,,,,,,,,,,,,,,,,,,,,,,,,,,,,,,,,,,,,,,,,,,,,f,24,wjr,2022_Apr_10_1456,experiment3,2021.1.4,30.143252796678798,
13,0,0,50,one,0,0,50,,,,,0,69,69,12,,,,,,,,,,,g,1.4360244999988936,658.3132512999873,None,658.3132512999873,None,659.7900745999941,None,659.7900745999941,None,659.7900745999941,None,661.8127081999846,None,661.8127081999846,None,661.8127081999846,None,659.7900745999941,None,662.2943937666462,None,662.2943937666462,None,662.2943937666462,None,0.003280066652223468,None,662.2943937666462,None,662.2943937666462,None,662.2943937666462,None,662.2943937666462,None,662.2943937666462,None,662.2943937666462,None,662.3248751999927,None,662.3248751999927,None,662.3248751999927,None,0.004986433312296867,0.5049864333122969,662.3248751999927,None,662.3248751999927,None,662.3248751999927,None,662.3248751999927,None,662.3248751999927,None,662.3248751999927,None,664.3279289666427,None,5.700000000000003,1.835,-900,-1600,-800,,,,,,,,,,,,,,,,,,,,,,,,,,,,,,,,,,,,,,,,,,,,,,,,,,,,,,,,,,,,,,,,,,,,,,,,,,,,,,,,,,,f,24,wjr,2022_Apr_10_1456,experiment3,2021.1.4,30.143252796678798,
78,-150,-150,0,one,-150,-150,0,,,,,0,70,70,77,,,,,,,,,,,l,1.254187099984847,666.1984629999788,None,666.1984629999788,None,667.4945061999897,None,667.4945061999897,None,667.4945061999897,None,669.4774395999848,None,669.4774395999848,None,669.4774395999848,None,667.4945061999897,None,669.99346646664,None,669.99346646664,None,669.99346646664,None,0.011078166658990085,None,669.99346646664,None,669.99346646664,None,669.99346646664,None,669.99346646664,None,669.99346646664,None,669.99346646664,None,670.0141122999776,None,670.0141122999776,None,670.0141122999776,None,0.004026566632091999,0.504026566632092,670.0141122999776,None,670.0141122999776,None,670.0141122999776,None,670.0141122999776,None,670.0141122999776,None,670.0141122999776,None,672.0105030999985,672.0105030999985,4.399999999999999,1.468,-1050,-1750,-800,,,,,,,,,,,,,,,,,,,,,,,,,,,,,,,,,,,,,,,,,,,,,,,,,,,,,,,,,,,,,,,,,,,,,,,,,,,,,,,,,,,f,24,wjr,2022_Apr_10_1456,experiment3,2021.1.4,30.143252796678798,
44,200,0,200,two,200,0,200,,,,,0,71,71,43,,,,,,,,,,,l,1.4680672000104096,673.534877899976,None,673.534877899976,None,675.0595690999762,None,675.0595690999762,None,675.0595690999762,None,677.0587295999867,None,677.0587295999867,None,677.0587295999867,None,675.0595690999762,None,677.581605666641,None,677.581605666641,None,677.581605666641,None,0.006085266621084884,None,677.581605666641,None,677.581605666641,None,677.581605666641,None,677.581605666641,None,677.581605666641,None,677.581605666641,None,677.59953029998,None,677.59953029998,None,677.59953029998,None,0.014063233305932954,0.514063233305933,677.59953029998,None,677.59953029998,None,677.59953029998,None,677.59953029998,None,677.59953029998,None,677.59953029998,None,679.5929673999781,679.5929673999781,31.599999999999994,2.393,-850,-1750,-600,,,,,,,,,,,,,,,,,,,,,,,,,,,,,,,,,,,,,,,,,,,,,,,,,,,,,,,,,,,,,,,,,,,,,,,,,,,,,,,,,,,f,24,wjr,2022_Apr_10_1456,experiment3,2021.1.4,30.143252796678798,
75,-150,-150,-200,one,-150,-150,-200,,,,,0,72,72,74,,,,,,,,,,,l,0.6415727999992669,682.0404595999862,None,682.0404595999862,None,682.7133483999933,None,682.7133483999933,None,682.7133483999933,None,684.7111788999755,None,684.7111788999755,None,684.7111788999755,None,682.7133483999933,None,685.2241162666508,None,685.2241162666508,None,685.2241162666508,None,0.010922766668954864,None,685.2241162666508,None,685.2241162666508,None,685.2241162666508,None,685.2241162666508,None,685.2241162666508,None,685.2241162666508,None,685.2397789999959,None,685.2397789999959,None,685.2397789999959,None,0.003572366666048765,0.5035723666660488,685.2397789999959,None,685.2397789999959,None,685.2397789999959,None,685.2397789999959,None,685.2397789999959,None,685.2397789999959,None,687.2393440000014,687.2393440000014,8.0,1.439,-1000,-1900,-800,,,,,,,,,,,,,,,,,,,,,,,,,,,,,,,,,,,,,,,,,,,,,,,,,,,,,,,,,,,,,,,,,,,,,,,,,,,,,,,,,,,f,24,wjr,2022_Apr_10_1456,experiment3,2021.1.4,30.143252796678798,
57,-150,0,-200,two,-150,0,-200,,,,,0,73,73,56,,,,,,,,,,,l,0.6245245999889448,688.7413239999732,None,688.7413239999732,None,689.4252229999984,None,689.4252229999984,None,689.4252229999984,None,691.4001792999916,None,691.4001792999916,None,691.4001792999916,None,689.4252229999984,None,691.922923966664,None,691.922923966664,None,691.922923966664,None,0.010908366675721481,None,691.922923966664,None,691.922923966664,None,691.922923966664,None,691.922923966664,None,691.922923966664,None,691.922923966664,None,691.9387130999821,None,691.9387130999821,None,691.9387130999821,None,0.0035948666627518833,0.5035948666627519,691.9387130999821,None,691.9387130999821,None,691.9387130999821,None,691.9387130999821,None,691.9387130999821,None,691.9387130999821,None,693.9392042999971,693.9392042999971,-16.799999999999997,1.434,-1150,-1900,-1000,,,,,,,,,,,,,,,,,,,,,,,,,,,,,,,,,,,,,,,,,,,,,,,,,,,,,,,,,,,,,,,,,,,,,,,,,,,,,,,,,,,f,24,wjr,2022_Apr_10_1456,experiment3,2021.1.4,30.143252796678798,
77,-150,0,-150,one,-150,0,-150,,,,,0,74,74,76,,,,,,,,,,,l,1.3732688000018243,695.4272361999901,None,695.4272361999901,None,696.8564456999884,None,696.8564456999884,None,696.8564456999884,None,698.8381351999997,None,698.8381351999997,None,698.8381351999997,None,696.8564456999884,None,699.3542010666608,None,699.3542010666608,None,699.3542010666608,None,0.010386666661361232,None,699.3542010666608,None,699.3542010666608,None,699.3542010666608,None,699.3542010666608,None,699.3542010666608,None,699.3542010666608,None,699.3707425999746,None,699.3707425999746,None,699.3707425999746,None,0.0027278666966594756,0.5027278666966595,699.3707425999746,None,699.3707425999746,None,699.3707425999746,None,699.3707425999746,None,699.3707425999746,None,699.3707425999746,None,701.3709108999756,701.3709108999756,-7.799999999999997,2.664,-1300,-1900,-1150,,,,,,,,,,,,,,,,,,,,,,,,,,,,,,,,,,,,,,,,,,,,,,,,,,,,,,,,,,,,,,,,,,,,,,,,,,,,,,,,,,,f,24,wjr,2022_Apr_10_1456,experiment3,2021.1.4,30.143252796678798,
5,200,50,0,one,200,50,0,,,,,0,75,75,4,,,,,,,,,,,l,0.48280590001377277,704.1035033999942,None,704.1035033999942,None,704.654473099974,None,704.654473099974,None,704.654473099974,None,706.6503095999942,None,706.6503095999942,None,706.6503095999942,None,704.654473099974,None,707.1629604666416,None,707.1629604666416,None,707.1629604666416,None,0.0005335666646715254,None,707.1629604666416,None,707.1629604666416,None,707.1629604666416,None,707.1629604666416,None,707.1629604666416,None,707.1629604666416,None,707.1910328999802,None,707.1910328999802,None,707.1910328999802,None,0.005452033306937665,0.5054520333069377,707.1910328999802,None,707.1910328999802,None,707.1910328999802,None,707.1910328999802,None,707.1910328999802,None,707.1910328999802,None,709.1873464999953,709.1873464999953,4.100000000000001,1.348,-1100,-1850,-1150,,,,,,,,,,,,,,,,,,,,,,,,,,,,,,,,,,,,,,,,,,,,,,,,,,,,,,,,,,,,,,,,,,,,,,,,,,,,,,,,,,,f,24,wjr,2022_Apr_10_1456,experiment3,2021.1.4,30.143252796678798,
92,-200,0,-200,two,-200,0,-200,,,,,0,76,76,91,,,,,,,,,,,l,0.7374714000034146,710.5911777000001,None,710.5911777000001,None,711.3907880999905,None,711.3907880999905,None,711.3907880999905,None,713.4017578999919,None,713.4017578999919,None,713.4017578999919,None,711.3907880999905,None,713.9022981666533,None,713.9022981666533,None,713.9022981666533,None,0.009783366665942594,None,713.9022981666533,None,713.9022981666533,None,713.9022981666533,None,713.9022981666533,None,713.9022981666533,None,713.9022981666533,None,713.9180902999942,None,713.9180902999942,None,713.9180902999942,None,0.002404866652796045,0.502404866652796,713.9180902999942,None,713.9180902999942,None,713.9180902999942,None,713.9180902999942,None,713.9180902999942,None,713.9180902999942,None,715.9180636999954,715.9180636999954,-34.7,2.156,-1300,-1850,-1350,,,,,,,,,,,,,,,,,,,,,,,,,,,,,,,,,,,,,,,,,,,,,,,,,,,,,,,,,,,,,,,,,,,,,,,,,,,,,,,,,,,f,24,wjr,2022_Apr_10_1456,experiment3,2021.1.4,30.143252796678798,
89,-200,-150,-200,one,-200,-150,-200,,,,,0,77,77,88,,,,,,,,,,,l,0.5202945999917574,718.1356407999992,None,718.1356407999992,None,718.6798710000003,None,718.6798710000003,None,718.6798710000003,None,720.6839767999772,None,720.6839767999772,None,720.6839767999772,None,718.6798710000003,None,721.1840217666506,None,721.1840217666506,None,721.1840217666506,None,0.010296466643922031,None,721.1840217666506,None,721.1840217666506,None,721.1840217666506,None,721.1840217666506,None,721.1840217666506,None,721.1840217666506,None,721.2150949999923,None,721.2150949999923,None,721.2150949999923,None,0.00815533334389329,0.5081553333438933,721.2150949999923,None,721.2150949999923,None,721.2150949999923,None,721.2150949999923,None,721.2150949999923,None,721.2150949999923,None,723.201427299995,723.201427299995,4.899999999999999,1.965,-1500,-2000,-1550,,,,,,,,,,,,,,,,,,,,,,,,,,,,,,,,,,,,,,,,,,,,,,,,,,,,,,,,,,,,,,,,,,,,,,,,,,,,,,,,,,,f,24,wjr,2022_Apr_10_1456,experiment3,2021.1.4,30.143252796678798,
17,0,200,0,one,0,200,0,,,,,0,78,78,16,,,,,,,,,,,l,0.29328059998806566,725.2336205999891,None,725.2336205999891,None,725.5654455999902,None,725.5654455999902,None,725.5654455999902,None,727.5499486999761,None,727.5499486999761,None,727.5499486999761,None,725.5654455999902,None,728.0670699666409,None,728.0670699666409,None,728.0670699666409,None,0.008335266640642658,None,728.0670699666409,None,728.0670699666409,None,728.0670699666409,None,728.0670699666409,None,728.0670699666409,None,728.0670699666409,None,728.080315899977,None,728.080315899977,None,728.080315899977,None,0.016042133298469707,0.5160421332984697,728.080315899977,None,728.080315899977,None,728.080315899977,None,728.080315899977,None,728.080315899977,None,728.080315899977,None,730.0809422666537,None,-34.4,5.052,-1500,-1800,-1550,,,,,,,,,,,,,,,,,,,,,,,,,,,,,,,,,,,,,,,,,,,,,,,,,,,,,,,,,,,,,,,,,,,,,,,,,,,,,,,,,,,f,24,wjr,2022_Apr_10_1456,experiment3,2021.1.4,30.143252796678798,
70,0,0,-200,two,0,0,-200,,,,,0,79,79,69,,,,,,,,,,,l,1.5600046000035945,735.1804998999869,None,735.1804998999869,None,736.803545999981,None,736.803545999981,None,736.803545999981,None,738.7980237999873,None,738.7980237999873,None,738.7980237999873,None,736.803545999981,None,739.2801953666533,None,739.2801953666533,None,739.2801953666533,None,0.0056631666666362435,None,739.2801953666533,None,739.2801953666533,None,739.2801953666533,None,739.2801953666533,None,739.2801953666533,None,739.2801953666533,None,739.3082755999931,None,739.3082755999931,None,739.3082755999931,None,0.0074832333193626255,0.5074832333193626,739.3082755999931,None,739.3082755999931,None,739.3082755999931,None,739.3082755999931,None,739.3082755999931,None,739.3082755999931,None,741.2991579999798,741.2991579999798,3.799999999999997,1.414,-1500,-1800,-1750,,,,,,,,,,,,,,,,,,,,,,,,,,,,,,,,,,,,,,,,,,,,,,,,,,,,,,,,,,,,,,,,,,,,,,,,,,,,,,,,,,,f,24,wjr,2022_Apr_10_1456,experiment3,2021.1.4,30.143252796678798,
27,50,50,200,one,50,50,200,,,,,0,80,80,26,,,,,,,,,,,l,0.36037800001213327,742.7766335999768,None,742.7766335999768,None,743.1560752999794,None,743.1560752999794,None,743.1560752999794,None,745.1571951999795,None,745.1571951999795,None,745.1571951999795,None,743.1560752999794,None,745.6846531333072,None,745.6846531333072,None,745.6846531333072,None,0.013292733317939565,None,745.6846531333072,None,745.6846531333072,None,745.6846531333072,None,745.6846531333072,None,745.6846531333072,None,745.6846531333072,None,745.7078833999985,None,745.7078833999985,None,745.7078833999985,None,0.011004599975422025,0.511004599975422,745.7078833999985,None,745.7078833999985,None,745.7078833999985,None,745.7078833999985,None,745.7078833999985,None,745.7078833999985,None,747.695361399994,747.695361399994,3.700000000000003,1.35,-1450,-1750,-1550,,,,,,,,,,,,,,,,,,,,,,,,,,,,,,,,,,,,,,,,,,,,,,,,,,,,,,,,,,,,,,,,,,,,,,,,,,,,,,,,,,,f,24,wjr,2022_Apr_10_1456,experiment3,2021.1.4,30.143252796678798,
74,-150,-200,-150,one,-150,-200,-150,,,,,0,81,81,73,,,,,,,,,,,g,0.6930407999898307,749.1041419999965,None,749.1041419999965,None,749.8625923999934,None,749.8625923999934,None,749.8625923999934,None,751.8339497999987,None,751.8339497999987,None,751.8339497999987,None,749.8625923999934,None,752.3619897666542,None,752.3619897666542,None,752.3619897666542,None,0.009469566663028672,None,752.3619897666542,None,752.3619897666542,None,752.3619897666542,None,752.3619897666542,None,752.3619897666542,None,752.3619897666542,None,752.3767678999866,None,752.3767678999866,None,752.3767678999866,None,0.0019503666553646326,0.5019503666553646,752.3767678999866,None,752.3767678999866,None,752.3767678999866,None,752.3767678999866,None,752.3767678999866,None,752.3767678999866,None,754.3802340999828,754.3802340999828,4.299999999999997,2.111,-1600,-1950,-1700,,,,,,,,,,,,,,,,,,,,,,,,,,,,,,,,,,,,,,,,,,,,,,,,,,,,,,,,,,,,,,,,,,,,,,,,,,,,,,,,,,,f,24,wjr,2022_Apr_10_1456,experiment3,2021.1.4,30.143252796678798,
87,0,-200,-200,one,0,-200,-200,,,,,0,82,82,86,,,,,,,,,,,g,0.17637689999537542,756.5605765999935,None,756.5605765999935,None,756.8103630999976,None,756.8103630999976,None,756.8103630999976,None,758.7745545999787,759.2931851999892,758.7745545999787,759.2931851999892,758.7745545999787,759.2931851999892,756.8103630999976,None,759.3098518666559,None,759.3098518666559,None,759.3098518666559,None,0.010761466663097963,None,759.3098518666559,None,759.3098518666559,None,759.3098518666559,None,759.3098518666559,None,759.3098518666559,None,759.3098518666559,None,759.3253648999962,None,759.3253648999962,None,759.3253648999962,None,0.0035007666738238186,0.5035007666738238,759.3253648999962,None,759.3253648999962,None,759.3253648999962,None,759.3253648999962,None,759.3253648999962,None,759.3253648999962,None,761.3260440666675,None,4.600000000000001,1.478,-1600,-2150,-1900,,,,,,,,,,,,,,,,,,,,,,,,,,,,,,,,,,,,,,,,,,,,,,,,,,,,,,,,,,,,,,,,,,,,,,,,,,,,,,,,,,,f,24,wjr,2022_Apr_10_1456,experiment3,2021.1.4,30.143252796678798,
46,200,200,50,two,200,200,50,,,,,0,83,83,45,,,,,,,,,,,g,0.7137642999878153,762.8587337999779,None,762.8587337999779,None,763.6027733999945,None,763.6027733999945,None,763.6027733999945,None,765.6107550999732,None,765.6107550999732,None,765.6107550999732,None,763.6027733999945,None,766.1098744666417,None,766.1098744666417,None,766.1098744666417,None,0.01095146665466018,None,766.1098744666417,None,766.1098744666417,None,766.1098744666417,None,766.1098744666417,None,766.1098744666417,None,766.1098744666417,None,766.1240509999916,None,766.1240509999916,None,766.1240509999916,None,0.003071266633924097,0.5030712666339241,766.1240509999916,None,766.1240509999916,None,766.1240509999916,None,766.1240509999916,None,766.1240509999916,None,766.1240509999916,None,768.1316153999942,768.1316153999942,-4.299999999999997,1.544,-1400,-1950,-1850,,,,,,,,,,,,,,,,,,,,,,,,,,,,,,,,,,,,,,,,,,,,,,,,,,,,,,,,,,,,,,,,,,,,,,,,,,,,,,,,,,,f,24,wjr,2022_Apr_10_1456,experiment3,2021.1.4,30.143252796678798,
36,50,50,0,two,50,50,0,,,,,0,84,84,35,,,,,,,,,,,g,0.6375109999789856,769.758795199974,None,769.758795199974,None,770.4339095999894,None,770.4339095999894,None,770.4339095999894,None,772.4525793999783,None,772.4525793999783,None,772.4525793999783,None,770.4339095999894,None,772.9405627666604,None,772.9405627666604,None,772.9405627666604,None,0.01086106666480191,None,772.9405627666604,None,772.9405627666604,None,772.9405627666604,None,772.9405627666604,None,772.9405627666604,None,772.9405627666604,None,772.9564057999814,None,772.9564057999814,None,772.9564057999814,None,0.00408726665773429,0.5040872666577343,772.9564057999814,None,772.9564057999814,None,772.9564057999814,None,772.9564057999814,None,772.9564057999814,None,772.9564057999814,None,774.9609906999976,774.9609906999976,-5.600000000000001,2.436,-1350,-1900,-1850,,,,,,,,,,,,,,,,,,,,,,,,,,,,,,,,,,,,,,,,,,,,,,,,,,,,,,,,,,,,,,,,,,,,,,,,,,,,,,,,,,,f,24,wjr,2022_Apr_10_1456,experiment3,2021.1.4,30.143252796678798,
67,0,0,-150,two,0,0,-150,,,,,0,85,85,66,,,,,,,,,,,g,0.5908747999928892,777.4731791999948,None,777.4731791999948,None,778.1228892999934,None,778.1228892999934,None,778.1228892999934,None,780.1302090999961,None,780.1302090999961,None,780.1302090999961,None,778.1228892999934,None,780.6345661333257,None,780.6345661333257,None,780.6345661333257,None,0.013272933312691748,None,780.6345661333257,None,780.6345661333257,None,780.6345661333257,None,780.6345661333257,None,780.6345661333257,None,780.6345661333257,None,780.656227599975,None,780.656227599975,None,780.656227599975,None,0.012363699992420152,0.5123636999924202,780.656227599975,None,780.656227599975,None,780.656227599975,None,780.656227599975,None,780.656227599975,None,780.656227599975,None,782.6316692999972,782.6316692999972,0.7000000000000028,1.901,-1350,-1900,-2000,,,,,,,,,,,,,,,,,,,,,,,,,,,,,,,,,,,,,,,,,,,,,,,,,,,,,,,,,,,,,,,,,,,,,,,,,,,,,,,,,,,f,24,wjr,2022_Apr_10_1456,experiment3,2021.1.4,30.143252796678798,
61,0,0,-150,one,0,0,-150,,,,,0,86,86,60,,,,,,,,,,,g,0.5074765000026673,784.6222789000021,None,784.6222789000021,None,785.1619326999935,None,785.1619326999935,None,785.1619326999935,None,787.164142499998,None,787.164142499998,None,787.164142499998,None,785.1619326999935,None,787.6876637666467,None,787.6876637666467,None,787.6876637666467,None,0.010799366660648957,None,787.6876637666467,None,787.6876637666467,None,787.6876637666467,None,787.6876637666467,None,787.6876637666467,None,787.6876637666467,None,787.7034856999817,None,787.7034856999817,None,787.7034856999817,None,0.0038571666518691927,0.5038571666518692,787.7034856999817,None,787.7034856999817,None,787.7034856999817,None,787.7034856999817,None,787.7034856999817,None,787.7034856999817,None,789.7037212666512,None,0.8999999999999986,1.505,-1350,-1900,-2150,,,,,,,,,,,,,,,,,,,,,,,,,,,,,,,,,,,,,,,,,,,,,,,,,,,,,,,,,,,,,,,,,,,,,,,,,,,,,,,,,,,f,24,wjr,2022_Apr_10_1456,experiment3,2021.1.4,30.143252796678798,
8,0,200,50,two,0,200,50,,,,,0,87,87,7,,,,,,,,,,,g,0.468635400000494,791.254584099981,None,791.254584099981,None,791.744972799992,None,791.744972799992,None,791.744972799992,None,793.7381836999848,None,793.7381836999848,None,793.7381836999848,None,791.744972799992,None,794.2760116333161,None,794.2760116333161,None,794.2760116333161,None,0.014695433346787468,None,794.2760116333161,None,794.2760116333161,None,794.2760116333161,None,794.2760116333161,None,794.2760116333161,None,794.2760116333161,None,794.2883562999777,None,794.2883562999777,None,794.2883562999777,None,0.005696933338185772,0.5056969333381858,794.2883562999777,None,794.2883562999777,None,794.2883562999777,None,794.2883562999777,None,794.2883562999777,None,794.2883562999777,None,796.3026441999828,796.3026441999828,-32.2,5.763,-1350,-1700,-2100,,,,,,,,,,,,,,,,,,,,,,,,,,,,,,,,,,,,,,,,,,,,,,,,,,,,,,,,,,,,,,,,,,,,,,,,,,,,,,,,,,,f,24,wjr,2022_Apr_10_1456,experiment3,2021.1.4,30.143252796678798,
2,0,200,50,one,0,200,50,,,,,0,88,88,1,,,,,,,,,,,g,0.14352709997911006,802.1177318999835,None,802.1177318999835,None,802.3180949999951,None,802.3180949999951,None,802.3180949999951,None,804.3178072999872,None,804.3178072999872,None,804.3178072999872,None,802.3180949999951,None,804.8343200666461,None,804.8343200666461,None,804.8343200666461,None,0.011016466654837132,None,804.8343200666461,None,804.8343200666461,None,804.8343200666461,None,804.8343200666461,None,804.8343200666461,None,804.8343200666461,None,804.8503497999918,None,804.8503497999918,None,804.8503497999918,None,0.003360166650963947,0.503360166650964,804.8503497999918,None,804.8503497999918,None,804.8503497999918,None,804.8503497999918,None,804.8503497999918,None,804.8503497999918,None,806.8502154999878,806.8502154999878,-36.8,1.618,-1350,-1500,-2050,,,,,,,,,,,,,,,,,,,,,,,,,,,,,,,,,,,,,,,,,,,,,,,,,,,,,,,,,,,,,,,,,,,,,,,,,,,,,,,,,,,f,24,wjr,2022_Apr_10_1456,experiment3,2021.1.4,30.143252796678798,
3,50,0,200,one,50,0,200,,,,,0,89,89,2,,,,,,,,,,,g,0.17971810000017285,808.5464084999985,None,808.5464084999985,None,808.757031599991,None,808.757031599991,None,808.757031599991,None,810.7491008999932,811.2661174999957,810.7491008999932,811.2661174999957,810.7491008999932,811.2661174999957,808.757031599991,None,811.2827841666624,None,811.2827841666624,None,811.2827841666624,None,0.010839766706340015,None,811.2827841666624,None,811.2827841666624,None,811.2827841666624,None,811.2827841666624,None,811.2827841666624,None,811.2827841666624,None,811.2985761999735,None,811.2985761999735,None,811.2985761999735,None,0.004170566680841148,0.5041705666808411,811.2985761999735,None,811.2985761999735,None,811.2985761999735,None,811.2985761999735,None,811.2985761999735,None,811.2985761999735,None,813.2778758999775,813.2778758999775,8.100000000000001,3.613,-1300,-1500,-1850,,,,,,,,,,,,,,,,,,,,,,,,,,,,,,,,,,,,,,,,,,,,,,,,,,,,,,,,,,,,,,,,,,,,,,,,,,,,,,,,,,,f,24,wjr,2022_Apr_10_1456,experiment3,2021.1.4,30.143252796678798,
65,0,-200,0,one,0,-200,0,,,,,0,90,90,64,,,,,,,,,,,g,4.475554500008002,816.982399200002,None,816.982399200002,None,821.5298799999873,None,821.5298799999873,None,821.5298799999873,None,823.5041827999812,824.0168635000009,823.5041827999812,824.0168635000009,823.5041827999812,824.0168635000009,821.5298799999873,None,824.0335301666676,None,824.0335301666676,None,824.0335301666676,None,0.009604466671589762,None,824.0335301666676,None,824.0335301666676,None,824.0335301666676,None,824.0335301666676,None,824.0335301666676,None,824.0335301666676,None,824.048264299985,None,824.048264299985,None,824.048264299985,None,0.000828166666906327,0.5008281666669063,824.048264299985,None,824.048264299985,None,824.048264299985,None,824.048264299985,None,824.048264299985,None,824.048264299985,None,826.0635073666674,None,3.5,2.12,-1300,-1700,-1850,,,,,,,,,,,,,,,,,,,,,,,,,,,,,,,,,,,,,,,,,,,,,,,,,,,,,,,,,,,,,,,,,,,,,,,,,,,,,,,,,,,f,24,wjr,2022_Apr_10_1456,experiment3,2021.1.4,30.143252796678798,
72,-200,0,0,two,-200,0,0,,,,,0,91,91,71,,,,,,,,,,,g,0.01698809998924844,828.2492296999844,None,828.2492296999844,None,828.3129746999766,None,828.3129746999766,None,828.3129746999766,None,830.3121311999857,None,830.3121311999857,None,830.3121311999857,None,828.3129746999766,None,830.8296082666532,None,830.8296082666532,None,830.8296082666532,None,0.011259966646321118,None,830.8296082666532,None,830.8296082666532,None,830.8296082666532,None,830.8296082666532,None,830.8296082666532,None,830.8296082666532,None,830.8447385999898,None,830.8447385999898,None,830.8447385999898,None,0.0039363666728604585,0.5039363666728605,830.8447385999898,None,830.8447385999898,None,830.8447385999898,None,830.8447385999898,None,830.8447385999898,None,830.8447385999898,None,832.8455917999963,832.8455917999963,-41.6,1.301,-1500,-1700,-1850,,,,,,,,,,,,,,,,,,,,,,,,,,,,,,,,,,,,,,,,,,,,,,,,,,,,,,,,,,,,,,,,,,,,,,,,,,,,,,,,,,,f,24,wjr,2022_Apr_10_1456,experiment3,2021.1.4,30.143252796678798,
39,0,200,200,one,0,200,200,,,,,0,92,92,38,,,,,,,,,,,g,0.10727090001455508,834.2010441999882,None,834.2010441999882,None,834.3623372000002,None,834.3623372000002,None,834.3623372000002,None,836.3688531999942,None,836.3688531999942,None,836.3688531999942,None,834.3623372000002,None,836.8603694666565,None,836.8603694666565,None,836.8603694666565,None,0.009489966701949015,None,836.8603694666565,None,836.8603694666565,None,836.8603694666565,None,836.8603694666565,None,836.8603694666565,None,836.8603694666565,None,836.8763413999986,None,836.8763413999986,None,836.8763413999986,None,0.0030605666688643396,0.5030605666688643,836.8763413999986,None,836.8763413999986,None,836.8763413999986,None,836.8763413999986,None,836.8763413999986,None,836.8763413999986,None,838.87741796664,None,-41.3,1.356,-1500,-1500,-1650,,,,,,,,,,,,,,,,,,,,,,,,,,,,,,,,,,,,,,,,,,,,,,,,,,,,,,,,,,,,,,,,,,,,,,,,,,,,,,,,,,,f,24,wjr,2022_Apr_10_1456,experiment3,2021.1.4,30.143252796678798,
11,200,50,0,two,200,50,0,,,,,0,93,93,10,,,,,,,,,,,g,0.18646140000782907,840.2753173999954,None,840.2753173999954,None,840.4992933999747,None,840.4992933999747,None,840.4992933999747,None,842.5186455999792,None,842.5186455999792,None,842.5186455999792,None,840.4992933999747,None,843.0155535666602,None,843.0155535666602,None,843.0155535666602,None,0.003114666644250974,None,843.0155535666602,None,843.0155535666602,None,843.0155535666602,None,843.0155535666602,None,843.0155535666602,None,843.0155535666602,None,843.0477378999931,None,843.0477378999931,None,843.0477378999931,None,0.005898033326957375,0.5058980333269574,843.0477378999931,None,843.0477378999931,None,843.0477378999931,None,843.0477378999931,None,843.0477378999931,None,843.0477378999931,None,845.0440588999772,845.0440588999772,11.200000000000003,1.333,-1300,-1450,-1650,,,,,,,,,,,,,,,,,,,,,,,,,,,,,,,,,,,,,,,,,,,,,,,,,,,,,,,,,,,,,,,,,,,,,,,,,,,,,,,,,,,f,24,wjr,2022_Apr_10_1456,experiment3,2021.1.4,30.143252796678798,
84,-150,-150,0,two,-150,-150,0,,,,,0,94,94,83,,,,,,,,,,,g,0.2627871999866329,846.4612263999879,None,846.4612263999879,None,846.7636732999817,None,846.7636732999817,None,846.7636732999817,None,848.776573399984,None,848.776573399984,None,848.776573399984,None,846.7636732999817,None,849.2920572666665,None,849.2920572666665,None,849.2920572666665,None,0.010710466682212427,None,849.2920572666665,None,849.2920572666665,None,849.2920572666665,None,849.2920572666665,None,849.2920572666665,None,849.2920572666665,None,849.3096069000021,None,849.3096069000021,None,849.3096069000021,None,0.0035647666663862765,0.5035647666663863,849.3096069000021,None,849.3096069000021,None,849.3096069000021,None,849.3096069000021,None,849.3096069000021,None,849.3096069000021,None,851.3090027666515,None,2.3999999999999986,1.85,-1450,-1600,-1650,,,,,,,,,,,,,,,,,,,,,,,,,,,,,,,,,,,,,,,,,,,,,,,,,,,,,,,,,,,,,,,,,,,,,,,,,,,,,,,,,,,f,24,wjr,2022_Apr_10_1456,experiment3,2021.1.4,30.143252796678798,
29,50,0,50,one,50,0,50,,,,,0,95,95,28,,,,,,,,,,,g,0.22832630001357757,853.1976585999946,None,853.1976585999946,None,853.45823009999,None,853.45823009999,None,853.45823009999,None,855.4413162999845,855.9574369999755,855.4413162999845,855.9574369999755,855.4413162999845,855.9574369999755,853.45823009999,None,855.9741036666421,None,855.9741036666421,None,855.9741036666421,None,0.011256466648774222,None,855.9741036666421,None,855.9741036666421,None,855.9741036666421,None,855.9741036666421,None,855.9741036666421,None,855.9741036666421,None,855.9899638999777,None,855.9899638999777,None,855.9899638999777,None,0.004096666641999036,0.504096666641999,855.9899638999777,None,855.9899638999777,None,855.9899638999777,None,855.9899638999777,None,855.9899638999777,None,855.9899638999777,None,857.9965924999851,857.9965924999851,11.5,3.552,-1400,-1600,-1600,,,,,,,,,,,,,,,,,,,,,,,,,,,,,,,,,,,,,,,,,,,,,,,,,,,,,,,,,,,,,,,,,,,,,,,,,,,,,,,,,,,f,24,wjr,2022_Apr_10_1456,experiment3,2021.1.4,30.143252796678798,
,,,,,,,,,,,,,,,,,,,,,,,,,,,,,,,,,,,,,,,,,,,,,,,,,,,,,,,,,,,,,,,,,,,,,,,,,,,,,,,,,,,,,,,,,,,,,861.6333495999861,None,space,7.518335999979172,861.6333495999861,None,,,,,,,,,,,,,,,,,,,,,,,,,,,,,,,,,,,,,,,,,,,,,,,,,,,,,,,,,,,,,,,,,,,,,,,,,,,,,f,24,wjr,2022_Apr_10_1456,experiment3,2021.1.4,30.143252796678798,
,,,,,,,,,,,,,,,,,,,,,,,,,,,,,,,,,,,,,,,,,,,,,,,,,,,,,,,,,,,,,,,,,,,,,,,,,,,,,,,,,,,,,,,,,,,,,,,,,,,869.2050697999948,None,space,1.40994110002066,869.2050697999948,None,,,,,,,,,,,,,,,,,,,,,,,,,,,,,,,,,,,,,,,,,,,,,,,,,,,,,,,,,,,,,,,,,,,,,,,f,24,wjr,2022_Apr_10_1456,experiment3,2021.1.4,30.143252796678798,
51,-150,0,-200,,-150,,-200,right,"[12, 4]",0,"'a', 'g'",,,,,0,0,0,50,,,,,,,,,,,,,,,,,,,,,,,,,,,,,,,,,,,,,,,,,,,,,,,,,,,,,,,,,,,,,,,,,,,,,-12.799999999999997,2.489,-1550,-1600,-1800,,,,,,,,,,,,,872.737919599982,None,872.737919599982,None,872.737919599982,None,870.7173557999777,None,0.01511326665058732,0.5151132666505873,g,1.133915699989302,873.2045294999843,None,873.2045294999843,None,873.2045294999843,None,873.2045294999843,None,873.2045294999843,None,874.370460966664,None,874.370460966664,None,874.370460966664,None,0.006354366661980748,None,874.370460966664,None,874.370460966664,None,874.370460966664,None,874.370460966664,None,874.370460966664,None,874.370460966664,None,874.3897179999913,None,874.3897179999913,None,874.3897179999913,None,0.013561033323640004,0.51356103332364,874.3897179999913,None,874.3897179999913,None,874.3897179999913,None,874.3897179999913,None,874.3897179999913,None,874.3897179999913,None,876.387224999984,876.387224999984,,,,,,,f,24,wjr,2022_Apr_10_1456,experiment3,2021.1.4,30.143252796678798,
