trialNumber,mychoice,otherchoice,stay,skip,pointsWon,otherScore,unobtained,choicepos,pos_1,otherscore,allowedkeyresp,trials_2.thisRepN,trials_2.thisTrialN,trials_2.thisN,trials_2.thisIndex,trials.thisRepN,trials.thisTrialN,trials.thisN,trials.thisIndex,image_2.started,image_2.stopped,key_resp_2.keys,key_resp_2.rt,key_resp_2.started,key_resp_2.stopped,key_resp_6.keys,key_resp_6.rt,key_resp_6.started,key_resp_6.stopped,text.started,text.stopped,left_3.started,left_3.stopped,middle_3.started,middle_3.stopped,right_3.started,right_3.stopped,otherleft_1.started,otherleft_1.stopped,othermiddle_1.started,othermiddle_1.stopped,otherright_1.started,otherright_1.stopped,text_2.started,text_2.stopped,left_4.started,left_4.stopped,right_4.started,right_4.stopped,middle_4.started,middle_4.stopped,ISI_3.started,ISI_3.stopped,mypick.started,mypick.stopped,otherpick.started,otherpick.stopped,residal.started,residal.stopped,otherleft_5.started,otherleft_5.stopped,othermiddle_5.started,othermiddle_5.stopped,otherright_5.started,otherright_5.stopped,left_5.started,left_5.stopped,right_5.started,right_5.stopped,middle_5.started,middle_5.stopped,ISI_5.started,ISI_5.stopped,mypick_1.started,mypick_1.stopped,otherpick_1.started,otherpick_1.stopped,residal_1.started,residal_1.stopped,otherleft_6.started,otherleft_6.stopped,othermiddle_6.started,othermiddle_6.stopped,otherright_6.started,otherright_6.stopped,text_3.started,text_3.stopped,rating,ratingrt,totalScore,othertotalScore,unobtainedScore,image_4.started,image_4.stopped,key_resp_3.keys,key_resp_3.rt,key_resp_3.started,key_resp_3.stopped,image_5.started,image_5.stopped,key_resp.keys,key_resp.rt,key_resp.started,key_resp.stopped,otherleft_3.started,otherleft_3.stopped,othermiddle_3.started,othermiddle_3.stopped,otherright_3.started,otherright_3.stopped,text_4.started,text_4.stopped,ISI_2.started,ISI_2.stopped,key_resp_4.keys,key_resp_4.rt,key_resp_4.started,key_resp_4.stopped,otherleft_4.started,otherleft_4.stopped,othermiddle_4.started,othermiddle_4.stopped,otherright_4.started,otherright_4.stopped,text_5.started,text_5.stopped,left.started,left.stopped,right.started,right.stopped,middle.started,middle.stopped,ISI.started,ISI.stopped,mypick_3.started,mypick_3.stopped,otherpick_3.started,otherpick_3.stopped,residal_3.started,residal_3.stopped,otherleft.started,otherleft.stopped,othermiddle.started,othermiddle.stopped,otherright.started,otherright.stopped,right_2.started,right_2.stopped,middle_2.started,middle_2.stopped,left_2.started,left_2.stopped,ISI_4.started,ISI_4.stopped,mypick_4.started,mypick_4.stopped,otherpick_4.started,otherpick_4.stopped,residal_4.started,residal_4.stopped,otherleft_2.started,otherleft_2.stopped,othermiddle_2.started,othermiddle_2.stopped,otherright_2.started,otherright_2.stopped,text_6.started,text_6.stopped,image_3.started,image_3.stopped,key_resp_9.keys,key_resp_9.rt,key_resp_9.started,key_resp_9.stopped,gender,age,participant,date,expName,psychopyVersion,frameRate,
,,,,,,,,,,,,,,,,,,,,42.75124449998839,None,space,2.620896200009156,42.75124449998839,None,,,,,,,,,,,,,,,,,,,,,,,,,,,,,,,,,,,,,,,,,,,,,,,,,,,,,,,,,,,,,,,,,,,,,,,,,,,,,,,,,,,,,,,,,,,,,,,,,,,,,,,,,,,,,,,,,,,,,,,,,,,,,,,,,,,,,,,,,,,,,,,,,,,,,,m,22,yangxu,2022_Apr_12_1521,experiment3,2021.1.4,60.11338585701455,
76,0,-150,-150,one,0,-150,-150,,,,,0,0,0,75,,,,,,,,,,,l,4.739019199972972,45.48454460001085,None,45.48454460001085,None,50.26207070000237,None,50.26207070000237,None,50.26207070000237,None,52.23259189998498,52.73270960000809,52.23259189998498,52.73270960000809,52.23259189998498,52.73270960000809,50.26207070000237,None,52.78185877997893,None,52.78185877997893,None,52.78185877997893,None,0.011731679958757013,None,52.78185877997893,None,52.78185877997893,None,52.78185877997893,None,52.78185877997893,None,52.78185877997893,None,52.78185877997893,None,52.792090100003406,None,52.792090100003406,None,52.792090100003406,None,0.0017417799099348485,0.5017417799099348,52.792090100003406,None,52.792090100003406,None,52.792090100003406,None,52.792090100003406,None,52.792090100003406,None,52.792090100003406,None,54.78334199998062,54.78334199998062,0.29999999999999716,13.129,200,-150,-150,,,,,,,,,,,,,,,,,,,,,,,,,,,,,,,,,,,,,,,,,,,,,,,,,,,,,,,,,,,,,,,,,,,,,,,,,,,,,,,,,,,m,22,yangxu,2022_Apr_12_1521,experiment3,2021.1.4,60.11338585701455,
80,-150,-200,-150,two,-150,-200,-150,,,,,0,1,1,79,,,,,,,,,,,g,1.8093367999535985,68.01213190000271,None,68.01213190000271,None,69.85577490000287,None,69.85577490000287,None,69.85577490000287,None,71.85321229998954,None,71.85321229998954,None,71.85321229998954,None,69.85577490000287,None,72.37301414001267,None,72.37301414001267,None,72.37301414001267,None,0.0023642400628887117,None,72.37301414001267,None,72.37301414001267,None,72.37301414001267,None,72.37301414001267,None,72.37301414001267,None,72.37301414001267,None,72.39619220001623,None,72.39619220001623,None,72.39619220001623,None,0.00920158001827076,0.5092015800182708,72.39619220001623,None,72.39619220001623,None,72.39619220001623,None,72.39619220001623,None,72.39619220001623,None,72.39619220001623,None,74.39511789998505,74.39511789998505,-25.5,3.009,50,-350,-300,,,,,,,,,,,,,,,,,,,,,,,,,,,,,,,,,,,,,,,,,,,,,,,,,,,,,,,,,,,,,,,,,,,,,,,,,,,,,,,,,,,m,22,yangxu,2022_Apr_12_1521,experiment3,2021.1.4,60.11338585701455,
25,200,50,50,one,200,50,50,,,,,0,2,2,24,,,,,,,,,,,l,3.63937970000552,77.47891930001788,None,77.47891930001788,None,81.14438929996686,None,81.14438929996686,None,81.14438929996686,None,83.12580589996651,83.62618700001622,83.12580589996651,83.62618700001622,83.12580589996651,83.62618700001622,81.14438929996686,None,83.64288974001538,None,83.64288974001538,None,83.64288974001538,None,0.010625339986290783,None,83.64288974001538,None,83.64288974001538,None,83.64288974001538,None,83.64288974001538,None,83.64288974001538,None,83.64288974001538,None,83.65966200002003,None,83.65966200002003,None,83.65966200002003,None,0.013604279956780374,0.5136042799567804,83.65966200002003,None,83.65966200002003,None,83.65966200002003,None,83.65966200002003,None,83.65966200002003,None,83.65966200002003,None,85.64444160001585,85.64444160001585,-0.29999999999999716,2.999,250,-300,-250,,,,,,,,,,,,,,,,,,,,,,,,,,,,,,,,,,,,,,,,,,,,,,,,,,,,,,,,,,,,,,,,,,,,,,,,,,,,,,,,,,,m,22,yangxu,2022_Apr_12_1521,experiment3,2021.1.4,60.11338585701455,
43,200,200,0,two,200,200,0,,,,,0,3,3,42,,,,,,,,,,,l,1.688809500017669,88.70969709998462,None,88.70969709998462,None,90.42623490002006,None,90.42623490002006,None,90.42623490002006,None,92.40785499999765,92.90781230002176,92.40785499999765,92.90781230002176,92.40785499999765,92.90781230002176,90.42623490002006,None,92.94127154002199,None,92.94127154002199,None,92.94127154002199,None,0.00844184000743553,None,92.94127154002199,None,92.94127154002199,None,92.94127154002199,None,92.94127154002199,None,92.94127154002199,None,92.94127154002199,None,92.96035579999443,None,92.96035579999443,None,92.96035579999443,None,0.01300497999181971,0.5130049799918197,92.96035579999443,None,92.96035579999443,None,92.96035579999443,None,92.96035579999443,None,92.96035579999443,None,92.96035579999443,None,94.93964389996836,94.93964389996836,-25.2,6.639,450,-100,-250,,,,,,,,,,,,,,,,,,,,,,,,,,,,,,,,,,,,,,,,,,,,,,,,,,,,,,,,,,,,,,,,,,,,,,,,,,,,,,,,,,,m,22,yangxu,2022_Apr_12_1521,experiment3,2021.1.4,60.11338585701455,
2,0,200,50,one,0,200,50,,,,,0,4,4,1,,,,,,,,,,,a,1.7870879999827594,101.66105579998111,None,101.66105579998111,None,103.47711290000007,None,103.47711290000007,None,103.47711290000007,None,105.46703890000936,105.97122319997288,105.46703890000936,105.97122319997288,105.46703890000936,105.97122319997288,103.47711290000007,None,105.98792593997204,None,105.98792593997204,None,105.98792593997204,None,0.011598140001296997,None,105.98792593997204,None,105.98792593997204,None,105.98792593997204,None,105.98792593997204,None,105.98792593997204,None,105.98792593997204,None,106.00424280000152,None,106.00424280000152,None,106.00424280000152,None,0.016641579975839704,0.5166415799758397,106.00424280000152,None,106.00424280000152,None,106.00424280000152,None,106.00424280000152,None,106.00424280000152,None,106.00424280000152,None,107.97270520002348,107.97270520002348,-50.0,1.91,450,100,-200,,,,,,,,,,,,,,,,,,,,,,,,,,,,,,,,,,,,,,,,,,,,,,,,,,,,,,,,,,,,,,,,,,,,,,,,,,,,,,,,,,,m,22,yangxu,2022_Apr_12_1521,experiment3,2021.1.4,60.11338585701455,
77,-150,0,-150,one,-150,0,-150,,,,,0,5,5,76,,,,,,,,,,,a,1.8832406000001356,109.98845319997054,None,109.98845319997054,None,111.90340700000525,None,111.90340700000525,None,111.90340700000525,None,113.9043489000178,None,113.9043489000178,None,113.9043489000178,None,111.90340700000525,None,114.40389343998395,None,114.40389343998395,None,114.40389343998395,None,0.00939743994968012,None,114.40389343998395,None,114.40389343998395,None,114.40389343998395,None,114.40389343998395,None,114.40389343998395,None,114.40389343998395,None,114.41813720000209,None,114.41813720000209,None,114.41813720000209,None,0.01584217994241044,0.5158421799424104,114.41813720000209,None,114.41813720000209,None,114.41813720000209,None,114.41813720000209,None,114.41813720000209,None,114.41813720000209,None,116.429622799973,116.429622799973,-50.0,5.063,300,100,-350,,,,,,,,,,,,,,,,,,,,,,,,,,,,,,,,,,,,,,,,,,,,,,,,,,,,,,,,,,,,,,,,,,,,,,,,,,,,,,,,,,,m,22,yangxu,2022_Apr_12_1521,experiment3,2021.1.4,60.11338585701455,
72,-200,0,0,two,-200,0,0,,,,,0,6,6,71,,,,,,,,,,,g,1.8035155999823473,121.58495639998,None,121.58495639998,None,123.42037120001623,None,123.42037120001623,None,123.42037120001623,None,125.40087000001222,125.90112439997029,125.40087000001222,125.90112439997029,125.40087000001222,125.90112439997029,123.42037120001623,None,125.9352584399865,None,125.9352584399865,None,125.9352584399865,None,0.010721139959059656,None,125.9352584399865,None,125.9352584399865,None,125.9352584399865,None,125.9352584399865,None,125.9352584399865,None,125.9352584399865,None,125.9518010999891,None,125.9518010999891,None,125.9518010999891,None,0.014076379942707717,0.5140763799427077,125.9518010999891,None,125.9518010999891,None,125.9518010999891,None,125.9518010999891,None,125.9518010999891,None,125.9518010999891,None,127.94479609996779,127.94479609996779,-50.0,1.713,100,100,-350,,,,,,,,,,,,,,,,,,,,,,,,,,,,,,,,,,,,,,,,,,,,,,,,,,,,,,,,,,,,,,,,,,,,,,,,,,,,,,,,,,,m,22,yangxu,2022_Apr_12_1521,experiment3,2021.1.4,60.11338585701455,
78,-150,-150,0,one,-150,-150,0,,,,,0,7,7,77,,,,,,,,,,,g,1.3638641000143252,129.72211699996842,None,129.72211699996842,None,131.11905300000217,None,131.11905300000217,None,131.11905300000217,None,133.09968970000045,None,133.09968970000045,None,133.09968970000045,None,131.11905300000217,None,133.64010957997527,None,133.64010957997527,None,133.64010957997527,None,0.013819179963320494,None,133.64010957997527,None,133.64010957997527,None,133.64010957997527,None,133.64010957997527,None,133.64010957997527,None,133.64010957997527,None,133.65233239997178,None,133.65233239997178,None,133.65233239997178,None,0.0036989799118600786,0.5036989799118601,133.65233239997178,None,133.65233239997178,None,133.65233239997178,None,133.65233239997178,None,133.65233239997178,None,133.65233239997178,None,135.63501929998165,135.63501929998165,-50.0,1.854,-50,-50,-350,,,,,,,,,,,,,,,,,,,,,,,,,,,,,,,,,,,,,,,,,,,,,,,,,,,,,,,,,,,,,,,,,,,,,,,,,,,,,,,,,,,m,22,yangxu,2022_Apr_12_1521,experiment3,2021.1.4,60.11338585701455,
36,50,50,0,two,50,50,0,,,,,0,8,8,35,,,,,,,,,,,l,1.463433500030078,137.55168460001005,None,137.55168460001005,None,139.03566739999224,None,139.03566739999224,None,139.03566739999224,None,141.01479099999415,141.53249279997544,141.01479099999415,141.53249279997544,141.01479099999415,141.53249279997544,139.03566739999224,None,141.54919553997462,None,141.54919553997462,None,141.54919553997462,None,0.0016531399451196194,None,141.54919553997462,None,141.54919553997462,None,141.54919553997462,None,141.54919553997462,None,141.54919553997462,None,141.54919553997462,None,141.57044260000112,None,141.57044260000112,None,141.57044260000112,None,0.008032879908569157,0.5080328799085692,141.57044260000112,None,141.57044260000112,None,141.57044260000112,None,141.57044260000112,None,141.57044260000112,None,141.57044260000112,None,143.55318599997554,143.55318599997554,-0.10000000000000142,2.564,0,0,-350,,,,,,,,,,,,,,,,,,,,,,,,,,,,,,,,,,,,,,,,,,,,,,,,,,,,,,,,,,,,,,,,,,,,,,,,,,,,,,,,,,,m,22,yangxu,2022_Apr_12_1521,experiment3,2021.1.4,60.11338585701455,
49,0,-150,-200,one,0,-150,-200,,,,,0,9,9,48,,,,,,,,,,,l,2.0049355000373907,146.18090490001487,None,146.18090490001487,None,148.22505770000862,None,148.22505770000862,None,148.22505770000862,None,150.19738420000067,150.69594180001877,150.19738420000067,150.69594180001877,150.19738420000067,150.69594180001877,148.22505770000862,None,150.72981023999165,None,150.72981023999165,None,150.72981023999165,None,0.009301439975388348,None,150.72981023999165,None,150.72981023999165,None,150.72981023999165,None,150.72981023999165,None,150.72981023999165,None,150.72981023999165,None,150.74700919998577,None,150.74700919998577,None,150.74700919998577,None,0.014010179962497205,0.5140101799624972,150.74700919998577,None,150.74700919998577,None,150.74700919998577,None,150.74700919998577,None,150.74700919998577,None,150.74700919998577,None,152.74610629997915,152.74610629997915,13.100000000000001,3.552,0,-150,-550,,,,,,,,,,,,,,,,,,,,,,,,,,,,,,,,,,,,,,,,,,,,,,,,,,,,,,,,,,,,,,,,,,,,,,,,,,,,,,,,,,,m,22,yangxu,2022_Apr_12_1521,experiment3,2021.1.4,60.11338585701455,
46,200,200,50,two,200,200,50,,,,,0,10,10,45,,,,,,,,,,,l,0.7945650000474416,156.3614932000055,None,156.3614932000055,None,157.1805452000117,None,157.1805452000117,None,157.1805452000117,None,159.16150849999394,159.6610918000224,159.16150849999394,159.6610918000224,159.16150849999394,159.6610918000224,157.1805452000117,None,159.69455594000175,None,159.69455594000175,None,159.69455594000175,None,0.011548040027264506,None,159.69455594000175,None,159.69455594000175,None,159.69455594000175,None,159.69455594000175,None,159.69455594000175,None,159.69455594000175,None,159.71369409997715,None,159.71369409997715,None,159.71369409997715,None,0.015814980026334524,0.5158149800263345,159.71369409997715,None,159.71369409997715,None,159.71369409997715,None,159.71369409997715,None,159.71369409997715,None,159.71369409997715,None,161.6797989999759,161.6797989999759,-0.20000000000000284,3.943,200,50,-500,,,,,,,,,,,,,,,,,,,,,,,,,,,,,,,,,,,,,,,,,,,,,,,,,,,,,,,,,,,,,,,,,,,,,,,,,,,,,,,,,,,m,22,yangxu,2022_Apr_12_1521,experiment3,2021.1.4,60.11338585701455,
26,50,200,50,one,50,200,50,,,,,0,11,11,25,,,,,,,,,,,l,0.6007468999596313,165.73325879999902,None,165.73325879999902,None,166.3735378999845,None,166.3735378999845,None,166.3735378999845,None,168.35986129997764,168.8765927000204,168.35986129997764,168.8765927000204,168.35986129997764,168.8765927000204,166.3735378999845,None,168.90999818001876,None,168.90999818001876,None,168.90999818001876,None,0.01595647999783978,None,168.90999818001876,None,168.90999818001876,None,168.90999818001876,None,168.90999818001876,None,168.90999818001876,None,168.90999818001876,None,168.92468549998011,None,168.92468549998011,None,168.92468549998011,None,0.0011388799757696688,0.5011388799757697,168.92468549998011,None,168.92468549998011,None,168.92468549998011,None,168.92468549998011,None,168.92468549998011,None,168.92468549998011,None,170.92486474000617,None,-50.0,1.438,250,250,-450,,,,,,,,,,,,,,,,,,,,,,,,,,,,,,,,,,,,,,,,,,,,,,,,,,,,,,,,,,,,,,,,,,,,,,,,,,,,,,,,,,,m,22,yangxu,2022_Apr_12_1521,experiment3,2021.1.4,60.11338585701455,
10,50,200,0,two,50,200,0,,,,,0,12,12,9,,,,,,,,,,,l,0.6674965000129305,172.4097259999835,None,172.4097259999835,None,173.09582390001742,None,173.09582390001742,None,173.09582390001742,None,175.07617399998708,175.5902818000177,175.07617399998708,175.5902818000177,175.07617399998708,175.5902818000177,173.09582390001742,None,175.60698454001687,None,175.60698454001687,None,175.60698454001687,None,0.01165104005485773,None,175.60698454001687,None,175.60698454001687,None,175.60698454001687,None,175.60698454001687,None,175.60698454001687,None,175.60698454001687,None,175.62349149998045,None,175.62349149998045,None,175.62349149998045,None,0.014880280010402203,0.5148802800104022,175.62349149998045,None,175.62349149998045,None,175.62349149998045,None,175.62349149998045,None,175.62349149998045,None,175.62349149998045,None,177.6138629000052,177.6138629000052,-50.0,4.109,300,450,-450,,,,,,,,,,,,,,,,,,,,,,,,,,,,,,,,,,,,,,,,,,,,,,,,,,,,,,,,,,,,,,,,,,,,,,,,,,,,,,,,,,,m,22,yangxu,2022_Apr_12_1521,experiment3,2021.1.4,60.11338585701455,
9,50,0,200,two,50,0,200,,,,,0,13,13,8,,,,,,,,,,,a,1.258812099986244,181.80000990000553,None,181.80000990000553,None,183.0770270000212,None,183.0770270000212,None,183.0770270000212,None,185.0579357999959,185.55871529999422,185.0579357999959,185.55871529999422,185.0579357999959,185.55871529999422,183.0770270000212,None,185.61436587999344,None,185.61436587999344,None,185.61436587999344,None,0.011849579925183207,None,185.61436587999344,None,185.61436587999344,None,185.61436587999344,None,185.61436587999344,None,185.61436587999344,None,185.61436587999344,None,185.64938800001983,None,185.64938800001983,None,185.64938800001983,None,0.00988741999026388,0.5098874199902639,185.64938800001983,None,185.64938800001983,None,185.64938800001983,None,185.64938800001983,None,185.64938800001983,None,185.64938800001983,None,187.64096739998786,187.64096739998786,0.0,1.915,350,450,-250,,,,,,,,,,,,,,,,,,,,,,,,,,,,,,,,,,,,,,,,,,,,,,,,,,,,,,,,,,,,,,,,,,,,,,,,,,,,,,,,,,,m,22,yangxu,2022_Apr_12_1521,experiment3,2021.1.4,60.11338585701455,
29,50,0,50,one,50,0,50,,,,,0,14,14,28,,,,,,,,,,,g,0.8653699000133201,189.65672540001106,None,189.65672540001106,None,190.54151880001882,None,190.54151880001882,None,190.54151880001882,None,192.52415610000025,193.03803419996984,192.52415610000025,193.03803419996984,192.52415610000025,193.03803419996984,190.54151880001882,None,193.05473693996902,None,193.05473693996902,None,193.05473693996902,None,0.009134439926128834,None,193.05473693996902,None,193.05473693996902,None,193.05473693996902,None,193.05473693996902,None,193.05473693996902,None,193.05473693996902,None,193.07115919998614,None,193.07115919998614,None,193.07115919998614,None,0.015103679907042533,0.5151036799070425,193.07115919998614,None,193.07115919998614,None,193.07115919998614,None,193.07115919998614,None,193.07115919998614,None,193.07115919998614,None,195.05588870000793,195.05588870000793,-0.29999999999999716,1.639,400,450,-200,,,,,,,,,,,,,,,,,,,,,,,,,,,,,,,,,,,,,,,,,,,,,,,,,,,,,,,,,,,,,,,,,,,,,,,,,,,,,,,,,,,m,22,yangxu,2022_Apr_12_1521,experiment3,2021.1.4,60.11338585701455,
87,0,-200,-200,one,0,-200,-200,,,,,0,15,15,86,,,,,,,,,,,g,0.6637107999995351,196.75993439997546,None,196.75993439997546,None,197.45293500000844,None,197.45293500000844,None,197.45293500000844,None,199.43752450001193,None,199.43752450001193,None,199.43752450001193,None,197.45293500000844,None,199.96987787997352,None,199.96987787997352,None,199.96987787997352,None,0.010632279969286174,None,199.96987787997352,None,199.96987787997352,None,199.96987787997352,None,199.96987787997352,None,199.96987787997352,None,199.96987787997352,None,199.99805320001906,None,199.99805320001906,None,199.99805320001906,None,0.007901720062363893,0.5079017200623639,199.99805320001906,None,199.99805320001906,None,199.99805320001906,None,199.99805320001906,None,199.99805320001906,None,199.99805320001906,None,201.9747495999909,201.9747495999909,25.0,5.537,400,250,-400,,,,,,,,,,,,,,,,,,,,,,,,,,,,,,,,,,,,,,,,,,,,,,,,,,,,,,,,,,,,,,,,,,,,,,,,,,,,,,,,,,,m,22,yangxu,2022_Apr_12_1521,experiment3,2021.1.4,60.11338585701455,
24,200,0,0,two,200,0,0,,,,,0,16,16,23,,,,,,,,,,,g,5.917799200047739,207.60333569999784,None,207.60333569999784,None,213.56169319996843,None,213.56169319996843,None,213.56169319996843,None,215.54414040001575,216.05031700001564,215.54414040001575,216.05031700001564,215.54414040001575,216.05031700001564,213.56169319996843,None,216.0670197400148,None,216.0670197400148,None,216.0670197400148,None,0.009259440063033253,None,216.0670197400148,None,216.0670197400148,None,216.0670197400148,None,216.0670197400148,None,216.0670197400148,None,216.0670197400148,None,216.08260760002304,None,216.08260760002304,None,216.08260760002304,None,0.014665380003862083,0.5146653800038621,216.08260760002304,None,216.08260760002304,None,216.08260760002304,None,216.08260760002304,None,216.08260760002304,None,216.08260760002304,None,218.0680365000153,218.0680365000153,50.0,1.985,600,250,-400,,,,,,,,,,,,,,,,,,,,,,,,,,,,,,,,,,,,,,,,,,,,,,,,,,,,,,,,,,,,,,,,,,,,,,,,,,,,,,,,,,,m,22,yangxu,2022_Apr_12_1521,experiment3,2021.1.4,60.11338585701455,
81,-150,-150,-200,two,-150,-150,-200,,,,,0,17,17,80,,,,,,,,,,,l,1.50341980002122,220.1385474000126,None,220.1385474000126,None,221.67902839998715,None,221.67902839998715,None,221.67902839998715,None,223.6490059000207,224.18120539997471,223.6490059000207,224.18120539997471,223.6490059000207,224.18120539997471,221.67902839998715,None,224.21461087997307,None,224.21461087997307,None,224.21461087997307,None,0.0038489800062961876,None,224.21461087997307,None,224.21461087997307,None,224.21461087997307,None,224.21461087997307,None,224.21461087997307,None,224.21461087997307,None,224.27146299998276,None,224.27146299998276,None,224.27146299998276,None,0.008343859983142465,0.5083438599831425,224.27146299998276,None,224.27146299998276,None,224.27146299998276,None,224.27146299998276,None,224.27146299998276,None,224.27146299998276,None,226.240962699987,226.240962699987,-24.8,1.703,450,100,-600,,,,,,,,,,,,,,,,,,,,,,,,,,,,,,,,,,,,,,,,,,,,,,,,,,,,,,,,,,,,,,,,,,,,,,,,,,,,,,,,,,,m,22,yangxu,2022_Apr_12_1521,experiment3,2021.1.4,60.11338585701455,
92,-200,0,-200,two,-200,0,-200,,,,,0,18,18,91,,,,,,,,,,,l,0.9882305999635719,228.0315829999745,None,228.0315829999745,None,229.04910790000577,None,229.04910790000577,None,229.04910790000577,None,231.03965749999043,231.54714239999885,231.03965749999043,231.54714239999885,231.03965749999043,231.54714239999885,229.04910790000577,None,231.56384513999802,None,231.56384513999802,None,231.56384513999802,None,0.011685839970596135,None,231.56384513999802,None,231.56384513999802,None,231.56384513999802,None,231.56384513999802,None,231.56384513999802,None,231.56384513999802,None,231.57957449997775,None,231.57957449997775,None,231.57957449997775,None,0.015197980043012649,0.5151979800430126,231.57957449997775,None,231.57957449997775,None,231.57957449997775,None,231.57957449997775,None,231.57957449997775,None,231.57957449997775,None,233.56396220001625,233.56396220001625,-50.0,2.09,250,100,-800,,,,,,,,,,,,,,,,,,,,,,,,,,,,,,,,,,,,,,,,,,,,,,,,,,,,,,,,,,,,,,,,,,,,,,,,,,,,,,,,,,,m,22,yangxu,2022_Apr_12_1521,experiment3,2021.1.4,60.11338585701455,
61,0,0,-150,one,0,0,-150,,,,,0,19,19,60,,,,,,,,,,,g,0.41585779999149963,235.7344526000088,None,235.7344526000088,None,236.17627469997387,None,236.17627469997387,None,236.17627469997387,None,238.16817499999888,None,238.16817499999888,None,238.16817499999888,None,236.17627469997387,None,238.67995153997327,None,238.67995153997327,None,238.67995153997327,None,0.011497339932247996,None,238.67995153997327,None,238.67995153997327,None,238.67995153997327,None,238.67995153997327,None,238.67995153997327,None,238.67995153997327,None,238.69611099996837,None,238.69611099996837,None,238.69611099996837,None,0.01639787992462516,0.5163978799246252,238.69611099996837,None,238.69611099996837,None,238.69611099996837,None,238.69611099996837,None,238.69611099996837,None,238.69611099996837,None,240.67939529998694,240.67939529998694,0.0,1.509,250,100,-950,,,,,,,,,,,,,,,,,,,,,,,,,,,,,,,,,,,,,,,,,,,,,,,,,,,,,,,,,,,,,,,,,,,,,,,,,,,,,,,,,,,m,22,yangxu,2022_Apr_12_1521,experiment3,2021.1.4,60.11338585701455,
3,50,0,200,one,50,0,200,,,,,0,20,20,2,,,,,,,,,,,g,0.5336974000092596,242.25286519998917,None,242.25286519998917,None,242.83257620001677,None,242.83257620001677,None,242.83257620001677,None,244.81278290000046,None,244.81278290000046,None,244.81278290000046,None,242.83257620001677,None,245.32706823998598,None,245.32706823998598,None,245.32706823998598,None,0.011893139977473766,None,245.32706823998598,None,245.32706823998598,None,245.32706823998598,None,245.32706823998598,None,245.32706823998598,None,245.32706823998598,None,245.3433552000206,None,245.3433552000206,None,245.3433552000206,None,0.01497408002614975,0.5149740800261497,245.3433552000206,None,245.3433552000206,None,245.3433552000206,None,245.3433552000206,None,245.3433552000206,None,245.3433552000206,None,247.33280530001502,247.33280530001502,-0.10000000000000142,2.068,300,100,-750,,,,,,,,,,,,,,,,,,,,,,,,,,,,,,,,,,,,,,,,,,,,,,,,,,,,,,,,,,,,,,,,,,,,,,,,,,,,,,,,,,,m,22,yangxu,2022_Apr_12_1521,experiment3,2021.1.4,60.11338585701455,
45,0,200,200,two,0,200,200,,,,,0,21,21,44,,,,,,,,,,,g,0.9196807999978773,249.46558389998972,None,249.46558389998972,None,250.4262743999716,None,250.4262743999716,None,250.4262743999716,None,252.41022239997983,252.9091919999919,252.41022239997983,252.9091919999919,252.41022239997983,252.9091919999919,250.4262743999716,None,252.94259747999024,None,252.94259747999024,None,252.94259747999024,None,0.01256348000606522,None,252.94259747999024,None,252.94259747999024,None,252.94259747999024,None,252.94259747999024,None,252.94259747999024,None,252.94259747999024,None,252.95612809999147,None,252.95612809999147,None,252.95612809999147,None,0.016229719971306622,0.5162297199713066,252.95612809999147,None,252.95612809999147,None,252.95612809999147,None,252.95612809999147,None,252.95612809999147,None,252.95612809999147,None,254.94843150000088,254.94843150000088,-49.9,1.746,300,300,-550,,,,,,,,,,,,,,,,,,,,,,,,,,,,,,,,,,,,,,,,,,,,,,,,,,,,,,,,,,,,,,,,,,,,,,,,,,,,,,,,,,,m,22,yangxu,2022_Apr_12_1521,experiment3,2021.1.4,60.11338585701455,
59,-200,-150,0,two,-200,-150,0,,,,,0,22,22,58,,,,,,,,,,,g,0.4624349000514485,256.76395120000234,None,256.76395120000234,None,257.24741599999834,None,257.24741599999834,None,257.24741599999834,None,259.229038999998,259.74332190002315,259.229038999998,259.74332190002315,259.229038999998,259.74332190002315,257.24741599999834,None,259.7600246400223,None,259.7600246400223,None,259.7600246400223,None,0.011528540053404868,None,259.7600246400223,None,259.7600246400223,None,259.7600246400223,None,259.7600246400223,None,259.7600246400223,None,259.7600246400223,None,259.77468440000666,None,259.77468440000666,None,259.77468440000666,None,5.864002741873264e-05,0.5000586400274187,259.77468440000666,None,259.77468440000666,None,259.77468440000666,None,259.77468440000666,None,259.77468440000666,None,259.77468440000666,None,261.76550739997765,261.76550739997765,-50.0,2.149,100,150,-550,,,,,,,,,,,,,,,,,,,,,,,,,,,,,,,,,,,,,,,,,,,,,,,,,,,,,,,,,,,,,,,,,,,,,,,,,,,,,,,,,,,m,22,yangxu,2022_Apr_12_1521,experiment3,2021.1.4,60.11338585701455,
14,0,50,0,one,0,50,0,,,,,0,23,23,13,,,,,,,,,,,a,0.4692925999988802,263.97580610000296,None,263.97580610000296,None,264.4762328999932,None,264.4762328999932,None,264.4762328999932,None,266.46061760000885,None,266.46061760000885,None,266.46061760000885,None,264.4762328999932,None,266.97588023998543,None,266.97588023998543,None,266.97588023998543,None,0.0022736400132998824,None,266.97588023998543,None,266.97588023998543,None,266.97588023998543,None,266.97588023998543,None,266.97588023998543,None,266.97588023998543,None,266.9952111999737,None,266.9952111999737,None,266.9952111999737,None,0.010246779944282025,0.510246779944282,266.9952111999737,None,266.9952111999737,None,266.9952111999737,None,266.9952111999737,None,266.9952111999737,None,266.9952111999737,None,268.9778874000185,268.9778874000185,-50.0,1.922,100,200,-550,,,,,,,,,,,,,,,,,,,,,,,,,,,,,,,,,,,,,,,,,,,,,,,,,,,,,,,,,,,,,,,,,,,,,,,,,,,,,,,,,,,m,22,yangxu,2022_Apr_12_1521,experiment3,2021.1.4,60.11338585701455,
7,0,50,200,two,0,50,200,,,,,0,24,24,6,,,,,,,,,,,a,0.49886499997228384,270.9582070999895,None,270.9582070999895,None,271.4892710999702,None,271.4892710999702,None,271.4892710999702,None,273.46916460001376,273.9723705999786,273.46916460001376,273.9723705999786,273.46916460001376,273.9723705999786,271.4892710999702,None,273.9890733399778,None,273.9890733399778,None,273.9890733399778,None,0.009543139953166246,None,273.9890733399778,None,273.9890733399778,None,273.9890733399778,None,273.9890733399778,None,273.9890733399778,None,273.9890733399778,None,274.0034922999912,None,274.0034922999912,None,274.0034922999912,None,0.015043979976326227,0.5150439799763262,274.0034922999912,None,274.0034922999912,None,274.0034922999912,None,274.0034922999912,None,274.0034922999912,None,274.0034922999912,None,276.00441970000975,276.00441970000975,-49.9,1.679,100,250,-350,,,,,,,,,,,,,,,,,,,,,,,,,,,,,,,,,,,,,,,,,,,,,,,,,,,,,,,,,,,,,,,,,,,,,,,,,,,,,,,,,,,m,22,yangxu,2022_Apr_12_1521,experiment3,2021.1.4,60.11338585701455,
1,0,50,200,one,0,50,200,,,,,0,25,25,0,,,,,,,,,,,l,0.920689599995967,277.7473466999945,None,277.7473466999945,None,278.6937909999979,None,278.6937909999979,None,278.6937909999979,None,280.67125179996947,281.17525019997265,280.67125179996947,281.17525019997265,280.67125179996947,281.17525019997265,278.6937909999979,None,281.21638834000333,None,281.21638834000333,None,281.21638834000333,None,0.010572740051429719,None,281.21638834000333,None,281.21638834000333,None,281.21638834000333,None,281.21638834000333,None,281.21638834000333,None,281.21638834000333,None,281.2360628999886,None,281.2360628999886,None,281.2360628999886,None,0.002273840014822781,0.5022738400148228,281.2360628999886,None,281.2360628999886,None,281.2360628999886,None,281.2360628999886,None,281.2360628999886,None,281.2360628999886,None,283.2327656999696,283.2327656999696,-0.29999999999999716,3.361,100,300,-150,,,,,,,,,,,,,,,,,,,,,,,,,,,,,,,,,,,,,,,,,,,,,,,,,,,,,,,,,,,,,,,,,,,,,,,,,,,,,,,,,,,m,22,yangxu,2022_Apr_12_1521,experiment3,2021.1.4,60.11338585701455,
66,-200,0,0,one,-200,0,0,,,,,0,26,26,65,,,,,,,,,,,g,1.5021052000229247,286.6648487999919,None,286.6648487999919,None,288.1879333999823,None,288.1879333999823,None,288.1879333999823,None,290.17406829999527,None,290.17406829999527,None,290.17406829999527,None,288.1879333999823,None,290.7056621799944,None,290.7056621799944,None,290.7056621799944,None,0.013464379997458309,None,290.7056621799944,None,290.7056621799944,None,290.7056621799944,None,290.7056621799944,None,290.7056621799944,None,290.7056621799944,None,290.7216062999796,None,290.7216062999796,None,290.7216062999796,None,0.015861920022871345,0.5158619200228713,290.7216062999796,None,290.7216062999796,None,290.7216062999796,None,290.7216062999796,None,290.7216062999796,None,290.7216062999796,None,292.7038821000024,292.7038821000024,-50.0,2.579,-100,300,-150,,,,,,,,,,,,,,,,,,,,,,,,,,,,,,,,,,,,,,,,,,,,,,,,,,,,,,,,,,,,,,,,,,,,,,,,,,,,,,,,,,,m,22,yangxu,2022_Apr_12_1521,experiment3,2021.1.4,60.11338585701455,
19,0,0,50,two,0,0,50,,,,,0,27,27,18,,,,,,,,,,,l,1.467225500033237,295.3705836000154,None,295.3705836000154,None,296.8827832000097,None,296.8827832000097,None,296.8827832000097,None,298.8619407999795,None,298.8619407999795,None,298.8619407999795,None,296.8827832000097,None,299.37211413996994,None,299.37211413996994,None,299.37211413996994,None,0.006357040023431182,None,299.37211413996994,None,299.37211413996994,None,299.37211413996994,None,299.37211413996994,None,299.37211413996994,None,299.37211413996994,None,299.3873373999959,None,299.3873373999959,None,299.3873373999959,None,0.015545179951004684,0.5155451799510047,299.3873373999959,None,299.3873373999959,None,299.3873373999959,None,299.3873373999959,None,299.3873373999959,None,299.3873373999959,None,301.3917400999926,301.3917400999926,-25.6,2.733,-100,300,-100,,,,,,,,,,,,,,,,,,,,,,,,,,,,,,,,,,,,,,,,,,,,,,,,,,,,,,,,,,,,,,,,,,,,,,,,,,,,,,,,,,,m,22,yangxu,2022_Apr_12_1521,experiment3,2021.1.4,60.11338585701455,
53,-200,-150,0,one,-200,-150,0,,,,,0,28,28,52,,,,,,,,,,,g,1.601419500017073,304.2237965000095,None,304.2237965000095,None,305.85103839996736,None,305.85103839996736,None,305.85103839996736,None,307.83577309997054,308.348302599974,307.83577309997054,308.348302599974,307.83577309997054,308.348302599974,305.85103839996736,None,308.36500533997315,None,308.36500533997315,None,308.36500533997315,None,0.011274939926806837,None,308.36500533997315,None,308.36500533997315,None,308.36500533997315,None,308.36500533997315,None,308.36500533997315,None,308.36500533997315,None,308.38123359996825,None,308.38123359996825,None,308.38123359996825,None,0.01473387994337827,0.5147338799433783,308.38123359996825,None,308.38123359996825,None,308.38123359996825,None,308.38123359996825,None,308.38123359996825,None,308.38123359996825,None,310.36450819997117,310.36450819997117,-50.0,1.226,-300,150,-100,,,,,,,,,,,,,,,,,,,,,,,,,,,,,,,,,,,,,,,,,,,,,,,,,,,,,,,,,,,,,,,,,,,,,,,,,,,,,,,,,,,m,22,yangxu,2022_Apr_12_1521,experiment3,2021.1.4,60.11338585701455,
5,200,50,0,one,200,50,0,,,,,0,29,29,4,,,,,,,,,,,g,0.5334722999832593,311.6538591000135,None,311.6538591000135,None,312.21059089998016,None,312.21059089998016,None,312.21059089998016,None,314.19700619997457,None,314.19700619997457,None,314.19700619997457,None,312.21059089998016,None,314.7138929399778,None,314.7138929399778,None,314.7138929399778,None,0.011440940026659518,None,314.7138929399778,None,314.7138929399778,None,314.7138929399778,None,314.7138929399778,None,314.7138929399778,None,314.7138929399778,None,314.72949399997015,None,314.72949399997015,None,314.72949399997015,None,0.01522137998836115,0.5152213799883612,314.72949399997015,None,314.72949399997015,None,314.72949399997015,None,314.72949399997015,None,314.72949399997015,None,314.72949399997015,None,316.7131859000074,316.7131859000074,50.0,1.442,-100,200,-100,,,,,,,,,,,,,,,,,,,,,,,,,,,,,,,,,,,,,,,,,,,,,,,,,,,,,,,,,,,,,,,,,,,,,,,,,,,,,,,,,,,m,22,yangxu,2022_Apr_12_1521,experiment3,2021.1.4,60.11338585701455,
89,-200,-150,-200,one,-200,-150,-200,,,,,0,30,30,88,,,,,,,,,,,g,0.8082370000192896,318.2217824999825,None,318.2217824999825,None,319.04863699997077,None,319.04863699997077,None,319.04863699997077,None,321.0292143999832,321.54630980000366,321.0292143999832,321.54630980000366,321.0292143999832,321.54630980000366,319.04863699997077,None,321.579715280002,None,321.579715280002,None,321.579715280002,None,0.011742979986593127,None,321.579715280002,None,321.579715280002,None,321.579715280002,None,321.579715280002,None,321.579715280002,None,321.579715280002,None,321.6028987999889,None,321.6028987999889,None,321.6028987999889,None,0.010443320032209158,0.5104433200322092,321.6028987999889,None,321.6028987999889,None,321.6028987999889,None,321.6028987999889,None,321.6028987999889,None,321.6028987999889,None,323.5814951999928,323.5814951999928,-50.0,1.502,-300,50,-300,,,,,,,,,,,,,,,,,,,,,,,,,,,,,,,,,,,,,,,,,,,,,,,,,,,,,,,,,,,,,,,,,,,,,,,,,,,,,,,,,,,m,22,yangxu,2022_Apr_12_1521,experiment3,2021.1.4,60.11338585701455,
75,-150,-150,-200,one,-150,-150,-200,,,,,0,31,31,74,,,,,,,,,,,l,0.45237519999500364,325.1804608000093,None,325.1804608000093,None,325.6692594999913,None,325.6692594999913,None,325.6692594999913,None,327.6609245999716,328.1699283000198,327.6609245999716,328.1699283000198,327.6609245999716,328.1699283000198,325.6692594999913,None,328.20333378001817,None,328.20333378001817,None,328.20333378001817,None,0.015247580013237894,None,328.20333378001817,None,328.20333378001817,None,328.20333378001817,None,328.20333378001817,None,328.20333378001817,None,328.20333378001817,None,328.2104399999953,None,328.2104399999953,None,328.2104399999953,None,0.006499880051705986,0.506499880051706,328.2104399999953,None,328.2104399999953,None,328.2104399999953,None,328.2104399999953,None,328.2104399999953,None,328.2104399999953,None,330.1991320999805,330.1991320999805,-0.20000000000000284,2.888,-450,-100,-500,,,,,,,,,,,,,,,,,,,,,,,,,,,,,,,,,,,,,,,,,,,,,,,,,,,,,,,,,,,,,,,,,,,,,,,,,,,,,,,,,,,m,22,yangxu,2022_Apr_12_1521,experiment3,2021.1.4,60.11338585701455,
74,-150,-200,-150,one,-150,-200,-150,,,,,0,32,32,73,,,,,,,,,,,l,0.6571590999956243,333.1477256999933,None,333.1477256999933,None,333.8386119999923,None,333.8386119999923,None,333.8386119999923,None,335.8267226999742,336.32673189998604,335.8267226999742,336.32673189998604,335.8267226999742,336.32673189998604,333.8386119999923,None,336.3434346399852,None,336.3434346399852,None,336.3434346399852,None,0.008464739948976785,None,336.3434346399852,None,336.3434346399852,None,336.3434346399852,None,336.3434346399852,None,336.3434346399852,None,336.3434346399852,None,336.3605418999796,None,336.3605418999796,None,336.3605418999796,None,0.014513579953927547,0.5145135799539275,336.3605418999796,None,336.3605418999796,None,336.3605418999796,None,336.3605418999796,None,336.3605418999796,None,336.3605418999796,None,338.3458712999709,338.3458712999709,-0.6000000000000014,2.208,-600,-300,-650,,,,,,,,,,,,,,,,,,,,,,,,,,,,,,,,,,,,,,,,,,,,,,,,,,,,,,,,,,,,,,,,,,,,,,,,,,,,,,,,,,,m,22,yangxu,2022_Apr_12_1521,experiment3,2021.1.4,60.11338585701455,
67,0,0,-150,two,0,0,-150,,,,,0,33,33,66,,,,,,,,,,,l,0.3556279999902472,340.6327820000006,None,340.6327820000006,None,341.0184670999879,None,341.0184670999879,None,341.0184670999879,None,342.991995999997,343.4919995999662,342.991995999997,343.4919995999662,342.991995999997,343.4919995999662,341.0184670999879,None,343.5256434399751,None,343.5256434399751,None,343.5256434399751,None,0.008408939931541681,None,343.5256434399751,None,343.5256434399751,None,343.5256434399751,None,343.5256434399751,None,343.5256434399751,None,343.5256434399751,None,343.5551322000101,None,343.5551322000101,None,343.5551322000101,None,0.008881679910700768,0.5088816799107008,343.5551322000101,None,343.5551322000101,None,343.5551322000101,None,343.5551322000101,None,343.5551322000101,None,343.5551322000101,None,345.52522030001273,345.52522030001273,-0.29999999999999716,2.784,-600,-300,-800,,,,,,,,,,,,,,,,,,,,,,,,,,,,,,,,,,,,,,,,,,,,,,,,,,,,,,,,,,,,,,,,,,,,,,,,,,,,,,,,,,,m,22,yangxu,2022_Apr_12_1521,experiment3,2021.1.4,60.11338585701455,
95,-200,-150,-200,two,-200,-150,-200,,,,,0,34,34,94,,,,,,,,,,,g,0.49378999997861683,348.4503878999967,None,348.4503878999967,None,348.97051800001645,None,348.97051800001645,None,348.97051800001645,None,350.962541099987,None,350.962541099987,None,350.962541099987,None,348.97051800001645,None,351.47408804001753,None,351.47408804001753,None,351.47408804001753,None,0.011707740079145879,None,351.47408804001753,None,351.47408804001753,None,351.47408804001753,None,351.47408804001753,None,351.47408804001753,None,351.47408804001753,None,351.4898976999684,None,351.4898976999684,None,351.4898976999684,None,0.016239579999819398,0.5162395799998194,351.4898976999684,None,351.4898976999684,None,351.4898976999684,None,351.4898976999684,None,351.4898976999684,None,351.4898976999684,None,353.47491069999523,353.47491069999523,-50.0,1.623,-800,-450,-1000,,,,,,,,,,,,,,,,,,,,,,,,,,,,,,,,,,,,,,,,,,,,,,,,,,,,,,,,,,,,,,,,,,,,,,,,,,,,,,,,,,,m,22,yangxu,2022_Apr_12_1521,experiment3,2021.1.4,60.11338585701455,
86,-200,0,-200,one,-200,0,-200,,,,,0,35,35,85,,,,,,,,,,,l,0.6871685999794863,355.1609899000032,None,355.1609899000032,None,355.88441519998014,None,355.88441519998014,None,355.88441519998014,None,357.85740390000865,358.37235079996753,357.85740390000865,358.37235079996753,357.85740390000865,358.37235079996753,355.88441519998014,None,358.3890535399667,None,358.3890535399667,None,358.3890535399667,None,0.0088906399323605,None,358.3890535399667,None,358.3890535399667,None,358.3890535399667,None,358.3890535399667,None,358.3890535399667,None,358.3890535399667,None,358.4049112999928,None,358.4049112999928,None,358.4049112999928,None,0.015048779896460474,0.5150487798964605,358.4049112999928,None,358.4049112999928,None,358.4049112999928,None,358.4049112999928,None,358.4049112999928,None,358.4049112999928,None,360.388592000003,360.388592000003,-50.0,1.664,-1000,-450,-1200,,,,,,,,,,,,,,,,,,,,,,,,,,,,,,,,,,,,,,,,,,,,,,,,,,,,,,,,,,,,,,,,,,,,,,,,,,,,,,,,,,,m,22,yangxu,2022_Apr_12_1521,experiment3,2021.1.4,60.11338585701455,
85,-200,-200,0,one,-200,-200,0,,,,,0,36,36,84,,,,,,,,,,,g,0.2997343000024557,362.13335489999736,None,362.13335489999736,None,362.46956489997683,None,362.46956489997683,None,362.46956489997683,None,364.4636668000021,None,364.4636668000021,None,364.4636668000021,None,362.46956489997683,None,364.9711668400094,None,364.9711668400094,None,364.9711668400094,None,0.010822539974469692,None,364.9711668400094,None,364.9711668400094,None,364.9711668400094,None,364.9711668400094,None,364.9711668400094,None,364.9711668400094,None,364.98687470000004,None,364.98687470000004,None,364.98687470000004,None,0.014997280028183013,0.514997280028183,364.98687470000004,None,364.98687470000004,None,364.98687470000004,None,364.98687470000004,None,364.98687470000004,None,364.98687470000004,None,366.9700749000185,366.9700749000185,-50.0,1.619,-1200,-650,-1200,,,,,,,,,,,,,,,,,,,,,,,,,,,,,,,,,,,,,,,,,,,,,,,,,,,,,,,,,,,,,,,,,,,,,,,,,,,,,,,,,,,m,22,yangxu,2022_Apr_12_1521,experiment3,2021.1.4,60.11338585701455,
18,200,0,0,one,200,0,0,,,,,0,37,37,17,,,,,,,,,,,a,0.3437005000305362,368.6606966999825,None,368.6606966999825,None,369.03932270000223,None,369.03932270000223,None,369.03932270000223,None,371.0203652000055,371.5361904000165,371.0203652000055,371.5361904000165,371.0203652000055,371.5361904000165,369.03932270000223,None,371.55289314001567,None,371.55289314001567,None,371.55289314001567,None,0.004562840040307492,None,371.55289314001567,None,371.55289314001567,None,371.55289314001567,None,371.55289314001567,None,371.55289314001567,None,371.55289314001567,None,371.6054598999908,None,371.6054598999908,None,371.6054598999908,None,0.005042820004746318,0.5050428200047463,371.6054598999908,None,371.6054598999908,None,371.6054598999908,None,371.6054598999908,None,371.6054598999908,None,371.6054598999908,None,373.5972186999861,373.5972186999861,50.0,1.668,-1000,-650,-1200,,,,,,,,,,,,,,,,,,,,,,,,,,,,,,,,,,,,,,,,,,,,,,,,,,,,,,,,,,,,,,,,,,,,,,,,,,,,,,,,,,,m,22,yangxu,2022_Apr_12_1521,experiment3,2021.1.4,60.11338585701455,
39,0,200,200,one,0,200,200,,,,,0,38,38,38,,,,,,,,,,,a,0.6716396000119857,375.32747259997996,None,375.32747259997996,None,376.0468147000065,None,376.0468147000065,None,376.0468147000065,None,378.0208969999803,378.5291815000237,378.0208969999803,378.5291815000237,378.0208969999803,378.5291815000237,376.0468147000065,None,378.5458842400229,None,378.5458842400229,None,378.5458842400229,None,0.010783839970827103,None,378.5458842400229,None,378.5458842400229,None,378.5458842400229,None,378.5458842400229,None,378.5458842400229,None,378.5458842400229,None,378.5599897999782,None,378.5599897999782,None,378.5599897999782,None,0.0009407399920746684,0.5009407399920747,378.5599897999782,None,378.5599897999782,None,378.5599897999782,None,378.5599897999782,None,378.5599897999782,None,378.5599897999782,None,380.5522806000081,380.5522806000081,-50.0,1.427,-1000,-450,-1000,,,,,,,,,,,,,,,,,,,,,,,,,,,,,,,,,,,,,,,,,,,,,,,,,,,,,,,,,,,,,,,,,,,,,,,,,,,,,,,,,,,m,22,yangxu,2022_Apr_12_1521,experiment3,2021.1.4,60.11338585701455,
71,0,-200,0,two,0,-200,0,,,,,0,39,39,70,,,,,,,,,,,a,0.4585615999531001,382.04404389997944,None,382.04404389997944,None,382.51952540001366,None,382.51952540001366,None,382.51952540001366,None,384.5027797999792,385.01847369997995,384.5027797999792,385.01847369997995,384.5027797999792,385.01847369997995,382.51952540001366,None,385.0351764399791,None,385.0351764399791,None,385.0351764399791,None,0.0012021399452351034,None,385.0351764399791,None,385.0351764399791,None,385.0351764399791,None,385.0351764399791,None,385.0351764399791,None,385.0351764399791,None,385.06327270000475,None,385.06327270000475,None,385.06327270000475,None,0.009271579969208688,0.5092715799692087,385.06327270000475,None,385.06327270000475,None,385.06327270000475,None,385.06327270000475,None,385.06327270000475,None,385.06327270000475,None,387.0352633000002,387.0352633000002,-0.29999999999999716,1.413,-1000,-650,-1000,,,,,,,,,,,,,,,,,,,,,,,,,,,,,,,,,,,,,,,,,,,,,,,,,,,,,,,,,,,,,,,,,,,,,,,,,,,,,,,,,,,m,22,yangxu,2022_Apr_12_1521,experiment3,2021.1.4,60.11338585701455,
79,-200,-150,-150,two,-200,-150,-150,,,,,0,40,40,78,,,,,,,,,,,g,2.3158033000072464,388.5521178999916,None,388.5521178999916,None,390.8864033999853,None,390.8864033999853,None,390.8864033999853,None,392.8819777999888,None,392.8819777999888,None,392.8819777999888,None,390.8864033999853,None,393.39812153998065,None,393.39812153998065,None,393.39812153998065,None,0.011194440012332052,None,393.39812153998065,None,393.39812153998065,None,393.39812153998065,None,393.39812153998065,None,393.39812153998065,None,393.39812153998065,None,393.4139049000223,None,393.4139049000223,None,393.4139049000223,None,0.016572779917623848,0.5165727799176238,393.4139049000223,None,393.4139049000223,None,393.4139049000223,None,393.4139049000223,None,393.4139049000223,None,393.4139049000223,None,395.3833784000017,395.3833784000017,-50.0,4.306,-1200,-800,-1150,,,,,,,,,,,,,,,,,,,,,,,,,,,,,,,,,,,,,,,,,,,,,,,,,,,,,,,,,,,,,,,,,,,,,,,,,,,,,,,,,,,m,22,yangxu,2022_Apr_12_1521,experiment3,2021.1.4,60.11338585701455,
48,50,200,200,two,50,200,200,,,,,0,41,41,47,,,,,,,,,,,a,0.15944820002187043,399.7664885999984,None,399.7664885999984,None,399.9534621000057,None,399.9534621000057,None,399.9534621000057,None,401.947026800015,None,401.947026800015,None,401.947026800015,None,399.9534621000057,None,402.48051538000584,None,402.48051538000584,None,402.48051538000584,None,0.01651628001127392,None,402.48051538000584,None,402.48051538000584,None,402.48051538000584,None,402.48051538000584,None,402.48051538000584,None,402.48051538000584,None,402.50272220000625,None,402.50272220000625,None,402.50272220000625,None,0.01275122002698481,0.5127512200269848,402.50272220000625,None,402.50272220000625,None,402.50272220000625,None,402.50272220000625,None,402.50272220000625,None,402.50272220000625,None,404.48194749996765,404.48194749996765,-50.0,2.034,-1150,-600,-950,,,,,,,,,,,,,,,,,,,,,,,,,,,,,,,,,,,,,,,,,,,,,,,,,,,,,,,,,,,,,,,,,,,,,,,,,,,,,,,,,,,m,22,yangxu,2022_Apr_12_1521,experiment3,2021.1.4,60.11338585701455,
94,-200,-200,-150,two,-200,-200,-150,,,,,0,42,42,93,,,,,,,,,,,a,0.13210099999560043,406.5981395000126,None,406.5981395000126,None,406.76647839997895,None,406.76647839997895,None,406.76647839997895,None,408.75033229996916,409.26174270000774,408.75033229996916,409.26174270000774,408.75033229996916,409.26174270000774,406.76647839997895,None,409.2951481800061,None,409.2951481800061,None,409.2951481800061,None,0.016682979941833764,None,409.2951481800061,None,409.2951481800061,None,409.2951481800061,None,409.2951481800061,None,409.2951481800061,None,409.2951481800061,None,409.3110229999875,None,409.3110229999875,None,409.3110229999875,None,0.016148120048455894,0.5161481200484559,409.3110229999875,None,409.3110229999875,None,409.3110229999875,None,409.3110229999875,None,409.3110229999875,None,409.3110229999875,None,411.28970580000896,411.28970580000896,-0.10000000000000142,1.441,-1350,-800,-1100,,,,,,,,,,,,,,,,,,,,,,,,,,,,,,,,,,,,,,,,,,,,,,,,,,,,,,,,,,,,,,,,,,,,,,,,,,,,,,,,,,,m,22,yangxu,2022_Apr_12_1521,experiment3,2021.1.4,60.11338585701455,
23,0,200,0,two,0,200,0,,,,,0,43,43,22,,,,,,,,,,,g,0.3100763999973424,412.81931579997763,None,412.81931579997763,None,413.1539216999663,None,413.1539216999663,None,413.1539216999663,None,415.1280450000195,415.628147099982,415.1280450000195,415.628147099982,415.1280450000195,415.628147099982,413.1539216999663,None,415.678432379989,None,415.678432379989,None,415.678432379989,None,0.01671197998803109,None,415.678432379989,None,415.678432379989,None,415.678432379989,None,415.678432379989,None,415.678432379989,None,415.678432379989,None,415.69031639996683,None,415.69031639996683,None,415.69031639996683,None,0.005322479933965951,0.505322479933966,415.69031639996683,None,415.69031639996683,None,415.69031639996683,None,415.69031639996683,None,415.69031639996683,None,415.69031639996683,None,417.6785319999908,417.6785319999908,-50.0,1.245,-1350,-600,-1100,,,,,,,,,,,,,,,,,,,,,,,,,,,,,,,,,,,,,,,,,,,,,,,,,,,,,,,,,,,,,,,,,,,,,,,,,,,,,,,,,,,m,22,yangxu,2022_Apr_12_1521,experiment3,2021.1.4,60.11338585701455,
12,200,0,50,two,200,0,50,,,,,0,44,44,11,,,,,,,,,,,g,0.32057659997371957,418.988563299994,None,418.988563299994,None,419.3557866999763,None,419.3557866999763,None,419.3557866999763,None,421.326914699981,421.84360419999575,421.326914699981,421.84360419999575,421.326914699981,421.84360419999575,419.3557866999763,None,421.8603069399949,None,421.8603069399949,None,421.8603069399949,None,0.011712739942595363,None,421.8603069399949,None,421.8603069399949,None,421.8603069399949,None,421.8603069399949,None,421.8603069399949,None,421.8603069399949,None,421.87584769999376,None,421.87584769999376,None,421.87584769999376,None,0.01573377993190661,0.5157337799319066,421.87584769999376,None,421.87584769999376,None,421.87584769999376,None,421.87584769999376,None,421.87584769999376,None,421.87584769999376,None,423.86202729999786,423.86202729999786,49.2,2.784,-1150,-600,-1050,,,,,,,,,,,,,,,,,,,,,,,,,,,,,,,,,,,,,,,,,,,,,,,,,,,,,,,,,,,,,,,,,,,,,,,,,,,,,,,,,,,m,22,yangxu,2022_Apr_12_1521,experiment3,2021.1.4,60.11338585701455,
13,0,0,50,one,0,0,50,,,,,0,45,45,12,,,,,,,,,,,g,0.18822839995846152,426.7131085000001,None,426.7131085000001,None,426.93553820002126,None,426.93553820002126,None,426.93553820002126,None,428.9164010999957,None,428.9164010999957,None,428.9164010999957,None,426.93553820002126,None,429.43167423999404,None,429.43167423999404,None,429.43167423999404,None,0.00020144000882282853,None,429.43167423999404,None,429.43167423999404,None,429.43167423999404,None,429.43167423999404,None,429.43167423999404,None,429.43167423999404,None,429.46889010001905,None,429.46889010001905,None,429.46889010001905,None,0.0031775799579918385,0.5031775799579918,429.46889010001905,None,429.46889010001905,None,429.46889010001905,None,429.46889010001905,None,429.46889010001905,None,429.46889010001905,None,431.44736920000287,431.44736920000287,-0.20000000000000284,1.752,-1150,-600,-1000,,,,,,,,,,,,,,,,,,,,,,,,,,,,,,,,,,,,,,,,,,,,,,,,,,,,,,,,,,,,,,,,,,,,,,,,,,,,,,,,,,,m,22,yangxu,2022_Apr_12_1521,experiment3,2021.1.4,60.11338585701455,
37,200,200,0,one,200,200,0,,,,,0,46,46,36,,,,,,,,,,,g,0.5086217999923974,433.2837857999839,None,433.2837857999839,None,433.81055729999207,None,433.81055729999207,None,433.81055729999207,None,435.79048640001565,436.2970487999846,435.79048640001565,436.2970487999846,435.79048640001565,436.2970487999846,433.81055729999207,None,436.3137515399838,None,436.3137515399838,None,436.3137515399838,None,0.005842539947479963,None,436.3137515399838,None,436.3137515399838,None,436.3137515399838,None,436.3137515399838,None,436.3137515399838,None,436.3137515399838,None,436.33183759998064,None,436.33183759998064,None,436.33183759998064,None,0.015340579964686185,0.5153405799646862,436.33183759998064,None,436.33183759998064,None,436.33183759998064,None,436.33183759998064,None,436.33183759998064,None,436.33183759998064,None,438.3077189999749,438.3077189999749,0.10000000000000142,1.719,-950,-400,-1000,,,,,,,,,,,,,,,,,,,,,,,,,,,,,,,,,,,,,,,,,,,,,,,,,,,,,,,,,,,,,,,,,,,,,,,,,,,,,,,,,,,m,22,yangxu,2022_Apr_12_1521,experiment3,2021.1.4,60.11338585701455,
96,-150,-200,-200,two,-150,-200,-200,,,,,0,47,47,95,,,,,,,,,,,g,0.333698500005994,440.10681500000646,None,440.10681500000646,None,440.45875109999906,None,440.45875109999906,None,440.45875109999906,None,442.44449969998095,None,442.44449969998095,None,442.44449969998095,None,440.45875109999906,None,442.9579787399969,None,442.9579787399969,None,442.9579787399969,None,0.0005444400012493134,None,442.9579787399969,None,442.9579787399969,None,442.9579787399969,None,442.9579787399969,None,442.9579787399969,None,442.9579787399969,None,442.9797419999959,None,442.9797419999959,None,442.9797419999959,None,0.007862479949835688,0.5078624799498357,442.9797419999959,None,442.9797419999959,None,442.9797419999959,None,442.9797419999959,None,442.9797419999959,None,442.9797419999959,None,444.97146470000735,444.97146470000735,24.400000000000006,3.22,-1100,-600,-1200,,,,,,,,,,,,,,,,,,,,,,,,,,,,,,,,,,,,,,,,,,,,,,,,,,,,,,,,,,,,,,,,,,,,,,,,,,,,,,,,,,,m,22,yangxu,2022_Apr_12_1521,experiment3,2021.1.4,60.11338585701455,
38,200,0,200,one,200,0,200,,,,,0,48,48,37,,,,,,,,,,,l,0.26612980000209063,448.26092670002254,None,448.26092670002254,None,448.56129079998937,None,448.56129079998937,None,448.56129079998937,None,450.55721589998575,None,450.55721589998575,None,450.55721589998575,None,448.56129079998937,None,451.07279413997895,None,451.07279413997895,None,451.07279413997895,None,0.011271540017332882,None,451.07279413997895,None,451.07279413997895,None,451.07279413997895,None,451.07279413997895,None,451.07279413997895,None,451.07279413997895,None,451.0867516999715,None,451.0867516999715,None,451.0867516999715,None,0.0163425799109973,0.5163425799109973,451.0867516999715,None,451.0867516999715,None,451.0867516999715,None,451.0867516999715,None,451.0867516999715,None,451.0867516999715,None,453.07512110000243,453.07512110000243,50.0,1.589,-900,-600,-1000,,,,,,,,,,,,,,,,,,,,,,,,,,,,,,,,,,,,,,,,,,,,,,,,,,,,,,,,,,,,,,,,,,,,,,,,,,,,,,,,,,,m,22,yangxu,2022_Apr_12_1521,experiment3,2021.1.4,60.11338585701455,
21,50,0,0,two,50,0,0,,,,,0,49,49,20,,,,,,,,,,,l,0.9159872999880463,454.72468789998675,None,454.72468789998675,None,455.694900100003,None,455.694900100003,None,455.694900100003,None,457.65382970002247,458.1528376999777,457.65382970002247,458.1528376999777,457.65382970002247,458.1528376999777,455.694900100003,None,458.1865826399997,None,458.1865826399997,None,458.1865826399997,None,0.009311439993325621,None,458.1865826399997,None,458.1865826399997,None,458.1865826399997,None,458.1865826399997,None,458.1865826399997,None,458.1865826399997,None,458.20201920002,None,458.20201920002,None,458.20201920002,None,0.014459280006121844,0.5144592800061218,458.20201920002,None,458.20201920002,None,458.20201920002,None,458.20201920002,None,458.20201920002,None,458.20201920002,None,460.19379879999906,460.19379879999906,24.700000000000003,2.461,-850,-600,-1000,,,,,,,,,,,,,,,,,,,,,,,,,,,,,,,,,,,,,,,,,,,,,,,,,,,,,,,,,,,,,,,,,,,,,,,,,,,,,,,,,,,m,22,yangxu,2022_Apr_12_1521,experiment3,2021.1.4,60.11338585701455,
16,0,0,200,one,0,0,200,,,,,0,50,50,15,,,,,,,,,,,g,0.9253901999909431,462.7294433999923,None,462.7294433999923,None,463.687705999997,None,463.687705999997,None,463.687705999997,None,465.6741388000082,None,465.6741388000082,None,465.6741388000082,None,463.687705999997,None,466.19575664000587,None,466.19575664000587,None,466.19575664000587,None,0.010908340045716614,None,466.19575664000587,None,466.19575664000587,None,466.19575664000587,None,466.19575664000587,None,466.19575664000587,None,466.19575664000587,None,466.21231510001235,None,466.21231510001235,None,466.21231510001235,None,0.003987039963249117,0.5039870399632491,466.21231510001235,None,466.21231510001235,None,466.21231510001235,None,466.21231510001235,None,466.21231510001235,None,466.21231510001235,None,468.19218620000174,468.19218620000174,-4.200000000000003,3.012,-850,-600,-800,,,,,,,,,,,,,,,,,,,,,,,,,,,,,,,,,,,,,,,,,,,,,,,,,,,,,,,,,,,,,,,,,,,,,,,,,,,,,,,,,,,m,22,yangxu,2022_Apr_12_1521,experiment3,2021.1.4,60.11338585701455,
57,-150,0,-200,two,-150,0,-200,,,,,0,51,51,56,,,,,,,,,,,g,0.34328590001678094,471.28427379997447,None,471.28427379997447,None,471.6531729999697,None,471.6531729999697,None,471.6531729999697,None,473.63360250002006,474.15054060000693,473.63360250002006,474.15054060000693,473.63360250002006,474.15054060000693,471.6531729999697,None,474.1672433400061,None,474.1672433400061,None,474.1672433400061,None,0.009933040011674166,None,474.1672433400061,None,474.1672433400061,None,474.1672433400061,None,474.1672433400061,None,474.1672433400061,None,474.1672433400061,None,474.1828418999794,None,474.1828418999794,None,474.1828418999794,None,0.013791879988275468,0.5137918799882755,474.1828418999794,None,474.1828418999794,None,474.1828418999794,None,474.1828418999794,None,474.1828418999794,None,474.1828418999794,None,476.1675105000031,476.1675105000031,-39.7,1.606,-1000,-600,-1000,,,,,,,,,,,,,,,,,,,,,,,,,,,,,,,,,,,,,,,,,,,,,,,,,,,,,,,,,,,,,,,,,,,,,,,,,,,,,,,,,,,m,22,yangxu,2022_Apr_12_1521,experiment3,2021.1.4,60.11338585701455,
28,0,50,50,one,0,50,50,,,,,0,52,52,27,,,,,,,,,,,g,0.2728843999793753,477.84433120000176,None,477.84433120000176,None,478.13566969998647,None,478.13566969998647,None,478.13566969998647,None,480.1265342999832,480.63161029998446,480.1265342999832,480.63161029998446,480.1265342999832,480.63161029998446,478.13566969998647,None,480.64831303998363,None,480.64831303998363,None,480.64831303998363,None,0.011143440031446517,None,480.64831303998363,None,480.64831303998363,None,480.64831303998363,None,480.64831303998363,None,480.64831303998363,None,480.64831303998363,None,480.66117629996734,None,480.66117629996734,None,480.66117629996734,None,6.83399848639965e-05,0.500068339984864,480.66117629996734,None,480.66117629996734,None,480.66117629996734,None,480.66117629996734,None,480.66117629996734,None,480.66117629996734,None,482.67055053998484,None,-45.4,2.098,-1000,-550,-950,,,,,,,,,,,,,,,,,,,,,,,,,,,,,,,,,,,,,,,,,,,,,,,,,,,,,,,,,,,,,,,,,,,,,,,,,,,,,,,,,,,m,22,yangxu,2022_Apr_12_1521,experiment3,2021.1.4,60.11338585701455,
50,0,-200,-150,one,0,-200,-150,,,,,0,53,53,49,,,,,,,,,,,l,0.2298816000111401,484.83033179998165,None,484.83033179998165,None,485.08484059997136,None,485.08484059997136,None,485.08484059997136,None,487.08092999999644,487.58477650000714,487.08092999999644,487.58477650000714,487.08092999999644,487.58477650000714,485.08484059997136,None,487.6181819800055,None,487.6181819800055,None,487.6181819800055,None,0.014616880042012781,None,487.6181819800055,None,487.6181819800055,None,487.6181819800055,None,487.6181819800055,None,487.6181819800055,None,487.6181819800055,None,487.6402463999693,None,487.6402463999693,None,487.6402463999693,None,0.010459120036102831,0.5104591200361028,487.6402463999693,None,487.6402463999693,None,487.6402463999693,None,487.6402463999693,None,487.6402463999693,None,487.6402463999693,None,489.62137229996733,489.62137229996733,49.400000000000006,1.521,-1000,-750,-1100,,,,,,,,,,,,,,,,,,,,,,,,,,,,,,,,,,,,,,,,,,,,,,,,,,,,,,,,,,,,,,,,,,,,,,,,,,,,,,,,,,,m,22,yangxu,2022_Apr_12_1521,experiment3,2021.1.4,60.11338585701455,
60,-200,0,-150,two,-200,0,-150,,,,,0,54,54,59,,,,,,,,,,,g,1.2839118999545462,491.23300389997894,None,491.23300389997894,None,492.54698689997895,None,492.54698689997895,None,492.54698689997895,None,494.52875759999733,495.0286409999826,494.52875759999733,495.0286409999826,494.52875759999733,495.0286409999826,492.54698689997895,None,495.06221094001086,None,495.06221094001086,None,495.06221094001086,None,0.003029440005775541,None,495.06221094001086,None,495.06221094001086,None,495.06221094001086,None,495.06221094001086,None,495.06221094001086,None,495.06221094001086,None,495.09992509998847,None,495.09992509998847,None,495.09992509998847,None,0.0043516799923963845,0.5043516799923964,495.09992509998847,None,495.09992509998847,None,495.09992509998847,None,495.09992509998847,None,495.09992509998847,None,495.09992509998847,None,497.094966500008,497.094966500008,-50.0,1.356,-1200,-750,-1250,,,,,,,,,,,,,,,,,,,,,,,,,,,,,,,,,,,,,,,,,,,,,,,,,,,,,,,,,,,,,,,,,,,,,,,,,,,,,,,,,,,m,22,yangxu,2022_Apr_12_1521,experiment3,2021.1.4,60.11338585701455,
69,-150,0,0,two,-150,0,0,,,,,0,55,55,68,,,,,,,,,,,a,0.34978819999378175,498.52877149998676,None,498.52877149998676,None,498.90381190000335,None,498.90381190000335,None,498.90381190000335,None,500.88230729999486,None,500.88230729999486,None,500.88230729999486,None,498.90381190000335,None,501.4043129399768,None,501.4043129399768,None,501.4043129399768,None,0.005303139972966164,None,501.4043129399768,None,501.4043129399768,None,501.4043129399768,None,501.4043129399768,None,501.4043129399768,None,501.4043129399768,None,501.42449579999084,None,501.42449579999084,None,501.42449579999084,None,0.009292979957535863,0.5092929799575359,501.42449579999084,None,501.42449579999084,None,501.42449579999084,None,501.42449579999084,None,501.42449579999084,None,501.42449579999084,None,503.4224439999671,503.4224439999671,-47.8,2.842,-1350,-750,-1250,,,,,,,,,,,,,,,,,,,,,,,,,,,,,,,,,,,,,,,,,,,,,,,,,,,,,,,,,,,,,,,,,,,,,,,,,,,,,,,,,,,m,22,yangxu,2022_Apr_12_1521,experiment3,2021.1.4,60.11338585701455,
47,200,50,200,two,200,50,200,,,,,0,56,56,46,,,,,,,,,,,a,0.3672919999808073,506.3261058999924,None,506.3261058999924,None,506.71226050000405,None,506.71226050000405,None,506.71226050000405,None,508.69486009998946,509.1925147000002,508.69486009998946,509.1925147000002,508.69486009998946,509.1925147000002,506.71226050000405,None,509.2275943399989,None,509.2275943399989,None,509.2275943399989,None,0.010761740035377443,None,509.2275943399989,None,509.2275943399989,None,509.2275943399989,None,509.2275943399989,None,509.2275943399989,None,509.2275943399989,None,509.24102979997406,None,509.24102979997406,None,509.24102979997406,None,0.016271180007606745,0.5162711800076067,509.24102979997406,None,509.24102979997406,None,509.24102979997406,None,509.24102979997406,None,509.24102979997406,None,509.24102979997406,None,511.22543589997804,511.22543589997804,26.400000000000006,2.559,-1150,-700,-1050,,,,,,,,,,,,,,,,,,,,,,,,,,,,,,,,,,,,,,,,,,,,,,,,,,,,,,,,,,,,,,,,,,,,,,,,,,,,,,,,,,,m,22,yangxu,2022_Apr_12_1521,experiment3,2021.1.4,60.11338585701455,
52,-150,-200,0,one,-150,-200,0,,,,,0,57,57,51,,,,,,,,,,,g,0.28994889999739826,513.8535381999682,None,513.8535381999682,None,514.167631999997,None,514.167631999997,None,514.167631999997,None,516.1643947999692,None,516.1643947999692,None,516.1643947999692,None,514.167631999997,None,516.6698840399738,None,516.6698840399738,None,516.6698840399738,None,0.009091540006920695,None,516.6698840399738,None,516.6698840399738,None,516.6698840399738,None,516.6698840399738,None,516.6698840399738,None,516.6698840399738,None,516.6828349999851,None,516.6828349999851,None,516.6828349999851,None,0.0028464399510994554,0.5028464399510995,516.6828349999851,None,516.6828349999851,None,516.6828349999851,None,516.6828349999851,None,516.6828349999851,None,516.6828349999851,None,518.6771668000147,518.6771668000147,23.700000000000003,1.036,-1300,-900,-1050,,,,,,,,,,,,,,,,,,,,,,,,,,,,,,,,,,,,,,,,,,,,,,,,,,,,,,,,,,,,,,,,,,,,,,,,,,,,,,,,,,,m,22,yangxu,2022_Apr_12_1521,experiment3,2021.1.4,60.11338585701455,
83,-150,0,-150,two,-150,0,-150,,,,,0,58,58,82,,,,,,,,,,,a,0.473062300006859,519.7754390999908,None,519.7754390999908,None,520.286941999977,None,520.286941999977,None,520.286941999977,None,522.2659468000056,522.7683224999928,522.2659468000056,522.7683224999928,522.2659468000056,522.7683224999928,520.286941999977,None,522.801727979991,None,522.801727979991,None,522.801727979991,None,0.011037779971957207,None,522.801727979991,None,522.801727979991,None,522.801727979991,None,522.801727979991,None,522.801727979991,None,522.801727979991,None,522.8163529000012,None,522.8163529000012,None,522.8163529000012,None,0.00012347992742434144,0.5001234799274243,522.8163529000012,None,522.8163529000012,None,522.8163529000012,None,522.8163529000012,None,522.8163529000012,None,522.8163529000012,None,524.8075749999844,524.8075749999844,-47.1,1.323,-1450,-900,-1200,,,,,,,,,,,,,,,,,,,,,,,,,,,,,,,,,,,,,,,,,,,,,,,,,,,,,,,,,,,,,,,,,,,,,,,,,,,,,,,,,,,m,22,yangxu,2022_Apr_12_1521,experiment3,2021.1.4,60.11338585701455,
35,50,0,50,two,50,0,50,,,,,0,59,59,34,,,,,,,,,,,g,0.3079190999851562,526.1901034999755,None,526.1901034999755,None,526.524649799976,None,526.524649799976,None,526.524649799976,None,528.5127205000026,529.0220828999882,528.5127205000026,529.0220828999882,528.5127205000026,529.0220828999882,526.524649799976,None,529.0387856399873,None,529.0387856399873,None,529.0387856399873,None,0.011745440016966313,None,529.0387856399873,None,529.0387856399873,None,529.0387856399873,None,529.0387856399873,None,529.0387856399873,None,529.0387856399873,None,529.0546768999775,None,529.0546768999775,None,529.0546768999775,None,0.014983079978264868,0.5149830799782649,529.0546768999775,None,529.0546768999775,None,529.0546768999775,None,529.0546768999775,None,529.0546768999775,None,529.0546768999775,None,531.0403086000006,531.0403086000006,40.7,1.488,-1400,-900,-1150,,,,,,,,,,,,,,,,,,,,,,,,,,,,,,,,,,,,,,,,,,,,,,,,,,,,,,,,,,,,,,,,,,,,,,,,,,,,,,,,,,,m,22,yangxu,2022_Apr_12_1521,experiment3,2021.1.4,60.11338585701455,
34,0,50,50,two,0,50,50,,,,,0,60,60,33,,,,,,,,,,,g,0.2499860999523662,532.5915268000099,None,532.5915268000099,None,532.8741422999883,None,532.8741422999883,None,532.8741422999883,None,534.8550764999818,535.3566905999905,534.8550764999818,535.3566905999905,534.8550764999818,535.3566905999905,532.8741422999883,None,535.3900960799888,None,535.3900960799888,None,535.3900960799888,None,0.01585267996415496,None,535.3900960799888,None,535.3900960799888,None,535.3900960799888,None,535.3900960799888,None,535.3900960799888,None,535.3900960799888,None,535.4154118999722,None,535.4154118999722,None,535.4154118999722,None,0.002903579967096448,0.5029035799670964,535.4154118999722,None,535.4154118999722,None,535.4154118999722,None,535.4154118999722,None,535.4154118999722,None,535.4154118999722,None,537.3910968999844,537.3910968999844,-17.200000000000003,1.186,-1400,-850,-1100,,,,,,,,,,,,,,,,,,,,,,,,,,,,,,,,,,,,,,,,,,,,,,,,,,,,,,,,,,,,,,,,,,,,,,,,,,,,,,,,,,,m,22,yangxu,2022_Apr_12_1521,experiment3,2021.1.4,60.11338585701455,
54,-200,0,-150,one,-200,0,-150,,,,,0,61,61,53,,,,,,,,,,,a,0.3684257000568323,538.6605372999911,None,538.6605372999911,None,539.0556125000003,None,539.0556125000003,None,539.0556125000003,None,541.0385299000191,541.5437063999707,541.0385299000191,541.5437063999707,541.0385299000191,541.5437063999707,539.0556125000003,None,541.5771118799689,None,541.5771118799689,None,541.5771118799689,None,0.015385379956569523,None,541.5771118799689,None,541.5771118799689,None,541.5771118799689,None,541.5771118799689,None,541.5771118799689,None,541.5771118799689,None,541.5826414999901,None,541.5826414999901,None,541.5826414999901,None,0.007573179958853871,0.5075731799588539,541.5826414999901,None,541.5826414999901,None,541.5826414999901,None,541.5826414999901,None,541.5826414999901,None,541.5826414999901,None,543.5710948000196,543.5710948000196,-50.0,1.586,-1600,-850,-1250,,,,,,,,,,,,,,,,,,,,,,,,,,,,,,,,,,,,,,,,,,,,,,,,,,,,,,,,,,,,,,,,,,,,,,,,,,,,,,,,,,,m,22,yangxu,2022_Apr_12_1521,experiment3,2021.1.4,60.11338585701455,
56,0,-200,-150,two,0,-200,-150,,,,,0,62,62,55,,,,,,,,,,,a,0.33557070000097156,545.2255689000012,None,545.2255689000012,None,545.5853359000175,None,545.5853359000175,None,545.5853359000175,None,547.5558610999724,548.0687950999709,547.5558610999724,548.0687950999709,547.5558610999724,548.0687950999709,545.5853359000175,None,548.08549783997,None,548.08549783997,None,548.08549783997,None,0.009104139928240329,None,548.08549783997,None,548.08549783997,None,548.08549783997,None,548.08549783997,None,548.08549783997,None,548.08549783997,None,548.1020613000146,None,548.1020613000146,None,548.1020613000146,None,0.015124279947485775,0.5151242799474858,548.1020613000146,None,548.1020613000146,None,548.1020613000146,None,548.1020613000146,None,548.1020613000146,None,548.1020613000146,None,550.0961207000073,550.0961207000073,43.3,2.195,-1600,-1050,-1400,,,,,,,,,,,,,,,,,,,,,,,,,,,,,,,,,,,,,,,,,,,,,,,,,,,,,,,,,,,,,,,,,,,,,,,,,,,,,,,,,,,m,22,yangxu,2022_Apr_12_1521,experiment3,2021.1.4,60.11338585701455,
68,0,-150,0,two,0,-150,0,,,,,0,63,63,67,,,,,,,,,,,g,0.26777619996573776,552.3511549999821,None,552.3511549999821,None,552.6371872000163,None,552.6371872000163,None,552.6371872000163,None,554.6219505000045,None,554.6219505000045,None,554.6219505000045,None,552.6371872000163,None,555.1413647399866,None,555.1413647399866,None,555.1413647399866,None,0.004790640028659254,None,555.1413647399866,None,555.1413647399866,None,555.1413647399866,None,555.1413647399866,None,555.1413647399866,None,555.1413647399866,None,555.1614636000013,None,555.1614636000013,None,555.1614636000013,None,0.014296279987320304,0.5142962799873203,555.1614636000013,None,555.1614636000013,None,555.1614636000013,None,555.1614636000013,None,555.1614636000013,None,555.1614636000013,None,557.1339822000009,557.1339822000009,31.400000000000006,0.929,-1600,-1200,-1400,,,,,,,,,,,,,,,,,,,,,,,,,,,,,,,,,,,,,,,,,,,,,,,,,,,,,,,,,,,,,,,,,,,,,,,,,,,,,,,,,,,m,22,yangxu,2022_Apr_12_1521,experiment3,2021.1.4,60.11338585701455,
44,200,0,200,two,200,0,200,,,,,0,64,64,43,,,,,,,,,,,g,0.43398770003113896,558.1566485000076,None,558.1566485000076,None,558.6180137000047,None,558.6180137000047,None,558.6180137000047,None,560.6017384000006,None,560.6017384000006,None,560.6017384000006,None,558.6180137000047,None,561.1160727400099,None,561.1160727400099,None,561.1160727400099,None,0.009122139948885888,None,561.1160727400099,None,561.1160727400099,None,561.1160727400099,None,561.1160727400099,None,561.1160727400099,None,561.1160727400099,None,561.1339153000154,None,561.1339153000154,None,561.1339153000154,None,0.014631179976277053,0.514631179976277,561.1339153000154,None,561.1339153000154,None,561.1339153000154,None,561.1339153000154,None,561.1339153000154,None,561.1339153000154,None,563.1157635999843,563.1157635999843,49.7,1.392,-1400,-1200,-1200,,,,,,,,,,,,,,,,,,,,,,,,,,,,,,,,,,,,,,,,,,,,,,,,,,,,,,,,,,,,,,,,,,,,,,,,,,,,,,,,,,,m,22,yangxu,2022_Apr_12_1521,experiment3,2021.1.4,60.11338585701455,
84,-150,-150,0,two,-150,-150,0,,,,,0,65,65,83,,,,,,,,,,,a,0.21157330001005903,564.6066027000197,None,564.6066027000197,None,564.8526443999726,None,564.8526443999726,None,564.8526443999726,None,566.8444389000069,567.3480658999761,566.8444389000069,567.3480658999761,566.8444389000069,567.3480658999761,564.8526443999726,None,567.3814713799743,None,567.3814713799743,None,567.3814713799743,None,0.015168379992246628,None,567.3814713799743,None,567.3814713799743,None,567.3814713799743,None,567.3814713799743,None,567.3814713799743,None,567.3814713799743,None,567.4064011999872,None,567.4064011999872,None,567.4064011999872,None,0.0006382799474522471,0.5006382799474522,567.4064011999872,None,567.4064011999872,None,567.4064011999872,None,567.4064011999872,None,567.4064011999872,None,567.4064011999872,None,569.3930263000075,569.3930263000075,-24.0,1.476,-1550,-1350,-1200,,,,,,,,,,,,,,,,,,,,,,,,,,,,,,,,,,,,,,,,,,,,,,,,,,,,,,,,,,,,,,,,,,,,,,,,,,,,,,,,,,,m,22,yangxu,2022_Apr_12_1521,experiment3,2021.1.4,60.11338585701455,
30,50,50,0,one,50,50,0,,,,,0,66,66,29,,,,,,,,,,,a,0.40692869998747483,570.9303421999793,None,570.9303421999793,None,571.3647492000018,None,571.3647492000018,None,571.3647492000018,None,573.3588918999885,573.8631200999953,573.3588918999885,573.8631200999953,573.3588918999885,573.8631200999953,571.3647492000018,None,573.8798228399944,None,573.8798228399944,None,573.8798228399944,None,0.011734939937014133,None,573.8798228399944,None,573.8798228399944,None,573.8798228399944,None,573.8798228399944,None,573.8798228399944,None,573.8798228399944,None,573.8951730999979,None,573.8951730999979,None,573.8951730999979,None,0.01642287999857217,0.5164228799985722,573.8951730999979,None,573.8951730999979,None,573.8951730999979,None,573.8951730999979,None,573.8951730999979,None,573.8951730999979,None,575.8793105999939,575.8793105999939,32.099999999999994,2.696,-1500,-1300,-1200,,,,,,,,,,,,,,,,,,,,,,,,,,,,,,,,,,,,,,,,,,,,,,,,,,,,,,,,,,,,,,,,,,,,,,,,,,,,,,,,,,,m,22,yangxu,2022_Apr_12_1521,experiment3,2021.1.4,60.11338585701455,
40,200,200,50,one,200,200,50,,,,,0,67,67,39,,,,,,,,,,,g,0.7996493999962695,578.6365342999925,None,578.6365342999925,None,579.4594795000157,None,579.4594795000157,None,579.4594795000157,None,581.4498143999954,None,581.4498143999954,None,581.4498143999954,None,579.4594795000157,None,581.9785930799785,None,581.9785930799785,None,581.9785930799785,None,0.010216279944870621,None,581.9785930799785,None,581.9785930799785,None,581.9785930799785,None,581.9785930799785,None,581.9785930799785,None,581.9785930799785,None,582.0254587999661,None,582.0254587999661,None,582.0254587999661,None,0.004236220032908022,0.504236220032908,582.0254587999661,None,582.0254587999661,None,582.0254587999661,None,582.0254587999661,None,582.0254587999661,None,582.0254587999661,None,583.9949522999814,583.9949522999814,0.29999999999999716,2.09,-1300,-1100,-1150,,,,,,,,,,,,,,,,,,,,,,,,,,,,,,,,,,,,,,,,,,,,,,,,,,,,,,,,,,,,,,,,,,,,,,,,,,,,,,,,,,,m,22,yangxu,2022_Apr_12_1521,experiment3,2021.1.4,60.11338585701455,
70,0,0,-200,two,0,0,-200,,,,,0,68,68,69,,,,,,,,,,,g,0.42133410001406446,586.1775663999724,None,586.1775663999724,None,586.6327090999694,None,586.6327090999694,None,586.6327090999694,None,588.6196947999997,589.1272414000123,588.6196947999997,589.1272414000123,588.6196947999997,589.1272414000123,586.6327090999694,None,589.1439441400114,None,589.1439441400114,None,589.1439441400114,None,0.011826440051663667,None,589.1439441400114,None,589.1439441400114,None,589.1439441400114,None,589.1439441400114,None,589.1439441400114,None,589.1439441400114,None,589.1595891999896,None,589.1595891999896,None,589.1595891999896,None,0.01595318003091961,0.5159531800309196,589.1595891999896,None,589.1595891999896,None,589.1595891999896,None,589.1595891999896,None,589.1595891999896,None,589.1595891999896,None,591.1450707999757,591.1450707999757,25.099999999999994,1.128,-1300,-1100,-1350,,,,,,,,,,,,,,,,,,,,,,,,,,,,,,,,,,,,,,,,,,,,,,,,,,,,,,,,,,,,,,,,,,,,,,,,,,,,,,,,,,,m,22,yangxu,2022_Apr_12_1521,experiment3,2021.1.4,60.11338585701455,
41,200,50,200,one,200,50,200,,,,,0,69,69,40,,,,,,,,,,,a,0.24920939997537062,592.3845560000045,None,592.3845560000045,None,592.6626015999936,None,592.6626015999936,None,592.6626015999936,None,594.6429387999815,595.1592171000084,594.6429387999815,595.1592171000084,594.6429387999815,595.1592171000084,592.6626015999936,None,595.1759198400075,None,595.1759198400075,None,595.1759198400075,None,0.003635040018707514,None,595.1759198400075,None,595.1759198400075,None,595.1759198400075,None,595.1759198400075,None,595.1759198400075,None,595.1759198400075,None,595.213778299978,None,595.213778299978,None,595.213778299978,None,0.016529120039194822,0.5165291200391948,595.213778299978,None,595.213778299978,None,595.213778299978,None,595.213778299978,None,595.213778299978,None,595.213778299978,None,597.191654699971,597.191654699971,42.5,1.986,-1100,-1050,-1150,,,,,,,,,,,,,,,,,,,,,,,,,,,,,,,,,,,,,,,,,,,,,,,,,,,,,,,,,,,,,,,,,,,,,,,,,,,,,,,,,,,m,22,yangxu,2022_Apr_12_1521,experiment3,2021.1.4,60.11338585701455,
65,0,-200,0,one,0,-200,0,,,,,0,70,70,64,,,,,,,,,,,a,0.2252030000090599,599.2589767000172,None,599.2589767000172,None,599.5247108999756,None,599.5247108999756,None,599.5247108999756,None,601.5146659999737,602.0194628000027,601.5146659999737,602.0194628000027,601.5146659999737,602.0194628000027,599.5247108999756,None,602.0361655400018,None,602.0361655400018,None,602.0361655400018,None,0.011481239984277636,None,602.0361655400018,None,602.0361655400018,None,602.0361655400018,None,602.0361655400018,None,602.0361655400018,None,602.0361655400018,None,602.0510646000039,None,602.0510646000039,None,602.0510646000039,None,0.0017188400379382074,0.5017188400379382,602.0510646000039,None,602.0510646000039,None,602.0510646000039,None,602.0510646000039,None,602.0510646000039,None,602.0510646000039,None,604.0405005000066,604.0405005000066,28.400000000000006,1.373,-1100,-1250,-1150,,,,,,,,,,,,,,,,,,,,,,,,,,,,,,,,,,,,,,,,,,,,,,,,,,,,,,,,,,,,,,,,,,,,,,,,,,,,,,,,,,,m,22,yangxu,2022_Apr_12_1521,experiment3,2021.1.4,60.11338585701455,
63,-150,0,0,one,-150,0,0,,,,,0,71,71,62,,,,,,,,,,,g,0.2279452999937348,605.485328699986,None,605.485328699986,None,605.7458900000202,None,605.7458900000202,None,605.7458900000202,None,607.723875799973,608.2230507999775,607.723875799973,608.2230507999775,607.723875799973,608.2230507999775,605.7458900000202,None,608.275939180015,None,608.275939180015,None,608.275939180015,None,0.01159588003065437,None,608.275939180015,None,608.275939180015,None,608.275939180015,None,608.275939180015,None,608.275939180015,None,608.275939180015,None,608.302152600023,None,608.302152600023,None,608.302152600023,None,0.010694320080801845,0.5106943200808018,608.302152600023,None,608.302152600023,None,608.302152600023,None,608.302152600023,None,608.302152600023,None,608.302152600023,None,610.2894916000078,610.2894916000078,-7.799999999999997,1.493,-1250,-1250,-1150,,,,,,,,,,,,,,,,,,,,,,,,,,,,,,,,,,,,,,,,,,,,,,,,,,,,,,,,,,,,,,,,,,,,,,,,,,,,,,,,,,,m,22,yangxu,2022_Apr_12_1521,experiment3,2021.1.4,60.11338585701455,
4,50,200,0,one,50,200,0,,,,,0,72,72,3,,,,,,,,,,,g,0.19875550002325326,611.8559375000186,None,611.8559375000186,None,612.0764256999828,None,612.0764256999828,None,612.0764256999828,None,614.0554739999934,614.5588158000028,614.0554739999934,614.5588158000028,614.0554739999934,614.5588158000028,612.0764256999828,None,614.5755185400019,None,614.5755185400019,None,614.5755185400019,None,0.0005909400060772896,None,614.5755185400019,None,614.5755185400019,None,614.5755185400019,None,614.5755185400019,None,614.5755185400019,None,614.5755185400019,None,614.5991581999697,None,614.5991581999697,None,614.5991581999697,None,0.008775279973633587,0.5087752799736336,614.5991581999697,None,614.5991581999697,None,614.5991581999697,None,614.5991581999697,None,614.5991581999697,None,614.5991581999697,None,616.5883775000111,616.5883775000111,-5.700000000000003,1.089,-1200,-1050,-1150,,,,,,,,,,,,,,,,,,,,,,,,,,,,,,,,,,,,,,,,,,,,,,,,,,,,,,,,,,,,,,,,,,,,,,,,,,,,,,,,,,,m,22,yangxu,2022_Apr_12_1521,experiment3,2021.1.4,60.11338585701455,
42,50,200,200,one,50,200,200,,,,,0,73,73,41,,,,,,,,,,,a,0.5410283000092022,617.7437683999888,None,617.7437683999888,None,618.3117096999777,None,618.3117096999777,None,618.3117096999777,None,620.3042613000143,620.8043227000162,620.3042613000143,620.8043227000162,620.3042613000143,620.8043227000162,618.3117096999777,None,620.8210254400153,None,620.8210254400153,None,620.8210254400153,None,0.011363139958120883,None,620.8210254400153,None,620.8210254400153,None,620.8210254400153,None,620.8210254400153,None,620.8210254400153,None,620.8210254400153,None,620.8346773000085,None,620.8346773000085,None,620.8346773000085,None,0.01591757999267429,0.5159175799926743,620.8346773000085,None,620.8346773000085,None,620.8346773000085,None,620.8346773000085,None,620.8346773000085,None,620.8346773000085,None,622.8211406000191,622.8211406000191,-16.700000000000003,0.954,-1150,-850,-950,,,,,,,,,,,,,,,,,,,,,,,,,,,,,,,,,,,,,,,,,,,,,,,,,,,,,,,,,,,,,,,,,,,,,,,,,,,,,,,,,,,m,22,yangxu,2022_Apr_12_1521,experiment3,2021.1.4,60.11338585701455,
73,-200,-150,-150,one,-200,-150,-150,,,,,0,74,74,72,,,,,,,,,,,a,0.34937760001048446,623.8652503999765,None,623.8652503999765,None,624.2677569999942,None,624.2677569999942,None,624.2677569999942,None,626.2361554999952,626.7474121999694,626.2361554999952,626.7474121999694,626.2361554999952,626.7474121999694,624.2677569999942,None,626.7808176799676,None,626.7808176799676,None,626.7808176799676,None,0.010668879956938326,None,626.7808176799676,None,626.7808176799676,None,626.7808176799676,None,626.7808176799676,None,626.7808176799676,None,626.7808176799676,None,626.7945242999704,None,626.7945242999704,None,626.7945242999704,None,0.0025151799200102687,0.5025151799200103,626.7945242999704,None,626.7945242999704,None,626.7945242999704,None,626.7945242999704,None,626.7945242999704,None,626.7945242999704,None,628.7861578000011,628.7861578000011,-24.1,1.486,-1350,-1000,-1100,,,,,,,,,,,,,,,,,,,,,,,,,,,,,,,,,,,,,,,,,,,,,,,,,,,,,,,,,,,,,,,,,,,,,,,,,,,,,,,,,,,m,22,yangxu,2022_Apr_12_1521,experiment3,2021.1.4,60.11338585701455,
11,200,50,0,two,200,50,0,,,,,0,75,75,10,,,,,,,,,,,g,0.25128000002587214,630.3688947000192,None,630.3688947000192,None,630.641001800017,None,630.641001800017,None,630.641001800017,None,632.6280583000043,633.1444372999831,632.6280583000043,633.1444372999831,632.6280583000043,633.1444372999831,630.641001800017,None,633.1778427799813,None,633.1778427799813,None,633.1778427799813,None,0.014662479981780052,None,633.1778427799813,None,633.1778427799813,None,633.1778427799813,None,633.1778427799813,None,633.1778427799813,None,633.1778427799813,None,633.2024902999983,None,633.2024902999983,None,633.2024902999983,None,0.014800519973505288,0.5148005199735053,633.2024902999983,None,633.2024902999983,None,633.2024902999983,None,633.2024902999983,None,633.2024902999983,None,633.2024902999983,None,635.1864392000134,635.1864392000134,21.099999999999994,1.441,-1150,-950,-1100,,,,,,,,,,,,,,,,,,,,,,,,,,,,,,,,,,,,,,,,,,,,,,,,,,,,,,,,,,,,,,,,,,,,,,,,,,,,,,,,,,,m,22,yangxu,2022_Apr_12_1521,experiment3,2021.1.4,60.11338585701455,
91,-200,-200,0,two,-200,-200,0,,,,,0,76,76,90,,,,,,,,,,,g,0.35631619999185205,636.6962509999867,None,636.6962509999867,None,637.0878105000011,None,637.0878105000011,None,637.0878105000011,None,639.0677142000059,639.5678753000102,639.0677142000059,639.5678753000102,639.0677142000059,639.5678753000102,637.0878105000011,None,639.6007179399719,None,639.6007179399719,None,639.6007179399719,None,0.01122444000793621,None,639.6007179399719,None,639.6007179399719,None,639.6007179399719,None,639.6007179399719,None,639.6007179399719,None,639.6007179399719,None,639.6147256999975,None,639.6147256999975,None,639.6147256999975,None,0.016360979934688658,0.5163609799346887,639.6147256999975,None,639.6147256999975,None,639.6147256999975,None,639.6147256999975,None,639.6147256999975,None,639.6147256999975,None,641.5879387999885,641.5879387999885,-23.4,3.48,-1350,-1150,-1100,,,,,,,,,,,,,,,,,,,,,,,,,,,,,,,,,,,,,,,,,,,,,,,,,,,,,,,,,,,,,,,,,,,,,,,,,,,,,,,,,,,m,22,yangxu,2022_Apr_12_1521,experiment3,2021.1.4,60.11338585701455,
6,200,0,50,one,200,0,50,,,,,0,77,77,5,,,,,,,,,,,a,0.3215051000006497,645.1524714999832,None,645.1524714999832,None,645.5086722999695,None,645.5086722999695,None,645.5086722999695,None,647.4836619999842,647.9839963999693,647.4836619999842,647.9839963999693,647.4836619999842,647.9839963999693,645.5086722999695,None,648.0157260400126,None,648.0157260400126,None,648.0157260400126,None,0.009596240008249879,None,648.0157260400126,None,648.0157260400126,None,648.0157260400126,None,648.0157260400126,None,648.0157260400126,None,648.0157260400126,None,648.0341698999982,None,648.0341698999982,None,648.0341698999982,None,0.012558880029246211,0.5125588800292462,648.0341698999982,None,648.0341698999982,None,648.0341698999982,None,648.0341698999982,None,648.0341698999982,None,648.0341698999982,None,650.0176050000009,650.0176050000009,42.400000000000006,1.955,-1150,-1150,-1050,,,,,,,,,,,,,,,,,,,,,,,,,,,,,,,,,,,,,,,,,,,,,,,,,,,,,,,,,,,,,,,,,,,,,,,,,,,,,,,,,,,m,22,yangxu,2022_Apr_12_1521,experiment3,2021.1.4,60.11338585701455,
58,-150,-200,0,two,-150,-200,0,,,,,0,78,78,57,,,,,,,,,,,a,0.40273539995541796,652.0332737999852,None,652.0332737999852,None,652.4696064000018,None,652.4696064000018,None,652.4696064000018,None,654.4487490999745,654.9474463000079,654.4487490999745,654.9474463000079,654.4487490999745,654.9474463000079,652.4696064000018,None,654.9807879399857,None,654.9807879399857,None,654.9807879399857,None,0.011148939956910908,None,654.9807879399857,None,654.9807879399857,None,654.9807879399857,None,654.9807879399857,None,654.9807879399857,None,654.9807879399857,None,655.0027475999668,None,655.0027475999668,None,655.0027475999668,None,0.011152579972986132,0.5111525799729861,655.0027475999668,None,655.0027475999668,None,655.0027475999668,None,655.0027475999668,None,655.0027475999668,None,655.0027475999668,None,656.9919017999782,656.9919017999782,14.400000000000006,1.121,-1300,-1350,-1050,,,,,,,,,,,,,,,,,,,,,,,,,,,,,,,,,,,,,,,,,,,,,,,,,,,,,,,,,,,,,,,,,,,,,,,,,,,,,,,,,,,m,22,yangxu,2022_Apr_12_1521,experiment3,2021.1.4,60.11338585701455,
32,50,200,50,two,50,200,50,,,,,0,79,79,31,,,,,,,,,,,g,0.31407590000890195,658.1798817000235,None,658.1798817000235,None,658.5362195000052,None,658.5362195000052,None,658.5362195000052,None,660.5244851000025,None,660.5244851000025,None,660.5244851000025,None,658.5362195000052,None,661.0329834399861,None,661.0329834399861,None,661.0329834399861,None,0.010200139950029552,None,661.0329834399861,None,661.0329834399861,None,661.0329834399861,None,661.0329834399861,None,661.0329834399861,None,661.0329834399861,None,661.0493552999687,None,661.0493552999687,None,661.0493552999687,None,0.00036853994242846966,0.5003685399424285,661.0493552999687,None,661.0493552999687,None,661.0493552999687,None,661.0493552999687,None,661.0493552999687,None,661.0493552999687,None,663.0477574999677,663.0477574999677,-6.100000000000001,1.535,-1250,-1150,-1000,,,,,,,,,,,,,,,,,,,,,,,,,,,,,,,,,,,,,,,,,,,,,,,,,,,,,,,,,,,,,,,,,,,,,,,,,,,,,,,,,,,m,22,yangxu,2022_Apr_12_1521,experiment3,2021.1.4,60.11338585701455,
8,0,200,50,two,0,200,50,,,,,0,80,80,7,,,,,,,,,,,g,0.26749619998736307,664.6522632999695,None,664.6522632999695,None,664.9589552999823,None,664.9589552999823,None,664.9589552999823,None,666.9289527999936,667.4454855999793,666.9289527999936,667.4454855999793,666.9289527999936,667.4454855999793,664.9589552999823,None,667.4621883399784,None,667.4621883399784,None,667.4621883399784,None,0.0009655400062911212,None,667.4621883399784,None,667.4621883399784,None,667.4621883399784,None,667.4621883399784,None,667.4621883399784,None,667.4621883399784,None,667.4933316999814,None,667.4933316999814,None,667.4933316999814,None,0.0017771799466572702,0.5017771799466573,667.4933316999814,None,667.4933316999814,None,667.4933316999814,None,667.4933316999814,None,667.4933316999814,None,667.4933316999814,None,669.4854378000018,669.4854378000018,-3.8999999999999986,1.265,-1250,-950,-950,,,,,,,,,,,,,,,,,,,,,,,,,,,,,,,,,,,,,,,,,,,,,,,,,,,,,,,,,,,,,,,,,,,,,,,,,,,,,,,,,,,m,22,yangxu,2022_Apr_12_1521,experiment3,2021.1.4,60.11338585701455,
27,50,50,200,one,50,50,200,,,,,0,81,81,26,,,,,,,,,,,a,0.6028957000235096,670.8290161999757,None,670.8290161999757,None,671.4637501999969,None,671.4637501999969,None,671.4637501999969,None,673.4586982000037,673.9605595999747,673.4586982000037,673.9605595999747,673.4586982000037,673.9605595999747,671.4637501999969,None,673.9772623399738,None,673.9772623399738,None,673.9772623399738,None,0.010311239922884852,None,673.9772623399738,None,673.9772623399738,None,673.9772623399738,None,673.9772623399738,None,673.9772623399738,None,673.9772623399738,None,673.9923695999896,None,673.9923695999896,None,673.9923695999896,None,0.015571979980450124,0.5155719799804501,673.9923695999896,None,673.9923695999896,None,673.9923695999896,None,673.9923695999896,None,673.9923695999896,None,673.9923695999896,None,675.9825551999966,675.9825551999966,2.1000000000000014,1.916,-1200,-900,-750,,,,,,,,,,,,,,,,,,,,,,,,,,,,,,,,,,,,,,,,,,,,,,,,,,,,,,,,,,,,,,,,,,,,,,,,,,,,,,,,,,,m,22,yangxu,2022_Apr_12_1521,experiment3,2021.1.4,60.11338585701455,
90,-150,-200,-200,one,-150,-200,-200,,,,,0,82,82,89,,,,,,,,,,,a,1.2978939999593422,677.9785331999883,None,677.9785331999883,None,679.295057100011,None,679.295057100011,None,679.295057100011,None,681.2807828999939,None,681.2807828999939,None,681.2807828999939,None,679.295057100011,None,681.8010544399847,None,681.8010544399847,None,681.8010544399847,None,0.005107939941808581,None,681.8010544399847,None,681.8010544399847,None,681.8010544399847,None,681.8010544399847,None,681.8010544399847,None,681.8010544399847,None,681.8205747000175,None,681.8205747000175,None,681.8205747000175,None,0.013716479996219277,0.5137164799962193,681.8205747000175,None,681.8205747000175,None,681.8205747000175,None,681.8205747000175,None,681.8205747000175,None,681.8205747000175,None,683.8094661000068,683.8094661000068,4.700000000000003,1.353,-1350,-1100,-950,,,,,,,,,,,,,,,,,,,,,,,,,,,,,,,,,,,,,,,,,,,,,,,,,,,,,,,,,,,,,,,,,,,,,,,,,,,,,,,,,,,m,22,yangxu,2022_Apr_12_1521,experiment3,2021.1.4,60.11338585701455,
88,-200,-200,-150,one,-200,-200,-150,,,,,0,83,83,87,,,,,,,,,,,l,0.2701660000020638,685.227437399968,None,685.227437399968,None,685.5183702000068,None,685.5183702000068,None,685.5183702000068,None,687.5084285999765,688.0079241999774,687.5084285999765,688.0079241999774,687.5084285999765,688.0079241999774,685.5183702000068,None,688.0246269399765,None,688.0246269399765,None,688.0246269399765,None,0.008175040013156831,None,688.0246269399765,None,688.0246269399765,None,688.0246269399765,None,688.0246269399765,None,688.0246269399765,None,688.0246269399765,None,688.0405190999736,None,688.0405190999736,None,688.0405190999736,None,0.013943279976956546,0.5139432799769565,688.0405190999736,None,688.0405190999736,None,688.0405190999736,None,688.0405190999736,None,688.0405190999736,None,688.0405190999736,None,690.0238532000221,690.0238532000221,-6.100000000000001,1.909,-1550,-1300,-1100,,,,,,,,,,,,,,,,,,,,,,,,,,,,,,,,,,,,,,,,,,,,,,,,,,,,,,,,,,,,,,,,,,,,,,,,,,,,,,,,,,,m,22,yangxu,2022_Apr_12_1521,experiment3,2021.1.4,60.11338585701455,
51,-150,0,-200,one,-150,0,-200,,,,,0,84,84,50,,,,,,,,,,,g,0.28486130002420396,691.991829800012,None,691.991829800012,None,692.3101787000196,None,692.3101787000196,None,692.3101787000196,None,694.2911042000051,694.8064193999744,694.2911042000051,694.8064193999744,694.2911042000051,694.8064193999744,692.3101787000196,None,694.8231221399735,None,694.8231221399735,None,694.8231221399735,None,0.008964439970441163,None,694.8231221399735,None,694.8231221399735,None,694.8231221399735,None,694.8231221399735,None,694.8231221399735,None,694.8231221399735,None,694.8398471999681,None,694.8398471999681,None,694.8398471999681,None,0.01429817994358018,0.5142981799435802,694.8398471999681,None,694.8398471999681,None,694.8398471999681,None,694.8398471999681,None,694.8398471999681,None,694.8398471999681,None,696.8244033000083,696.8244033000083,20.900000000000006,1.826,-1700,-1300,-1300,,,,,,,,,,,,,,,,,,,,,,,,,,,,,,,,,,,,,,,,,,,,,,,,,,,,,,,,,,,,,,,,,,,,,,,,,,,,,,,,,,,m,22,yangxu,2022_Apr_12_1521,experiment3,2021.1.4,60.11338585701455,
20,0,50,0,two,0,50,0,,,,,0,85,85,19,,,,,,,,,,,g,0.5797653999761678,698.7171342999791,None,698.7171342999791,None,699.324736599985,None,699.324736599985,None,699.324736599985,None,701.3341017999919,None,701.3341017999919,None,701.3341017999919,None,699.324736599985,None,701.8390700399875,None,701.8390700399875,None,701.8390700399875,None,0.009256139979697764,None,701.8390700399875,None,701.8390700399875,None,701.8390700399875,None,701.8390700399875,None,701.8390700399875,None,701.8390700399875,None,701.8540836999891,None,701.8540836999891,None,701.8540836999891,None,0.015407680009957403,0.5154076800099574,701.8540836999891,None,701.8540836999891,None,701.8540836999891,None,701.8540836999891,None,701.8540836999891,None,701.8540836999891,None,703.8392625999986,703.8392625999986,-11.200000000000003,2.455,-1700,-1250,-1300,,,,,,,,,,,,,,,,,,,,,,,,,,,,,,,,,,,,,,,,,,,,,,,,,,,,,,,,,,,,,,,,,,,,,,,,,,,,,,,,,,,m,22,yangxu,2022_Apr_12_1521,experiment3,2021.1.4,60.11338585701455,
55,0,-150,-200,two,0,-150,-200,,,,,0,86,86,54,,,,,,,,,,,a,0.20245879999129102,706.3597085999791,None,706.3597085999791,None,706.6021988000139,None,706.6021988000139,None,706.6021988000139,None,708.5707381999819,709.0727076000185,708.5707381999819,709.0727076000185,708.5707381999819,709.0727076000185,706.6021988000139,None,709.1061495400033,None,709.1061495400033,None,709.1061495400033,None,0.011422239942476153,None,709.1061495400033,None,709.1061495400033,None,709.1061495400033,None,709.1061495400033,None,709.1061495400033,None,709.1061495400033,None,709.1211702,None,709.1211702,None,709.1211702,None,0.0004495400353334844,0.5004495400353335,709.1211702,None,709.1211702,None,709.1211702,None,709.1211702,None,709.1211702,None,709.1211702,None,711.1158932999824,711.1158932999824,37.0,1.7,-1700,-1400,-1500,,,,,,,,,,,,,,,,,,,,,,,,,,,,,,,,,,,,,,,,,,,,,,,,,,,,,,,,,,,,,,,,,,,,,,,,,,,,,,,,,,,m,22,yangxu,2022_Apr_12_1521,experiment3,2021.1.4,60.11338585701455,
82,0,-150,-150,two,0,-150,-150,,,,,0,87,87,81,,,,,,,,,,,a,0.3247892999788746,712.885800899996,None,712.885800899996,None,713.2328686999972,None,713.2328686999972,None,713.2328686999972,None,715.234343899996,None,715.234343899996,None,715.234343899996,None,713.2328686999972,None,715.7723254799726,None,715.7723254799726,None,715.7723254799726,None,0.010699079954065382,None,715.7723254799726,None,715.7723254799726,None,715.7723254799726,None,715.7723254799726,None,715.7723254799726,None,715.7723254799726,None,715.793290200003,None,715.793290200003,None,715.793290200003,None,0.011127820005640388,0.5111278200056404,715.793290200003,None,715.793290200003,None,715.793290200003,None,715.793290200003,None,715.793290200003,None,715.793290200003,None,717.778809099982,717.778809099982,35.0,1.565,-1700,-1550,-1650,,,,,,,,,,,,,,,,,,,,,,,,,,,,,,,,,,,,,,,,,,,,,,,,,,,,,,,,,,,,,,,,,,,,,,,,,,,,,,,,,,,m,22,yangxu,2022_Apr_12_1521,experiment3,2021.1.4,60.11338585701455,
17,0,200,0,one,0,200,0,,,,,0,88,88,16,,,,,,,,,,,g,0.2556977999629453,719.4180899999919,None,719.4180899999919,None,719.7080064999755,None,719.7080064999755,None,719.7080064999755,None,721.6958849999937,722.2027614999679,721.6958849999937,722.2027614999679,721.6958849999937,722.2027614999679,719.7080064999755,None,722.219464239967,None,722.219464239967,None,722.219464239967,None,0.011622840014752,None,722.219464239967,None,722.219464239967,None,722.219464239967,None,722.219464239967,None,722.219464239967,None,722.219464239967,None,722.2348827999667,None,722.2348827999667,None,722.2348827999667,None,0.0001826399238780141,0.500182639923878,722.2348827999667,None,722.2348827999667,None,722.2348827999667,None,722.2348827999667,None,722.2348827999667,None,722.2348827999667,None,724.2420890400069,None,-6.600000000000001,3.052,-1700,-1350,-1650,,,,,,,,,,,,,,,,,,,,,,,,,,,,,,,,,,,,,,,,,,,,,,,,,,,,,,,,,,,,,,,,,,,,,,,,,,,,,,,,,,,m,22,yangxu,2022_Apr_12_1521,experiment3,2021.1.4,60.11338585701455,
31,200,50,50,two,200,50,50,,,,,0,89,89,30,,,,,,,,,,,g,0.23663260001922026,727.3501663000206,None,727.3501663000206,None,727.6042714000214,None,727.6042714000214,None,727.6042714000214,None,729.5832048999728,730.0930494000204,729.5832048999728,730.0930494000204,729.5832048999728,730.0930494000204,727.6042714000214,None,730.1097521400195,None,730.1097521400195,None,730.1097521400195,None,0.0026002400554716587,None,730.1097521400195,None,730.1097521400195,None,730.1097521400195,None,730.1097521400195,None,730.1097521400195,None,730.1097521400195,None,730.1499938999768,None,730.1499938999768,None,730.1499938999768,None,0.0008997799595817924,0.5008997799595818,730.1499938999768,None,730.1499938999768,None,730.1499938999768,None,730.1499938999768,None,730.1499938999768,None,730.1499938999768,None,732.1487233000225,732.1487233000225,41.3,2.226,-1500,-1300,-1600,,,,,,,,,,,,,,,,,,,,,,,,,,,,,,,,,,,,,,,,,,,,,,,,,,,,,,,,,,,,,,,,,,,,,,,,,,,,,,,,,,,m,22,yangxu,2022_Apr_12_1521,experiment3,2021.1.4,60.11338585701455,
93,0,-200,-200,two,0,-200,-200,,,,,0,90,90,92,,,,,,,,,,,a,0.7768019999493845,734.458775200008,None,734.458775200008,None,735.2707519999822,None,735.2707519999822,None,735.2707519999822,None,737.248992000008,737.7687092999695,737.248992000008,737.7687092999695,737.248992000008,737.7687092999695,735.2707519999822,None,737.8021147799677,None,737.8021147799677,None,737.8021147799677,None,0.011531279946211725,None,737.8021147799677,None,737.8021147799677,None,737.8021147799677,None,737.8021147799677,None,737.8021147799677,None,737.8021147799677,None,737.8178445000085,None,737.8178445000085,None,737.8178445000085,None,0.015272619959432632,0.5152726199594326,737.8178445000085,None,737.8178445000085,None,737.8178445000085,None,737.8178445000085,None,737.8178445000085,None,737.8178445000085,None,739.7966039999737,739.7966039999737,48.599999999999994,14.626,-1500,-1500,-1800,,,,,,,,,,,,,,,,,,,,,,,,,,,,,,,,,,,,,,,,,,,,,,,,,,,,,,,,,,,,,,,,,,,,,,,,,,,,,,,,,,,m,22,yangxu,2022_Apr_12_1521,experiment3,2021.1.4,60.11338585701455,
15,50,0,0,one,50,0,0,,,,,0,91,91,14,,,,,,,,,,,g,0.8418056999798864,754.5061014000094,None,754.5061014000094,None,755.3908112000208,None,755.3908112000208,None,755.3908112000208,None,757.3625722000143,757.8623320999905,757.3625722000143,757.8623320999905,757.3625722000143,757.8623320999905,755.3908112000208,None,757.89470313997,None,757.89470313997,None,757.89470313997,None,0.011489639931824058,None,757.89470313997,None,757.89470313997,None,757.89470313997,None,757.89470313997,None,757.89470313997,None,757.89470313997,None,757.9109052999993,None,757.9109052999993,None,757.9109052999993,None,0.015857880003750324,0.5158578800037503,757.9109052999993,None,757.9109052999993,None,757.9109052999993,None,757.9109052999993,None,757.9109052999993,None,757.9109052999993,None,759.9000009999727,759.9000009999727,36.599999999999994,1.459,-1450,-1500,-1800,,,,,,,,,,,,,,,,,,,,,,,,,,,,,,,,,,,,,,,,,,,,,,,,,,,,,,,,,,,,,,,,,,,,,,,,,,,,,,,,,,,m,22,yangxu,2022_Apr_12_1521,experiment3,2021.1.4,60.11338585701455,
62,0,-150,0,one,0,-150,0,,,,,0,92,92,61,,,,,,,,,,,g,0.36519089998910204,761.4478014999768,None,761.4478014999768,None,761.8519648999791,None,761.8519648999791,None,761.8519648999791,None,763.8396085000131,None,763.8396085000131,None,763.8396085000131,None,761.8519648999791,None,764.3485538399661,None,764.3485538399661,None,764.3485538399661,None,0.00793073995737359,None,764.3485538399661,None,764.3485538399661,None,764.3485538399661,None,764.3485538399661,None,764.3485538399661,None,764.3485538399661,None,764.3611264000065,None,764.3611264000065,None,764.3611264000065,None,0.00027014000806957483,0.5002701400080696,764.3611264000065,None,764.3611264000065,None,764.3611264000065,None,764.3611264000065,None,764.3611264000065,None,764.3611264000065,None,766.3608830000157,766.3608830000157,47.099999999999994,1.474,-1450,-1650,-1800,,,,,,,,,,,,,,,,,,,,,,,,,,,,,,,,,,,,,,,,,,,,,,,,,,,,,,,,,,,,,,,,,,,,,,,,,,,,,,,,,,,m,22,yangxu,2022_Apr_12_1521,experiment3,2021.1.4,60.11338585701455,
33,50,50,200,two,50,50,200,,,,,0,93,93,32,,,,,,,,,,,g,0.2934250999824144,767.9035743999993,None,767.9035743999993,None,768.245590400009,None,768.245590400009,None,768.245590400009,None,770.2331522000022,None,770.2331522000022,None,770.2331522000022,None,768.245590400009,None,770.7426003400003,None,770.7426003400003,None,770.7426003400003,None,0.010162739956285805,None,770.7426003400003,None,770.7426003400003,None,770.7426003400003,None,770.7426003400003,None,770.7426003400003,None,770.7426003400003,None,770.7593480999931,None,770.7593480999931,None,770.7593480999931,None,0.01423907995922491,0.5142390799592249,770.7593480999931,None,770.7593480999931,None,770.7593480999931,None,770.7593480999931,None,770.7593480999931,None,770.7593480999931,None,772.7595092999982,772.7595092999982,-11.799999999999997,1.396,-1400,-1600,-1600,,,,,,,,,,,,,,,,,,,,,,,,,,,,,,,,,,,,,,,,,,,,,,,,,,,,,,,,,,,,,,,,,,,,,,,,,,,,,,,,,,,m,22,yangxu,2022_Apr_12_1521,experiment3,2021.1.4,60.11338585701455,
64,0,0,-200,one,0,0,-200,,,,,0,94,94,63,,,,,,,,,,,g,0.36622429999988526,774.2244199999841,None,774.2244199999841,None,774.611847299966,None,774.611847299966,None,774.611847299966,None,776.5897197999875,777.0905771999969,776.5897197999875,777.0905771999969,776.5897197999875,777.0905771999969,774.611847299966,None,777.1244099399889,None,777.1244099399889,None,777.1244099399889,None,0.009072539978660643,None,777.1244099399889,None,777.1244099399889,None,777.1244099399889,None,777.1244099399889,None,777.1244099399889,None,777.1244099399889,None,777.1411955999793,None,777.1411955999793,None,777.1411955999793,None,0.013511879951693118,0.5135118799516931,777.1411955999793,None,777.1411955999793,None,777.1411955999793,None,777.1411955999793,None,777.1411955999793,None,777.1411955999793,None,779.1232682999689,779.1232682999689,48.599999999999994,1.224,-1400,-1600,-1800,,,,,,,,,,,,,,,,,,,,,,,,,,,,,,,,,,,,,,,,,,,,,,,,,,,,,,,,,,,,,,,,,,,,,,,,,,,,,,,,,,,m,22,yangxu,2022_Apr_12_1521,experiment3,2021.1.4,60.11338585701455,
