trialNumber,mychoice,otherchoice,stay,skip,pointsWon,otherScore,unobtained,choicepos,pos_1,otherscore,allowedkeyresp,trials_2.thisRepN,trials_2.thisTrialN,trials_2.thisN,trials_2.thisIndex,trials.thisRepN,trials.thisTrialN,trials.thisN,trials.thisIndex,image_2.started,image_2.stopped,key_resp_2.keys,key_resp_2.rt,key_resp_2.started,key_resp_2.stopped,key_resp_6.keys,key_resp_6.rt,key_resp_6.started,key_resp_6.stopped,text.started,text.stopped,left_3.started,left_3.stopped,middle_3.started,middle_3.stopped,right_3.started,right_3.stopped,otherleft_1.started,otherleft_1.stopped,othermiddle_1.started,othermiddle_1.stopped,otherright_1.started,otherright_1.stopped,text_2.started,text_2.stopped,left_4.started,left_4.stopped,right_4.started,right_4.stopped,middle_4.started,middle_4.stopped,ISI_3.started,ISI_3.stopped,mypick.started,mypick.stopped,otherpick.started,otherpick.stopped,residal.started,residal.stopped,otherleft_5.started,otherleft_5.stopped,othermiddle_5.started,othermiddle_5.stopped,otherright_5.started,otherright_5.stopped,left_5.started,left_5.stopped,right_5.started,right_5.stopped,middle_5.started,middle_5.stopped,ISI_5.started,ISI_5.stopped,mypick_1.started,mypick_1.stopped,otherpick_1.started,otherpick_1.stopped,residal_1.started,residal_1.stopped,otherleft_6.started,otherleft_6.stopped,othermiddle_6.started,othermiddle_6.stopped,otherright_6.started,otherright_6.stopped,text_3.started,text_3.stopped,rating,ratingrt,totalScore,othertotalScore,unobtainedScore,image_4.started,image_4.stopped,key_resp_3.keys,key_resp_3.rt,key_resp_3.started,key_resp_3.stopped,image_5.started,image_5.stopped,key_resp.keys,key_resp.rt,key_resp.started,key_resp.stopped,otherleft_3.started,otherleft_3.stopped,othermiddle_3.started,othermiddle_3.stopped,otherright_3.started,otherright_3.stopped,text_4.started,text_4.stopped,ISI_2.started,ISI_2.stopped,key_resp_4.keys,key_resp_4.rt,key_resp_4.started,key_resp_4.stopped,otherleft_4.started,otherleft_4.stopped,othermiddle_4.started,othermiddle_4.stopped,otherright_4.started,otherright_4.stopped,text_5.started,text_5.stopped,left.started,left.stopped,right.started,right.stopped,middle.started,middle.stopped,ISI.started,ISI.stopped,mypick_3.started,mypick_3.stopped,otherpick_3.started,otherpick_3.stopped,residal_3.started,residal_3.stopped,otherleft.started,otherleft.stopped,othermiddle.started,othermiddle.stopped,otherright.started,otherright.stopped,right_2.started,right_2.stopped,middle_2.started,middle_2.stopped,left_2.started,left_2.stopped,ISI_4.started,ISI_4.stopped,mypick_4.started,mypick_4.stopped,otherpick_4.started,otherpick_4.stopped,residal_4.started,residal_4.stopped,otherleft_2.started,otherleft_2.stopped,othermiddle_2.started,othermiddle_2.stopped,otherright_2.started,otherright_2.stopped,text_6.started,text_6.stopped,image_3.started,image_3.stopped,key_resp_9.keys,key_resp_9.rt,key_resp_9.started,key_resp_9.stopped,gender,age,participant,date,expName,psychopyVersion,frameRate,
,,,,,,,,,,,,,,,,,,,,24.60133879998466,None,space,2.8327630999847315,24.60133879998466,None,,,,,,,,,,,,,,,,,,,,,,,,,,,,,,,,,,,,,,,,,,,,,,,,,,,,,,,,,,,,,,,,,,,,,,,,,,,,,,,,,,,,,,,,,,,,,,,,,,,,,,,,,,,,,,,,,,,,,,,,,,,,,,,,,,,,,,,,,,,,,,,,,,,,,,f,25,yinxin,2022_Apr_09_1057,experiment3,2021.1.4,59.97969087564203,
57,-150,0,-200,two,-150,0,-200,,,,,0,0,0,56,,,,,,,,,,,g,4.108852699981071,27.559296199993696,None,27.559296199993696,None,31.710113699984504,None,31.710113699984504,None,31.710113699984504,None,33.69981829999597,34.19796230000793,33.69981829999597,34.19796230000793,33.69981829999597,34.19796230000793,31.710113699984504,None,34.23128650001017,None,34.23128650001017,None,34.23128650001017,None,0.012875800020992756,None,34.23128650001017,None,34.23128650001017,None,34.23128650001017,None,34.23128650001017,None,34.23128650001017,None,34.23128650001017,None,34.239706899999874,None,34.239706899999874,None,34.239706899999874,None,0.0037677999935112894,0.5037677999935113,34.239706899999874,None,34.239706899999874,None,34.239706899999874,None,34.239706899999874,None,34.239706899999874,None,34.239706899999874,None,36.23088899999857,36.23088899999857,-24.5,8.074,50,0,-200,,,,,,,,,,,,,,,,,,,,,,,,,,,,,,,,,,,,,,,,,,,,,,,,,,,,,,,,,,,,,,,,,,,,,,,,,,,,,,,,,,,f,25,yinxin,2022_Apr_09_1057,experiment3,2021.1.4,59.97969087564203,
37,200,200,0,one,200,200,0,,,,,0,1,1,36,,,,,,,,,,,g,6.2712881000188645,44.42705440000282,None,44.42705440000282,None,50.7354262000008,None,50.7354262000008,None,50.7354262000008,None,52.713170400005765,53.227517599996645,52.713170400005765,53.227517599996645,52.713170400005765,53.227517599996645,50.7354262000008,None,53.260841799998886,None,53.260841799998886,None,53.260841799998886,None,0.01078750001033768,None,53.260841799998886,None,53.260841799998886,None,53.260841799998886,None,53.260841799998886,None,53.260841799998886,None,53.260841799998886,None,53.2993875000102,None,53.2993875000102,None,53.2993875000102,None,0.0046270999882835895,0.5046270999882836,53.2993875000102,None,53.2993875000102,None,53.2993875000102,None,53.2993875000102,None,53.2993875000102,None,53.2993875000102,None,55.277116599987494,55.277116599987494,49.7,3.981,250,200,-200,,,,,,,,,,,,,,,,,,,,,,,,,,,,,,,,,,,,,,,,,,,,,,,,,,,,,,,,,,,,,,,,,,,,,,,,,,,,,,,,,,,f,25,yinxin,2022_Apr_09_1057,experiment3,2021.1.4,59.97969087564203,
7,0,50,200,two,0,50,200,,,,,0,2,2,6,,,,,,,,,,,l,2.6795005000021774,59.33646950000548,None,59.33646950000548,None,62.05070100000012,None,62.05070100000012,None,62.05070100000012,None,64.02899940000498,64.54222090000985,64.02899940000498,64.54222090000985,64.02899940000498,64.54222090000985,62.05070100000012,None,64.55888300001098,None,64.55888300001098,None,64.55888300001098,None,0.00811620001331903,None,64.55888300001098,None,64.55888300001098,None,64.55888300001098,None,64.55888300001098,None,64.55888300001098,None,64.55888300001098,None,64.57207669998752,None,64.57207669998752,None,64.57207669998752,None,0.015606200002366677,0.5156062000023667,64.57207669998752,None,64.57207669998752,None,64.57207669998752,None,64.57207669998752,None,64.57207669998752,None,64.57207669998752,None,66.5582613000006,66.5582613000006,-24.7,4.669,250,250,0,,,,,,,,,,,,,,,,,,,,,,,,,,,,,,,,,,,,,,,,,,,,,,,,,,,,,,,,,,,,,,,,,,,,,,,,,,,,,,,,,,,f,25,yinxin,2022_Apr_09_1057,experiment3,2021.1.4,59.97969087564203,
17,0,200,0,one,0,200,0,,,,,0,3,3,16,,,,,,,,,,,l,6.109935199987376,71.28852309999638,None,71.28852309999638,None,77.43262629999663,None,77.43262629999663,None,77.43262629999663,None,79.40591269999277,79.90563980001025,79.40591269999277,79.90563980001025,79.40591269999277,79.90563980001025,77.43262629999663,None,79.93906389999611,None,79.93906389999611,None,79.93906389999611,None,0.01152390000061132,None,79.93906389999611,None,79.93906389999611,None,79.93906389999611,None,79.93906389999611,None,79.93906389999611,None,79.93906389999611,None,79.94884890000685,None,79.94884890000685,None,79.94884890000685,None,0.004987000022083521,0.5049870000220835,79.94884890000685,None,79.94884890000685,None,79.94884890000685,None,79.94884890000685,None,79.94884890000685,None,79.94884890000685,None,81.938676699996,81.938676699996,-50.0,3.855,250,450,0,,,,,,,,,,,,,,,,,,,,,,,,,,,,,,,,,,,,,,,,,,,,,,,,,,,,,,,,,,,,,,,,,,,,,,,,,,,,,,,,,,,f,25,yinxin,2022_Apr_09_1057,experiment3,2021.1.4,59.97969087564203,
62,0,-150,0,one,0,-150,0,,,,,0,4,4,61,,,,,,,,,,,g,4.336766399996122,85.85228659998393,None,85.85228659998393,None,90.20809749999898,None,90.20809749999898,None,90.20809749999898,None,92.19016130000819,92.70322779999697,92.19016130000819,92.70322779999697,92.19016130000819,92.70322779999697,90.20809749999898,None,92.7198898999981,None,92.7198898999981,None,92.7198898999981,None,0.008889899996574968,None,92.7198898999981,None,92.7198898999981,None,92.7198898999981,None,92.7198898999981,None,92.7198898999981,None,92.7198898999981,None,92.74994290000177,None,92.74994290000177,None,92.74994290000177,None,0.00888799998210743,0.5088879999821074,92.74994290000177,None,92.74994290000177,None,92.74994290000177,None,92.74994290000177,None,92.74994290000177,None,92.74994290000177,None,94.72007179999491,94.72007179999491,25.299999999999997,2.04,250,300,0,,,,,,,,,,,,,,,,,,,,,,,,,,,,,,,,,,,,,,,,,,,,,,,,,,,,,,,,,,,,,,,,,,,,,,,,,,,,,,,,,,,f,25,yinxin,2022_Apr_09_1057,experiment3,2021.1.4,59.97969087564203,
3,50,0,200,one,50,0,200,,,,,0,5,5,2,,,,,,,,,,,a,4.324605200003134,96.8333491999947,None,96.8333491999947,None,101.1911746999831,None,101.1911746999831,None,101.1911746999831,None,103.16985010000644,103.68433920000098,103.16985010000644,103.68433920000098,103.16985010000644,103.68433920000098,101.1911746999831,None,103.7010013000021,None,103.7010013000021,None,103.7010013000021,None,0.011277200013864785,None,103.7010013000021,None,103.7010013000021,None,103.7010013000021,None,103.7010013000021,None,103.7010013000021,None,103.7010013000021,None,103.70999219999067,None,103.70999219999067,None,103.70999219999067,None,0.0043345999729353935,0.5043345999729354,103.70999219999067,None,103.70999219999067,None,103.70999219999067,None,103.70999219999067,None,103.70999219999067,None,103.70999219999067,None,105.70060599999852,105.70060599999852,50.0,6.618,300,300,200,,,,,,,,,,,,,,,,,,,,,,,,,,,,,,,,,,,,,,,,,,,,,,,,,,,,,,,,,,,,,,,,,,,,,,,,,,,,,,,,,,,f,25,yinxin,2022_Apr_09_1057,experiment3,2021.1.4,59.97969087564203,
2,0,200,50,one,0,200,50,,,,,0,6,6,1,,,,,,,,,,,g,7.091652700008126,112.38036730000749,None,112.38036730000749,None,119.50489720000769,None,119.50489720000769,None,119.50489720000769,None,121.48106709998683,121.98089919998893,121.48106709998683,121.98089919998893,121.48106709998683,121.98089919998893,119.50489720000769,None,122.01405469999591,None,122.01405469999591,None,122.01405469999591,None,0.011557300022104755,None,122.01405469999591,None,122.01405469999591,None,122.01405469999591,None,122.01405469999591,None,122.01405469999591,None,122.01405469999591,None,122.0231541999965,None,122.0231541999965,None,122.0231541999965,None,0.004312500008381903,0.5043125000083819,122.0231541999965,None,122.0231541999965,None,122.0231541999965,None,122.0231541999965,None,122.0231541999965,None,122.0231541999965,None,124.01356910000322,124.01356910000322,-50.0,2.494,300,500,250,,,,,,,,,,,,,,,,,,,,,,,,,,,,,,,,,,,,,,,,,,,,,,,,,,,,,,,,,,,,,,,,,,,,,,,,,,,,,,,,,,,f,25,yinxin,2022_Apr_09_1057,experiment3,2021.1.4,59.97969087564203,
92,-200,0,-200,two,-200,0,-200,,,,,0,7,7,91,,,,,,,,,,,l,2.2620286000019405,126.56307299999753,None,126.56307299999753,None,128.85010209999746,None,128.85010209999746,None,128.85010209999746,None,130.82901909999782,131.34414440000546,130.82901909999782,131.34414440000546,130.82901909999782,131.34414440000546,128.85010209999746,None,131.37746860000772,None,131.37746860000772,None,131.37746860000772,None,0.013580699975136667,None,131.37746860000772,None,131.37746860000772,None,131.37746860000772,None,131.37746860000772,None,131.37746860000772,None,131.37746860000772,None,131.41896529999212,None,131.41896529999212,None,131.41896529999212,None,0.005075199995189905,0.5050751999951899,131.41896529999212,None,131.41896529999212,None,131.41896529999212,None,131.41896529999212,None,131.41896529999212,None,131.41896529999212,None,133.39527400000952,133.39527400000952,-25.7,2.487,100,500,50,,,,,,,,,,,,,,,,,,,,,,,,,,,,,,,,,,,,,,,,,,,,,,,,,,,,,,,,,,,,,,,,,,,,,,,,,,,,,,,,,,,f,25,yinxin,2022_Apr_09_1057,experiment3,2021.1.4,59.97969087564203,
66,-200,0,0,one,-200,0,0,,,,,0,8,8,65,,,,,,,,,,,l,2.860660899983486,135.9522072999971,None,135.9522072999971,None,138.8353716999991,None,138.8353716999991,None,138.8353716999991,None,140.81045570000424,141.3102945999999,140.81045570000424,141.3102945999999,140.81045570000424,141.3102945999999,138.8353716999991,None,141.34450739999593,None,141.34450739999593,None,141.34450739999593,None,0.005352800013497472,None,141.34450739999593,None,141.34450739999593,None,141.34450739999593,None,141.34450739999593,None,141.34450739999593,None,141.34450739999593,None,141.38411759998417,None,141.38411759998417,None,141.38411759998417,None,0.013771199999609962,0.51377119999961,141.38411759998417,None,141.38411759998417,None,141.38411759998417,None,141.38411759998417,None,141.38411759998417,None,141.38411759998417,None,143.36206389998551,143.36206389998551,-50.0,2.741,-100,500,50,,,,,,,,,,,,,,,,,,,,,,,,,,,,,,,,,,,,,,,,,,,,,,,,,,,,,,,,,,,,,,,,,,,,,,,,,,,,,,,,,,,f,25,yinxin,2022_Apr_09_1057,experiment3,2021.1.4,59.97969087564203,
16,0,0,200,one,0,0,200,,,,,0,9,9,15,,,,,,,,,,,g,1.7759115000080783,146.19311449999805,None,146.19311449999805,None,148.00256850000005,None,148.00256850000005,None,148.00256850000005,None,149.9787634999957,150.49210879998282,149.9787634999957,150.49210879998282,149.9787634999957,150.49210879998282,148.00256850000005,None,150.52543299998507,None,150.52543299998507,None,150.52543299998507,None,0.009899700002279133,None,150.52543299998507,None,150.52543299998507,None,150.52543299998507,None,150.52543299998507,None,150.52543299998507,None,150.52543299998507,None,150.5378456999897,None,150.5378456999897,None,150.5378456999897,None,0.0008228999795392156,0.5008228999795392,150.5378456999897,None,150.5378456999897,None,150.5378456999897,None,150.5378456999897,None,150.5378456999897,None,150.5378456999897,None,152.52495809999527,152.52495809999527,-49.9,4.67,-100,500,250,,,,,,,,,,,,,,,,,,,,,,,,,,,,,,,,,,,,,,,,,,,,,,,,,,,,,,,,,,,,,,,,,,,,,,,,,,,,,,,,,,,f,25,yinxin,2022_Apr_09_1057,experiment3,2021.1.4,59.97969087564203,
50,0,-200,-150,one,0,-200,-150,,,,,0,10,10,49,,,,,,,,,,,a,2.9756309000076726,157.25067179999314,None,157.25067179999314,None,160.24131449998822,None,160.24131449998822,None,160.24131449998822,None,162.2230101999885,162.7229401000077,162.2230101999885,162.7229401000077,162.2230101999885,162.7229401000077,160.24131449998822,None,162.75606050000934,None,162.75606050000934,None,162.75606050000934,None,0.011537600017618388,None,162.75606050000934,None,162.75606050000934,None,162.75606050000934,None,162.75606050000934,None,162.75606050000934,None,162.75606050000934,None,162.76535820000572,None,162.76535820000572,None,162.76535820000572,None,0.0043738000094890594,0.5043738000094891,162.76535820000572,None,162.76535820000572,None,162.76535820000572,None,162.76535820000572,None,162.76535820000572,None,162.76535820000572,None,164.7557822999952,164.7557822999952,25.5,2.879,-100,300,100,,,,,,,,,,,,,,,,,,,,,,,,,,,,,,,,,,,,,,,,,,,,,,,,,,,,,,,,,,,,,,,,,,,,,,,,,,,,,,,,,,,f,25,yinxin,2022_Apr_09_1057,experiment3,2021.1.4,59.97969087564203,
67,0,0,-150,two,0,0,-150,,,,,0,11,11,66,,,,,,,,,,,l,3.0123534000013024,167.68888880001032,None,167.68888880001032,None,170.72721819998696,None,170.72721819998696,None,170.72721819998696,None,172.7072063999949,173.22082230000524,172.7072063999949,173.22082230000524,172.7072063999949,173.22082230000524,170.72721819998696,None,173.23748440000637,None,173.23748440000637,None,173.23748440000637,None,0.011445800017099828,None,173.23748440000637,None,173.23748440000637,None,173.23748440000637,None,173.23748440000637,None,173.23748440000637,None,173.23748440000637,None,173.2463110999961,None,173.2463110999961,None,173.2463110999961,None,0.004476200032513589,0.5044762000325136,173.2463110999961,None,173.2463110999961,None,173.2463110999961,None,173.2463110999961,None,173.2463110999961,None,173.2463110999961,None,175.23478890000843,175.23478890000843,24.799999999999997,2.041,-100,300,-50,,,,,,,,,,,,,,,,,,,,,,,,,,,,,,,,,,,,,,,,,,,,,,,,,,,,,,,,,,,,,,,,,,,,,,,,,,,,,,,,,,,f,25,yinxin,2022_Apr_09_1057,experiment3,2021.1.4,59.97969087564203,
39,0,200,200,one,0,200,200,,,,,0,12,12,38,,,,,,,,,,,g,2.124058299988974,177.33434909998323,None,177.33434909998323,None,179.48712790000718,None,179.48712790000718,None,179.48712790000718,None,181.46945380000398,181.97216760000447,181.46945380000398,181.97216760000447,181.46945380000398,181.97216760000447,179.48712790000718,None,182.00549180000672,None,182.00549180000672,None,182.00549180000672,None,0.016390499979024753,None,182.00549180000672,None,182.00549180000672,None,182.00549180000672,None,182.00549180000672,None,182.00549180000672,None,182.00549180000672,None,182.01121299999068,None,182.01121299999068,None,182.01121299999068,None,0.0064737000211607665,0.5064737000211608,182.01121299999068,None,182.01121299999068,None,182.01121299999068,None,182.01121299999068,None,182.01121299999068,None,182.01121299999068,None,184.00202769998577,184.00202769998577,-25.1,2.23,-100,500,150,,,,,,,,,,,,,,,,,,,,,,,,,,,,,,,,,,,,,,,,,,,,,,,,,,,,,,,,,,,,,,,,,,,,,,,,,,,,,,,,,,,f,25,yinxin,2022_Apr_09_1057,experiment3,2021.1.4,59.97969087564203,
12,200,0,50,two,200,0,50,,,,,0,13,13,11,,,,,,,,,,,l,5.690025699994294,186.29449900001055,None,186.29449900001055,None,192.00845639998442,None,192.00845639998442,None,192.00845639998442,None,193.98760990001028,194.49997420000727,193.98760990001028,194.49997420000727,193.98760990001028,194.49997420000727,192.00845639998442,None,194.5166363000084,None,194.5166363000084,None,194.5166363000084,None,0.011684200027957559,None,194.5166363000084,None,194.5166363000084,None,194.5166363000084,None,194.5166363000084,None,194.5166363000084,None,194.5166363000084,None,194.52577859998564,None,194.52577859998564,None,194.52577859998564,None,0.004687100008595735,0.5046871000085957,194.52577859998564,None,194.52577859998564,None,194.52577859998564,None,194.52577859998564,None,194.52577859998564,None,194.52577859998564,None,196.51614250001148,196.51614250001148,50.0,4.394,100,500,200,,,,,,,,,,,,,,,,,,,,,,,,,,,,,,,,,,,,,,,,,,,,,,,,,,,,,,,,,,,,,,,,,,,,,,,,,,,,,,,,,,,f,25,yinxin,2022_Apr_09_1057,experiment3,2021.1.4,59.97969087564203,
31,200,50,50,two,200,50,50,,,,,0,14,14,30,,,,,,,,,,,l,4.053943899984006,200.9798643999966,None,200.9798643999966,None,205.05339079999248,None,205.05339079999248,None,205.05339079999248,None,207.0334908000077,207.54754319999483,207.0334908000077,207.54754319999483,207.0334908000077,207.54754319999483,205.05339079999248,None,207.56420529999596,None,207.56420529999596,None,207.56420529999596,None,0.008361900021554902,None,207.56420529999596,None,207.56420529999596,None,207.56420529999596,None,207.56420529999596,None,207.56420529999596,None,207.56420529999596,None,207.59116310000536,None,207.59116310000536,None,207.59116310000536,None,0.009134199965046719,0.5091341999650467,207.59116310000536,None,207.59116310000536,None,207.59116310000536,None,207.59116310000536,None,207.59116310000536,None,207.59116310000536,None,209.56368719998864,209.56368719998864,49.2,2.461,300,550,250,,,,,,,,,,,,,,,,,,,,,,,,,,,,,,,,,,,,,,,,,,,,,,,,,,,,,,,,,,,,,,,,,,,,,,,,,,,,,,,,,,,f,25,yinxin,2022_Apr_09_1057,experiment3,2021.1.4,59.97969087564203,
95,-200,-150,-200,two,-200,-150,-200,,,,,0,15,15,94,,,,,,,,,,,a,2.068700699979672,212.10187260000384,None,212.10187260000384,None,214.205380600004,None,214.205380600004,None,214.205380600004,None,216.1825123000017,216.69575759998406,216.1825123000017,216.69575759998406,216.1825123000017,216.69575759998406,214.205380600004,None,216.7124196999852,None,216.7124196999852,None,216.7124196999852,None,0.009159900015220046,None,216.7124196999852,None,216.7124196999852,None,216.7124196999852,None,216.7124196999852,None,216.7124196999852,None,216.7124196999852,None,216.73959419998573,None,216.73959419998573,None,216.73959419998573,None,0.009300899953814223,0.5093008999538142,216.73959419998573,None,216.73959419998573,None,216.73959419998573,None,216.73959419998573,None,216.73959419998573,None,216.73959419998573,None,218.72832009999547,218.72832009999547,-25.8,3.432,100,400,50,,,,,,,,,,,,,,,,,,,,,,,,,,,,,,,,,,,,,,,,,,,,,,,,,,,,,,,,,,,,,,,,,,,,,,,,,,,,,,,,,,,f,25,yinxin,2022_Apr_09_1057,experiment3,2021.1.4,59.97969087564203,
22,0,0,200,two,0,0,200,,,,,0,16,16,21,,,,,,,,,,,g,4.425291499996092,222.21336259998498,None,222.21336259998498,None,226.6650735999865,None,226.6650735999865,None,226.6650735999865,None,228.64675949999946,229.15993359999266,228.64675949999946,229.15993359999266,228.64675949999946,229.15993359999266,226.6650735999865,None,229.17659569999378,None,229.17659569999378,None,229.17659569999378,None,0.01156990000163205,None,229.17659569999378,None,229.17659569999378,None,229.17659569999378,None,229.17659569999378,None,229.17659569999378,None,229.17659569999378,None,229.1858796000015,None,229.1858796000015,None,229.1858796000015,None,0.0050063999951817095,0.5050063999951817,229.1858796000015,None,229.1858796000015,None,229.1858796000015,None,229.1858796000015,None,229.1858796000015,None,229.1858796000015,None,231.17614880000474,231.17614880000474,-48.1,4.136,100,400,250,,,,,,,,,,,,,,,,,,,,,,,,,,,,,,,,,,,,,,,,,,,,,,,,,,,,,,,,,,,,,,,,,,,,,,,,,,,,,,,,,,,f,25,yinxin,2022_Apr_09_1057,experiment3,2021.1.4,59.97969087564203,
90,-150,-200,-200,one,-150,-200,-200,,,,,0,17,17,89,,,,,,,,,,,l,3.4582437000062782,235.37350049999077,None,235.37350049999077,None,238.862621999986,None,238.862621999986,None,238.862621999986,None,240.84094989998266,241.35555430001114,240.84094989998266,241.35555430001114,240.84094989998266,241.35555430001114,238.862621999986,None,241.37221640001226,None,241.37221640001226,None,241.37221640001226,None,0.003970100020524114,None,241.37221640001226,None,241.37221640001226,None,241.37221640001226,None,241.37221640001226,None,241.37221640001226,None,241.37221640001226,None,241.40858160000062,None,241.40858160000062,None,241.40858160000062,None,0.003930399980163202,0.5039303999801632,241.40858160000062,None,241.40858160000062,None,241.40858160000062,None,241.40858160000062,None,241.40858160000062,None,241.40858160000062,None,243.39042849998805,243.39042849998805,25.5,4.841,-50,200,50,,,,,,,,,,,,,,,,,,,,,,,,,,,,,,,,,,,,,,,,,,,,,,,,,,,,,,,,,,,,,,,,,,,,,,,,,,,,,,,,,,,f,25,yinxin,2022_Apr_09_1057,experiment3,2021.1.4,59.97969087564203,
54,-200,0,-150,one,-200,0,-150,,,,,0,18,18,53,,,,,,,,,,,l,1.6851803000026848,248.3039943999902,None,248.3039943999902,None,250.00673470000038,None,250.00673470000038,None,250.00673470000038,None,251.98879209998995,252.4886600000027,251.98879209998995,252.4886600000027,251.98879209998995,252.4886600000027,250.00673470000038,None,252.54232140000096,None,252.54232140000096,None,252.54232140000096,None,0.011966499994741753,None,252.54232140000096,None,252.54232140000096,None,252.54232140000096,None,252.54232140000096,None,252.54232140000096,None,252.54232140000096,None,252.58376700000372,None,252.58376700000372,None,252.58376700000372,None,0.007012899994151667,0.5070128999941517,252.58376700000372,None,252.58376700000372,None,252.58376700000372,None,252.58376700000372,None,252.58376700000372,None,252.58376700000372,None,254.55492880000384,254.55492880000384,-24.5,1.643,-250,200,-100,,,,,,,,,,,,,,,,,,,,,,,,,,,,,,,,,,,,,,,,,,,,,,,,,,,,,,,,,,,,,,,,,,,,,,,,,,,,,,,,,,,f,25,yinxin,2022_Apr_09_1057,experiment3,2021.1.4,59.97969087564203,
55,0,-150,-200,two,0,-150,-200,,,,,0,19,19,54,,,,,,,,,,,l,2.441672599990852,256.2673671999946,None,256.2673671999946,None,258.7438994999975,None,258.7438994999975,None,258.7438994999975,None,260.72142409998924,261.23691370000597,260.72142409998924,261.23691370000597,260.72142409998924,261.23691370000597,258.7438994999975,None,261.25357580000707,None,261.25357580000707,None,261.25357580000707,None,0.011525700014317408,None,261.25357580000707,None,261.25357580000707,None,261.25357580000707,None,261.25357580000707,None,261.25357580000707,None,261.25357580000707,None,261.2640356000047,None,261.2640356000047,None,261.2640356000047,None,0.0039178000297397375,0.5039178000297397,261.2640356000047,None,261.2640356000047,None,261.2640356000047,None,261.2640356000047,None,261.2640356000047,None,261.2640356000047,None,263.2532399999909,263.2532399999909,-0.10000000000000142,1.884,-250,50,-300,,,,,,,,,,,,,,,,,,,,,,,,,,,,,,,,,,,,,,,,,,,,,,,,,,,,,,,,,,,,,,,,,,,,,,,,,,,,,,,,,,,f,25,yinxin,2022_Apr_09_1057,experiment3,2021.1.4,59.97969087564203,
58,-150,-200,0,two,-150,-200,0,,,,,0,20,20,57,,,,,,,,,,,l,2.03831010000431,265.1948618000024,None,265.1948618000024,None,267.2590755999845,None,267.2590755999845,None,267.2590755999845,None,269.2386289999995,269.7518138999876,269.2386289999995,269.7518138999876,269.2386289999995,269.7518138999876,267.2590755999845,None,269.7684759999887,None,269.7684759999887,None,269.7684759999887,None,0.011333200003718957,None,269.7684759999887,None,269.7684759999887,None,269.7684759999887,None,269.7684759999887,None,269.7684759999887,None,269.7684759999887,None,269.77754720000667,None,269.77754720000667,None,269.77754720000667,None,0.004018700012238696,0.5040187000122387,269.77754720000667,None,269.77754720000667,None,269.77754720000667,None,269.77754720000667,None,269.77754720000667,None,269.77754720000667,None,271.76825039999676,271.76825039999676,-0.10000000000000142,3.967,-400,-150,-300,,,,,,,,,,,,,,,,,,,,,,,,,,,,,,,,,,,,,,,,,,,,,,,,,,,,,,,,,,,,,,,,,,,,,,,,,,,,,,,,,,,f,25,yinxin,2022_Apr_09_1057,experiment3,2021.1.4,59.97969087564203,
80,-150,-200,-150,two,-150,-200,-150,,,,,0,21,21,79,,,,,,,,,,,l,2.605766599997878,275.7986106000026,None,275.7986106000026,None,278.4401785999944,None,278.4401785999944,None,278.4401785999944,None,280.41643829998793,280.9164594000031,280.41643829998793,280.9164594000031,280.41643829998793,280.9164594000031,278.4401785999944,None,280.9499597999878,None,280.9499597999878,None,280.9499597999878,None,0.011419999995268881,None,280.9499597999878,None,280.9499597999878,None,280.9499597999878,None,280.9499597999878,None,280.9499597999878,None,280.9499597999878,None,280.959377399995,None,280.959377399995,None,280.959377399995,None,0.00405220000538975,0.5040522000053898,280.959377399995,None,280.959377399995,None,280.959377399995,None,280.959377399995,None,280.959377399995,None,280.959377399995,None,282.94943000000785,282.94943000000785,0.7000000000000028,2.917,-550,-350,-450,,,,,,,,,,,,,,,,,,,,,,,,,,,,,,,,,,,,,,,,,,,,,,,,,,,,,,,,,,,,,,,,,,,,,,,,,,,,,,,,,,,f,25,yinxin,2022_Apr_09_1057,experiment3,2021.1.4,59.97969087564203,
82,0,-150,-150,two,0,-150,-150,,,,,0,22,22,81,,,,,,,,,,,l,1.270945899974322,285.9298998999875,None,285.9298998999875,None,287.222231199994,None,287.222231199994,None,287.222231199994,None,289.21325299999444,289.71476390000316,289.21325299999444,289.71476390000316,289.21325299999444,289.71476390000316,287.222231199994,None,289.73142600000426,None,289.73142600000426,None,289.73142600000426,None,0.010338899999624118,None,289.73142600000426,None,289.73142600000426,None,289.73142600000426,None,289.73142600000426,None,289.73142600000426,None,289.73142600000426,None,289.7590363000054,None,289.7590363000054,None,289.7590363000054,None,0.010275899985572323,0.5102758999855723,289.7590363000054,None,289.7590363000054,None,289.7590363000054,None,289.7590363000054,None,289.7590363000054,None,289.7590363000054,None,291.73112109999056,291.73112109999056,-0.7999999999999972,1.383,-550,-500,-600,,,,,,,,,,,,,,,,,,,,,,,,,,,,,,,,,,,,,,,,,,,,,,,,,,,,,,,,,,,,,,,,,,,,,,,,,,,,,,,,,,,f,25,yinxin,2022_Apr_09_1057,experiment3,2021.1.4,59.97969087564203,
74,-150,-200,-150,one,-150,-200,-150,,,,,0,23,23,73,,,,,,,,,,,l,1.1306214999931399,293.1827978999936,None,293.1827978999936,None,294.3313780000026,None,294.3313780000026,None,294.3313780000026,None,296.3135348999931,296.82821489998605,296.3135348999931,296.82821489998605,296.3135348999931,296.82821489998605,294.3313780000026,None,296.84487699998715,None,296.84487699998715,None,296.84487699998715,None,0.00423590000718832,None,296.84487699998715,None,296.84487699998715,None,296.84487699998715,None,296.84487699998715,None,296.84487699998715,None,296.84487699998715,None,296.8787803000014,None,296.8787803000014,None,296.8787803000014,None,0.004881400003796443,0.5048814000037964,296.8787803000014,None,296.8787803000014,None,296.8787803000014,None,296.8787803000014,None,296.8787803000014,None,296.8787803000014,None,298.86311740000383,298.86311740000383,24.700000000000003,3.643,-700,-700,-750,,,,,,,,,,,,,,,,,,,,,,,,,,,,,,,,,,,,,,,,,,,,,,,,,,,,,,,,,,,,,,,,,,,,,,,,,,,,,,,,,,,f,25,yinxin,2022_Apr_09_1057,experiment3,2021.1.4,59.97969087564203,
68,0,-150,0,two,0,-150,0,,,,,0,24,24,67,,,,,,,,,,,l,4.76743560002069,302.55994810000993,None,302.55994810000993,None,307.3524519999919,None,307.3524519999919,None,307.3524519999919,None,309.3417408000096,309.844039699994,309.3417408000096,309.844039699994,309.3417408000096,309.844039699994,307.3524519999919,None,309.8607017999951,None,309.8607017999951,None,309.8607017999951,None,0.011474400002043694,None,309.8607017999951,None,309.8607017999951,None,309.8607017999951,None,309.8607017999951,None,309.8607017999951,None,309.8607017999951,None,309.8897888000065,None,309.8897888000065,None,309.8897888000065,None,0.010418499994557351,0.5104184999945574,309.8897888000065,None,309.8897888000065,None,309.8897888000065,None,309.8897888000065,None,309.8897888000065,None,309.8897888000065,None,311.8776435999898,311.8776435999898,26.0,1.617,-700,-850,-750,,,,,,,,,,,,,,,,,,,,,,,,,,,,,,,,,,,,,,,,,,,,,,,,,,,,,,,,,,,,,,,,,,,,,,,,,,,,,,,,,,,f,25,yinxin,2022_Apr_09_1057,experiment3,2021.1.4,59.97969087564203,
8,0,200,50,two,0,200,50,,,,,0,25,25,7,,,,,,,,,,,l,1.187588800006779,313.5579652999877,None,313.5579652999877,None,314.7656280999945,None,314.7656280999945,None,314.7656280999945,None,316.7429126999923,317.2428302000044,316.7429126999923,317.2428302000044,316.7429126999923,317.2428302000044,314.7656280999945,None,317.27604980000467,None,317.27604980000467,None,317.27604980000467,None,0.011461100017186254,None,317.27604980000467,None,317.27604980000467,None,317.27604980000467,None,317.27604980000467,None,317.27604980000467,None,317.27604980000467,None,317.2856879000028,None,317.2856879000028,None,317.2856879000028,None,0.004782100004376844,0.5047821000043768,317.2856879000028,None,317.2856879000028,None,317.2856879000028,None,317.2856879000028,None,317.2856879000028,None,317.2856879000028,None,319.2760297000059,319.2760297000059,-2.5,1.762,-700,-650,-700,,,,,,,,,,,,,,,,,,,,,,,,,,,,,,,,,,,,,,,,,,,,,,,,,,,,,,,,,,,,,,,,,,,,,,,,,,,,,,,,,,,f,25,yinxin,2022_Apr_09_1057,experiment3,2021.1.4,59.97969087564203,
23,0,200,0,two,0,200,0,,,,,0,26,26,22,,,,,,,,,,,l,1.3398938999744132,321.0917654999939,None,321.0917654999939,None,322.46793330000946,None,322.46793330000946,None,322.46793330000946,None,324.44429479999235,324.9559183999954,324.44429479999235,324.9559183999954,324.44429479999235,324.9559183999954,322.46793330000946,None,324.9725804999965,None,324.9725804999965,None,324.9725804999965,None,0.005192500015255064,None,324.9725804999965,None,324.9725804999965,None,324.9725804999965,None,324.9725804999965,None,324.9725804999965,None,324.9725804999965,None,325.0141872999957,None,325.0141872999957,None,325.0141872999957,None,0.012518599978648126,0.5125185999786481,325.0141872999957,None,325.0141872999957,None,325.0141872999957,None,325.0141872999957,None,325.0141872999957,None,325.0141872999957,None,326.9908523999911,326.9908523999911,0.7999999999999972,2.93,-700,-450,-700,,,,,,,,,,,,,,,,,,,,,,,,,,,,,,,,,,,,,,,,,,,,,,,,,,,,,,,,,,,,,,,,,,,,,,,,,,,,,,,,,,,f,25,yinxin,2022_Apr_09_1057,experiment3,2021.1.4,59.97969087564203,
19,0,0,50,two,0,0,50,,,,,0,27,27,18,,,,,,,,,,,g,2.9907137000118382,329.9927172999887,None,329.9927172999887,None,333.0142029999988,None,333.0142029999988,None,333.0142029999988,None,334.98925449998933,335.48920109999017,334.98925449998933,335.48920109999017,334.98925449998933,335.48920109999017,333.0142029999988,None,335.52287320000175,None,335.52287320000175,None,335.52287320000175,None,0.005845600040629506,None,335.52287320000175,None,335.52287320000175,None,335.52287320000175,None,335.52287320000175,None,335.52287320000175,None,335.52287320000175,None,335.5467370999977,None,335.5467370999977,None,335.5467370999977,None,0.0079089000064414,0.5079089000064414,335.5467370999977,None,335.5467370999977,None,335.5467370999977,None,335.5467370999977,None,335.5467370999977,None,335.5467370999977,None,337.53872399998363,337.53872399998363,2.3999999999999986,3.992,-700,-450,-650,,,,,,,,,,,,,,,,,,,,,,,,,,,,,,,,,,,,,,,,,,,,,,,,,,,,,,,,,,,,,,,,,,,,,,,,,,,,,,,,,,,f,25,yinxin,2022_Apr_09_1057,experiment3,2021.1.4,59.97969087564203,
15,50,0,0,one,50,0,0,,,,,0,28,28,14,,,,,,,,,,,g,2.1870955000049435,341.58579330000794,None,341.58579330000794,None,343.8083217999956,None,343.8083217999956,None,343.8083217999956,None,345.78734109998913,346.2870541999873,345.78734109998913,346.2870541999873,345.78734109998913,346.2870541999873,343.8083217999956,None,346.320469699995,None,346.320469699995,None,346.320469699995,None,0.011865400010719895,None,346.320469699995,None,346.320469699995,None,346.320469699995,None,346.320469699995,None,346.320469699995,None,346.320469699995,None,346.3309842000017,None,346.3309842000017,None,346.3309842000017,None,0.0051371000008657575,0.5051371000008658,346.3309842000017,None,346.3309842000017,None,346.3309842000017,None,346.3309842000017,None,346.3309842000017,None,346.3309842000017,None,348.32010069998796,348.32010069998796,24.299999999999997,1.378,-650,-450,-650,,,,,,,,,,,,,,,,,,,,,,,,,,,,,,,,,,,,,,,,,,,,,,,,,,,,,,,,,,,,,,,,,,,,,,,,,,,,,,,,,,,f,25,yinxin,2022_Apr_09_1057,experiment3,2021.1.4,59.97969087564203,
83,-150,0,-150,two,-150,0,-150,,,,,0,29,29,82,,,,,,,,,,,g,2.182568000018364,349.7584986999864,None,349.7584986999864,None,351.95911049999995,None,351.95911049999995,None,351.95911049999995,None,353.9375388000044,354.4520189999894,353.9375388000044,354.4520189999894,353.9375388000044,354.4520189999894,351.95911049999995,None,354.4686810999905,None,354.4686810999905,None,354.4686810999905,None,0.011546599998837337,None,354.4686810999905,None,354.4686810999905,None,354.4686810999905,None,354.4686810999905,None,354.4686810999905,None,354.4686810999905,None,354.47820419998607,None,354.47820419998607,None,354.47820419998607,None,0.004343300010077655,0.5043433000100777,354.47820419998607,None,354.47820419998607,None,354.47820419998607,None,354.47820419998607,None,354.47820419998607,None,354.47820419998607,None,356.46839540000656,356.46839540000656,-25.0,1.914,-800,-450,-800,,,,,,,,,,,,,,,,,,,,,,,,,,,,,,,,,,,,,,,,,,,,,,,,,,,,,,,,,,,,,,,,,,,,,,,,,,,,,,,,,,,f,25,yinxin,2022_Apr_09_1057,experiment3,2021.1.4,59.97969087564203,
91,-200,-200,0,two,-200,-200,0,,,,,0,30,30,90,,,,,,,,,,,g,5.1968778000155,358.4346682000032,None,358.4346682000032,None,363.65359199998784,None,363.65359199998784,None,363.65359199998784,None,365.636490600009,366.14981969998917,365.636490600009,366.14981969998917,365.636490600009,366.14981969998917,363.65359199998784,None,366.16648179999027,None,366.16648179999027,None,366.16648179999027,None,0.011832499993033707,None,366.16648179999027,None,366.16648179999027,None,366.16648179999027,None,366.16648179999027,None,366.16648179999027,None,366.16648179999027,None,366.1755204999936,None,366.1755204999936,None,366.1755204999936,None,0.004516499990131706,0.5045164999901317,366.1755204999936,None,366.1755204999936,None,366.1755204999936,None,366.1755204999936,None,366.1755204999936,None,366.1755204999936,None,368.16598829999566,368.16598829999566,-50.0,2.064,-1000,-650,-800,,,,,,,,,,,,,,,,,,,,,,,,,,,,,,,,,,,,,,,,,,,,,,,,,,,,,,,,,,,,,,,,,,,,,,,,,,,,,,,,,,,f,25,yinxin,2022_Apr_09_1057,experiment3,2021.1.4,59.97969087564203,
86,-200,0,-200,one,-200,0,-200,,,,,0,31,31,85,,,,,,,,,,,l,3.930217699991772,370.2957291000057,None,370.2957291000057,None,374.25378870000714,None,374.25378870000714,None,374.25378870000714,None,376.2343234999862,376.7479040999897,376.2343234999862,376.7479040999897,376.2343234999862,376.7479040999897,374.25378870000714,None,376.7645661999908,None,376.7645661999908,None,376.7645661999908,None,0.011514800018630922,None,376.7645661999908,None,376.7645661999908,None,376.7645661999908,None,376.7645661999908,None,376.7645661999908,None,376.7645661999908,None,376.774225000001,None,376.774225000001,None,376.774225000001,None,0.004528000019490719,0.5045280000194907,376.774225000001,None,376.774225000001,None,376.774225000001,None,376.774225000001,None,376.774225000001,None,376.774225000001,None,378.7650092999975,378.7650092999975,-25.2,1.7,-1200,-650,-1000,,,,,,,,,,,,,,,,,,,,,,,,,,,,,,,,,,,,,,,,,,,,,,,,,,,,,,,,,,,,,,,,,,,,,,,,,,,,,,,,,,,f,25,yinxin,2022_Apr_09_1057,experiment3,2021.1.4,59.97969087564203,
25,200,50,50,one,200,50,50,,,,,0,32,32,24,,,,,,,,,,,l,1.2537372000224423,380.52810560000944,None,380.52810560000944,None,381.8061323000002,None,381.8061323000002,None,381.8061323000002,None,383.7799146999896,384.279603700008,383.7799146999896,384.279603700008,383.7799146999896,384.279603700008,381.8061323000002,None,384.3130874000111,None,384.3130874000111,None,384.3130874000111,None,0.011701600014930591,None,384.3130874000111,None,384.3130874000111,None,384.3130874000111,None,384.3130874000111,None,384.3130874000111,None,384.3130874000111,None,384.3225967999897,None,384.3225967999897,None,384.3225967999897,None,0.005378100031521171,0.5053781000315212,384.3225967999897,None,384.3225967999897,None,384.3225967999897,None,384.3225967999897,None,384.3225967999897,None,384.3225967999897,None,386.3126615000074,386.3126615000074,49.900000000000006,1.598,-1000,-600,-950,,,,,,,,,,,,,,,,,,,,,,,,,,,,,,,,,,,,,,,,,,,,,,,,,,,,,,,,,,,,,,,,,,,,,,,,,,,,,,,,,,,f,25,yinxin,2022_Apr_09_1057,experiment3,2021.1.4,59.97969087564203,
89,-200,-150,-200,one,-200,-150,-200,,,,,0,33,33,88,,,,,,,,,,,l,2.1516545000195038,387.9685907000094,None,387.9685907000094,None,390.1485401999962,None,390.1485401999962,None,390.1485401999962,None,392.1308563000057,392.6456366000057,392.1308563000057,392.6456366000057,392.1308563000057,392.6456366000057,390.1485401999962,None,392.6622987000068,None,392.6622987000068,None,392.6622987000068,None,0.010687600006349385,None,392.6622987000068,None,392.6622987000068,None,392.6622987000068,None,392.6622987000068,None,392.6622987000068,None,392.6622987000068,None,392.6740587000095,None,392.6740587000095,None,392.6740587000095,None,0.0010347000206820667,0.5010347000206821,392.6740587000095,None,392.6740587000095,None,392.6740587000095,None,392.6740587000095,None,392.6740587000095,None,392.6740587000095,None,394.6660506000044,394.6660506000044,-1.0,2.881,-1200,-750,-1150,,,,,,,,,,,,,,,,,,,,,,,,,,,,,,,,,,,,,,,,,,,,,,,,,,,,,,,,,,,,,,,,,,,,,,,,,,,,,,,,,,,f,25,yinxin,2022_Apr_09_1057,experiment3,2021.1.4,59.97969087564203,
65,0,-200,0,one,0,-200,0,,,,,0,34,34,64,,,,,,,,,,,g,3.2167012999998406,397.6092238999845,None,397.6092238999845,None,400.8488037000061,None,400.8488037000061,None,400.8488037000061,None,402.8262182000035,403.32599969999865,402.8262182000035,403.32599969999865,402.8262182000035,403.32599969999865,400.8488037000061,None,403.35936570000774,None,403.35936570000774,None,403.35936570000774,None,0.010458200034918264,None,403.35936570000774,None,403.35936570000774,None,403.35936570000774,None,403.35936570000774,None,403.35936570000774,None,403.35936570000774,None,403.37252639999497,None,403.37252639999497,None,403.37252639999497,None,6.050002411939204e-05,0.5000605000241194,403.37252639999497,None,403.37252639999497,None,403.37252639999497,None,403.37252639999497,None,403.37252639999497,None,403.37252639999497,None,405.3588293000066,405.3588293000066,48.7,2.661,-1200,-950,-1150,,,,,,,,,,,,,,,,,,,,,,,,,,,,,,,,,,,,,,,,,,,,,,,,,,,,,,,,,,,,,,,,,,,,,,,,,,,,,,,,,,,f,25,yinxin,2022_Apr_09_1057,experiment3,2021.1.4,59.97969087564203,
69,-150,0,0,two,-150,0,0,,,,,0,35,35,68,,,,,,,,,,,l,1.6638586999906693,408.07666200000676,None,408.07666200000676,None,409.76540679999744,None,409.76540679999744,None,409.76540679999744,None,411.7451100999897,412.25724730000366,411.7451100999897,412.25724730000366,411.7451100999897,412.25724730000366,409.76540679999744,None,412.27390940000475,None,412.27390940000475,None,412.27390940000475,None,0.011889000015798956,None,412.27390940000475,None,412.27390940000475,None,412.27390940000475,None,412.27390940000475,None,412.27390940000475,None,412.27390940000475,None,412.2841174000059,None,412.2841174000059,None,412.2841174000059,None,0.005430799996247515,0.5054307999962475,412.2841174000059,None,412.2841174000059,None,412.2841174000059,None,412.2841174000059,None,412.2841174000059,None,412.2841174000059,None,414.2739743999846,414.2739743999846,-1.2000000000000028,2.194,-1350,-950,-1150,,,,,,,,,,,,,,,,,,,,,,,,,,,,,,,,,,,,,,,,,,,,,,,,,,,,,,,,,,,,,,,,,,,,,,,,,,,,,,,,,,,f,25,yinxin,2022_Apr_09_1057,experiment3,2021.1.4,59.97969087564203,
48,50,200,200,two,50,200,200,,,,,0,36,36,47,,,,,,,,,,,g,1.239060399995651,416.52631339998334,None,416.52631339998334,None,417.79997649998404,None,417.79997649998404,None,417.79997649998404,None,419.7726546000049,420.2727278000093,419.7726546000049,420.2727278000093,419.7726546000049,420.2727278000093,417.79997649998404,None,420.3059680999926,None,420.3059680999926,None,420.3059680999926,None,0.011526600021170452,None,420.3059680999926,None,420.3059680999926,None,420.3059680999926,None,420.3059680999926,None,420.3059680999926,None,420.3059680999926,None,420.3157082000107,None,420.3157082000107,None,420.3157082000107,None,0.0042187000217381865,0.5042187000217382,420.3157082000107,None,420.3157082000107,None,420.3157082000107,None,420.3157082000107,None,420.3157082000107,None,420.3157082000107,None,422.30574169999454,422.30574169999454,-23.8,2.108,-1300,-750,-950,,,,,,,,,,,,,,,,,,,,,,,,,,,,,,,,,,,,,,,,,,,,,,,,,,,,,,,,,,,,,,,,,,,,,,,,,,,,,,,,,,,f,25,yinxin,2022_Apr_09_1057,experiment3,2021.1.4,59.97969087564203,
28,0,50,50,one,0,50,50,,,,,0,37,37,27,,,,,,,,,,,g,2.822355999989668,424.468796000001,None,424.468796000001,None,427.33088449999923,None,427.33088449999923,None,427.33088449999923,None,429.3042087999929,429.8042865000025,429.3042087999929,429.8042865000025,429.3042087999929,429.8042865000025,427.33088449999923,None,429.83757239998374,None,429.83757239998374,None,429.83757239998374,None,0.011813399993116036,None,429.83757239998374,None,429.83757239998374,None,429.83757239998374,None,429.83757239998374,None,429.83757239998374,None,429.83757239998374,None,429.8475502000074,None,429.8475502000074,None,429.8475502000074,None,0.005099300004076213,0.5050993000040762,429.8475502000074,None,429.8475502000074,None,429.8475502000074,None,429.8475502000074,None,429.8475502000074,None,429.8475502000074,None,431.83707760000834,431.83707760000834,-24.2,1.818,-1300,-700,-900,,,,,,,,,,,,,,,,,,,,,,,,,,,,,,,,,,,,,,,,,,,,,,,,,,,,,,,,,,,,,,,,,,,,,,,,,,,,,,,,,,,f,25,yinxin,2022_Apr_09_1057,experiment3,2021.1.4,59.97969087564203,
77,-150,0,-150,one,-150,0,-150,,,,,0,38,38,76,,,,,,,,,,,l,1.3266359000117518,433.71056559999124,None,433.71056559999124,None,435.0559607000032,None,435.0559607000032,None,435.0559607000032,None,437.0386509000091,None,437.0386509000091,None,437.0386509000091,None,435.0559607000032,None,437.5559708999848,None,437.5559708999848,None,437.5559708999848,None,0.008274499967228621,None,437.5559708999848,None,437.5559708999848,None,437.5559708999848,None,437.5559708999848,None,437.5559708999848,None,437.5559708999848,None,437.56905109999934,None,437.56905109999934,None,437.56905109999934,None,0.0002418000076431781,0.5002418000076432,437.56905109999934,None,437.56905109999934,None,437.56905109999934,None,437.56905109999934,None,437.56905109999934,None,437.56905109999934,None,439.5689713999949,None,-30.7,2.305,-1450,-700,-1050,,,,,,,,,,,,,,,,,,,,,,,,,,,,,,,,,,,,,,,,,,,,,,,,,,,,,,,,,,,,,,,,,,,,,,,,,,,,,,,,,,,f,25,yinxin,2022_Apr_09_1057,experiment3,2021.1.4,59.97969087564203,
44,200,0,200,two,200,0,200,,,,,0,39,39,43,,,,,,,,,,,g,1.3417281000001822,441.9165390999988,None,441.9165390999988,None,443.29372019998846,None,443.29372019998846,None,443.29372019998846,None,445.27122659998713,445.7843319000094,445.27122659998713,445.7843319000094,445.27122659998713,445.7843319000094,443.29372019998846,None,445.8009940000105,None,445.8009940000105,None,445.8009940000105,None,0.011939800024265423,None,445.8009940000105,None,445.8009940000105,None,445.8009940000105,None,445.8009940000105,None,445.8009940000105,None,445.8009940000105,None,445.8104411000095,None,445.8104411000095,None,445.8104411000095,None,0.005567000014707446,0.5055670000147074,445.8104411000095,None,445.8104411000095,None,445.8104411000095,None,445.8104411000095,None,445.8104411000095,None,445.8104411000095,None,447.8006089999981,447.8006089999981,50.0,2.989,-1250,-700,-850,,,,,,,,,,,,,,,,,,,,,,,,,,,,,,,,,,,,,,,,,,,,,,,,,,,,,,,,,,,,,,,,,,,,,,,,,,,,,,,,,,,f,25,yinxin,2022_Apr_09_1057,experiment3,2021.1.4,59.97969087564203,
13,0,0,50,one,0,0,50,,,,,0,40,40,12,,,,,,,,,,,a,4.358036200021161,450.8688089000061,None,450.8688089000061,None,455.25400859999354,None,455.25400859999354,None,455.25400859999354,None,457.2320555000042,457.7320803999901,457.2320555000042,457.7320803999901,457.2320555000042,457.7320803999901,455.25400859999354,None,457.7653487999836,None,457.7653487999836,None,457.7653487999836,None,0.011849999980768189,None,457.7653487999836,None,457.7653487999836,None,457.7653487999836,None,457.7653487999836,None,457.7653487999836,None,457.7653487999836,None,457.7753465999849,None,457.7753465999849,None,457.7753465999849,None,0.0049455999978818,0.5049455999978818,457.7753465999849,None,457.7753465999849,None,457.7753465999849,None,457.7753465999849,None,457.7753465999849,None,457.7753465999849,None,459.7649873000046,459.7649873000046,-30.8,2.631,-1250,-700,-800,,,,,,,,,,,,,,,,,,,,,,,,,,,,,,,,,,,,,,,,,,,,,,,,,,,,,,,,,,,,,,,,,,,,,,,,,,,,,,,,,,,f,25,yinxin,2022_Apr_09_1057,experiment3,2021.1.4,59.97969087564203,
9,50,0,200,two,50,0,200,,,,,0,41,41,8,,,,,,,,,,,l,2.5665582999936305,462.45015940000303,None,462.45015940000303,None,465.0353663999995,None,465.0353663999995,None,465.0353663999995,None,467.0156838000112,467.5302534000075,467.0156838000112,467.5302534000075,467.0156838000112,467.5302534000075,465.0353663999995,None,467.5469155000086,None,467.5469155000086,None,467.5469155000086,None,0.011813300021458417,None,467.5469155000086,None,467.5469155000086,None,467.5469155000086,None,467.5469155000086,None,467.5469155000086,None,467.5469155000086,None,467.5555696999945,None,467.5555696999945,None,467.5555696999945,None,0.0051266000082250684,0.5051266000082251,467.5555696999945,None,467.5555696999945,None,467.5555696999945,None,467.5555696999945,None,467.5555696999945,None,467.5555696999945,None,469.5464188999904,469.5464188999904,-24.7,3.604,-1200,-700,-600,,,,,,,,,,,,,,,,,,,,,,,,,,,,,,,,,,,,,,,,,,,,,,,,,,,,,,,,,,,,,,,,,,,,,,,,,,,,,,,,,,,f,25,yinxin,2022_Apr_09_1057,experiment3,2021.1.4,59.97969087564203,
18,200,0,0,one,200,0,0,,,,,0,42,42,17,,,,,,,,,,,l,2.5357132999924943,473.2099739999976,None,473.2099739999976,None,475.77099779999116,None,475.77099779999116,None,475.77099779999116,None,477.7465128999902,478.26139749999857,477.7465128999902,478.26139749999857,477.7465128999902,478.26139749999857,475.77099779999116,None,478.27805959999966,None,478.27805959999966,None,478.27805959999966,None,0.011674600013066083,None,478.27805959999966,None,478.27805959999966,None,478.27805959999966,None,478.27805959999966,None,478.27805959999966,None,478.27805959999966,None,478.2873582000029,None,478.2873582000029,None,478.2873582000029,None,0.005070200015325099,0.5050702000153251,478.2873582000029,None,478.2873582000029,None,478.2873582000029,None,478.2873582000029,None,478.2873582000029,None,478.2873582000029,None,480.2776590999856,480.2776590999856,49.5,1.76,-1000,-700,-600,,,,,,,,,,,,,,,,,,,,,,,,,,,,,,,,,,,,,,,,,,,,,,,,,,,,,,,,,,,,,,,,,,,,,,,,,,,,,,,,,,,f,25,yinxin,2022_Apr_09_1057,experiment3,2021.1.4,59.97969087564203,
49,0,-150,-200,one,0,-150,-200,,,,,0,43,43,48,,,,,,,,,,,l,2.9806974999955855,482.09173720001127,None,482.09173720001127,None,485.1009151999897,None,485.1009151999897,None,485.1009151999897,None,487.07645920000505,487.5765357000055,487.07645920000505,487.5765357000055,487.07645920000505,487.5765357000055,485.1009151999897,None,487.6104270999989,None,487.6104270999989,None,487.6104270999989,None,0.009463399997912347,None,487.6104270999989,None,487.6104270999989,None,487.6104270999989,None,487.6104270999989,None,487.6104270999989,None,487.6104270999989,None,487.62410260000615,None,487.62410260000615,None,487.62410260000615,None,0.01647420000517741,0.5164742000051774,487.62410260000615,None,487.62410260000615,None,487.62410260000615,None,487.62410260000615,None,487.62410260000615,None,487.62410260000615,None,489.59884260001127,489.59884260001127,47.900000000000006,2.046,-1000,-850,-800,,,,,,,,,,,,,,,,,,,,,,,,,,,,,,,,,,,,,,,,,,,,,,,,,,,,,,,,,,,,,,,,,,,,,,,,,,,,,,,,,,,f,25,yinxin,2022_Apr_09_1057,experiment3,2021.1.4,59.97969087564203,
87,0,-200,-200,one,0,-200,-200,,,,,0,44,44,86,,,,,,,,,,,g,2.8526682000083383,491.7276748000004,None,491.7276748000004,None,494.61566449998645,None,494.61566449998645,None,494.61566449998645,None,496.59124000000884,497.09096259999205,496.59124000000884,497.09096259999205,496.59124000000884,497.09096259999205,494.61566449998645,None,497.1243670000025,None,497.1243670000025,None,497.1243670000025,None,0.00516050003352575,None,497.1243670000025,None,497.1243670000025,None,497.1243670000025,None,497.1243670000025,None,497.1243670000025,None,497.1243670000025,None,497.157466500008,None,497.157466500008,None,497.157466500008,None,0.000538399996003136,0.5005383999960031,497.157466500008,None,497.157466500008,None,497.157466500008,None,497.157466500008,None,497.157466500008,None,497.157466500008,None,499.1407942000078,499.1407942000078,25.099999999999994,2.063,-1000,-1050,-1000,,,,,,,,,,,,,,,,,,,,,,,,,,,,,,,,,,,,,,,,,,,,,,,,,,,,,,,,,,,,,,,,,,,,,,,,,,,,,,,,,,,f,25,yinxin,2022_Apr_09_1057,experiment3,2021.1.4,59.97969087564203,
34,0,50,50,two,0,50,50,,,,,0,45,45,33,,,,,,,,,,,l,4.679886800004169,501.25770270000794,None,501.25770270000794,None,505.96160799998324,None,505.96160799998324,None,505.96160799998324,None,507.9412245999847,508.45533150000847,507.9412245999847,508.45533150000847,507.9412245999847,508.45533150000847,505.96160799998324,None,508.47199360000957,None,508.47199360000957,None,508.47199360000957,None,0.011682300013490021,None,508.47199360000957,None,508.47199360000957,None,508.47199360000957,None,508.47199360000957,None,508.47199360000957,None,508.47199360000957,None,508.481850799988,None,508.481850799988,None,508.481850799988,None,0.004512200015597045,0.504512200015597,508.481850799988,None,508.481850799988,None,508.481850799988,None,508.481850799988,None,508.481850799988,None,508.481850799988,None,510.47168670000974,510.47168670000974,0.29999999999999716,2.676,-1000,-1000,-950,,,,,,,,,,,,,,,,,,,,,,,,,,,,,,,,,,,,,,,,,,,,,,,,,,,,,,,,,,,,,,,,,,,,,,,,,,,,,,,,,,,f,25,yinxin,2022_Apr_09_1057,experiment3,2021.1.4,59.97969087564203,
76,0,-150,-150,one,0,-150,-150,,,,,0,46,46,75,,,,,,,,,,,l,8.436697600001935,513.2023642999993,None,513.2023642999993,None,521.6773159999866,None,521.6773159999866,None,521.6773159999866,None,523.6526566999964,524.1523843999894,523.6526566999964,524.1523843999894,523.6526566999964,524.1523843999894,521.6773159999866,None,524.1857781000057,None,524.1857781000057,None,524.1857781000057,None,0.011717000015778467,None,524.1857781000057,None,524.1857781000057,None,524.1857781000057,None,524.1857781000057,None,524.1857781000057,None,524.1857781000057,None,524.195696299983,None,524.195696299983,None,524.195696299983,None,0.00502560002496466,0.5050256000249647,524.195696299983,None,524.195696299983,None,524.195696299983,None,524.195696299983,None,524.195696299983,None,524.195696299983,None,526.1859654999862,526.1859654999862,25.099999999999994,1.825,-1000,-1150,-1100,,,,,,,,,,,,,,,,,,,,,,,,,,,,,,,,,,,,,,,,,,,,,,,,,,,,,,,,,,,,,,,,,,,,,,,,,,,,,,,,,,,f,25,yinxin,2022_Apr_09_1057,experiment3,2021.1.4,59.97969087564203,
45,0,200,200,two,0,200,200,,,,,0,47,47,44,,,,,,,,,,,g,2.224018299981253,528.0661091000075,None,528.0661091000075,None,530.3238571999827,None,530.3238571999827,None,530.3238571999827,None,532.3074378999881,532.8171051999961,532.3074378999881,532.8171051999961,532.3074378999881,532.8171051999961,530.3238571999827,None,532.8337672999972,None,532.8337672999972,None,532.8337672999972,None,0.011482300003990531,None,532.8337672999972,None,532.8337672999972,None,532.8337672999972,None,532.8337672999972,None,532.8337672999972,None,532.8337672999972,None,532.843598699983,None,532.843598699983,None,532.843598699983,None,0.003975500003434718,0.5039755000034347,532.843598699983,None,532.843598699983,None,532.843598699983,None,532.843598699983,None,532.843598699983,None,532.843598699983,None,534.8337010999967,534.8337010999967,-24.7,1.412,-1000,-950,-900,,,,,,,,,,,,,,,,,,,,,,,,,,,,,,,,,,,,,,,,,,,,,,,,,,,,,,,,,,,,,,,,,,,,,,,,,,,,,,,,,,,f,25,yinxin,2022_Apr_09_1057,experiment3,2021.1.4,59.97969087564203,
72,-200,0,0,two,-200,0,0,,,,,0,48,48,71,,,,,,,,,,,l,1.4634212999953888,536.3143626000092,None,536.3143626000092,None,537.8039851000067,None,537.8039851000067,None,537.8039851000067,None,539.7827277999895,540.2826208999904,539.7827277999895,540.2826208999904,539.7827277999895,540.2826208999904,537.8039851000067,None,540.3158319000125,None,540.3158319000125,None,540.3158319000125,None,0.011711200029822066,None,540.3158319000125,None,540.3158319000125,None,540.3158319000125,None,540.3158319000125,None,540.3158319000125,None,540.3158319000125,None,540.3253185999929,None,540.3253185999929,None,540.3253185999929,None,0.004390200017951429,0.5043902000179514,540.3253185999929,None,540.3253185999929,None,540.3253185999929,None,540.3253185999929,None,540.3253185999929,None,540.3253185999929,None,542.315666200011,542.315666200011,-24.9,1.867,-1200,-950,-900,,,,,,,,,,,,,,,,,,,,,,,,,,,,,,,,,,,,,,,,,,,,,,,,,,,,,,,,,,,,,,,,,,,,,,,,,,,,,,,,,,,f,25,yinxin,2022_Apr_09_1057,experiment3,2021.1.4,59.97969087564203,
75,-150,-150,-200,one,-150,-150,-200,,,,,0,49,49,74,,,,,,,,,,,l,1.4920054000103846,544.246135399997,None,544.246135399997,None,545.7716094999923,None,545.7716094999923,None,545.7716094999923,None,547.7478712000011,548.2476294999942,547.7478712000011,548.2476294999942,547.7478712000011,548.2476294999942,545.7716094999923,None,548.2810023999976,None,548.2810023999976,None,548.2810023999976,None,0.011665800004266202,None,548.2810023999976,None,548.2810023999976,None,548.2810023999976,None,548.2810023999976,None,548.2810023999976,None,548.2810023999976,None,548.2900417000055,None,548.2900417000055,None,548.2900417000055,None,0.0050623000133782625,0.5050623000133783,548.2900417000055,None,548.2900417000055,None,548.2900417000055,None,548.2900417000055,None,548.2900417000055,None,548.2900417000055,None,550.2806110999954,550.2806110999954,15.599999999999994,1.457,-1350,-1100,-1100,,,,,,,,,,,,,,,,,,,,,,,,,,,,,,,,,,,,,,,,,,,,,,,,,,,,,,,,,,,,,,,,,,,,,,,,,,,,,,,,,,,f,25,yinxin,2022_Apr_09_1057,experiment3,2021.1.4,59.97969087564203,
35,50,0,50,two,50,0,50,,,,,0,50,50,34,,,,,,,,,,,l,4.38386519998312,551.794814199995,None,551.794814199995,None,556.2038835999847,None,556.2038835999847,None,556.2038835999847,None,558.1810077999835,558.6958104000078,558.1810077999835,558.6958104000078,558.1810077999835,558.6958104000078,556.2038835999847,None,558.7124725000089,None,558.7124725000089,None,558.7124725000089,None,0.011417800036724657,None,558.7124725000089,None,558.7124725000089,None,558.7124725000089,None,558.7124725000089,None,558.7124725000089,None,558.7124725000089,None,558.7214489000035,None,558.7214489000035,None,558.7214489000035,None,0.004242200026055798,0.5042422000260558,558.7214489000035,None,558.7214489000035,None,558.7214489000035,None,558.7214489000035,None,558.7214489000035,None,558.7214489000035,None,560.7119270999974,560.7119270999974,24.700000000000003,1.589,-1300,-1100,-1050,,,,,,,,,,,,,,,,,,,,,,,,,,,,,,,,,,,,,,,,,,,,,,,,,,,,,,,,,,,,,,,,,,,,,,,,,,,,,,,,,,,f,25,yinxin,2022_Apr_09_1057,experiment3,2021.1.4,59.97969087564203,
4,50,200,0,one,50,200,0,,,,,0,51,51,3,,,,,,,,,,,l,2.3047708999947645,562.3690223000012,None,562.3690223000012,None,564.6989313999948,None,564.6989313999948,None,564.6989313999948,None,566.6798475999967,567.193926500011,566.6798475999967,567.193926500011,566.6798475999967,567.193926500011,564.6989313999948,None,567.2105886000121,None,567.2105886000121,None,567.2105886000121,None,0.011370400025043637,None,567.2105886000121,None,567.2105886000121,None,567.2105886000121,None,567.2105886000121,None,567.2105886000121,None,567.2105886000121,None,567.2196661999915,None,567.2196661999915,None,567.2196661999915,None,0.00511310002184473,0.5051131000218447,567.2196661999915,None,567.2196661999915,None,567.2196661999915,None,567.2196661999915,None,567.2196661999915,None,567.2196661999915,None,569.2102826999908,569.2102826999908,2.200000000000003,1.429,-1250,-900,-1050,,,,,,,,,,,,,,,,,,,,,,,,,,,,,,,,,,,,,,,,,,,,,,,,,,,,,,,,,,,,,,,,,,,,,,,,,,,,,,,,,,,f,25,yinxin,2022_Apr_09_1057,experiment3,2021.1.4,59.97969087564203,
84,-150,-150,0,two,-150,-150,0,,,,,0,52,52,83,,,,,,,,,,,l,2.4993833000189625,570.6949160000077,None,570.6949160000077,None,573.2147979000001,None,573.2147979000001,None,573.2147979000001,None,575.1926002999826,575.6923372999881,575.1926002999826,575.6923372999881,575.1926002999826,575.6923372999881,573.2147979000001,None,575.7257672999898,None,575.7257672999898,None,575.7257672999898,None,0.010886200005188584,None,575.7257672999898,None,575.7257672999898,None,575.7257672999898,None,575.7257672999898,None,575.7257672999898,None,575.7257672999898,None,575.7342235000106,None,575.7342235000106,None,575.7342235000106,None,0.004050799994729459,0.5040507999947295,575.7342235000106,None,575.7342235000106,None,575.7342235000106,None,575.7342235000106,None,575.7342235000106,None,575.7342235000106,None,577.7253242000006,577.7253242000006,-49.9,2.35,-1400,-1050,-1050,,,,,,,,,,,,,,,,,,,,,,,,,,,,,,,,,,,,,,,,,,,,,,,,,,,,,,,,,,,,,,,,,,,,,,,,,,,,,,,,,,,f,25,yinxin,2022_Apr_09_1057,experiment3,2021.1.4,59.97969087564203,
5,200,50,0,one,200,50,0,,,,,0,53,53,4,,,,,,,,,,,g,1.737477399990894,580.1393492000061,None,580.1393492000061,None,581.8970957999991,None,581.8970957999991,None,581.8970957999991,None,583.8761092000059,584.3906610999838,583.8761092000059,584.3906610999838,583.8761092000059,584.3906610999838,581.8970957999991,None,584.407323199985,None,584.407323199985,None,584.407323199985,None,0.011761600006138906,None,584.407323199985,None,584.407323199985,None,584.407323199985,None,584.407323199985,None,584.407323199985,None,584.407323199985,None,584.4171750000096,None,584.4171750000096,None,584.4171750000096,None,0.004581399989547208,0.5045813999895472,584.4171750000096,None,584.4171750000096,None,584.4171750000096,None,584.4171750000096,None,584.4171750000096,None,584.4171750000096,None,586.4069535000017,586.4069535000017,49.400000000000006,1.582,-1200,-1000,-1050,,,,,,,,,,,,,,,,,,,,,,,,,,,,,,,,,,,,,,,,,,,,,,,,,,,,,,,,,,,,,,,,,,,,,,,,,,,,,,,,,,,f,25,yinxin,2022_Apr_09_1057,experiment3,2021.1.4,59.97969087564203,
88,-200,-200,-150,one,-200,-200,-150,,,,,0,54,54,87,,,,,,,,,,,a,2.007125200005248,588.0544178999844,None,588.0544178999844,None,590.1007367999991,None,590.1007367999991,None,590.1007367999991,None,592.072306099988,592.5724418000027,592.072306099988,592.5724418000027,592.072306099988,592.5724418000027,590.1007367999991,None,592.6057195000088,None,592.6057195000088,None,592.6057195000088,None,0.01145570000517182,None,592.6057195000088,None,592.6057195000088,None,592.6057195000088,None,592.6057195000088,None,592.6057195000088,None,592.6057195000088,None,592.614524900011,None,592.614524900011,None,592.614524900011,None,0.003982500027632341,0.5039825000276323,592.614524900011,None,592.614524900011,None,592.614524900011,None,592.614524900011,None,592.614524900011,None,592.614524900011,None,594.6052935000043,594.6052935000043,-21.5,2.908,-1400,-1200,-1200,,,,,,,,,,,,,,,,,,,,,,,,,,,,,,,,,,,,,,,,,,,,,,,,,,,,,,,,,,,,,,,,,,,,,,,,,,,,,,,,,,,f,25,yinxin,2022_Apr_09_1057,experiment3,2021.1.4,59.97969087564203,
46,200,200,50,two,200,200,50,,,,,0,55,55,45,,,,,,,,,,,l,2.0645450000010896,597.5773303000024,None,597.5773303000024,None,599.6800891000021,None,599.6800891000021,None,599.6800891000021,None,601.6618535000016,602.1704922000063,601.6618535000016,602.1704922000063,601.6618535000016,602.1704922000063,599.6800891000021,None,602.1871543000074,None,602.1871543000074,None,602.1871543000074,None,0.011691200023051351,None,602.1871543000074,None,602.1871543000074,None,602.1871543000074,None,602.1871543000074,None,602.1871543000074,None,602.1871543000074,None,602.1970255000051,None,602.1970255000051,None,602.1970255000051,None,0.004363500018371269,0.5043635000183713,602.1970255000051,None,602.1970255000051,None,602.1970255000051,None,602.1970255000051,None,602.1970255000051,None,602.1970255000051,None,604.1865795000049,604.1865795000049,50.0,2.546,-1200,-1000,-1150,,,,,,,,,,,,,,,,,,,,,,,,,,,,,,,,,,,,,,,,,,,,,,,,,,,,,,,,,,,,,,,,,,,,,,,,,,,,,,,,,,,f,25,yinxin,2022_Apr_09_1057,experiment3,2021.1.4,59.97969087564203,
29,50,0,50,one,50,0,50,,,,,0,56,56,28,,,,,,,,,,,l,1.1727333999879193,606.7869238999847,None,606.7869238999847,None,607.9928264000046,None,607.9928264000046,None,607.9928264000046,None,609.9689705999917,610.4689420000068,609.9689705999917,610.4689420000068,609.9689705999917,610.4689420000068,607.9928264000046,None,610.5022743999929,None,610.5022743999929,None,610.5022743999929,None,0.01108980001299642,None,610.5022743999929,None,610.5022743999929,None,610.5022743999929,None,610.5022743999929,None,610.5022743999929,None,610.5022743999929,None,610.5136312000104,None,610.5136312000104,None,610.5136312000104,None,0.00147570000262931,0.5014757000026293,610.5136312000104,None,610.5136312000104,None,610.5136312000104,None,610.5136312000104,None,610.5136312000104,None,610.5136312000104,None,612.5019283999864,612.5019283999864,26.900000000000006,2.254,-1150,-1000,-1100,,,,,,,,,,,,,,,,,,,,,,,,,,,,,,,,,,,,,,,,,,,,,,,,,,,,,,,,,,,,,,,,,,,,,,,,,,,,,,,,,,,f,25,yinxin,2022_Apr_09_1057,experiment3,2021.1.4,59.97969087564203,
78,-150,-150,0,one,-150,-150,0,,,,,0,57,57,77,,,,,,,,,,,g,5.802795800002059,614.8155452999927,None,614.8155452999927,None,620.6396652999974,None,620.6396652999974,None,620.6396652999974,None,622.6185563000035,623.1332424999855,622.6185563000035,623.1332424999855,622.6185563000035,623.1332424999855,620.6396652999974,None,623.1499045999866,None,623.1499045999866,None,623.1499045999866,None,0.011666399979731068,None,623.1499045999866,None,623.1499045999866,None,623.1499045999866,None,623.1499045999866,None,623.1499045999866,None,623.1499045999866,None,623.1744307999907,None,623.1744307999907,None,623.1744307999907,None,0.013848300004610792,0.5138483000046108,623.1744307999907,None,623.1744307999907,None,623.1744307999907,None,623.1744307999907,None,623.1744307999907,None,623.1744307999907,None,625.1494572999945,625.1494572999945,-25.1,2.665,-1300,-1150,-1100,,,,,,,,,,,,,,,,,,,,,,,,,,,,,,,,,,,,,,,,,,,,,,,,,,,,,,,,,,,,,,,,,,,,,,,,,,,,,,,,,,,f,25,yinxin,2022_Apr_09_1057,experiment3,2021.1.4,59.97969087564203,
94,-200,-200,-150,two,-200,-200,-150,,,,,0,58,58,93,,,,,,,,,,,l,1.560800199978985,627.8966712999973,None,627.8966712999973,None,629.4897679999995,None,629.4897679999995,None,629.4897679999995,None,631.4819621999923,631.9813514999987,631.4819621999923,631.9813514999987,631.4819621999923,631.9813514999987,629.4897679999995,None,631.9980135999998,None,631.9980135999998,None,631.9980135999998,None,0.011208600015379488,None,631.9980135999998,None,631.9980135999998,None,631.9980135999998,None,631.9980135999998,None,631.9980135999998,None,631.9980135999998,None,632.0245315000066,None,632.0245315000066,None,632.0245315000066,None,0.011336099996697158,0.5113360999966972,632.0245315000066,None,632.0245315000066,None,632.0245315000066,None,632.0245315000066,None,632.0245315000066,None,632.0245315000066,None,633.9976094999874,633.9976094999874,-15.0,1.791,-1500,-1350,-1250,,,,,,,,,,,,,,,,,,,,,,,,,,,,,,,,,,,,,,,,,,,,,,,,,,,,,,,,,,,,,,,,,,,,,,,,,,,,,,,,,,,f,25,yinxin,2022_Apr_09_1057,experiment3,2021.1.4,59.97969087564203,
93,0,-200,-200,two,0,-200,-200,,,,,0,59,59,92,,,,,,,,,,,l,2.0035823000071105,635.8615951999964,None,635.8615951999964,None,637.8979942000005,None,637.8979942000005,None,637.8979942000005,None,639.8800864999939,640.3797306999913,639.8800864999939,640.3797306999913,639.8800864999939,640.3797306999913,637.8979942000005,None,640.4132236000063,None,640.4132236000063,None,640.4132236000063,None,0.011605800013057888,None,640.4132236000063,None,640.4132236000063,None,640.4132236000063,None,640.4132236000063,None,640.4132236000063,None,640.4132236000063,None,640.4219920999894,None,640.4219920999894,None,640.4219920999894,None,0.004265800031134859,0.5042658000311349,640.4219920999894,None,640.4219920999894,None,640.4219920999894,None,640.4219920999894,None,640.4219920999894,None,640.4219920999894,None,642.4128590000037,642.4128590000037,48.8,1.702,-1500,-1550,-1450,,,,,,,,,,,,,,,,,,,,,,,,,,,,,,,,,,,,,,,,,,,,,,,,,,,,,,,,,,,,,,,,,,,,,,,,,,,,,,,,,,,f,25,yinxin,2022_Apr_09_1057,experiment3,2021.1.4,59.97969087564203,
14,0,50,0,one,0,50,0,,,,,0,60,60,13,,,,,,,,,,,l,2.2151077000016812,644.1767630999966,None,644.1767630999966,None,646.4211535000068,None,646.4211535000068,None,646.4211535000068,None,648.3955466999905,648.894762299984,648.3955466999905,648.894762299984,648.3955466999905,648.894762299984,646.4211535000068,None,648.9281041000125,None,648.9281041000125,None,648.9281041000125,None,0.011614800023380667,None,648.9281041000125,None,648.9281041000125,None,648.9281041000125,None,648.9281041000125,None,648.9281041000125,None,648.9281041000125,None,648.9376765000052,None,648.9376765000052,None,648.9376765000052,None,0.004390299989609048,0.504390299989609,648.9376765000052,None,648.9376765000052,None,648.9376765000052,None,648.9376765000052,None,648.9376765000052,None,648.9376765000052,None,650.9276166000054,650.9276166000054,-12.200000000000003,2.363,-1500,-1500,-1450,,,,,,,,,,,,,,,,,,,,,,,,,,,,,,,,,,,,,,,,,,,,,,,,,,,,,,,,,,,,,,,,,,,,,,,,,,,,,,,,,,,f,25,yinxin,2022_Apr_09_1057,experiment3,2021.1.4,59.97969087564203,
42,50,200,200,one,50,200,200,,,,,0,61,61,41,,,,,,,,,,,l,1.8155068999913055,653.3440677000035,None,653.3440677000035,None,655.1774468999938,None,655.1774468999938,None,655.1774468999938,None,657.1783493999974,None,657.1783493999974,None,657.1783493999974,None,655.1774468999938,None,657.6931110999925,None,657.6931110999925,None,657.6931110999925,None,0.011681900010444224,None,657.6931110999925,None,657.6931110999925,None,657.6931110999925,None,657.6931110999925,None,657.6931110999925,None,657.6931110999925,None,657.7023646000016,None,657.7023646000016,None,657.7023646000016,None,0.00515889999223873,0.5051588999922387,657.7023646000016,None,657.7023646000016,None,657.7023646000016,None,657.7023646000016,None,657.7023646000016,None,657.7023646000016,None,659.6932873000042,659.6932873000042,6.0,1.704,-1450,-1300,-1250,,,,,,,,,,,,,,,,,,,,,,,,,,,,,,,,,,,,,,,,,,,,,,,,,,,,,,,,,,,,,,,,,,,,,,,,,,,,,,,,,,,f,25,yinxin,2022_Apr_09_1057,experiment3,2021.1.4,59.97969087564203,
47,200,50,200,two,200,50,200,,,,,0,62,62,46,,,,,,,,,,,g,3.902012900012778,661.4578263000003,None,661.4578263000003,None,665.3933431000041,None,665.3933431000041,None,665.3933431000041,None,667.3769903999928,667.8911200999864,667.3769903999928,667.8911200999864,667.3769903999928,667.8911200999864,665.3933431000041,None,667.9077821999875,None,667.9077821999875,None,667.9077821999875,None,0.011802599998190999,None,667.9077821999875,None,667.9077821999875,None,667.9077821999875,None,667.9077821999875,None,667.9077821999875,None,667.9077821999875,None,667.9165390999988,None,667.9165390999988,None,667.9165390999988,None,0.005113899998832494,0.5051138999988325,667.9165390999988,None,667.9165390999988,None,667.9165390999988,None,667.9165390999988,None,667.9165390999988,None,667.9165390999988,None,669.9074589000084,669.9074589000084,49.0,2.632,-1250,-1250,-1050,,,,,,,,,,,,,,,,,,,,,,,,,,,,,,,,,,,,,,,,,,,,,,,,,,,,,,,,,,,,,,,,,,,,,,,,,,,,,,,,,,,f,25,yinxin,2022_Apr_09_1057,experiment3,2021.1.4,59.97969087564203,
21,50,0,0,two,50,0,0,,,,,0,63,63,20,,,,,,,,,,,l,1.4005208000016864,672.6066539000021,None,672.6066539000021,None,674.028210599994,None,674.028210599994,None,674.028210599994,None,676.0061681999941,676.5062141999952,676.0061681999941,676.5062141999952,676.0061681999941,676.5062141999952,674.028210599994,None,676.539362300004,None,676.539362300004,None,676.539362300004,None,0.011660000018309802,None,676.539362300004,None,676.539362300004,None,676.539362300004,None,676.539362300004,None,676.539362300004,None,676.539362300004,None,676.5492322999926,None,676.5492322999926,None,676.5492322999926,None,0.00431289998232387,0.5043128999823239,676.5492322999926,None,676.5492322999926,None,676.5492322999926,None,676.5492322999926,None,676.5492322999926,None,676.5492322999926,None,678.5390028999827,678.5390028999827,49.7,2.524,-1200,-1250,-1050,,,,,,,,,,,,,,,,,,,,,,,,,,,,,,,,,,,,,,,,,,,,,,,,,,,,,,,,,,,,,,,,,,,,,,,,,,,,,,,,,,,f,25,yinxin,2022_Apr_09_1057,experiment3,2021.1.4,59.97969087564203,
1,0,50,200,one,0,50,200,,,,,0,64,64,0,,,,,,,,,,,a,1.8427010000159498,681.1195618000056,None,681.1195618000056,None,682.994801199995,None,682.994801199995,None,682.994801199995,None,684.9710953999893,685.4708174999978,684.9710953999893,685.4708174999978,684.9710953999893,685.4708174999978,682.994801199995,None,685.5044760999939,None,685.5044760999939,None,685.5044760999939,None,0.011867499997606501,None,685.5044760999939,None,685.5044760999939,None,685.5044760999939,None,685.5044760999939,None,685.5044760999939,None,685.5044760999939,None,685.5141102999914,None,685.5141102999914,None,685.5141102999914,None,0.005092000006698072,0.5050920000066981,685.5141102999914,None,685.5141102999914,None,685.5141102999914,None,685.5141102999914,None,685.5141102999914,None,685.5141102999914,None,687.5038958000077,687.5038958000077,-0.7999999999999972,2.364,-1200,-1200,-850,,,,,,,,,,,,,,,,,,,,,,,,,,,,,,,,,,,,,,,,,,,,,,,,,,,,,,,,,,,,,,,,,,,,,,,,,,,,,,,,,,,f,25,yinxin,2022_Apr_09_1057,experiment3,2021.1.4,59.97969087564203,
56,0,-200,-150,two,0,-200,-150,,,,,0,65,65,55,,,,,,,,,,,l,4.18075040000258,689.9381570999976,None,689.9381570999976,None,694.1412377000088,None,694.1412377000088,None,694.1412377000088,None,696.1367705999874,None,696.1367705999874,None,696.1367705999874,None,694.1412377000088,None,696.6519521000067,None,696.6519521000067,None,696.6519521000067,None,0.01160550001077354,None,696.6519521000067,None,696.6519521000067,None,696.6519521000067,None,696.6519521000067,None,696.6519521000067,None,696.6519521000067,None,696.6617482999864,None,696.6617482999864,None,696.6617482999864,None,0.004908700007945299,0.5049087000079453,696.6617482999864,None,696.6617482999864,None,696.6617482999864,None,696.6617482999864,None,696.6617482999864,None,696.6617482999864,None,698.6515771999839,698.6515771999839,49.099999999999994,1.384,-1200,-1400,-1000,,,,,,,,,,,,,,,,,,,,,,,,,,,,,,,,,,,,,,,,,,,,,,,,,,,,,,,,,,,,,,,,,,,,,,,,,,,,,,,,,,,f,25,yinxin,2022_Apr_09_1057,experiment3,2021.1.4,59.97969087564203,
61,0,0,-150,one,0,0,-150,,,,,0,66,66,60,,,,,,,,,,,l,1.0291551999980584,700.0993111999996,None,700.0993111999996,None,701.1553780999966,None,701.1553780999966,None,701.1553780999966,None,703.1340296999842,703.6338950000063,703.1340296999842,703.6338950000063,703.1340296999842,703.6338950000063,701.1553780999966,None,703.667508200006,None,703.667508200006,None,703.667508200006,None,0.011902500002179295,None,703.667508200006,None,703.667508200006,None,703.667508200006,None,703.667508200006,None,703.667508200006,None,703.667508200006,None,703.6764411999902,None,703.6764411999902,None,703.6764411999902,None,0.004974700015736744,0.5049747000157367,703.6764411999902,None,703.6764411999902,None,703.6764411999902,None,703.6764411999902,None,703.6764411999902,None,703.6764411999902,None,705.6670122999931,705.6670122999931,25.200000000000003,2.037,-1200,-1400,-1150,,,,,,,,,,,,,,,,,,,,,,,,,,,,,,,,,,,,,,,,,,,,,,,,,,,,,,,,,,,,,,,,,,,,,,,,,,,,,,,,,,,f,25,yinxin,2022_Apr_09_1057,experiment3,2021.1.4,59.97969087564203,
60,-200,0,-150,two,-200,0,-150,,,,,0,67,67,59,,,,,,,,,,,l,2.1084861000126693,707.7644137000025,None,707.7644137000025,None,709.9110058000078,None,709.9110058000078,None,709.9110058000078,None,711.8866792999906,712.3990195000079,711.8866792999906,712.3990195000079,711.8866792999906,712.3990195000079,709.9110058000078,None,712.415681600009,None,712.415681600009,None,712.415681600009,None,0.011096800037194043,None,712.415681600009,None,712.415681600009,None,712.415681600009,None,712.415681600009,None,712.415681600009,None,712.415681600009,None,712.4252764999983,None,712.4252764999983,None,712.4252764999983,None,0.004344600019976497,0.5043446000199765,712.4252764999983,None,712.4252764999983,None,712.4252764999983,None,712.4252764999983,None,712.4252764999983,None,712.4252764999983,None,714.4154512000096,714.4154512000096,-24.9,1.341,-1400,-1400,-1300,,,,,,,,,,,,,,,,,,,,,,,,,,,,,,,,,,,,,,,,,,,,,,,,,,,,,,,,,,,,,,,,,,,,,,,,,,,,,,,,,,,f,25,yinxin,2022_Apr_09_1057,experiment3,2021.1.4,59.97969087564203,
41,200,50,200,one,200,50,200,,,,,0,68,68,40,,,,,,,,,,,l,2.4307682999933604,715.812834899989,None,715.812834899989,None,718.2688284000033,None,718.2688284000033,None,718.2688284000033,None,720.2525658000086,720.7640698000032,720.2525658000086,720.7640698000032,720.2525658000086,720.7640698000032,718.2688284000033,None,720.7807319000043,None,720.7807319000043,None,720.7807319000043,None,0.011649000021861866,None,720.7807319000043,None,720.7807319000043,None,720.7807319000043,None,720.7807319000043,None,720.7807319000043,None,720.7807319000043,None,720.7904579000024,None,720.7904579000024,None,720.7904579000024,None,0.004525800031842664,0.5045258000318427,720.7904579000024,None,720.7904579000024,None,720.7904579000024,None,720.7904579000024,None,720.7904579000024,None,720.7904579000024,None,722.780346399988,722.780346399988,49.7,1.716,-1200,-1350,-1100,,,,,,,,,,,,,,,,,,,,,,,,,,,,,,,,,,,,,,,,,,,,,,,,,,,,,,,,,,,,,,,,,,,,,,,,,,,,,,,,,,,f,25,yinxin,2022_Apr_09_1057,experiment3,2021.1.4,59.97969087564203,
51,-150,0,-200,one,-150,0,-200,,,,,0,69,69,50,,,,,,,,,,,l,1.5022229000169318,724.5521836999978,None,724.5521836999978,None,726.0867739999958,None,726.0867739999958,None,726.0867739999958,None,728.0650651000033,728.5791562999948,728.0650651000033,728.5791562999948,728.0650651000033,728.5791562999948,726.0867739999958,None,728.5958183999959,None,728.5958183999959,None,728.5958183999959,None,0.011625999992247671,None,728.5958183999959,None,728.5958183999959,None,728.5958183999959,None,728.5958183999959,None,728.5958183999959,None,728.5958183999959,None,728.6055155000067,None,728.6055155000067,None,728.6055155000067,None,0.0043061000178568065,0.5043061000178568,728.6055155000067,None,728.6055155000067,None,728.6055155000067,None,728.6055155000067,None,728.6055155000067,None,728.6055155000067,None,730.5955394000048,730.5955394000048,-50.0,2.281,-1350,-1350,-1300,,,,,,,,,,,,,,,,,,,,,,,,,,,,,,,,,,,,,,,,,,,,,,,,,,,,,,,,,,,,,,,,,,,,,,,,,,,,,,,,,,,f,25,yinxin,2022_Apr_09_1057,experiment3,2021.1.4,59.97969087564203,
53,-200,-150,0,one,-200,-150,0,,,,,0,70,70,52,,,,,,,,,,,l,1.058463599998504,732.9354873999837,None,732.9354873999837,None,734.0201296999876,None,734.0201296999876,None,734.0201296999876,None,735.9978649000113,736.5109917999944,735.9978649000113,736.5109917999944,735.9978649000113,736.5109917999944,734.0201296999876,None,736.5276538999955,None,736.5276538999955,None,736.5276538999955,None,0.011509300005855039,None,736.5276538999955,None,736.5276538999955,None,736.5276538999955,None,736.5276538999955,None,736.5276538999955,None,736.5276538999955,None,736.5377550999983,None,736.5377550999983,None,736.5377550999983,None,0.0046879000146873295,0.5046879000146873,736.5377550999983,None,736.5377550999983,None,736.5377550999983,None,736.5377550999983,None,736.5377550999983,None,736.5377550999983,None,738.5272996999847,738.5272996999847,-45.0,1.994,-1550,-1500,-1300,,,,,,,,,,,,,,,,,,,,,,,,,,,,,,,,,,,,,,,,,,,,,,,,,,,,,,,,,,,,,,,,,,,,,,,,,,,,,,,,,,,f,25,yinxin,2022_Apr_09_1057,experiment3,2021.1.4,59.97969087564203,
27,50,50,200,one,50,50,200,,,,,0,71,71,26,,,,,,,,,,,g,0.8970596000144724,740.5806035999849,None,740.5806035999849,None,741.4933945999946,None,741.4933945999946,None,741.4933945999946,None,743.476248299994,743.9761721999967,743.476248299994,743.9761721999967,743.476248299994,743.9761721999967,741.4933945999946,None,743.9928342999978,None,743.9928342999978,None,743.9928342999978,None,0.010542500007431954,None,743.9928342999978,None,743.9928342999978,None,743.9928342999978,None,743.9928342999978,None,743.9928342999978,None,743.9928342999978,None,744.0046384999878,None,744.0046384999878,None,744.0046384999878,None,0.0009559000027365983,0.5009559000027366,744.0046384999878,None,744.0046384999878,None,744.0046384999878,None,744.0046384999878,None,744.0046384999878,None,744.0046384999878,None,745.9926356000069,745.9926356000069,49.2,1.903,-1500,-1450,-1100,,,,,,,,,,,,,,,,,,,,,,,,,,,,,,,,,,,,,,,,,,,,,,,,,,,,,,,,,,,,,,,,,,,,,,,,,,,,,,,,,,,f,25,yinxin,2022_Apr_09_1057,experiment3,2021.1.4,59.97969087564203,
36,50,50,0,two,50,50,0,,,,,0,72,72,35,,,,,,,,,,,l,3.5089218000066467,747.9513398999989,None,747.9513398999989,None,751.4798615000036,None,751.4798615000036,None,751.4798615000036,None,753.4574988000095,753.9576147999906,753.4574988000095,753.9576147999906,753.4574988000095,753.9576147999906,751.4798615000036,None,753.9910317000089,None,753.9910317000089,None,753.9910317000089,None,0.011613400012720376,None,753.9910317000089,None,753.9910317000089,None,753.9910317000089,None,753.9910317000089,None,753.9910317000089,None,753.9910317000089,None,754.0001997000072,None,754.0001997000072,None,754.0001997000072,None,0.0051967000181321055,0.5051967000181321,754.0001997000072,None,754.0001997000072,None,754.0001997000072,None,754.0001997000072,None,754.0001997000072,None,754.0001997000072,None,755.9909071000002,755.9909071000002,24.299999999999997,1.245,-1450,-1400,-1100,,,,,,,,,,,,,,,,,,,,,,,,,,,,,,,,,,,,,,,,,,,,,,,,,,,,,,,,,,,,,,,,,,,,,,,,,,,,,,,,,,,f,25,yinxin,2022_Apr_09_1057,experiment3,2021.1.4,59.97969087564203,
30,50,50,0,one,50,50,0,,,,,0,73,73,29,,,,,,,,,,,l,3.8606853999954183,757.2918458000058,None,757.2918458000058,None,761.1796525999962,None,761.1796525999962,None,761.1796525999962,None,763.1558712999977,763.6556604999932,763.1558712999977,763.6556604999932,763.1558712999977,763.6556604999932,761.1796525999962,None,763.6890436999878,None,763.6890436999878,None,763.6890436999878,None,0.011860899976454675,None,763.6890436999878,None,763.6890436999878,None,763.6890436999878,None,763.6890436999878,None,763.6890436999878,None,763.6890436999878,None,763.6988565000065,None,763.6988565000065,None,763.6988565000065,None,0.005011800007196143,0.5050118000071961,763.6988565000065,None,763.6988565000065,None,763.6988565000065,None,763.6988565000065,None,763.6988565000065,None,763.6988565000065,None,765.688709399983,765.688709399983,49.5,1.913,-1400,-1350,-1100,,,,,,,,,,,,,,,,,,,,,,,,,,,,,,,,,,,,,,,,,,,,,,,,,,,,,,,,,,,,,,,,,,,,,,,,,,,,,,,,,,,f,25,yinxin,2022_Apr_09_1057,experiment3,2021.1.4,59.97969087564203,
40,200,200,50,one,200,200,50,,,,,0,74,74,39,,,,,,,,,,,g,1.6195589999842923,767.6693436999922,None,767.6693436999922,None,769.3121968999912,None,769.3121968999912,None,769.3121968999912,None,771.2879298999906,771.787490799994,771.2879298999906,771.787490799994,771.2879298999906,771.787490799994,769.3121968999912,None,771.8208115000074,None,771.8208115000074,None,771.8208115000074,None,0.011101500014774501,None,771.8208115000074,None,771.8208115000074,None,771.8208115000074,None,771.8208115000074,None,771.8208115000074,None,771.8208115000074,None,771.8300803999882,None,771.8300803999882,None,771.8300803999882,None,0.00432490001549013,0.5043249000154901,771.8300803999882,None,771.8300803999882,None,771.8300803999882,None,771.8300803999882,None,771.8300803999882,None,771.8300803999882,None,773.8203770999971,773.8203770999971,49.0,2.492,-1200,-1150,-1050,,,,,,,,,,,,,,,,,,,,,,,,,,,,,,,,,,,,,,,,,,,,,,,,,,,,,,,,,,,,,,,,,,,,,,,,,,,,,,,,,,,f,25,yinxin,2022_Apr_09_1057,experiment3,2021.1.4,59.97969087564203,
20,0,50,0,two,0,50,0,,,,,0,75,75,19,,,,,,,,,,,l,1.3518671999918297,776.3667231999862,None,776.3667231999862,None,777.7438951999939,None,777.7438951999939,None,777.7438951999939,None,779.7202758000058,780.2190866000019,779.7202758000058,780.2190866000019,779.7202758000058,780.2190866000019,777.7438951999939,None,780.2524259000114,None,780.2524259000114,None,780.2524259000114,None,0.011828400020021945,None,780.2524259000114,None,780.2524259000114,None,780.2524259000114,None,780.2524259000114,None,780.2524259000114,None,780.2524259000114,None,780.2613184000074,None,780.2613184000074,None,780.2613184000074,None,0.005481400032294914,0.5054814000322949,780.2613184000074,None,780.2613184000074,None,780.2613184000074,None,780.2613184000074,None,780.2613184000074,None,780.2613184000074,None,782.2529993999924,782.2529993999924,-5.299999999999997,5.288,-1200,-1100,-1050,,,,,,,,,,,,,,,,,,,,,,,,,,,,,,,,,,,,,,,,,,,,,,,,,,,,,,,,,,,,,,,,,,,,,,,,,,,,,,,,,,,f,25,yinxin,2022_Apr_09_1057,experiment3,2021.1.4,59.97969087564203,
63,-150,0,0,one,-150,0,0,,,,,0,76,76,62,,,,,,,,,,,l,5.055917499994393,787.6013501999842,None,787.6013501999842,None,792.6918306000007,None,792.6918306000007,None,792.6918306000007,None,794.6698397999862,795.1828230000101,794.6698397999862,795.1828230000101,794.6698397999862,795.1828230000101,792.6918306000007,None,795.1994851000112,None,795.1994851000112,None,795.1994851000112,None,0.011548300011781976,None,795.1994851000112,None,795.1994851000112,None,795.1994851000112,None,795.1994851000112,None,795.1994851000112,None,795.1994851000112,None,795.2087175000052,None,795.2087175000052,None,795.2087175000052,None,0.004675400035921484,0.5046754000359215,795.2087175000052,None,795.2087175000052,None,795.2087175000052,None,795.2087175000052,None,795.2087175000052,None,795.2087175000052,None,797.1993058999942,797.1993058999942,-26.6,1.945,-1350,-1100,-1050,,,,,,,,,,,,,,,,,,,,,,,,,,,,,,,,,,,,,,,,,,,,,,,,,,,,,,,,,,,,,,,,,,,,,,,,,,,,,,,,,,,f,25,yinxin,2022_Apr_09_1057,experiment3,2021.1.4,59.97969087564203,
26,50,200,50,one,50,200,50,,,,,0,77,77,25,,,,,,,,,,,g,1.225109999999404,799.2131559999834,None,799.2131559999834,None,800.4862719000084,None,800.4862719000084,None,800.4862719000084,None,802.4649696999986,802.9646426999825,802.4649696999986,802.9646426999825,802.4649696999986,802.9646426999825,800.4862719000084,None,802.9981498999899,None,802.9981498999899,None,802.9981498999899,None,0.011722800001734868,None,802.9981498999899,None,802.9981498999899,None,802.9981498999899,None,802.9981498999899,None,802.9981498999899,None,802.9981498999899,None,803.0070818999957,None,803.0070818999957,None,803.0070818999957,None,0.005139299988513812,0.5051392999885138,803.0070818999957,None,803.0070818999957,None,803.0070818999957,None,803.0070818999957,None,803.0070818999957,None,803.0070818999957,None,804.997655299987,804.997655299987,4.5,1.897,-1300,-900,-1000,,,,,,,,,,,,,,,,,,,,,,,,,,,,,,,,,,,,,,,,,,,,,,,,,,,,,,,,,,,,,,,,,,,,,,,,,,,,,,,,,,,f,25,yinxin,2022_Apr_09_1057,experiment3,2021.1.4,59.97969087564203,
81,-150,-150,-200,two,-150,-150,-200,,,,,0,78,78,80,,,,,,,,,,,l,4.7053844000038225,806.9504211999883,None,806.9504211999883,None,811.6884050999943,None,811.6884050999943,None,811.6884050999943,None,813.6632773999881,814.1624908999947,813.6632773999881,814.1624908999947,813.6632773999881,814.1624908999947,811.6884050999943,None,814.1959064000024,None,814.1959064000024,None,814.1959064000024,None,0.0046919999876990914,None,814.1959064000024,None,814.1959064000024,None,814.1959064000024,None,814.1959064000024,None,814.1959064000024,None,814.1959064000024,None,814.2301645999833,None,814.2301645999833,None,814.2301645999833,None,0.004927299974951893,0.5049272999749519,814.2301645999833,None,814.2301645999833,None,814.2301645999833,None,814.2301645999833,None,814.2301645999833,None,814.2301645999833,None,816.2121219999972,816.2121219999972,-0.5,2.118,-1450,-1050,-1200,,,,,,,,,,,,,,,,,,,,,,,,,,,,,,,,,,,,,,,,,,,,,,,,,,,,,,,,,,,,,,,,,,,,,,,,,,,,,,,,,,,f,25,yinxin,2022_Apr_09_1057,experiment3,2021.1.4,59.97969087564203,
52,-150,-200,0,one,-150,-200,0,,,,,0,79,79,51,,,,,,,,,,,l,2.6015187999873888,818.411549899989,None,818.411549899989,None,821.0349440999853,None,821.0349440999853,None,821.0349440999853,None,823.0107727999857,823.5107681000081,823.0107727999857,823.5107681000081,823.0107727999857,823.5107681000081,821.0349440999853,None,823.5624292999971,None,823.5624292999971,None,823.5624292999971,None,0.016407899995101616,None,823.5624292999971,None,823.5624292999971,None,823.5624292999971,None,823.5624292999971,None,823.5624292999971,None,823.5624292999971,None,823.590206599998,None,823.590206599998,None,823.590206599998,None,0.0149301000055857,0.5149301000055857,823.590206599998,None,823.590206599998,None,823.590206599998,None,823.590206599998,None,823.590206599998,None,823.590206599998,None,825.5602571000054,825.5602571000054,-16.4,2.853,-1600,-1250,-1200,,,,,,,,,,,,,,,,,,,,,,,,,,,,,,,,,,,,,,,,,,,,,,,,,,,,,,,,,,,,,,,,,,,,,,,,,,,,,,,,,,,f,25,yinxin,2022_Apr_09_1057,experiment3,2021.1.4,59.97969087564203,
59,-200,-150,0,two,-200,-150,0,,,,,0,80,80,58,,,,,,,,,,,g,7.92327140000998,828.4907111999928,None,828.4907111999928,None,836.4466077999969,None,836.4466077999969,None,836.4466077999969,None,838.4244241999986,838.9243755000061,838.4244241999986,838.9243755000061,838.4244241999986,838.9243755000061,836.4466077999969,None,838.9577078999922,None,838.9577078999922,None,838.9577078999922,None,0.011677700007567182,None,838.9577078999922,None,838.9577078999922,None,838.9577078999922,None,838.9577078999922,None,838.9577078999922,None,838.9577078999922,None,838.9676259999978,None,838.9676259999978,None,838.9676259999978,None,0.004136100003961474,0.5041361000039615,838.9676259999978,None,838.9676259999978,None,838.9676259999978,None,838.9676259999978,None,838.9676259999978,None,838.9676259999978,None,840.9574879999855,840.9574879999855,-50.0,2.339,-1800,-1400,-1200,,,,,,,,,,,,,,,,,,,,,,,,,,,,,,,,,,,,,,,,,,,,,,,,,,,,,,,,,,,,,,,,,,,,,,,,,,,,,,,,,,,f,25,yinxin,2022_Apr_09_1057,experiment3,2021.1.4,59.97969087564203,
96,-150,-200,-200,two,-150,-200,-200,,,,,0,81,81,95,,,,,,,,,,,l,1.0590822999947704,843.3542410999944,None,843.3542410999944,None,844.4504842000024,None,844.4504842000024,None,844.4504842000024,None,846.4229062999948,846.9227882999985,846.4229062999948,846.9227882999985,846.4229062999948,846.9227882999985,844.4504842000024,None,846.956128799988,None,846.956128799988,None,846.956128799988,None,0.011359099997207522,None,846.956128799988,None,846.956128799988,None,846.956128799988,None,846.956128799988,None,846.956128799988,None,846.956128799988,None,846.9664734000107,None,846.9664734000107,None,846.9664734000107,None,0.003857400006381795,0.5038574000063818,846.9664734000107,None,846.9664734000107,None,846.9664734000107,None,846.9664734000107,None,846.9664734000107,None,846.9664734000107,None,848.9557992999908,848.9557992999908,3.200000000000003,1.861,-1950,-1600,-1400,,,,,,,,,,,,,,,,,,,,,,,,,,,,,,,,,,,,,,,,,,,,,,,,,,,,,,,,,,,,,,,,,,,,,,,,,,,,,,,,,,,f,25,yinxin,2022_Apr_09_1057,experiment3,2021.1.4,59.97969087564203,
73,-200,-150,-150,one,-200,-150,-150,,,,,0,82,82,72,,,,,,,,,,,l,0.9369035000272561,850.8726664999849,None,850.8726664999849,None,851.8487384000036,None,851.8487384000036,None,851.8487384000036,None,853.8246770999976,854.3390371999994,853.8246770999976,854.3390371999994,853.8246770999976,854.3390371999994,851.8487384000036,None,854.3556993000005,None,854.3556993000005,None,854.3556993000005,None,0.005001599987735972,None,854.3556993000005,None,854.3556993000005,None,854.3556993000005,None,854.3556993000005,None,854.3556993000005,None,854.3556993000005,None,854.3868053999904,None,854.3868053999904,None,854.3868053999904,None,0.006996500014793128,0.5069965000147931,854.3868053999904,None,854.3868053999904,None,854.3868053999904,None,854.3868053999904,None,854.3868053999904,None,854.3868053999904,None,856.3709357999905,856.3709357999905,-38.1,1.886,-2150,-1750,-1550,,,,,,,,,,,,,,,,,,,,,,,,,,,,,,,,,,,,,,,,,,,,,,,,,,,,,,,,,,,,,,,,,,,,,,,,,,,,,,,,,,,f,25,yinxin,2022_Apr_09_1057,experiment3,2021.1.4,59.97969087564203,
10,50,200,0,two,50,200,0,,,,,0,83,83,9,,,,,,,,,,,l,0.9356694000016432,858.3189477999986,None,858.3189477999986,None,859.2701823000098,None,859.2701823000098,None,859.2701823000098,None,861.2693462999887,None,861.2693462999887,None,861.2693462999887,None,859.2701823000098,None,861.7732332000072,None,861.7732332000072,None,861.7732332000072,None,0.004130900022573769,None,861.7732332000072,None,861.7732332000072,None,861.7732332000072,None,861.7732332000072,None,861.7732332000072,None,861.7732332000072,None,861.7895223000087,None,861.7895223000087,None,861.7895223000087,None,0.013189599994802848,0.5131895999948028,861.7895223000087,None,861.7895223000087,None,861.7895223000087,None,861.7895223000087,None,861.7895223000087,None,861.7895223000087,None,863.7697399999888,863.7697399999888,-0.20000000000000284,2.736,-2100,-1550,-1550,,,,,,,,,,,,,,,,,,,,,,,,,,,,,,,,,,,,,,,,,,,,,,,,,,,,,,,,,,,,,,,,,,,,,,,,,,,,,,,,,,,f,25,yinxin,2022_Apr_09_1057,experiment3,2021.1.4,59.97969087564203,
6,200,0,50,one,200,0,50,,,,,0,84,84,5,,,,,,,,,,,g,2.3210579000005964,866.5834424000059,None,866.5834424000059,None,868.9271996000025,None,868.9271996000025,None,868.9271996000025,None,870.901368699997,871.4014414999983,870.901368699997,871.4014414999983,870.901368699997,871.4014414999983,868.9271996000025,None,871.4346667000121,None,871.4346667000121,None,871.4346667000121,None,0.011871800030348822,None,871.4346667000121,None,871.4346667000121,None,871.4346667000121,None,871.4346667000121,None,871.4346667000121,None,871.4346667000121,None,871.444404000009,None,871.444404000009,None,871.444404000009,None,0.004866400005994365,0.5048664000059944,871.444404000009,None,871.444404000009,None,871.444404000009,None,871.444404000009,None,871.444404000009,None,871.444404000009,None,873.4320754999935,873.4320754999935,49.5,1.7,-1900,-1550,-1500,,,,,,,,,,,,,,,,,,,,,,,,,,,,,,,,,,,,,,,,,,,,,,,,,,,,,,,,,,,,,,,,,,,,,,,,,,,,,,,,,,,f,25,yinxin,2022_Apr_09_1057,experiment3,2021.1.4,59.97969087564203,
71,0,-200,0,two,0,-200,0,,,,,0,85,85,70,,,,,,,,,,,g,4.601385600020876,875.1858074000047,None,875.1858074000047,None,879.8086251000059,None,879.8086251000059,None,879.8086251000059,None,881.7828063000052,882.2825872999965,881.7828063000052,882.2825872999965,881.7828063000052,882.2825872999965,879.8086251000059,None,882.3159690000087,None,882.3159690000087,None,882.3159690000087,None,0.011801900021964684,None,882.3159690000087,None,882.3159690000087,None,882.3159690000087,None,882.3159690000087,None,882.3159690000087,None,882.3159690000087,None,882.338041799987,None,882.338041799987,None,882.338041799987,None,0.01619989998289384,0.5161998999828938,882.338041799987,None,882.338041799987,None,882.338041799987,None,882.338041799987,None,882.338041799987,None,882.338041799987,None,884.3155668999825,884.3155668999825,49.400000000000006,2.044,-1900,-1750,-1500,,,,,,,,,,,,,,,,,,,,,,,,,,,,,,,,,,,,,,,,,,,,,,,,,,,,,,,,,,,,,,,,,,,,,,,,,,,,,,,,,,,f,25,yinxin,2022_Apr_09_1057,experiment3,2021.1.4,59.97969087564203,
85,-200,-200,0,one,-200,-200,0,,,,,0,86,86,84,,,,,,,,,,,l,1.2503670000005513,886.4324027000112,None,886.4324027000112,None,887.7060111000028,None,887.7060111000028,None,887.7060111000028,None,889.6811869000085,890.198127599986,889.6811869000085,890.198127599986,889.6811869000085,890.198127599986,887.7060111000028,None,890.2314517999882,None,890.2314517999882,None,890.2314517999882,None,0.015924499981338158,None,890.2314517999882,None,890.2314517999882,None,890.2314517999882,None,890.2314517999882,None,890.2314517999882,None,890.2314517999882,None,890.2616449999914,None,890.2616449999914,None,890.2616449999914,None,0.0140232999692671,0.5140232999692671,890.2616449999914,None,890.2616449999914,None,890.2616449999914,None,890.2616449999914,None,890.2616449999914,None,890.2616449999914,None,892.2306269999826,892.2306269999826,-48.8,2.61,-2100,-1950,-1500,,,,,,,,,,,,,,,,,,,,,,,,,,,,,,,,,,,,,,,,,,,,,,,,,,,,,,,,,,,,,,,,,,,,,,,,,,,,,,,,,,,f,25,yinxin,2022_Apr_09_1057,experiment3,2021.1.4,59.97969087564203,
11,200,50,0,two,200,50,0,,,,,0,87,87,10,,,,,,,,,,,l,1.2100314999988768,894.913702299993,None,894.913702299993,None,896.1527107000002,None,896.1527107000002,None,896.1527107000002,None,898.1333491000114,898.6461621999915,898.1333491000114,898.6461621999915,898.1333491000114,898.6461621999915,896.1527107000002,None,898.6628242999926,None,898.6628242999926,None,898.6628242999926,None,0.01167659999919124,None,898.6628242999926,None,898.6628242999926,None,898.6628242999926,None,898.6628242999926,None,898.6628242999926,None,898.6628242999926,None,898.6724665999936,None,898.6724665999936,None,898.6724665999936,None,0.005357100017135963,0.505357100017136,898.6724665999936,None,898.6724665999936,None,898.6724665999936,None,898.6724665999936,None,898.6724665999936,None,898.6724665999936,None,900.6623704000085,900.6623704000085,49.0,1.232,-1900,-1900,-1500,,,,,,,,,,,,,,,,,,,,,,,,,,,,,,,,,,,,,,,,,,,,,,,,,,,,,,,,,,,,,,,,,,,,,,,,,,,,,,,,,,,f,25,yinxin,2022_Apr_09_1057,experiment3,2021.1.4,59.97969087564203,
43,200,200,0,two,200,200,0,,,,,0,88,88,42,,,,,,,,,,,l,0.8351194999995641,901.9603747999936,None,901.9603747999936,None,902.8124556000112,None,902.8124556000112,None,902.8124556000112,None,904.7981350999908,905.2967967999866,904.7981350999908,905.2967967999866,904.7981350999908,905.2967967999866,902.8124556000112,None,905.3134588999877,None,905.3134588999877,None,905.3134588999877,None,0.007722800015471876,None,905.3134588999877,None,905.3134588999877,None,905.3134588999877,None,905.3134588999877,None,905.3134588999877,None,905.3134588999877,None,905.3267550999881,None,905.3267550999881,None,905.3267550999881,None,0.015891199989710003,0.51589119998971,905.3267550999881,None,905.3267550999881,None,905.3267550999881,None,905.3267550999881,None,905.3267550999881,None,905.3267550999881,None,907.311455899995,907.311455899995,49.5,2.316,-1700,-1700,-1500,,,,,,,,,,,,,,,,,,,,,,,,,,,,,,,,,,,,,,,,,,,,,,,,,,,,,,,,,,,,,,,,,,,,,,,,,,,,,,,,,,,f,25,yinxin,2022_Apr_09_1057,experiment3,2021.1.4,59.97969087564203,
38,200,0,200,one,200,0,200,,,,,0,89,89,37,,,,,,,,,,,l,1.3219177999999374,909.691704900004,None,909.691704900004,None,911.0483834999905,None,911.0483834999905,None,911.0483834999905,None,913.0265502999828,913.5264605999982,913.0265502999828,913.5264605999982,913.0265502999828,913.5264605999982,911.0483834999905,None,913.5598568000045,None,913.5598568000045,None,913.5598568000045,None,0.003495300014037639,None,913.5598568000045,None,913.5598568000045,None,913.5598568000045,None,913.5598568000045,None,913.5598568000045,None,913.5598568000045,None,913.5988705999916,None,913.5988705999916,None,913.5988705999916,None,0.003315100009785965,0.503315100009786,913.5988705999916,None,913.5988705999916,None,913.5988705999916,None,913.5988705999916,None,913.5988705999916,None,913.5988705999916,None,915.5760577000037,915.5760577000037,49.8,1.52,-1500,-1700,-1300,,,,,,,,,,,,,,,,,,,,,,,,,,,,,,,,,,,,,,,,,,,,,,,,,,,,,,,,,,,,,,,,,,,,,,,,,,,,,,,,,,,f,25,yinxin,2022_Apr_09_1057,experiment3,2021.1.4,59.97969087564203,
33,50,50,200,two,50,50,200,,,,,0,90,90,32,,,,,,,,,,,g,1.5815419999998994,917.174202299997,None,917.174202299997,None,918.7811307999946,None,918.7811307999946,None,918.7811307999946,None,920.7616317000065,921.2749362000031,920.7616317000065,921.2749362000031,920.7616317000065,921.2749362000031,918.7811307999946,None,921.2915983000042,None,921.2915983000042,None,921.2915983000042,None,0.01174330001231283,None,921.2915983000042,None,921.2915983000042,None,921.2915983000042,None,921.2915983000042,None,921.2915983000042,None,921.2915983000042,None,921.3004231000086,None,921.3004231000086,None,921.3004231000086,None,0.004986100015230477,0.5049861000152305,921.3004231000086,None,921.3004231000086,None,921.3004231000086,None,921.3004231000086,None,921.3004231000086,None,921.3004231000086,None,923.2912529000023,923.2912529000023,-23.4,2.483,-1450,-1650,-1100,,,,,,,,,,,,,,,,,,,,,,,,,,,,,,,,,,,,,,,,,,,,,,,,,,,,,,,,,,,,,,,,,,,,,,,,,,,,,,,,,,,f,25,yinxin,2022_Apr_09_1057,experiment3,2021.1.4,59.97969087564203,
24,200,0,0,two,200,0,0,,,,,0,91,91,23,,,,,,,,,,,l,0.9727340000099503,925.8385598000023,None,925.8385598000023,None,926.8481519999914,None,926.8481519999914,None,926.8481519999914,None,928.826479499985,929.3401594999887,928.826479499985,929.3401594999887,928.826479499985,929.3401594999887,926.8481519999914,None,929.3568215999898,None,929.3568215999898,None,929.3568215999898,None,0.011702399991918355,None,929.3568215999898,None,929.3568215999898,None,929.3568215999898,None,929.3568215999898,None,929.3568215999898,None,929.3568215999898,None,929.3656708000053,None,929.3656708000053,None,929.3656708000053,None,0.005116799991810694,0.5051167999918107,929.3656708000053,None,929.3656708000053,None,929.3656708000053,None,929.3656708000053,None,929.3656708000053,None,929.3656708000053,None,931.3564540999942,931.3564540999942,50.0,1.546,-1250,-1650,-1100,,,,,,,,,,,,,,,,,,,,,,,,,,,,,,,,,,,,,,,,,,,,,,,,,,,,,,,,,,,,,,,,,,,,,,,,,,,,,,,,,,,f,25,yinxin,2022_Apr_09_1057,experiment3,2021.1.4,59.97969087564203,
32,50,200,50,two,50,200,50,,,,,0,92,92,31,,,,,,,,,,,l,1.0257010000059381,932.9639555999893,None,932.9639555999893,None,934.017686999985,None,934.017686999985,None,934.017686999985,None,935.9887488000095,936.5033581999887,935.9887488000095,936.5033581999887,935.9887488000095,936.5033581999887,934.017686999985,None,936.5200202999898,None,936.5200202999898,None,936.5200202999898,None,0.004503300006035715,None,936.5200202999898,None,936.5200202999898,None,936.5200202999898,None,936.5200202999898,None,936.5200202999898,None,936.5200202999898,None,936.5646321999957,None,936.5646321999957,None,936.5646321999957,None,0.012971199990715832,0.5129711999907158,936.5646321999957,None,936.5646321999957,None,936.5646321999957,None,936.5646321999957,None,936.5646321999957,None,936.5646321999957,None,938.5383485000057,938.5383485000057,-10.0,2.936,-1200,-1450,-1050,,,,,,,,,,,,,,,,,,,,,,,,,,,,,,,,,,,,,,,,,,,,,,,,,,,,,,,,,,,,,,,,,,,,,,,,,,,,,,,,,,,f,25,yinxin,2022_Apr_09_1057,experiment3,2021.1.4,59.97969087564203,
79,-200,-150,-150,two,-200,-150,-150,,,,,0,93,93,78,,,,,,,,,,,g,0.8960457000066526,941.5521294999926,None,941.5521294999926,None,942.474504599988,None,942.474504599988,None,942.474504599988,None,944.4678405000013,None,944.4678405000013,None,944.4678405000013,None,942.474504599988,None,944.9985012000077,None,944.9985012000077,None,944.9985012000077,None,0.010676000005332753,None,944.9985012000077,None,944.9985012000077,None,944.9985012000077,None,944.9985012000077,None,944.9985012000077,None,944.9985012000077,None,945.0364515999972,None,945.0364515999972,None,945.0364515999972,None,0.0030175000138115138,0.5030175000138115,945.0364515999972,None,945.0364515999972,None,945.0364515999972,None,945.0364515999972,None,945.0364515999972,None,945.0364515999972,None,947.0198785999964,947.0198785999964,-49.0,1.516,-1400,-1600,-1200,,,,,,,,,,,,,,,,,,,,,,,,,,,,,,,,,,,,,,,,,,,,,,,,,,,,,,,,,,,,,,,,,,,,,,,,,,,,,,,,,,,f,25,yinxin,2022_Apr_09_1057,experiment3,2021.1.4,59.97969087564203,
