Numb,picture_show,Video_1,picture_judge,trials.thisRepN,trials.thisTrialN,trials.thisN,trials.thisIndex,image_intr.started,image_intr.stopped,key_resp_intr.keys,key_resp_intr.rt,key_resp_intr.started,key_resp_intr.stopped,image_show_text.started,image_show_text.stopped,image_show.started,image_show.stopped,image_video_text.started,image_video_text.stopped,image_judge.started,image_judge.stopped,image_judge_text.started,image_judge_text.stopped,slider_left.response,slider_left.rt,slider_left.started,slider_left.stopped,slider_mid.response,slider_mid.rt,slider_mid.started,slider_mid.stopped,slider_right.response,slider_right.rt,slider_right.started,slider_right.stopped,key_resp_next.keys,key_resp_next.rt,key_resp_next.started,key_resp_next.stopped,group,participant,age,gender(m/f),date,expName,psychopyVersion,frameRate,
,,,,,,,,37.1854945999803,None,space,30.891048300021794,37.1854945999803,None,,,,,,,,,,,,,,,,,,,,,,,,,,,B,lvluxi,23,f,2021_Dec_04_1709,untitled_groupA_k,2021.1.4,59.873104933557414,
13,picture\p13.tif,BR_left_01_42\BRZ13.mp4,picture\p13.tif,0,0,0,12,,,,,,,68.14427979997708,69.14354639998055,69.12699489999795,None,73.16581399997813,74.18036649998976,103.46461679998902,None,103.46461679998902,None,3.0500000000000007,31.08186380000552,103.46461679998902,None,3.0638888888888887,28.497151399991708,103.46461679998902,None,6.105555555555556,21.64627699999255,103.46461679998902,None,space,37.484998700005235,103.46461679998902,None,B,lvluxi,23,f,2021_Dec_04_1709,untitled_groupA_k,2021.1.4,59.873104933557414,
42,picture\p42.tif,GR_left_01_42\GRZ42.mp4,picture\p42.tif,0,1,1,41,,,,,,,140.9951749999891,141.9971829999995,141.9809602999885,None,144.91370539998752,145.92904709998402,175.21993839999777,None,175.21993839999777,None,4.063888888888889,22.05079239999759,175.21993839999777,None,4.036111111111111,25.180691699992167,175.21993839999777,None,4.175,31.541332699998748,175.21993839999777,None,space,34.72908640000969,175.21993839999777,None,B,lvluxi,23,f,2021_Dec_04_1709,untitled_groupA_k,2021.1.4,59.873104933557414,
35,picture\p35.tif,GR_left_01_42\GRZ35.mp4,picture\p35.tif,0,2,2,34,,,,,,,209.9791006000014,210.98348510000505,210.96853409998585,None,213.98459690000163,214.99914339999668,244.2735036999802,None,244.2735036999802,None,5.938888888888889,11.256116200005636,244.2735036999802,None,4.050000000000001,15.187354299996514,244.2735036999802,None,2.1750000000000007,6.922049800021341,244.2735036999802,None,space,16.33102179999696,244.2735036999802,None,B,lvluxi,23,f,2021_Dec_04_1709,untitled_groupA_k,2021.1.4,59.873104933557414,
19,picture\p19.tif,GB_left_01_42\GBZ19.mp4,picture\p19.tif,0,3,3,18,,,,,,,260.63467030000174,261.6405564000015,261.6250909999944,None,264.5981358999852,265.60612290000427,294.8967922999873,None,294.8967922999873,None,2.0083333333333333,17.950158899999224,294.8967922999873,None,2.0361111111111114,19.468124000006355,294.8967922999873,None,2.1611111111111114,20.806140999979107,294.8967922999873,None,space,22.036187199992128,294.8967922999873,None,B,lvluxi,23,f,2021_Dec_04_1709,untitled_groupA_k,2021.1.4,59.873104933557414,
43,picture\p04.tif,RB_right_01_42\RBY04.mp4,picture\p04.tif,0,4,4,42,,,,,,,316.9735526999866,317.97930879998603,317.9639280999836,None,320.8840079999936,321.8952444999886,351.1690742999781,None,351.1690742999781,None,3.0916666666666672,13.887493299989728,351.1690742999781,None,2.147222222222222,12.386227599985432,351.1690742999781,None,4.911111111111111,15.639558700000634,351.1690742999781,None,space,21.545879099983722,351.1690742999781,None,B,lvluxi,23,f,2021_Dec_04_1709,untitled_groupA_k,2021.1.4,59.873104933557414,
12,picture\p12.tif,BR_left_01_42\BRZ12.mp4,picture\p12.tif,0,5,5,11,,,,,,,372.7472657999897,373.7518818999815,373.73617220000597,None,377.09674769997946,378.10043560000486,407.4096266999841,None,407.4096266999841,None,6.133333333333334,6.356198499997845,407.4096266999841,None,3.022222222222222,15.918808200018248,407.4096266999841,None,3.0916666666666672,13.489688399975421,407.4096266999841,None,space,17.993643699999666,407.4096266999841,None,B,lvluxi,23,f,2021_Dec_04_1709,untitled_groupA_k,2021.1.4,59.873104933557414,
37,picture\p37.tif,GR_left_01_42\GRZ37.mp4,picture\p37.tif,0,6,6,36,,,,,,,425.4364908999996,426.441668799991,426.42560519999824,None,429.36598579998827,430.3745691999793,459.66392369999085,None,459.66392369999085,None,1.286111111111111,3.2042551999911666,459.66392369999085,None,1.1472222222222226,6.0946458999824245,459.66392369999085,None,2.230555555555556,7.492098499991698,459.66392369999085,None,space,8.73416430002544,459.66392369999085,None,B,lvluxi,23,f,2021_Dec_04_1709,untitled_groupA_k,2021.1.4,59.873104933557414,
45,picture\p06.tif,RB_right_01_42\RBY06.mp4,picture\p06.tif,0,7,7,44,,,,,,,468.4270561999874,469.4332082000037,469.417208800005,None,472.3221007999964,473.3314190999954,502.6220219999959,None,502.6220219999959,None,4.050000000000001,10.02225089998683,502.6220219999959,None,2.1333333333333337,8.569596799992723,502.6220219999959,None,6.175000000000001,4.4412532999995165,502.6220219999959,None,space,11.170642899989616,502.6220219999959,None,B,lvluxi,23,f,2021_Dec_04_1709,untitled_groupA_k,2021.1.4,59.873104933557414,
70,picture\p31.tif,BG_right_01_42\BGY31.mp4,picture\p31.tif,0,8,8,69,,,,,,,513.8371128999861,514.8410249000008,514.8249887999846,None,517.7330275999848,518.7397326999926,548.0365257999802,None,548.0365257999802,None,2.9527777777777784,10.980830199987395,548.0365257999802,None,2.9250000000000003,12.231689300009748,548.0365257999802,None,2.9250000000000003,13.401764400012325,548.0365257999802,None,space,13.887592599989148,548.0365257999802,None,B,lvluxi,23,f,2021_Dec_04_1709,untitled_groupA_k,2021.1.4,59.873104933557414,
14,picture\p14.tif,BR_left_01_42\BRZ14.mp4,picture\p14.tif,0,9,9,13,,,,,,,561.9615064999962,562.9648205999983,562.9493995999801,None,565.8339397999807,566.846916999988,596.1211280999996,None,596.1211280999996,None,1.188888888888889,5.870892300008563,596.1211280999996,None,4.091666666666667,15.85501710002427,596.1211280999996,None,3.022222222222222,13.475735899992287,596.1211280999996,None,space,16.879090600006748,596.1211280999996,None,B,lvluxi,23,f,2021_Dec_04_1709,untitled_groupA_k,2021.1.4,59.873104933557414,
38,picture\p38.tif,GR_left_01_42\GRZ38.mp4,picture\p38.tif,0,10,10,37,,,,,,,613.032401799981,614.038323899993,614.0223648999818,None,617.0209497000033,618.0209953000012,647.3273501999793,None,647.3273501999793,None,1.2722222222222226,3.1707969999988563,647.3273501999793,None,1.3277777777777784,9.809220900002401,647.3273501999793,None,3.022222222222222,15.87387100001797,647.3273501999793,None,space,16.592750399984652,647.3273501999793,None,B,lvluxi,23,f,2021_Dec_04_1709,untitled_groupA_k,2021.1.4,59.873104933557414,
8,picture\p08.tif,BR_left_01_42\BRZ08.mp4,picture\p08.tif,0,11,11,7,,,,,,,663.9573109000048,664.9615234999801,664.9447774,None,667.8294531999854,668.8458834000048,698.1344498999824,None,698.1344498999824,None,3.1750000000000003,26.103024499985622,698.1344498999824,None,7,6.770599000010407,698.1344498999824,None,3.2861111111111114,22.93687769997632,698.1344498999824,None,space,27.416047999984585,698.1344498999824,None,B,lvluxi,23,f,2021_Dec_04_1709,untitled_groupA_k,2021.1.4,59.873104933557414,
3,picture\p03.tif,BR_left_01_42\BRZ03.mp4,picture\p03.tif,0,12,12,2,,,,,,,725.577852699993,726.583413299988,726.5683509999944,None,729.887230399996,730.8985055999947,760.1888947999978,None,760.1888947999978,None,4.0777777777777775,10.886430800019298,760.1888947999978,None,6.952777777777778,7.986883000005037,760.1888947999978,None,1.9944444444444445,13.108267899981001,760.1888947999978,None,space,14.06934800001909,760.1888947999978,None,B,lvluxi,23,f,2021_Dec_04_1709,untitled_groupA_k,2021.1.4,59.873104933557414,
16,picture\p16.tif,GB_left_01_42\GBZ16.mp4,picture\p16.tif,0,13,13,15,,,,,,,774.3019932000025,775.3079948999803,775.2916620000033,None,778.2614796999842,779.2714332999894,808.5651000999787,None,808.5651000999787,None,2.938888888888889,7.718865700007882,808.5651000999787,None,3.022222222222222,9.65307080000639,808.5651000999787,None,4.050000000000001,13.040365200024098,808.5651000999787,None,space,13.813841099996353,808.5651000999787,None,B,lvluxi,23,f,2021_Dec_04_1709,untitled_groupA_k,2021.1.4,59.873104933557414,
69,picture\p30.tif,BG_right_01_42\BGY30.mp4,picture\p30.tif,0,14,14,68,,,,,,,822.4099483999889,823.4140366999782,823.3969536999939,None,826.3166005999956,827.3301526999858,856.6029559999879,None,856.6029559999879,None,3.1750000000000003,11.038149800006067,856.6029559999879,None,3.2861111111111114,12.235781200026395,856.6029559999879,None,3.0361111111111114,14.106089899985818,856.6029559999879,None,space,14.552209899993613,856.6029559999879,None,B,lvluxi,23,f,2021_Dec_04_1709,untitled_groupA_k,2021.1.4,59.873104933557414,
6,picture\p06.tif,BR_left_01_42\BRZ06.mp4,picture\p06.tif,0,15,15,5,,,,,,,871.2107047000027,872.2211520999845,872.2064903999853,None,875.1227254999976,876.136499699991,905.4294098999817,None,905.4294098999817,None,7,5.317796300019836,905.4294098999817,None,4.022222222222222,10.539067900012014,905.4294098999817,None,6.9944444444444445,7.0215414999984205,905.4294098999817,None,space,11.175153399992269,905.4294098999817,None,B,lvluxi,23,f,2021_Dec_04_1709,untitled_groupA_k,2021.1.4,59.873104933557414,
67,picture\p28.tif,BG_right_01_42\BGY28.mp4,picture\p28.tif,0,16,16,66,,,,,,,916.6422544999805,917.6458392000059,917.6297128000006,None,920.5467626999889,921.5618409999879,950.8520804999862,None,950.8520804999862,None,4.091666666666667,7.570560300024226,950.8520804999862,None,3.9111111111111114,9.187659999995958,950.8520804999862,None,3.9666666666666677,10.496550300013041,950.8520804999862,None,space,11.14967469999101,950.8520804999862,None,B,lvluxi,23,f,2021_Dec_04_1709,untitled_groupA_k,2021.1.4,59.873104933557414,
81,picture\p42.tif,RG_right_01_42\RGY42.mp4,picture\p42.tif,0,17,17,80,,,,,,,962.0322613999888,963.0367899999837,963.0212193999905,None,965.9530813999882,966.9687566999928,996.2595302999835,None,996.2595302999835,None,3.9944444444444445,13.40503809999791,996.2595302999835,None,1,3.436369000002742,996.2595302999835,None,6.1194444444444445,8.490244200016605,996.2595302999835,None,space,13.858741100004409,996.2595302999835,None,B,lvluxi,23,f,2021_Dec_04_1709,untitled_groupA_k,2021.1.4,59.873104933557414,
20,picture\p20.tif,GB_left_01_42\GBZ20.mp4,picture\p20.tif,0,18,18,19,,,,,,,1010.156275699992,1011.1607680000016,1011.1449184999801,None,1014.0298073999875,1015.0431753000012,1044.338261099998,None,1044.338261099998,None,2.855555555555556,14.10923480000929,1044.338261099998,None,2.9527777777777784,7.785456400015391,1044.338261099998,None,2.8972222222222226,10.470787499973085,1044.338261099998,None,space,15.33370640000794,1044.338261099998,None,B,lvluxi,23,f,2021_Dec_04_1709,untitled_groupA_k,2021.1.4,59.873104933557414,
68,picture\p29.tif,BG_right_01_42\BGY29.mp4,picture\p29.tif,0,19,19,67,,,,,,,1059.7001784000022,1060.6998942999926,1060.6832831999927,None,1063.9885877000052,1064.9988714999927,1094.290891599987,None,1094.290891599987,None,3.8694444444444445,15.778878900018753,1094.290891599987,None,3.897222222222222,13.870478400000138,1094.290891599987,None,3.8694444444444445,11.940296800021315,1094.290891599987,None,space,16.28895659997943,1094.290891599987,None,B,lvluxi,23,f,2021_Dec_04_1709,untitled_groupA_k,2021.1.4,59.873104933557414,
2,picture\p02.tif,BR_left_01_42\BRZ02.mp4,picture\p02.tif,0,20,20,1,,,,,,,1110.6096684999939,1111.6081409000035,1111.5938225999998,None,1114.490182599984,1115.49063439999,1144.7996261999942,None,1144.7996261999942,None,1.0777777777777784,25.465122400026303,1144.7996261999942,None,2.0222222222222226,22.670501999993576,1144.7996261999942,None,7,11.10611950000748,1144.7996261999942,None,space,29.54808760000742,1144.7996261999942,None,B,lvluxi,23,f,2021_Dec_04_1709,untitled_groupA_k,2021.1.4,59.873104933557414,
5,picture\p05.tif,BR_left_01_42\BRZ05.mp4,picture\p05.tif,0,21,21,4,,,,,,,1174.3910914000007,1175.3956041999918,1175.3791515000048,None,1178.2856228000019,1179.2932180999778,1208.5695346999855,None,1208.5695346999855,None,4.105555555555556,10.453529299993534,1208.5695346999855,None,5.938888888888889,8.286076799995499,1208.5695346999855,None,7,4.537961900001392,1208.5695346999855,None,space,12.474471800000174,1208.5695346999855,None,B,lvluxi,23,f,2021_Dec_04_1709,untitled_groupA_k,2021.1.4,59.873104933557414,
55,picture\p16.tif,RB_right_01_42\RBY16.mp4,picture\p16.tif,0,22,22,54,,,,,,,1221.0812841999868,1222.0864238999784,1222.070315399993,None,1225.019238799985,1226.018929999991,1255.3255728999793,None,1255.3255728999793,None,3.077777777777778,15.570783900009701,1255.3255728999793,None,4.008333333333334,11.354056899988791,1255.3255728999793,None,6.036111111111111,7.17524240000057,1255.3255728999793,None,space,16.010554599983152,1255.3255728999793,None,B,lvluxi,23,f,2021_Dec_04_1709,untitled_groupA_k,2021.1.4,59.873104933557414,
48,picture\p09.tif,RB_right_01_42\RBY09.mp4,picture\p09.tif,0,23,23,47,,,,,,,1271.372010799998,1272.3765743999975,1272.3609002000012,None,1275.2715927999816,1276.2750338999904,1305.5659075999865,None,1305.5659075999865,None,3.0361111111111114,10.73671710002236,1305.5659075999865,None,5.0777777777777775,6.069891399994958,1305.5659075999865,None,3.0916666666666672,13.793150699988473,1305.5659075999865,None,space,14.265460599999642,1305.5659075999865,None,B,lvluxi,23,f,2021_Dec_04_1709,untitled_groupA_k,2021.1.4,59.873104933557414,
49,picture\p10.tif,RB_right_01_42\RBY10.mp4,picture\p10.tif,0,24,24,48,,,,,,,1319.8624713000027,1320.8663805999968,1320.8493432999821,None,1323.8109123999893,1324.815075099992,1354.1066761999973,None,1354.1066761999973,None,2.8694444444444445,19.250736999994842,1354.1066761999973,None,6.063888888888888,11.903806799993617,1354.1066761999973,None,1.119444444444445,4.47243970001,1354.1066761999973,None,space,19.915411099995254,1354.1066761999973,None,B,lvluxi,23,f,2021_Dec_04_1709,untitled_groupA_k,2021.1.4,59.873104933557414,
59,picture\p20.tif,BG_right_01_42\BGY20.mp4,picture\p20.tif,0,25,25,58,,,,,,,1374.053774400003,1375.0565470999863,1375.040646599984,None,1378.3630354999914,1379.3723941999779,1408.6630764000001,None,1408.6630764000001,None,5.1194444444444445,5.002733100001933,1408.6630764000001,None,3.980555555555555,7.152804200013634,1408.6630764000001,None,3.980555555555555,8.855888799997047,1408.6630764000001,None,space,9.349419200007105,1408.6630764000001,None,B,lvluxi,23,f,2021_Dec_04_1709,untitled_groupA_k,2021.1.4,59.873104933557414,
44,picture\p05.tif,RB_right_01_42\RBY05.mp4,picture\p05.tif,0,26,26,43,,,,,,,1418.0417299999972,1419.047882999992,1419.0169151999871,None,1421.929439999978,1422.9299417999864,1452.2377916999976,None,1452.2377916999976,None,3.897222222222222,16.319393600017065,1452.2377916999976,None,5.008333333333334,11.768595600005938,1452.2377916999976,None,7,2.875428200000897,1452.2377916999976,None,space,16.762553700013086,1452.2377916999976,None,B,lvluxi,23,f,2021_Dec_04_1709,untitled_groupA_k,2021.1.4,59.873104933557414,
36,picture\p36.tif,GR_left_01_42\GRZ36.mp4,picture\p36.tif,0,27,27,35,,,,,,,1469.032168100006,1470.0375076000055,1470.0206247000024,None,1472.9356611999974,1473.9373583999986,1503.2448039999872,None,1503.2448039999872,None,4.911111111111111,10.202298200019868,1503.2448039999872,None,1.9666666666666668,6.337742799980333,1503.2448039999872,None,4.022222222222222,4.636156100023072,1503.2448039999872,None,space,10.753049600025406,1503.2448039999872,None,B,lvluxi,23,f,2021_Dec_04_1709,untitled_groupA_k,2021.1.4,59.873104933557414,
65,picture\p26.tif,BG_right_01_42\BGY26.mp4,picture\p26.tif,0,28,28,64,,,,,,,1514.04147679999,1515.046435700002,1515.0325923999771,None,1517.927309599996,1518.9281397000013,1548.2364817000052,None,1548.2364817000052,None,3.8833333333333333,10.134365500009153,1548.2364817000052,None,4.036111111111111,11.686636800004635,1548.2364817000052,None,4.175,13.006145999999717,1548.2364817000052,None,space,13.432372499984922,1548.2364817000052,None,B,lvluxi,23,f,2021_Dec_04_1709,untitled_groupA_k,2021.1.4,59.873104933557414,
72,picture\p33.tif,RG_right_01_42\RGY33.mp4,picture\p33.tif,0,29,29,71,,,,,,,1561.6983456999878,1562.7026821000036,1562.6871979999996,None,1565.600483599992,1566.601690999989,1595.9094634999929,None,1595.9094634999929,None,3.1472222222222226,20.253307000006316,1595.9094634999929,None,2.0777777777777784,11.836025199998403,1595.9094634999929,None,3.1472222222222226,22.48799880000297,1595.9094634999929,None,space,26.31211440000334,1595.9094634999929,None,B,lvluxi,23,f,2021_Dec_04_1709,untitled_groupA_k,2021.1.4,59.873104933557414,
23,picture\p23.tif,GB_left_01_42\GBZ23.mp4,picture\p23.tif,0,30,30,22,,,,,,,1622.2528160999937,1623.2568814999831,1623.2402578000037,None,1626.1202157999796,1627.1244493999984,1656.4168553999916,None,1656.4168553999916,None,3.0638888888888887,18.1070831999823,1656.4168553999916,None,3.0361111111111114,15.16938599999412,1656.4168553999916,None,2.9250000000000003,11.873405899998033,1656.4168553999916,None,space,19.054427600000054,1656.4168553999916,None,B,lvluxi,23,f,2021_Dec_04_1709,untitled_groupA_k,2021.1.4,59.873104933557414,
34,picture\p34.tif,GR_left_01_42\GRZ34.mp4,picture\p34.tif,0,31,31,33,,,,,,,1675.515277700004,1676.5142561999965,1676.498535199993,None,1679.8833445999771,1680.8963413999882,1710.1923318000045,None,1710.1923318000045,None,1.1333333333333333,3.7195661999867298,1710.1923318000045,None,2.063888888888889,6.75121789998957,1710.1923318000045,None,3.0361111111111114,8.838273300003493,1710.1923318000045,None,space,9.432217399997171,1710.1923318000045,None,B,lvluxi,23,f,2021_Dec_04_1709,untitled_groupA_k,2021.1.4,59.873104933557414,
32,picture\p32.tif,GR_left_01_42\GRZ32.mp4,picture\p32.tif,0,32,32,31,,,,,,,1719.6648704999825,1720.6724136999983,1720.6724136999983,None,1723.6034626000037,1724.603904699994,1753.9135370999866,None,1753.9135370999866,None,3.1472222222222226,6.551850799995009,1753.9135370999866,None,1.9944444444444445,5.336750499991467,1753.9135370999866,None,5.091666666666667,8.237017600011313,1753.9135370999866,None,space,11.333621500001755,1753.9135370999866,None,B,lvluxi,23,f,2021_Dec_04_1709,untitled_groupA_k,2021.1.4,59.873104933557414,
74,picture\p35.tif,RG_right_01_42\RGY35.mp4,picture\p35.tif,0,33,33,73,,,,,,,1765.2755432999984,1766.2802454000048,1766.264225299994,None,1769.1854253999772,1770.196333400003,1799.486431199999,None,1799.486431199999,None,2.1055555555555556,11.687106500001391,1799.486431199999,None,2.0222222222222226,10.237147400010144,1799.486431199999,None,1.0361111111111112,8.086090099997818,1799.486431199999,None,space,14.852009399997769,1799.486431199999,None,B,lvluxi,23,f,2021_Dec_04_1709,untitled_groupA_k,2021.1.4,59.873104933557414,
76,picture\p37.tif,RG_right_01_42\RGY37.mp4,picture\p37.tif,0,34,34,75,,,,,,,1814.3819528000022,1815.3893878999806,1815.371696199989,None,1818.3316565999994,1819.3361049999949,1848.6274525999906,None,1848.6274525999906,None,1,12.251354400010314,1848.6274525999906,None,1.022222222222223,18.7162387999997,1848.6274525999906,None,2.05,20.371081300021615,1848.6274525999906,None,space,21.034715600020718,1848.6274525999906,None,B,lvluxi,23,f,2021_Dec_04_1709,untitled_groupA_k,2021.1.4,59.873104933557414,
54,picture\p15.tif,RB_right_01_42\RBY15.mp4,picture\p15.tif,0,35,35,53,,,,,,,1869.694673799997,1870.7098960999865,1870.693831099983,None,1874.080008399993,1875.091806899989,1904.3694647999946,None,1904.3694647999946,None,6.688888888888889,10.250183600001037,1904.3694647999946,None,5.0777777777777775,16.548732800001744,1904.3694647999946,None,6.05,12.405406200006837,1904.3694647999946,None,space,17.024162600020645,1904.3694647999946,None,B,lvluxi,23,f,2021_Dec_04_1709,untitled_groupA_k,2021.1.4,59.873104933557414,
22,picture\p22.tif,GB_left_01_42\GBZ22.mp4,picture\p22.tif,0,36,36,21,,,,,,,1921.4274729999888,1922.4328952999786,1922.4172359999793,None,1925.2952677999856,1926.2995024999836,1955.5892632000032,None,1955.5892632000032,None,2.0222222222222226,11.95113910001237,1955.5892632000032,None,1.980555555555556,16.303269399999408,1955.5892632000032,None,1.9666666666666668,20.376026600017212,1955.5892632000032,None,space,21.209976900019683,1955.5892632000032,None,B,lvluxi,23,f,2021_Dec_04_1709,untitled_groupA_k,2021.1.4,59.873104933557414,
80,picture\p41.tif,RG_right_01_42\RGY41.mp4,picture\p41.tif,0,37,37,79,,,,,,,1976.833995699999,1977.8383275999804,1977.8215257999836,None,1981.162511500006,1982.170577199984,2011.4617590999987,None,2011.4617590999987,None,2.0361111111111114,13.75123110000277,2011.4617590999987,None,6.05,17.73912119999295,2011.4617590999987,None,4.050000000000001,24.086385000002338,2011.4617590999987,None,space,24.567486600019038,2011.4617590999987,None,B,lvluxi,23,f,2021_Dec_04_1709,untitled_groupA_k,2021.1.4,59.873104933557414,
25,picture\p25.tif,GB_left_01_42\GBZ25.mp4,picture\p25.tif,0,38,38,24,,,,,,,2036.0728641999885,2037.0796697000042,2037.0617655999959,None,2040.0265615999815,2041.0272439999972,2070.3331883999927,None,2070.3331883999927,None,2.9805555555555556,13.96903890001704,2070.3331883999927,None,2.994444444444445,11.910773699986748,2070.3331883999927,None,2.9250000000000003,10.055417399998987,2070.3331883999927,None,space,14.550366500014206,2070.3331883999927,None,B,lvluxi,23,f,2021_Dec_04_1709,untitled_groupA_k,2021.1.4,59.873104933557414,
63,picture\p24.tif,BG_right_01_42\BGY24.mp4,picture\p24.tif,0,39,39,62,,,,,,,2084.913198800001,2085.918109499995,2085.9030467999983,None,2088.8229917999997,2089.832610399986,2119.126669899997,None,2119.126669899997,None,2.9805555555555556,4.9690896999964025,2119.126669899997,None,3.022222222222222,7.286691699991934,2119.126669899997,None,2.9250000000000003,9.506752199988114,2119.126669899997,None,space,16.581766100018285,2119.126669899997,None,B,lvluxi,23,f,2021_Dec_04_1709,untitled_groupA_k,2021.1.4,59.873104933557414,
56,picture\p17.tif,RB_right_01_42\RBY17.mp4,picture\p17.tif,0,40,40,55,,,,,,,2135.753440100001,2136.759331999987,2136.742858999991,None,2139.6352870999835,2140.6400590999983,2169.931041899981,None,2169.931041899981,None,4.008333333333334,9.053476200002478,2169.931041899981,None,2.994444444444445,10.455735099996673,2169.931041899981,None,6.1194444444444445,4.803940500016324,2169.931041899981,None,space,10.825754199991934,2169.931041899981,None,B,lvluxi,23,f,2021_Dec_04_1709,untitled_groupA_k,2021.1.4,59.873104933557414,
64,picture\p25.tif,BG_right_01_42\BGY25.mp4,picture\p25.tif,0,41,41,63,,,,,,,2180.795018499979,2181.7984809000045,2181.7810693999927,None,2184.7176579999796,2185.7312321999925,2215.0222174999944,None,2215.0222174999944,None,2.9527777777777784,5.169973499985645,2215.0222174999944,None,3.0500000000000007,6.854849600000307,2215.0222174999944,None,3.0638888888888887,8.14237879999564,2215.0222174999944,None,space,10.096055400004843,2215.0222174999944,None,B,lvluxi,23,f,2021_Dec_04_1709,untitled_groupA_k,2021.1.4,59.873104933557414,
52,picture\p13.tif,RB_right_01_42\RBY13.mp4,picture\p13.tif,0,42,42,51,,,,,,,2225.15182129998,2226.157145699981,2226.141356499982,None,2229.026895399991,2230.040060600004,2259.3287074999826,None,2259.3287074999826,None,7,7.523267100012163,2259.3287074999826,None,6.063888888888888,9.673220099997707,2259.3287074999826,None,7,4.44212290001451,2259.3287074999826,None,space,10.351331499987282,2259.3287074999826,None,B,lvluxi,23,f,2021_Dec_04_1709,untitled_groupA_k,2021.1.4,59.873104933557414,
21,picture\p21.tif,GB_left_01_42\GBZ21.mp4,picture\p21.tif,0,43,43,20,,,,,,,2269.7103689999785,2270.7147594999988,2270.6984618999995,None,2273.6562019999838,2274.6648525999917,2303.95339889999,None,2303.95339889999,None,2.2027777777777775,3.6385465000057593,2303.95339889999,None,2.286111111111112,5.039934600004926,2303.95339889999,None,2.230555555555556,6.769128799991449,2303.95339889999,None,space,7.139420199993765,2303.95339889999,None,B,lvluxi,23,f,2021_Dec_04_1709,untitled_groupA_k,2021.1.4,59.873104933557414,
62,picture\p23.tif,BG_right_01_42\BGY23.mp4,picture\p23.tif,0,44,44,61,,,,,,,2311.132766499999,2312.139348900004,2312.139348900004,None,2315.4527677999868,2316.4556247,2345.785977199994,None,2345.785977199994,None,3.0361111111111114,16.439955299982103,2345.785977199994,None,3.0500000000000007,17.75492010000744,2345.785977199994,None,3.1333333333333337,19.242209500022,2345.785977199994,None,space,19.762973400007468,2345.785977199994,None,B,lvluxi,23,f,2021_Dec_04_1709,untitled_groupA_k,2021.1.4,59.873104933557414,
4,picture\p04.tif,BR_left_01_42\BRZ04.mp4,picture\p04.tif,0,45,45,3,,,,,,,2365.6064977999777,2366.613178700005,2366.5969761000015,None,2369.521514399996,2370.528517700004,2399.8196801999875,None,2399.8196801999875,None,7,6.435532399977092,2399.8196801999875,None,5.091666666666667,11.905825199995888,2399.8196801999875,None,6.036111111111111,8.540149699983886,2399.8196801999875,None,space,12.350984599994263,2399.8196801999875,None,B,lvluxi,23,f,2021_Dec_04_1709,untitled_groupA_k,2021.1.4,59.873104933557414,
29,picture\p29.tif,GR_left_01_42\GRZ29.mp4,picture\p29.tif,0,46,46,28,,,,,,,2412.1999153999786,2413.205249599996,2413.18847199998,None,2416.148356599995,2417.1532276999787,2446.4448562999896,None,2446.4448562999896,None,4.008333333333334,7.253587499988498,2446.4448562999896,None,4.966666666666667,10.387996900011785,2446.4448562999896,None,5.0777777777777775,11.504258800006937,2446.4448562999896,None,space,11.931904800003394,2446.4448562999896,None,B,lvluxi,23,f,2021_Dec_04_1709,untitled_groupA_k,2021.1.4,59.873104933557414,
58,picture\p19.tif,BG_right_01_42\BGY19.mp4,picture\p19.tif,0,47,47,57,,,,,,,2458.4073190999916,2459.4116831999854,2459.395683599985,None,2462.2629498000024,2463.2781507000036,2492.5518692999904,None,2492.5518692999904,None,2.147222222222222,6.1884086999925785,2492.5518692999904,None,2.147222222222222,7.539347999991151,2492.5518692999904,None,2.2722222222222226,8.925084699993022,2492.5518692999904,None,space,9.36127480000141,2492.5518692999904,None,B,lvluxi,23,f,2021_Dec_04_1709,untitled_groupA_k,2021.1.4,59.873104933557414,
15,picture\p15.tif,GB_left_01_42\GBZ15.mp4,picture\p15.tif,0,48,48,14,,,,,,,2501.9443686000013,2502.953058999992,2502.9214333999844,None,2505.8186099999875,2506.835189299978,2536.124964799994,None,2536.124964799994,None,6.216666666666667,2.9882098000089172,2536.124964799994,None,6.022222222222222,4.658059999987017,2536.124964799994,None,6.175000000000001,6.075460199994268,2536.124964799994,None,space,6.4381418999983,2536.124964799994,None,B,lvluxi,23,f,2021_Dec_04_1709,untitled_groupA_k,2021.1.4,59.873104933557414,
9,picture\p09.tif,BR_left_01_42\BRZ09.mp4,picture\p09.tif,0,49,49,8,,,,,,,2542.589476699999,2543.593947699992,2543.57791729999,None,2546.457942499983,2547.4604584999906,2576.753729399992,None,2576.753729399992,None,1.9388888888888896,6.235771699983161,2576.753729399992,None,4.966666666666667,4.452510400005849,2576.753729399992,None,1.202777777777778,8.141562100005103,2576.753729399992,None,space,8.516169800015632,2576.753729399992,None,B,lvluxi,23,f,2021_Dec_04_1709,untitled_groupA_k,2021.1.4,59.873104933557414,
18,picture\p18.tif,GB_left_01_42\GBZ18.mp4,picture\p18.tif,0,50,50,17,,,,,,,2585.2975971999986,2586.303643399995,2586.2872886999976,None,2589.1869314999785,2590.202506200003,2619.492566400004,None,2619.492566400004,None,3.0638888888888887,7.4532191999896895,2619.492566400004,None,3.022222222222222,8.953344799985643,2619.492566400004,None,2.994444444444445,11.124773799994728,2619.492566400004,None,space,11.51779089999036,2619.492566400004,None,B,lvluxi,23,f,2021_Dec_04_1709,untitled_groupA_k,2021.1.4,59.873104933557414,
17,picture\p17.tif,GB_left_01_42\GBZ17.mp4,picture\p17.tif,0,51,51,16,,,,,,,2631.0399423000054,2632.0447248999844,2632.028363499994,None,2635.3372361999936,2636.3432126999833,2665.6318241999834,None,2665.6318241999834,None,3.0500000000000007,5.175396200007526,2665.6318241999834,None,3.077777777777778,6.573370500002056,2665.6318241999834,None,3.022222222222222,8.124416000006022,2665.6318241999834,None,space,8.54478869997547,2665.6318241999834,None,B,lvluxi,23,f,2021_Dec_04_1709,untitled_groupA_k,2021.1.4,59.873104933557414,
28,picture\p28.tif,GB_left_01_42\GBZ28.mp4,picture\p28.tif,0,52,52,27,,,,,,,2674.2128223000036,2675.219201,2675.219201,None,2678.180967799999,2679.1847560000024,2708.4788040999847,None,2708.4788040999847,None,2.855555555555556,9.150527800025884,2708.4788040999847,None,4.050000000000001,10.652668099995935,2708.4788040999847,None,4.063888888888889,12.002790500002448,2708.4788040999847,None,space,12.705604299990227,2708.4788040999847,None,B,lvluxi,23,f,2021_Dec_04_1709,untitled_groupA_k,2021.1.4,59.873104933557414,
66,picture\p27.tif,BG_right_01_42\BGY27.mp4,picture\p27.tif,0,53,53,65,,,,,,,2721.2242253999866,2722.2270481000014,2722.2111771999917,None,2725.1339748000028,2726.1432190999913,2755.432301599998,None,2755.432301599998,None,2.8833333333333337,9.244176500011235,2755.432301599998,None,3.925,12.66994419999537,2755.432301599998,None,2.9805555555555556,14.425265600002604,2755.432301599998,None,space,14.787068100005854,2755.432301599998,None,B,lvluxi,23,f,2021_Dec_04_1709,untitled_groupA_k,2021.1.4,59.873104933557414,
40,picture\p40.tif,GR_left_01_42\GRZ40.mp4,picture\p40.tif,0,54,54,39,,,,,,,2770.262607499986,2771.26889029998,2771.2526839000056,None,2774.2416235999845,2775.2500914999982,2804.545639499993,None,2804.545639499993,None,2.0083333333333333,20.16443619999336,2804.545639499993,None,1.952777777777778,6.797825200017542,2804.545639499993,None,2.994444444444445,17.39213930000551,2804.545639499993,None,space,21.61005740001565,2804.545639499993,None,B,lvluxi,23,f,2021_Dec_04_1709,untitled_groupA_k,2021.1.4,59.873104933557414,
11,picture\p11.tif,BR_left_01_42\BRZ11.mp4,picture\p11.tif,0,55,55,10,,,,,,,2826.185421400005,2827.190193699993,2827.1739749999833,None,2830.098775099992,2831.1052134000056,2860.39727039999,None,2860.39727039999,None,5.0777777777777775,7.420266100001754,2860.39727039999,None,6.063888888888888,8.987665699998615,2860.39727039999,None,5.050000000000001,15.758241200004704,2860.39727039999,None,space,16.382439299981343,2860.39727039999,None,B,lvluxi,23,f,2021_Dec_04_1709,untitled_groupA_k,2021.1.4,59.873104933557414,
26,picture\p26.tif,GB_left_01_42\GBZ26.mp4,picture\p26.tif,0,56,56,25,,,,,,,2876.8078268999816,2877.8132739999855,2877.797857400001,None,2880.6889235999843,2881.696179199993,2910.9872052999854,None,2910.9872052999854,None,2.0083333333333333,6.00570670000161,2910.9872052999854,None,1.9944444444444445,7.670167800009949,2910.9872052999854,None,2.0777777777777784,8.921331599995028,2910.9872052999854,None,space,10.04240249999566,2910.9872052999854,None,B,lvluxi,23,f,2021_Dec_04_1709,untitled_groupA_k,2021.1.4,59.873104933557414,
83,picture\p02.tif,RG_right_01_42\RGY02.mp4,picture\p02.tif,0,57,57,82,,,,,,,2921.063825099991,2922.0706284999906,2922.0538760999916,None,2925.0019316999824,2926.003156599996,2955.31108449999,None,2955.31108449999,None,4.938888888888889,6.985474799992517,2955.31108449999,None,3.9111111111111114,4.835828700015554,2955.31108449999,None,5.06388888888889,9.275812299980316,2955.31108449999,None,space,9.824484099983238,2955.31108449999,None,B,lvluxi,23,f,2021_Dec_04_1709,untitled_groupA_k,2021.1.4,59.873104933557414,
46,picture\p07.tif,RB_right_01_42\RBY07.mp4,picture\p07.tif,0,58,58,45,,,,,,,2965.174580199993,2966.1796271999774,2966.163027200004,None,2969.5065008999954,2970.5112226000056,2999.7978358999826,None,2999.7978358999826,None,6.147222222222222,5.240778199979104,2999.7978358999826,None,4.0777777777777775,7.1935158999986015,2999.7978358999826,None,7,3.3287626999954227,2999.7978358999826,None,space,7.624898699985351,2999.7978358999826,None,B,lvluxi,23,f,2021_Dec_04_1709,untitled_groupA_k,2021.1.4,59.873104933557414,
30,picture\p30.tif,GR_left_01_42\GRZ30.mp4,picture\p30.tif,0,59,59,29,,,,,,,3007.449878399988,3008.4544819000002,3008.4390098000003,None,3011.3319863999786,3012.336403299996,3041.626980699977,None,3041.626980699977,None,4.133333333333334,8.051262400025735,3041.626980699977,None,4.161111111111111,6.1894165000121575,3041.626980699977,None,2.0222222222222226,4.254485799989197,3041.626980699977,None,space,8.821807000000263,3041.626980699977,None,B,lvluxi,23,f,2021_Dec_04_1709,untitled_groupA_k,2021.1.4,59.873104933557414,
71,picture\p32.tif,RG_right_01_42\RGY32.mp4,picture\p32.tif,0,60,60,70,,,,,,,3050.4896469999803,3051.4965611999796,3051.480149699986,None,3054.396408600005,3055.4121312999923,3084.7019011999946,None,3084.7019011999946,None,4.9944444444444445,9.509844199987128,3084.7019011999946,None,2.1194444444444445,7.63560760000837,3084.7019011999946,None,2.0916666666666677,5.692043200018816,3084.7019011999946,None,space,9.89961459999904,3084.7019011999946,None,B,lvluxi,23,f,2021_Dec_04_1709,untitled_groupA_k,2021.1.4,59.873104933557414,
10,picture\p10.tif,BR_left_01_42\BRZ10.mp4,picture\p10.tif,0,61,61,9,,,,,,,3094.63069619998,3095.6375110999797,3095.6214591999887,None,3098.554637699999,3099.569568099978,3128.8605401999957,None,3128.8605401999957,None,4.966666666666667,20.616852999984985,3128.8605401999957,None,6.05,18.102153799991356,3128.8605401999957,None,3.0916666666666672,15.73884220002219,3128.8605401999957,None,space,21.125471600011224,3128.8605401999957,None,B,lvluxi,23,f,2021_Dec_04_1709,untitled_groupA_k,2021.1.4,59.873104933557414,
1,picture\p01.tif,BR_left_01_42\BRZ01.mp4,picture\p01.tif,0,62,62,0,,,,,,,3150.0222572999774,3151.026809599978,3151.0106633999967,None,3153.885586599994,3154.8920493999904,3184.185849100002,None,3184.185849100002,None,5.008333333333334,8.334115000005113,3184.185849100002,None,7,4.134521800006041,3184.185849100002,None,5.0777777777777775,11.20582239999203,3184.185849100002,None,space,11.561321700020926,3184.185849100002,None,B,lvluxi,23,f,2021_Dec_04_1709,untitled_groupA_k,2021.1.4,59.873104933557414,
75,picture\p36.tif,RG_right_01_42\RGY36.mp4,picture\p36.tif,0,63,63,74,,,,,,,3195.7815055999963,3196.7844537000055,3196.7686113999807,None,3199.6896560000023,3200.7004243999836,3229.9903724000033,None,3229.9903724000033,None,3.022222222222222,11.354383500001859,3229.9903724000033,None,3.161111111111111,9.956277399993269,3229.9903724000033,None,2.0916666666666677,7.2051669000065885,3229.9903724000033,None,space,11.87944069999503,3229.9903724000033,None,B,lvluxi,23,f,2021_Dec_04_1709,untitled_groupA_k,2021.1.4,59.873104933557414,
41,picture\p41.tif,GR_left_01_42\GRZ41.mp4,picture\p41.tif,0,64,64,40,,,,,,,3241.9044645999966,3242.90776609999,3242.8910456000012,None,3245.837683599995,3246.840824999992,3276.1300881999778,None,3276.1300881999778,None,2.1055555555555556,10.341215399996145,3276.1300881999778,None,6.175000000000001,5.4723917999945115,3276.1300881999778,None,6.022222222222222,7.090735699981451,3276.1300881999778,None,space,12.678339999984019,3276.1300881999778,None,B,lvluxi,23,f,2021_Dec_04_1709,untitled_groupA_k,2021.1.4,59.873104933557414,
51,picture\p12.tif,RB_right_01_42\RBY12.mp4,picture\p12.tif,0,65,65,50,,,,,,,3288.845472999994,3289.849700299994,3289.8336903000018,None,3293.170767399977,3294.1817149999843,3323.4727166999946,None,3323.4727166999946,None,4.980555555555556,7.3866382999985944,3323.4727166999946,None,3.9944444444444445,13.056255600007717,3323.4727166999946,None,4.036111111111111,9.424202599999262,3323.4727166999946,None,space,13.349224300007336,3323.4727166999946,None,B,lvluxi,23,f,2021_Dec_04_1709,untitled_groupA_k,2021.1.4,59.873104933557414,
53,picture\p14.tif,RB_right_01_42\RBY14.mp4,picture\p14.tif,0,66,66,52,,,,,,,3336.8538898999977,3337.858490899991,3337.84190259999,None,3340.770336699992,3341.7720425000007,3371.0794781000004,None,3371.0794781000004,None,6.008333333333334,9.087131100008264,3371.0794781000004,None,5.06388888888889,11.771690099994885,3371.0794781000004,None,6.8694444444444445,7.120919499982847,3371.0794781000004,None,space,12.727406399993924,3371.0794781000004,None,B,lvluxi,23,f,2021_Dec_04_1709,untitled_groupA_k,2021.1.4,59.873104933557414,
24,picture\p24.tif,GB_left_01_42\GBZ24.mp4,picture\p24.tif,0,67,67,23,,,,,,,3383.8428902000014,3384.8463517999917,3384.8297748999903,None,3387.781609800004,3388.7953693000018,3418.0871864999935,None,3418.0871864999935,None,2.0083333333333333,3.253729599993676,3418.0871864999935,None,2.1055555555555556,4.522271800000453,3418.0871864999935,None,2.1611111111111114,5.823482099978719,3418.0871864999935,None,space,6.200808200024767,3418.0871864999935,None,B,lvluxi,23,f,2021_Dec_04_1709,untitled_groupA_k,2021.1.4,59.873104933557414,
84,picture\p03.tif,RG_right_01_42\RGY03.mp4,picture\p03.tif,0,68,68,83,,,,,,,3424.316283799999,3425.323526799999,3425.306573399983,None,3428.2343184999772,3429.238335799979,3458.5283227000036,None,3458.5283227000036,None,6.8694444444444445,11.51969280000776,3458.5283227000036,None,6.091666666666667,13.376145500020357,3458.5283227000036,None,4.9944444444444445,8.474432600021828,3458.5283227000036,None,space,13.763739600020926,3458.5283227000036,None,B,lvluxi,23,f,2021_Dec_04_1709,untitled_groupA_k,2021.1.4,59.873104933557414,
77,picture\p38.tif,RG_right_01_42\RGY38.mp4,picture\p38.tif,0,69,69,76,,,,,,,3472.3267111000023,3473.3309536000015,3473.3145844999817,None,3476.2849610999983,3477.295132200001,3506.5610346999892,None,3506.5610346999892,None,1.1611111111111114,3.4302104999951553,3506.5610346999892,None,1.9666666666666668,5.097971999988658,3506.5610346999892,None,2.0083333333333333,6.167155300005106,3506.5610346999892,None,space,6.389751699985936,3506.5610346999892,None,B,lvluxi,23,f,2021_Dec_04_1709,untitled_groupA_k,2021.1.4,59.873104933557414,
27,picture\p27.tif,GB_left_01_42\GBZ27.mp4,picture\p27.tif,0,70,70,26,,,,,,,3512.9830527000013,3513.989397700003,3513.9716363000043,None,3516.864980299986,3517.871232299978,3547.1617589999805,None,3547.1617589999805,None,3.9111111111111114,8.235006600007182,3547.1617589999805,None,3.980555555555555,9.65295970000443,3547.1617589999805,None,4.119444444444445,10.85851379999076,3547.1617589999805,None,space,11.195590099989204,3547.1617589999805,None,B,lvluxi,23,f,2021_Dec_04_1709,untitled_groupA_k,2021.1.4,59.873104933557414,
79,picture\p40.tif,RG_right_01_42\RGY40.mp4,picture\p40.tif,0,71,71,78,,,,,,,3558.394098299992,3559.396563599992,3559.379654999997,None,3562.2821971999947,3563.2965556999843,3592.586601499992,None,3592.586601499992,None,1.952777777777778,5.436442300007911,3592.586601499992,None,1.8833333333333337,7.489522099989699,3592.586601499992,None,3.980555555555555,10.99051309999777,3592.586601499992,None,space,11.33127950000926,3592.586601499992,None,B,lvluxi,23,f,2021_Dec_04_1709,untitled_groupA_k,2021.1.4,59.873104933557414,
39,picture\p39.tif,GR_left_01_42\GRZ39.mp4,picture\p39.tif,0,72,72,38,,,,,,,3603.9492175999912,3604.95469839999,3604.939037300006,None,3608.290686399996,3609.303276699997,3638.5773140999954,None,3638.5773140999954,None,2.1055555555555556,14.37174099998083,3638.5773140999954,None,2.966666666666667,11.805290600023,3638.5773140999954,None,4.063888888888889,16.09149290001369,3638.5773140999954,None,space,16.614163099991856,3638.5773140999954,None,B,lvluxi,23,f,2021_Dec_04_1709,untitled_groupA_k,2021.1.4,59.873104933557414,
7,picture\p07.tif,BR_left_01_42\BRZ07.mp4,picture\p07.tif,0,73,73,6,,,,,,,3655.224352499994,3656.228169499984,3656.212246899988,None,3659.1060696999775,3660.110418600001,3689.4059760999808,None,3689.4059760999808,None,4.883333333333334,4.605628499994054,3689.4059760999808,None,4.050000000000001,9.587300599989248,3689.4059760999808,None,5.952777777777778,6.5717812000075355,3689.4059760999808,None,space,9.933323899982497,3689.4059760999808,None,B,lvluxi,23,f,2021_Dec_04_1709,untitled_groupA_k,2021.1.4,59.873104933557414,
78,picture\p39.tif,RG_right_01_42\RGY39.mp4,picture\p39.tif,0,74,74,77,,,,,,,3699.36231289999,3700.3717443999776,3700.354651600006,None,3703.72782629999,3704.7340476999816,3734.0312397999805,None,3734.0312397999805,None,1.9388888888888896,8.8857343000127,3734.0312397999805,None,2.9527777777777784,6.13254700001562,3734.0312397999805,None,4.050000000000001,12.436126399989007,3734.0312397999805,None,space,12.806824500003131,3734.0312397999805,None,B,lvluxi,23,f,2021_Dec_04_1709,untitled_groupA_k,2021.1.4,59.873104933557414,
31,picture\p31.tif,GR_left_01_42\GRZ31.mp4,picture\p31.tif,0,75,75,30,,,,,,,3746.8747373999795,3747.876964700001,3747.8613501999935,None,3750.7662455999816,3751.7754739999946,3781.0656801000005,None,3781.0656801000005,None,4.036111111111111,12.20561030000681,3781.0656801000005,None,2.9527777777777784,5.5036840999964625,3781.0656801000005,None,3.925,10.791098299989244,3781.0656801000005,None,space,12.412985999981174,3781.0656801000005,None,B,lvluxi,23,f,2021_Dec_04_1709,untitled_groupA_k,2021.1.4,59.873104933557414,
47,picture\p08.tif,RB_right_01_42\RBY08.mp4,picture\p08.tif,0,76,76,46,,,,,,,3793.5155219000007,3794.518054699991,3794.501921899995,None,3797.3980197999917,3798.3989933999837,3827.7094920999953,None,3827.7094920999953,None,3.980555555555555,9.434660900005838,3827.7094920999953,None,6.105555555555556,4.037661400012439,3827.7094920999953,None,5.008333333333334,6.072581399988849,3827.7094920999953,None,space,9.972857600019779,3827.7094920999953,None,B,lvluxi,23,f,2021_Dec_04_1709,untitled_groupA_k,2021.1.4,59.873104933557414,
60,picture\p21.tif,BG_right_01_42\BGY21.mp4,picture\p21.tif,0,77,77,59,,,,,,,3837.7190448000038,3838.7264512999973,3838.710348099994,None,3841.6680707999913,3842.6751640999864,3871.9545530999894,None,3871.9545530999894,None,2.994444444444445,4.96420760001638,3871.9545530999894,None,2.9527777777777784,6.199155700014671,3871.9545530999894,None,3.0083333333333333,7.267912399984198,3871.9545530999894,None,space,7.585935900016921,3871.9545530999894,None,B,lvluxi,23,f,2021_Dec_04_1709,untitled_groupA_k,2021.1.4,59.873104933557414,
82,picture\p01.tif,RG_right_01_42\RGY01.mp4,picture\p01.tif,0,78,78,81,,,,,,,3879.593890999997,3880.5999664999836,3880.585702799988,None,3883.4851190999907,3884.499500899983,3913.7919225999794,None,3913.7919225999794,None,4.9527777777777775,11.315699300001143,3913.7919225999794,None,6.091666666666667,7.137233599991305,3913.7919225999794,None,4.161111111111111,4.502947899978608,3913.7919225999794,None,space,11.800073299993528,3913.7919225999794,None,B,lvluxi,23,f,2021_Dec_04_1709,untitled_groupA_k,2021.1.4,59.873104933557414,
61,picture\p22.tif,BG_right_01_42\BGY22.mp4,picture\p22.tif,0,79,79,60,,,,,,,3925.6209953999787,3926.628244599997,3926.6097152,None,3929.958360299992,3930.9729798999906,3960.24731039998,None,3960.24731039998,None,2.1888888888888896,4.105844700010493,3960.24731039998,None,2.1333333333333337,6.355528000014601,3960.24731039998,None,2.147222222222222,7.5921956000092905,3960.24731039998,None,space,8.403553500014823,3960.24731039998,None,B,lvluxi,23,f,2021_Dec_04_1709,untitled_groupA_k,2021.1.4,59.873104933557414,
57,picture\p18.tif,BG_right_01_42\BGY18.mp4,picture\p18.tif,0,80,80,56,,,,,,,3968.6772803999775,3969.6828546999895,3969.669107199996,None,3972.587766099983,3973.599719299993,4002.872925899981,None,4002.872925899981,None,2.9111111111111114,6.7027782999794,4002.872925899981,None,3.0500000000000007,7.888029900001129,4002.872925899981,None,2.8972222222222226,11.308130999997957,4002.872925899981,None,space,11.821696800005157,4002.872925899981,None,B,lvluxi,23,f,2021_Dec_04_1709,untitled_groupA_k,2021.1.4,59.873104933557414,
50,picture\p11.tif,RB_right_01_42\RBY11.mp4,picture\p11.tif,0,81,81,49,,,,,,,4014.7361549999914,4015.7414407999895,4015.724711799994,None,4018.636900099984,4019.639514599985,4048.930791299994,None,4048.930791299994,None,3.9944444444444445,10.63540150001063,4048.930791299994,None,4.036111111111111,14.22068020000006,4048.930791299994,None,5.0777777777777775,15.722155499999644,4048.930791299994,None,space,16.145003699988592,4048.930791299994,None,B,lvluxi,23,f,2021_Dec_04_1709,untitled_groupA_k,2021.1.4,59.873104933557414,
33,picture\p33.tif,GR_left_01_42\GRZ33.mp4,picture\p33.tif,0,82,82,32,,,,,,,4065.11028969998,4066.1148608999792,4066.0998738000053,None,4069.070131399989,4070.0808700000052,4099.371925799991,None,4099.371925799991,None,4.0777777777777775,6.054182599997148,4099.371925799991,None,2.1055555555555556,4.056556800001999,4099.371925799991,None,2.0083333333333333,7.4227046000014525,4099.371925799991,None,space,7.790484299999662,4099.371925799991,None,B,lvluxi,23,f,2021_Dec_04_1709,untitled_groupA_k,2021.1.4,59.873104933557414,
73,picture\p34.tif,RG_right_01_42\RGY34.mp4,picture\p34.tif,0,83,83,72,,,,,,,4107.209229899978,4108.222762999998,4108.205900899979,None,4111.067355699983,4112.072317999991,4141.353505699983,None,4141.353505699983,None,2.0916666666666677,7.312621399993077,4141.353505699983,None,2.0777777777777784,5.546078699990176,4141.353505699983,None,2.0083333333333333,10.164962700015167,4141.353505699983,None,space,10.611777499987511,4141.353505699983,None,B,lvluxi,23,f,2021_Dec_04_1709,untitled_groupA_k,2021.1.4,59.873104933557414,
