A1C1,A1C0,A0C1,A0C0,A1,C1,Total,MI,C0GvA1,C1GvA1,C1GvA0,dltP,dltPp,Image_practice,Image,trials.thisRepN,trials.thisTrialN,trials.thisN,trials.thisIndex,trials_2.thisRepN,trials_2.thisTrialN,trials_2.thisN,trials_2.thisIndex,image1.started,key_resp_3.started,key_resp_3.keys,key_resp_3.rt,polygon1.started,ISI.started,image.started,textbox.started,text.started,key_resp.started,textbox.text,key_resp.keys,key_resp.rt,instruction2.started,key_resp_4.started,key_resp_4.keys,key_resp_4.rt,polygon2.started,ISI2.started,image_2.started,textbox_2.started,text_2.started,key_resp_2.started,textbox_2.text,key_resp_2.keys,key_resp_2.rt,text_3.started,text_3.stopped,participant,session,date,expName,psychopyVersion,frameRate,
,,,,,,,,,,,,,,,,,,,,,,,15.347706454000217,15.347706454000217,space,139.2258437700002,,,,,,,,,,,,,,,,,,,,,,,,,6,001,2023-04-16_19h14.32.496,untitled,2022.2.5,None,
0,0,0,9,0,0,9,1.0,None,None,0.0,None,None,practice_stimuli/P_00_00_00_09.png,,0,0,0,0,,,,,,,,,154.64339516699965,0.014040991999536345,155.26985737199993,155.26985737199993,155.26985737199993,155.26985737199993,10,return,7.125641229000394,,,,,,,,,,,,,,,,6,001,2023-04-16_19h14.32.496,untitled,2022.2.5,None,
18,0,36,0,18,54,54,1.0,0.0,1.0,1.0,0.0,None,practice_stimuli/P_18_00_36_00.png,,0,1,1,1,,,,,,,,,162.41148988999976,0.0005778880004072562,162.9085324710004,162.9085324710004,162.9085324710004,162.9085324710004,50,return,3.8691043199996784,,,,,,,,,,,,,,,,6,001,2023-04-16_19h14.32.496,untitled,2022.2.5,None,
9,18,18,0,27,27,45,0.6,0.67,0.33,1.0,-0.67,#NAME?,practice_stimuli/P_09_18_18_00.png,,0,2,2,2,,,,,,,,,166.79683975399985,0.00064025999927253,167.2982769649998,167.2982769649998,167.2982769649998,167.2982769649998,25,return,6.867736408000383,,,,,,,,,,,,,,,,6,001,2023-04-16_19h14.32.496,untitled,2022.2.5,None,
36,18,18,36,54,54,108,0.83,0.33,0.67,0.33,0.33,0.5,practice_stimuli/P_36_18_18_36.png,,0,3,3,3,,,,,,,,,174.1915342430002,0.0006523679994643317,174.6930875099997,174.6930875099997,174.6930875099997,174.6930875099997,40,return,7.113197923000371,,,,,,,,,,,,,,,,6,001,2023-04-16_19h14.32.496,untitled,2022.2.5,None,
,,,,,,,,,,,,,,,,,,,,,,,,,,,,,,,,,,,,181.8358166500002,181.8358166500002,space,29.12013099900014,,,,,,,,,,,,6,001,2023-04-16_19h14.32.496,untitled,2022.2.5,None,
36,0,36,36,36,72,108,1.0,0.0,1.0,0.5,0.5,1.0,,stimuli/P_36_00_36_36.png,,,,,0,0,0,207,,,,,,,,,,,,,,,,,,211.02819720800017,0.05239269100002275,211.590270658,211.590270658,211.590270658,211.590270658,30,return,5.088172755000414,,,6,001,2023-04-16_19h14.32.496,untitled,2022.2.5,None,
36,36,0,9,72,36,81,0.56,0.5,0.5,0.0,0.5,0.5,,stimuli/P_36_36_00_09.png,,,,,0,1,1,241,,,,,,,,,,,,,,,,,,216.69617055300023,0.0006435860004785354,217.1927663690003,217.1927663690003,217.1927663690003,217.1927663690003,30,return,5.22404724199987,,,6,001,2023-04-16_19h14.32.496,untitled,2022.2.5,None,
18,9,0,18,27,18,45,0.8,0.33,0.67,0.0,0.67,0.67,,stimuli/P_18_09_00_18.png,,,,,0,2,2,146,,,,,,,,,,,,,,,,,,222.43009947999963,0.0007969609996507643,222.92321630900005,222.92321630900005,222.92321630900005,222.92321630900005,25,return,3.6517072900005587,,,6,001,2023-04-16_19h14.32.496,untitled,2022.2.5,None,
18,18,36,9,36,54,81,0.78,0.5,0.5,0.8,-0.3,-1.5,,stimuli/P_18_18_36_09.png,,,,,0,3,3,173,,,,,,,,,,,,,,,,,,226.59571614099968,0.0006680320002487861,227.0904760430003,227.0904760430003,227.0904760430003,227.0904760430003,20,return,4.382572421000077,,,6,001,2023-04-16_19h14.32.496,untitled,2022.2.5,None,
36,18,36,18,54,72,108,0.83,0.33,0.67,0.67,0.0,0.0,,stimuli/P_36_18_36_18.png,,,,,0,4,4,238,,,,,,,,,,,,,,,,,,231.49618549499974,0.0007703609999225591,231.99273761400036,231.99273761400036,231.99273761400036,231.99273761400036,35,return,6.153521942000225,,,6,001,2023-04-16_19h14.32.496,untitled,2022.2.5,None,
0,0,18,0,0,18,18,1.0,None,None,1.0,None,None,,stimuli/P_00_00_18_00.png,,,,,0,5,5,8,,,,,,,,,,,,,,,,,,238.16073840300032,0.0005723710000893334,238.65839706899988,238.65839706899988,238.65839706899988,238.65839706899988,0,return,2.5240940520006916,,,6,001,2023-04-16_19h14.32.496,untitled,2022.2.5,None,
36,0,0,9,36,36,45,1.0,0.0,1.0,0.0,1.0,1.0,,stimuli/P_36_00_00_09.png,,,,,0,6,6,193,,,,,,,,,,,,,,,,,,241.1960669760001,0.0007706189999225899,241.70067637899956,241.70067637899956,241.70067637899956,241.70067637899956,25,return,3.2394972410002083,,,6,001,2023-04-16_19h14.32.496,untitled,2022.2.5,None,
18,36,36,18,54,54,108,0.67,0.67,0.33,0.67,-0.33,-1.0,,stimuli/P_18_36_36_18.png,,,,,0,7,7,190,,,,,,,,,,,,,,,,,,244.95836765399963,0.0006696959999317187,245.46282507399974,245.46282507399974,245.46282507399974,245.46282507399974,15,return,4.666888362999998,,,6,001,2023-04-16_19h14.32.496,untitled,2022.2.5,None,
18,0,18,18,18,36,54,1.0,0.0,1.0,0.5,0.5,1.0,,stimuli/P_18_00_18_18.png,,,,,0,8,8,138,,,,,,,,,,,,,,,,,,250.14488886300023,0.0006627339998885873,250.65300246399966,250.65300246399966,250.65300246399966,250.65300246399966,30,return,7.026916197000901,,,6,001,2023-04-16_19h14.32.496,untitled,2022.2.5,None,
18,36,0,18,54,18,72,0.5,0.67,0.33,0.0,0.33,0.33,,stimuli/P_18_36_00_18.png,,,,,0,9,9,178,,,,,,,,,,,,,,,,,,257.694035689,0.0008433250004600268,258.2036024649997,258.2036024649997,258.2036024649997,258.2036024649997,25,None,,,,6,001,2023-04-16_19h14.32.496,untitled,2022.2.5,None,
9,36,0,9,45,9,54,0.33,0.8,0.2,0.0,0.2,0.2,,stimuli/P_09_36_00_09.png,,,,,0,10,10,113,,,,,,,,,,,,,,,,,,265.80737836499975,0.01611925199995312,266.32663194900033,266.32663194900033,266.32663194900033,266.32663194900033,5,return,4.4761491910003315,,,6,001,2023-04-16_19h14.32.496,untitled,2022.2.5,None,
36,9,9,18,45,45,72,0.88,0.2,0.8,0.33,0.47,0.7,,stimuli/P_36_09_09_18.png,,,,,0,11,11,214,,,,,,,,,,,,,,,,,,270.8291071880003,0.0007606530007251422,271.335923527,271.335923527,271.335923527,271.335923527,10,return,6.23664100499991,,,6,001,2023-04-16_19h14.32.496,untitled,2022.2.5,None,
18,9,0,0,27,18,27,0.67,0.33,0.67,None,None,None,,stimuli/P_18_09_00_00.png,,,,,0,12,12,144,,,,,,,,,,,,,,,,,,277.60336957799973,0.0009436139998797444,278.11390425900026,278.11390425900026,278.11390425900026,278.11390425900026,15,return,4.276273969000613,,,6,001,2023-04-16_19h14.32.496,untitled,2022.2.5,None,
18,18,18,9,36,36,63,0.71,0.5,0.5,0.67,-0.17,-0.5,,stimuli/P_18_18_18_09.png,,,,,0,13,13,169,,,,,,,,,,,,,,,,,,282.40878704900024,0.000550492000002123,282.9093873310003,282.9093873310003,282.9093873310003,282.9093873310003,20,return,7.040350236999984,,,6,001,2023-04-16_19h14.32.496,untitled,2022.2.5,None,
18,0,36,0,18,54,54,1.0,0.0,1.0,1.0,0.0,None,,stimuli/P_18_00_36_00.png,,,,,0,14,14,140,,,,,,,,,,,,,,,,,,289.97734012099954,0.0007720030007476453,290.47784726200007,290.47784726200007,290.47784726200007,290.47784726200007,15,return,6.398216024999783,,,6,001,2023-04-16_19h14.32.496,untitled,2022.2.5,None,
36,18,9,0,54,45,63,0.71,0.33,0.67,1.0,-0.33,#NAME?,,stimuli/P_36_18_09_00.png,,,,,0,15,15,228,,,,,,,,,,,,,,,,,,296.8918827790003,0.0006631180003751069,297.4003587489997,297.4003587489997,297.4003587489997,297.4003587489997,15,return,6.392859540000245,,,6,001,2023-04-16_19h14.32.496,untitled,2022.2.5,None,
36,36,0,18,72,36,90,0.6,0.5,0.5,0.0,0.5,0.5,,stimuli/P_36_36_00_18.png,,,,,0,16,16,242,,,,,,,,,,,,,,,,,,303.820128675,0.0008370140003535198,304.3206828559996,304.3206828559996,304.3206828559996,304.3206828559996,40,return,7.225118538000061,,,6,001,2023-04-16_19h14.32.496,untitled,2022.2.5,None,
0,0,36,0,0,36,36,1.0,None,None,1.0,None,None,,stimuli/P_00_00_36_00.png,,,,,0,17,17,12,,,,,,,,,,,,,,,,,,311.5742378770001,0.0007803190001141047,312.07377792399984,312.07377792399984,312.07377792399984,312.07377792399984,0,return,3.3110274730006495,,,6,001,2023-04-16_19h14.32.496,untitled,2022.2.5,None,
36,0,18,0,36,54,54,1.0,0.0,1.0,1.0,0.0,None,,stimuli/P_36_00_18_00.png,,,,,0,18,18,200,,,,,,,,,,,,,,,,,,315.4092382810004,0.0006436499998017098,315.923116854,315.923116854,315.923116854,315.923116854,20,return,5.887587715999871,,,6,001,2023-04-16_19h14.32.496,untitled,2022.2.5,None,
36,9,0,36,45,36,81,0.89,0.2,0.8,0.0,0.8,0.8,,stimuli/P_36_09_00_36.png,,,,,0,19,19,211,,,,,,,,,,,,,,,,,,321.8246538550002,0.0005602660003205528,322.3246153939999,322.3246153939999,322.3246153939999,322.3246153939999,,None,,,,6,001,2023-04-16_19h14.32.496,untitled,2022.2.5,None,
18,18,9,0,36,27,45,0.6,0.5,0.5,1.0,-0.5,#NAME?,,stimuli/P_18_18_09_00.png,,,,,0,20,20,164,,,,,,,,,,,,,,,,,,329.93926384299994,0.015619349999724363,330.4440695459998,330.4440695459998,330.4440695459998,330.4440695459998,50,return,5.516442115000245,,,6,001,2023-04-16_19h14.32.496,untitled,2022.2.5,None,
18,36,9,9,54,27,72,0.5,0.67,0.33,0.5,-0.17,-0.33,,stimuli/P_18_36_09_09.png,,,,,0,21,21,181,,,,,,,,,,,,,,,,,,335.9760876829996,0.0006492149996120133,336.4714606289999,336.4714606289999,336.4714606289999,336.4714606289999,30,return,7.027255061000687,,,6,001,2023-04-16_19h14.32.496,untitled,2022.2.5,None,
9,0,18,18,9,27,45,1.0,0.0,1.0,0.5,0.5,1.0,,stimuli/P_09_00_18_18.png,,,,,0,22,22,74,,,,,,,,,,,,,,,,,,343.53083735699965,0.0007503389997509657,344.0258498590001,344.0258498590001,344.0258498590001,344.0258498590001,5,None,,,,6,001,2023-04-16_19h14.32.496,untitled,2022.2.5,None,
9,18,9,9,27,18,45,0.6,0.67,0.33,0.5,-0.17,-0.33,,stimuli/P_09_18_09_09.png,,,,,0,23,23,101,,,,,,,,,,,,,,,,,,351.6392197770001,0.009866457999123668,352.1581663879997,352.1581663879997,352.1581663879997,352.1581663879997,,None,,,,6,001,2023-04-16_19h14.32.496,untitled,2022.2.5,None,
36,18,18,9,54,54,81,0.78,0.33,0.67,0.67,0.0,0.0,,stimuli/P_36_18_18_09.png,,,,,0,24,24,233,,,,,,,,,,,,,,,,,,359.73602243000005,0.005817072998979711,360.2543848940004,360.2543848940004,360.2543848940004,360.2543848940004,30,None,,,,6,001,2023-04-16_19h14.32.496,untitled,2022.2.5,None,
9,36,36,0,45,45,81,0.56,0.8,0.2,1.0,-0.8,#NAME?,,stimuli/P_09_36_36_00.png,,,,,0,25,25,124,,,,,,,,,,,,,,,,,,367.8404164120002,0.011038646998713375,368.34898381400035,368.34898381400035,368.34898381400035,368.34898381400035,25,return,6.9459687620001205,,,6,001,2023-04-16_19h14.32.496,untitled,2022.2.5,None,
18,9,36,36,27,54,99,0.91,0.33,0.67,0.5,0.17,0.33,,stimuli/P_18_09_36_36.png,,,,,0,26,26,159,,,,,,,,,,,,,,,,,,375.30852895800035,0.0008053929996094666,375.81138657999963,375.81138657999963,375.81138657999963,375.81138657999963,,None,,,,6,001,2023-04-16_19h14.32.496,untitled,2022.2.5,None,
9,36,0,36,45,9,81,0.56,0.8,0.2,0.0,0.2,0.2,,stimuli/P_09_36_00_36.png,,,,,0,27,27,115,,,,,,,,,,,,,,,,,,383.4225273559996,0.0176595160000943,383.93476116199963,383.93476116199963,383.93476116199963,383.93476116199963,1,None,,,,6,001,2023-04-16_19h14.32.496,untitled,2022.2.5,None,
18,18,0,9,36,18,45,0.6,0.5,0.5,0.0,0.5,0.5,,stimuli/P_18_18_00_09.png,,,,,0,28,28,161,,,,,,,,,,,,,,,,,,391.52153866699973,0.014514693999444717,392.0297652199997,392.0297652199997,392.0297652199997,392.0297652199997,20,return,6.149669604000337,,,6,001,2023-04-16_19h14.32.496,untitled,2022.2.5,None,
0,0,18,18,0,18,36,1.0,None,None,0.5,None,None,,stimuli/P_00_00_18_18.png,,,,,0,29,29,10,,,,,,,,,,,,,,,,,,398.20404100500036,0.0007870540002841153,398.7114873549999,398.7114873549999,398.7114873549999,398.7114873549999,0,return,4.177323621000141,,,6,001,2023-04-16_19h14.32.496,untitled,2022.2.5,None,
36,0,36,9,36,72,81,1.0,0.0,1.0,0.8,0.2,1.0,,stimuli/P_36_00_36_09.png,,,,,0,30,30,205,,,,,,,,,,,,,,,,,,402.91203959500035,0.0007872340001995326,403.40661265499966,403.40661265499966,403.40661265499966,403.40661265499966,40,return,6.141144509000696,,,6,001,2023-04-16_19h14.32.496,untitled,2022.2.5,None,
0,36,18,18,36,18,72,0.5,1.0,0.0,0.5,-0.5,-1.0,,stimuli/P_00_36_18_18.png,,,,,0,31,31,58,,,,,,,,,,,,,,,,,,409.5766830189996,0.0007488440005545272,410.077687858,410.077687858,410.077687858,410.077687858,0,return,4.377613296999698,,,6,001,2023-04-16_19h14.32.496,untitled,2022.2.5,None,
9,9,36,36,18,45,90,0.9,0.5,0.5,0.5,0.0,0.0,,stimuli/P_09_09_36_36.png,,,,,0,32,32,95,,,,,,,,,,,,,,,,,,414.47473515,0.0006523920001200167,414.9743229269998,414.9743229269998,414.9743229269998,414.9743229269998,10,return,4.378740852000192,,,6,001,2023-04-16_19h14.32.496,untitled,2022.2.5,None,
36,0,0,0,36,36,36,1.0,0.0,1.0,None,None,None,,stimuli/P_36_00_00_00.png,,,,,0,33,33,192,,,,,,,,,,,,,,,,,,419.3736164089996,0.0006422220003514667,419.87634083299963,419.87634083299963,419.87634083299963,419.87634083299963,100,return,2.6981426349993853,,,6,001,2023-04-16_19h14.32.496,untitled,2022.2.5,None,
36,18,36,9,54,72,99,0.82,0.33,0.67,0.8,-0.13,-0.67,,stimuli/P_36_18_36_09.png,,,,,0,34,34,237,,,,,,,,,,,,,,,,,,422.5900247319996,0.0005024100000809995,423.0877809800004,423.0877809800004,423.0877809800004,423.0877809800004,25,return,6.310908821000339,,,6,001,2023-04-16_19h14.32.496,untitled,2022.2.5,None,
0,9,36,0,9,36,45,0.8,1.0,0.0,1.0,-1.0,#NAME?,,stimuli/P_00_09_36_00.png,,,,,0,35,35,28,,,,,,,,,,,,,,,,,,429.42155327599994,0.0005695950003428152,429.92019841900037,429.92019841900037,429.92019841900037,429.92019841900037,0,return,2.1146646220004186,,,6,001,2023-04-16_19h14.32.496,untitled,2022.2.5,None,
0,0,36,36,0,36,72,1.0,None,None,0.5,None,None,,stimuli/P_00_00_36_36.png,,,,,0,36,36,15,,,,,,,,,,,,,,,,,,432.05841349099956,0.0007603240001117229,432.5646452339997,432.5646452339997,432.5646452339997,432.5646452339997,0,return,2.1830768090003403,,,6,001,2023-04-16_19h14.32.496,untitled,2022.2.5,None,
9,0,9,0,9,18,18,1.0,0.0,1.0,1.0,0.0,None,,stimuli/P_09_00_09_00.png,,,,,0,37,37,68,,,,,,,,,,,,,,,,,,434.7732766090003,0.0007121819999156287,435.28124673,435.28124673,435.28124673,435.28124673,50,return,4.622410680999565,,,6,001,2023-04-16_19h14.32.496,untitled,2022.2.5,None,
0,36,18,36,36,18,90,0.6,1.0,0.0,0.33,-0.33,-0.5,,stimuli/P_00_36_18_36.png,,,,,0,38,38,59,,,,,,,,,,,,,,,,,,439.92514110499997,0.0006642520002060337,440.42597604599996,440.42597604599996,440.42597604599996,440.42597604599996,0,return,2.232693052999821,,,6,001,2023-04-16_19h14.32.496,untitled,2022.2.5,None,
36,9,18,9,45,54,72,0.88,0.2,0.8,0.67,0.13,0.4,,stimuli/P_36_09_18_09.png,,,,,0,39,39,217,,,,,,,,,,,,,,,,,,442.6855078159997,0.0012769539998771506,443.19043792699995,443.19043792699995,443.19043792699995,443.19043792699995,25,return,5.04859180800031,,,6,001,2023-04-16_19h14.32.496,untitled,2022.2.5,None,
9,18,9,0,27,18,36,0.5,0.67,0.33,1.0,-0.67,#NAME?,,stimuli/P_09_18_09_00.png,,,,,0,40,40,100,,,,,,,,,,,,,,,,,,448.2616595440004,0.0007595030001539271,448.7641100190003,448.7641100190003,448.7641100190003,448.7641100190003,10,return,5.226499316000627,,,6,001,2023-04-16_19h14.32.496,untitled,2022.2.5,None,
0,9,18,0,9,18,27,0.67,1.0,0.0,1.0,-1.0,#NAME?,,stimuli/P_00_09_18_00.png,,,,,0,41,41,24,,,,,,,,,,,,,,,,,,454.00596933199995,0.0005902960001549218,454.5180301700002,454.5180301700002,454.5180301700002,454.5180301700002,0,return,1.9317357990003075,,,6,001,2023-04-16_19h14.32.496,untitled,2022.2.5,None,
0,9,18,9,9,18,36,0.75,1.0,0.0,0.67,-0.67,-2.0,,stimuli/P_00_09_18_09.png,,,,,0,42,42,25,,,,,,,,,,,,,,,,,,456.47618580200015,0.0009329189997515641,456.9803590720003,456.9803590720003,456.9803590720003,456.9803590720003,0,return,1.7789455510001062,,,6,001,2023-04-16_19h14.32.496,untitled,2022.2.5,None,
0,36,9,18,36,9,63,0.43,1.0,0.0,0.33,-0.33,-0.5,,stimuli/P_00_36_09_18.png,,,,,0,43,43,54,,,,,,,,,,,,,,,,,,458.78933787499955,0.0009385889998156927,459.2910560299997,459.2910560299997,459.2910560299997,459.2910560299997,0,return,1.726269821000642,,,6,001,2023-04-16_19h14.32.496,untitled,2022.2.5,None,
9,9,0,36,18,9,54,0.83,0.5,0.5,0.0,0.5,0.5,,stimuli/P_09_09_00_36.png,,,,,0,44,44,83,,,,,,,,,,,,,,,,,,461.0415898709998,0.0006512400004794472,461.5471093739998,461.5471093739998,461.5471093739998,461.5471093739998,10,return,6.076509048000844,,,6,001,2023-04-16_19h14.32.496,untitled,2022.2.5,None,
18,0,9,18,18,27,45,1.0,0.0,1.0,0.33,0.67,1.0,,stimuli/P_18_00_09_18.png,,,,,0,45,45,134,,,,,,,,,,,,,,,,,,467.64774334399954,0.0008244840000770637,468.1515021899995,468.1515021899995,468.1515021899995,468.1515021899995,20,return,6.284251598000083,,,6,001,2023-04-16_19h14.32.496,untitled,2022.2.5,None,
18,0,18,36,18,36,72,1.0,0.0,1.0,0.33,0.67,1.0,,stimuli/P_18_00_18_36.png,,,,,0,46,46,139,,,,,,,,,,,,,,,,,,474.4598344590004,0.0006896189997860347,474.9633706710001,474.9633706710001,474.9633706710001,474.9633706710001,2,None,,,,6,001,2023-04-16_19h14.32.496,untitled,2022.2.5,None,
9,36,18,18,45,27,81,0.56,0.8,0.2,0.5,-0.3,-0.6,,stimuli/P_09_36_18_18.png,,,,,0,47,47,122,,,,,,,,,,,,,,,,,,482.5703847599998,0.012278424999749404,483.0858531109998,483.0858531109998,483.0858531109998,483.0858531109998,10,return,3.073767704000602,,,6,001,2023-04-16_19h14.32.496,untitled,2022.2.5,None,
0,9,0,36,9,0,45,0.8,1.0,0.0,0.0,0.0,0.0,,stimuli/P_00_09_00_36.png,,,,,0,48,48,19,,,,,,,,,,,,,,,,,,486.17191664500024,0.0006986170001255232,486.66827302799993,486.66827302799993,486.66827302799993,486.66827302799993,0,return,1.7251400410004862,,,6,001,2023-04-16_19h14.32.496,untitled,2022.2.5,None,
36,9,0,0,45,36,45,0.8,0.2,0.8,None,None,None,,stimuli/P_36_09_00_00.png,,,,,0,49,49,208,,,,,,,,,,,,,,,,,,488.40860902500026,0.0005655600007230532,488.9141578990002,488.9141578990002,488.9141578990002,488.9141578990002,75,return,6.678057344000081,,,6,001,2023-04-16_19h14.32.496,untitled,2022.2.5,None,
36,36,36,36,72,72,144,0.75,0.5,0.5,0.5,0.0,0.0,,stimuli/P_36_36_36_36.png,,,,,0,50,50,255,,,,,,,,,,,,,,,,,,495.6213002000004,0.0007726880003247061,496.121671117,496.121671117,496.121671117,496.121671117,50,return,6.821519359000376,,,6,001,2023-04-16_19h14.32.496,untitled,2022.2.5,None,
0,9,9,9,9,9,27,0.67,1.0,0.0,0.5,-0.5,-1.0,,stimuli/P_00_09_09_09.png,,,,,0,51,51,21,,,,,,,,,,,,,,,,,,502.958243178,0.0007887259998824447,503.46203997799967,503.46203997799967,503.46203997799967,503.46203997799967,0,return,3.380137580000337,,,6,001,2023-04-16_19h14.32.496,untitled,2022.2.5,None,
0,36,18,9,36,18,63,0.43,1.0,0.0,0.67,-0.67,-2.0,,stimuli/P_00_36_18_09.png,,,,,0,52,52,57,,,,,,,,,,,,,,,,,,506.857530796,0.0006451809995269286,507.36555000499993,507.36555000499993,507.36555000499993,507.36555000499993,0,return,2.990409388000444,,,6,001,2023-04-16_19h14.32.496,untitled,2022.2.5,None,
36,18,36,0,54,72,90,0.8,0.33,0.67,1.0,-0.33,#NAME?,,stimuli/P_36_18_36_00.png,,,,,0,53,53,236,,,,,,,,,,,,,,,,,,510.37373698400006,0.0006509090007966734,510.87037223100015,510.87037223100015,510.87037223100015,510.87037223100015,30,None,,,,6,001,2023-04-16_19h14.32.496,untitled,2022.2.5,None,
9,18,36,9,27,45,72,0.75,0.67,0.33,0.8,-0.47,-2.33,,stimuli/P_09_18_36_09.png,,,,,0,54,54,109,,,,,,,,,,,,,,,,,,518.4834164450003,0.009276622000470525,518.9963391689998,518.9963391689998,518.9963391689998,518.9963391689998,10,return,5.207234657000299,,,6,001,2023-04-16_19h14.32.496,untitled,2022.2.5,None,
36,18,18,36,54,54,108,0.83,0.33,0.67,0.33,0.33,0.5,,stimuli/P_36_18_18_36.png,,,,,0,55,55,235,,,,,,,,,,,,,,,,,,524.231478965,0.000771299000007275,524.7357038319997,524.7357038319997,524.7357038319997,524.7357038319997,40,return,6.1955297450003854,,,6,001,2023-04-16_19h14.32.496,untitled,2022.2.5,None,
0,36,36,36,36,36,108,0.67,1.0,0.0,0.5,-0.5,-1.0,,stimuli/P_00_36_36_36.png,,,,,0,56,56,63,,,,,,,,,,,,,,,,,,530.9428006999997,0.0006824239999332349,531.4376145469996,531.4376145469996,531.4376145469996,531.4376145469996,0,return,4.174550561000615,,,6,001,2023-04-16_19h14.32.496,untitled,2022.2.5,None,
9,0,18,9,9,27,36,1.0,0.0,1.0,0.67,0.33,1.0,,stimuli/P_09_00_18_09.png,,,,,0,57,57,73,,,,,,,,,,,,,,,,,,535.6251956300002,0.0007810940005583689,536.133323002,536.133323002,536.133323002,536.133323002,3,None,,,,6,001,2023-04-16_19h14.32.496,untitled,2022.2.5,None,
36,0,9,9,36,45,54,1.0,0.0,1.0,0.5,0.5,1.0,,stimuli/P_36_00_09_09.png,,,,,0,58,58,197,,,,,,,,,,,,,,,,,,543.7327562789997,0.010240300999612373,544.2459207809998,544.2459207809998,544.2459207809998,544.2459207809998,25,return,2.355291662000127,,,6,001,2023-04-16_19h14.32.496,untitled,2022.2.5,None,
0,9,9,36,9,9,54,0.83,1.0,0.0,0.2,-0.2,-0.25,,stimuli/P_00_09_09_36.png,,,,,0,59,59,23,,,,,,,,,,,,,,,,,,546.6248709439997,0.0007616540005983552,547.1313004200001,547.1313004200001,547.1313004200001,547.1313004200001,0,return,2.0196984359999988,,,6,001,2023-04-16_19h14.32.496,untitled,2022.2.5,None,
0,36,9,9,36,9,54,0.33,1.0,0.0,0.5,-0.5,-1.0,,stimuli/P_00_36_09_09.png,,,,,0,60,60,53,,,,,,,,,,,,,,,,,,549.1787134870001,0.0007733340007689549,549.6793402060002,549.6793402060002,549.6793402060002,549.6793402060002,0,return,2.1304433940003946,,,6,001,2023-04-16_19h14.32.496,untitled,2022.2.5,None,
36,36,9,0,72,45,81,0.56,0.5,0.5,1.0,-0.5,#NAME?,,stimuli/P_36_36_09_00.png,,,,,0,61,61,244,,,,,,,,,,,,,,,,,,551.8241814800003,0.0007622800003446173,552.320684714,552.320684714,552.320684714,552.320684714,45,return,6.536142995000773,,,6,001,2023-04-16_19h14.32.496,untitled,2022.2.5,None,
9,0,9,18,9,18,36,1.0,0.0,1.0,0.33,0.67,1.0,,stimuli/P_09_00_09_18.png,,,,,0,62,62,70,,,,,,,,,,,,,,,,,,558.8714507519999,0.00056449200019415,559.3673218280001,559.3673218280001,559.3673218280001,559.3673218280001,,None,,,,6,001,2023-04-16_19h14.32.496,untitled,2022.2.5,None,
36,36,18,9,72,54,99,0.64,0.5,0.5,0.67,-0.17,-0.5,,stimuli/P_36_36_18_09.png,,,,,0,63,63,249,,,,,,,,,,,,,,,,,,566.986601441,0.016193397999813897,567.491708261,567.491708261,567.491708261,567.491708261,100,return,4.37428705900038,,,6,001,2023-04-16_19h14.32.496,untitled,2022.2.5,None,
18,0,0,9,18,18,27,1.0,0.0,1.0,0.0,1.0,1.0,,stimuli/P_18_00_00_09.png,,,,,0,64,64,129,,,,,,,,,,,,,,,,,,571.8922158309997,0.0009496350003246334,572.3881505899999,572.3881505899999,572.3881505899999,572.3881505899999,100,return,6.006842929999948,,,6,001,2023-04-16_19h14.32.496,untitled,2022.2.5,None,
18,36,9,18,54,27,81,0.56,0.67,0.33,0.33,0.0,0.0,,stimuli/P_18_36_09_18.png,,,,,0,65,65,182,,,,,,,,,,,,,,,,,,578.4249541660001,0.0007867699996495503,578.9333512430003,578.9333512430003,578.9333512430003,578.9333512430003,35,return,5.228050040000198,,,6,001,2023-04-16_19h14.32.496,untitled,2022.2.5,None,
0,18,9,9,18,9,36,0.5,1.0,0.0,0.5,-0.5,-1.0,,stimuli/P_00_18_09_09.png,,,,,0,66,66,37,,,,,,,,,,,,,,,,,,584.1859832660002,0.0009572529997967649,584.700231717,584.700231717,584.700231717,584.700231717,0,return,3.523978072000318,,,6,001,2023-04-16_19h14.32.496,untitled,2022.2.5,None,
0,18,36,18,18,36,72,0.75,1.0,0.0,0.67,-0.67,-2.0,,stimuli/P_00_18_36_18.png,,,,,0,67,67,46,,,,,,,,,,,,,,,,,,588.2395956199998,0.0006486390002464759,588.7380985660002,588.7380985660002,588.7380985660002,588.7380985660002,0,return,2.1146221939998213,,,6,001,2023-04-16_19h14.32.496,untitled,2022.2.5,None,
18,9,36,18,27,54,81,0.89,0.33,0.67,0.67,0.0,0.0,,stimuli/P_18_09_36_18.png,,,,,0,68,68,158,,,,,,,,,,,,,,,,,,590.870102455,0.0005645779992846656,591.3678477699996,591.3678477699996,591.3678477699996,591.3678477699996,55,return,5.978993948000607,,,6,001,2023-04-16_19h14.32.496,untitled,2022.2.5,None,
36,9,18,18,45,54,81,0.89,0.2,0.8,0.5,0.3,0.6,,stimuli/P_36_09_18_18.png,,,,,0,69,69,218,,,,,,,,,,,,,,,,,,597.3733981200003,0.000638371999230003,597.8855022959997,597.8855022959997,597.8855022959997,597.8855022959997,75,return,5.181390185000055,,,6,001,2023-04-16_19h14.32.496,untitled,2022.2.5,None,
9,36,36,18,45,45,99,0.64,0.8,0.2,0.67,-0.47,-1.4,,stimuli/P_09_36_36_18.png,,,,,0,70,70,126,,,,,,,,,,,,,,,,,,603.0867066290002,0.0006499410001197248,603.5923330420001,603.5923330420001,603.5923330420001,603.5923330420001,20,return,6.381934547999663,,,6,001,2023-04-16_19h14.32.496,untitled,2022.2.5,None,
9,18,36,0,27,45,63,0.71,0.67,0.33,1.0,-0.67,#NAME?,,stimuli/P_09_18_36_00.png,,,,,0,71,71,108,,,,,,,,,,,,,,,,,,609.989136483,0.0006459320002250024,610.4911678130002,610.4911678130002,610.4911678130002,610.4911678130002,15,return,3.709398885000155,,,6,001,2023-04-16_19h14.32.496,untitled,2022.2.5,None,
9,0,9,9,9,18,27,1.0,0.0,1.0,0.5,0.5,1.0,,stimuli/P_09_00_09_09.png,,,,,0,72,72,69,,,,,,,,,,,,,,,,,,614.2297272730002,0.0009461290001127054,614.7373395040004,614.7373395040004,614.7373395040004,614.7373395040004,50,return,3.3289157950002846,,,6,001,2023-04-16_19h14.32.496,untitled,2022.2.5,None,
0,9,36,9,9,36,54,0.83,1.0,0.0,0.8,-0.8,-4.0,,stimuli/P_00_09_36_09.png,,,,,0,73,73,29,,,,,,,,,,,,,,,,,,618.0872909970003,0.0006424479997804156,618.5864176429995,618.5864176429995,618.5864176429995,618.5864176429995,0,return,2.0282080610004414,,,6,001,2023-04-16_19h14.32.496,untitled,2022.2.5,None,
18,36,18,0,54,36,72,0.5,0.67,0.33,1.0,-0.67,#NAME?,,stimuli/P_18_36_18_00.png,,,,,0,74,74,184,,,,,,,,,,,,,,,,,,620.641891108,0.0007585780003864784,621.1449941239998,621.1449941239998,621.1449941239998,621.1449941239998,35,return,5.817447319000166,,,6,001,2023-04-16_19h14.32.496,untitled,2022.2.5,None,
18,9,18,9,27,36,54,0.83,0.33,0.67,0.67,0.0,0.0,,stimuli/P_18_09_18_09.png,,,,,0,75,75,153,,,,,,,,,,,,,,,,,,626.9868405320003,0.0007624249992659315,627.4946432010001,627.4946432010001,627.4946432010001,627.4946432010001,25,return,6.2164069710006515,,,6,001,2023-04-16_19h14.32.496,untitled,2022.2.5,None,
18,0,9,9,18,27,36,1.0,0.0,1.0,0.5,0.5,1.0,,stimuli/P_18_00_09_09.png,,,,,0,76,76,133,,,,,,,,,,,,,,,,,,633.7255765780001,0.0007947619997139554,634.2177781419996,634.2177781419996,634.2177781419996,634.2177781419996,45,return,6.93149212499975,,,6,001,2023-04-16_19h14.32.496,untitled,2022.2.5,None,
0,18,0,18,18,0,36,0.5,1.0,0.0,0.0,0.0,0.0,,stimuli/P_00_18_00_18.png,,,,,0,77,77,34,,,,,,,,,,,,,,,,,,641.1786231180004,0.0007723039998381864,641.681261875,641.681261875,641.681261875,641.681261875,0,return,2.5430465240006015,,,6,001,2023-04-16_19h14.32.496,untitled,2022.2.5,None,
9,36,36,36,45,45,117,0.69,0.8,0.2,0.5,-0.3,-0.6,,stimuli/P_09_36_36_36.png,,,,,0,78,78,127,,,,,,,,,,,,,,,,,,644.2375899930003,0.0006699760006085853,644.7367258280001,644.7367258280001,644.7367258280001,644.7367258280001,20,return,6.228119692000291,,,6,001,2023-04-16_19h14.32.496,untitled,2022.2.5,None,
0,9,36,36,9,36,81,0.89,1.0,0.0,0.5,-0.5,-1.0,,stimuli/P_00_09_36_36.png,,,,,0,79,79,31,,,,,,,,,,,,,,,,,,651.0123629990003,0.0009653219995016116,651.517589223,651.517589223,651.517589223,651.517589223,0,return,2.25936913500027,,,6,001,2023-04-16_19h14.32.496,untitled,2022.2.5,None,
18,9,18,36,27,36,81,0.89,0.33,0.67,0.33,0.33,0.5,,stimuli/P_18_09_18_36.png,,,,,0,80,80,155,,,,,,,,,,,,,,,,,,653.7895389750001,0.000645574000373017,654.2882205300002,654.2882205300002,654.2882205300002,654.2882205300002,50,return,4.218406397000763,,,6,001,2023-04-16_19h14.32.496,untitled,2022.2.5,None,
9,9,9,9,18,18,36,0.75,0.5,0.5,0.5,0.0,0.0,,stimuli/P_09_09_09_09.png,,,,,0,81,81,85,,,,,,,,,,,,,,,,,,658.525722073,0.000779298999987077,659.0269038999995,659.0269038999995,659.0269038999995,659.0269038999995,25,return,6.749901832999967,,,6,001,2023-04-16_19h14.32.496,untitled,2022.2.5,None,
36,9,36,9,45,72,90,0.9,0.2,0.8,0.8,0.0,0.0,,stimuli/P_36_09_36_09.png,,,,,0,82,82,221,,,,,,,,,,,,,,,,,,665.8048027570003,0.0007612500003233436,666.3186017689995,666.3186017689995,666.3186017689995,666.3186017689995,25,return,2.879707275000328,,,6,001,2023-04-16_19h14.32.496,untitled,2022.2.5,None,
0,36,36,18,36,36,90,0.6,1.0,0.0,0.67,-0.67,-2.0,,stimuli/P_00_36_36_18.png,,,,,0,83,83,62,,,,,,,,,,,,,,,,,,669.2254249320004,0.0007481510001525749,669.7247166480001,669.7247166480001,669.7247166480001,669.7247166480001,0,return,4.763240532000964,,,6,001,2023-04-16_19h14.32.496,untitled,2022.2.5,None,
9,0,9,36,9,18,54,1.0,0.0,1.0,0.2,0.8,1.0,,stimuli/P_09_00_09_36.png,,,,,0,84,84,71,,,,,,,,,,,,,,,,,,674.5033669860004,0.0005671510007232428,675.0070702559997,675.0070702559997,675.0070702559997,675.0070702559997,25,return,6.943142732000524,,,6,001,2023-04-16_19h14.32.496,untitled,2022.2.5,None,
0,18,36,0,18,36,54,0.67,1.0,0.0,1.0,-1.0,#NAME?,,stimuli/P_00_18_36_00.png,,,,,0,85,85,44,,,,,,,,,,,,,,,,,,681.9721943389995,0.0007705710004302091,682.4705005269998,682.4705005269998,682.4705005269998,682.4705005269998,0,return,3.775567861000127,,,6,001,2023-04-16_19h14.32.496,untitled,2022.2.5,None,
0,0,9,0,0,9,9,1.0,None,None,1.0,None,None,,stimuli/P_00_00_09_00.png,,,,,0,86,86,4,,,,,,,,,,,,,,,,,,686.2737210819996,0.0007566039994344465,686.7787210209999,686.7787210209999,686.7787210209999,686.7787210209999,0,return,3.4487858720003715,,,6,001,2023-04-16_19h14.32.496,untitled,2022.2.5,None,
0,0,9,36,0,9,45,1.0,None,None,0.2,None,None,,stimuli/P_00_00_09_36.png,,,,,0,87,87,7,,,,,,,,,,,,,,,,,,690.2545258600003,0.0009418640001968015,690.7605914559999,690.7605914559999,690.7605914559999,690.7605914559999,0,return,1.8279382470009296,,,6,001,2023-04-16_19h14.32.496,untitled,2022.2.5,None,
9,9,36,0,18,45,54,0.83,0.5,0.5,1.0,-0.5,#NAME?,,stimuli/P_09_09_36_00.png,,,,,0,88,88,92,,,,,,,,,,,,,,,,,,692.602672897,0.0006818040001235204,693.1089840949999,693.1089840949999,693.1089840949999,693.1089840949999,2,None,,,,6,001,2023-04-16_19h14.32.496,untitled,2022.2.5,None,
36,0,36,0,36,72,72,1.0,0.0,1.0,1.0,0.0,None,,stimuli/P_36_00_36_00.png,,,,,0,89,89,204,,,,,,,,,,,,,,,,,,700.7282009330002,0.010362295000049926,701.2317735549996,701.2317735549996,701.2317735549996,701.2317735549996,50,return,4.1857147410000834,,,6,001,2023-04-16_19h14.32.496,untitled,2022.2.5,None,
9,36,18,9,45,27,72,0.5,0.8,0.2,0.67,-0.47,-1.4,,stimuli/P_09_36_18_09.png,,,,,0,90,90,121,,,,,,,,,,,,,,,,,,705.4397809510001,0.0008375419993171818,705.9499055349997,705.9499055349997,705.9499055349997,705.9499055349997,25,return,6.630520083000192,,,6,001,2023-04-16_19h14.32.496,untitled,2022.2.5,None,
36,0,9,36,36,45,81,1.0,0.0,1.0,0.2,0.8,1.0,,stimuli/P_36_00_09_36.png,,,,,0,91,91,199,,,,,,,,,,,,,,,,,,712.5950042920003,0.0007697979999647941,713.1016691770001,713.1016691770001,713.1016691770001,713.1016691770001,20,return,5.477979516000232,,,6,001,2023-04-16_19h14.32.496,untitled,2022.2.5,None,
9,9,18,9,18,27,45,0.8,0.5,0.5,0.67,-0.17,-0.5,,stimuli/P_09_09_18_09.png,,,,,0,92,92,89,,,,,,,,,,,,,,,,,,718.6031398530004,0.0006535919992529671,719.1145734479996,719.1145734479996,719.1145734479996,719.1145734479996,15,return,7.333332803000303,,,6,001,2023-04-16_19h14.32.496,untitled,2022.2.5,None,
9,18,36,36,27,45,99,0.82,0.67,0.33,0.5,-0.17,-0.33,,stimuli/P_09_18_36_36.png,,,,,0,93,93,111,,,,,,,,,,,,,,,,,,726.4727808429998,0.0009585110001353314,726.9758521559997,726.9758521559997,726.9758521559997,726.9758521559997,10,return,5.422560966000674,,,6,001,2023-04-16_19h14.32.496,untitled,2022.2.5,None,
36,0,0,18,36,36,54,1.0,0.0,1.0,0.0,1.0,1.0,,stimuli/P_36_00_00_18.png,,,,,0,94,94,194,,,,,,,,,,,,,,,,,,732.4139769450003,0.0007557019998785108,732.9318636380003,732.9318636380003,732.9318636380003,732.9318636380003,75,return,4.978505297000083,,,6,001,2023-04-16_19h14.32.496,untitled,2022.2.5,None,
18,18,18,36,36,36,90,0.8,0.5,0.5,0.33,0.17,0.25,,stimuli/P_18_18_18_36.png,,,,,0,95,95,171,,,,,,,,,,,,,,,,,,737.9380045910002,0.0007613950001541525,738.4347924379999,738.4347924379999,738.4347924379999,738.4347924379999,20,return,5.953391412000201,,,6,001,2023-04-16_19h14.32.496,untitled,2022.2.5,None,
36,9,36,0,45,72,81,0.89,0.2,0.8,1.0,-0.2,#NAME?,,stimuli/P_36_09_36_00.png,,,,,0,96,96,220,,,,,,,,,,,,,,,,,,744.4177670270001,0.0009501750000708853,744.9182050829995,744.9182050829995,744.9182050829995,744.9182050829995,7,None,,,,6,001,2023-04-16_19h14.32.496,untitled,2022.2.5,None,
9,18,18,18,27,27,63,0.71,0.67,0.33,0.5,-0.17,-0.33,,stimuli/P_09_18_18_18.png,,,,,0,97,97,106,,,,,,,,,,,,,,,,,,752.5336342250002,0.017088814999624447,753.0489256290002,753.0489256290002,753.0489256290002,753.0489256290002,15,return,5.711196350001046,,,6,001,2023-04-16_19h14.32.496,untitled,2022.2.5,None,
9,9,0,9,18,9,27,0.67,0.5,0.5,0.0,0.5,0.5,,stimuli/P_09_09_00_09.png,,,,,0,98,98,81,,,,,,,,,,,,,,,,,,758.7881954860004,0.0009495160002188641,759.2870457259996,759.2870457259996,759.2870457259996,759.2870457259996,30,return,5.005906209999921,,,6,001,2023-04-16_19h14.32.496,untitled,2022.2.5,None,
18,9,9,36,27,27,72,0.88,0.33,0.67,0.2,0.47,0.58,,stimuli/P_18_09_09_36.png,,,,,0,99,99,151,,,,,,,,,,,,,,,,,,764.3187063830001,0.0007659990005777217,764.8197819090001,764.8197819090001,764.8197819090001,764.8197819090001,30,return,6.082965933001105,,,6,001,2023-04-16_19h14.32.496,untitled,2022.2.5,None,
9,0,0,9,9,9,18,1.0,0.0,1.0,0.0,1.0,1.0,,stimuli/P_09_00_00_09.png,,,,,0,100,100,65,,,,,,,,,,,,,,,,,,770.9200222259997,0.0006268999995882041,771.4102295510002,771.4102295510002,771.4102295510002,771.4102295510002,50,return,2.1770075699996596,,,6,001,2023-04-16_19h14.32.496,untitled,2022.2.5,None,
0,9,18,36,9,18,63,0.86,1.0,0.0,0.33,-0.33,-0.5,,stimuli/P_00_09_18_36.png,,,,,0,101,101,27,,,,,,,,,,,,,,,,,,773.6016910990002,0.0006510369994430221,774.1055272880003,774.1055272880003,774.1055272880003,774.1055272880003,0,return,4.349801148000552,,,6,001,2023-04-16_19h14.32.496,untitled,2022.2.5,None,
0,0,18,9,0,18,27,1.0,None,None,0.67,None,None,,stimuli/P_00_00_18_09.png,,,,,0,102,102,9,,,,,,,,,,,,,,,,,,778.4701401550001,0.0007995289997779764,778.9769582870003,778.9769582870003,778.9769582870003,778.9769582870003,0,return,1.4780669820002004,,,6,001,2023-04-16_19h14.32.496,untitled,2022.2.5,None,
9,9,9,36,18,18,63,0.86,0.5,0.5,0.2,0.3,0.37,,stimuli/P_09_09_09_36.png,,,,,0,103,103,87,,,,,,,,,,,,,,,,,,780.4704429000003,0.0006409549996533315,780.9718525440003,780.9718525440003,780.9718525440003,780.9718525440003,23,return,6.965873895999721,,,6,001,2023-04-16_19h14.32.496,untitled,2022.2.5,None,
9,0,0,0,9,9,9,1.0,0.0,1.0,None,None,None,,stimuli/P_09_00_00_00.png,,,,,0,104,104,64,,,,,,,,,,,,,,,,,,787.9535224740002,0.0006438469999920926,788.4471316520003,788.4471316520003,788.4471316520003,788.4471316520003,100,return,4.626040094000018,,,6,001,2023-04-16_19h14.32.496,untitled,2022.2.5,None,
0,0,0,36,0,0,36,1.0,None,None,0.0,None,None,,stimuli/P_00_00_00_36.png,,,,,0,105,105,3,,,,,,,,,,,,,,,,,,793.0876420140003,0.0007620799997312133,793.5921182660004,793.5921182660004,793.5921182660004,793.5921182660004,0,return,1.3187192790001063,,,6,001,2023-04-16_19h14.32.496,untitled,2022.2.5,None,
9,0,36,0,9,45,45,1.0,0.0,1.0,1.0,0.0,None,,stimuli/P_09_00_36_00.png,,,,,0,106,106,76,,,,,,,,,,,,,,,,,,794.9361667920002,0.0007624260006195982,795.4420888599998,795.4420888599998,795.4420888599998,795.4420888599998,20,return,6.143989867000528,,,6,001,2023-04-16_19h14.32.496,untitled,2022.2.5,None,
9,0,18,0,9,27,27,1.0,0.0,1.0,1.0,0.0,None,,stimuli/P_09_00_18_00.png,,,,,0,107,107,72,,,,,,,,,,,,,,,,,,801.6016777320001,0.0006394259999069618,802.1005302240001,802.1005302240001,802.1005302240001,802.1005302240001,30,return,5.265551733000393,,,6,001,2023-04-16_19h14.32.496,untitled,2022.2.5,None,
9,9,36,9,18,45,63,0.86,0.5,0.5,0.8,-0.3,-1.5,,stimuli/P_09_09_36_09.png,,,,,0,108,108,93,,,,,,,,,,,,,,,,,,807.3812571239996,0.0007565010000689654,807.8826775429998,807.8826775429998,807.8826775429998,807.8826775429998,10,return,7.5122191460004615,,,6,001,2023-04-16_19h14.32.496,untitled,2022.2.5,None,
9,0,0,18,9,9,27,1.0,0.0,1.0,0.0,1.0,1.0,,stimuli/P_09_00_00_18.png,,,,,0,109,109,66,,,,,,,,,,,,,,,,,,815.4228123269995,0.000746505000279285,815.9184050209997,815.9184050209997,815.9184050209997,815.9184050209997,30,return,3.6953452649995597,,,6,001,2023-04-16_19h14.32.496,untitled,2022.2.5,None,
0,18,9,18,18,9,45,0.6,1.0,0.0,0.33,-0.33,-0.5,,stimuli/P_00_18_09_18.png,,,,,0,110,110,38,,,,,,,,,,,,,,,,,,819.6348514129995,0.00064218300030916,820.1316427749998,820.1316427749998,820.1316427749998,820.1316427749998,0,return,1.4265663800006223,,,6,001,2023-04-16_19h14.32.496,untitled,2022.2.5,None,
18,36,9,0,54,27,63,0.43,0.67,0.33,1.0,-0.67,#NAME?,,stimuli/P_18_36_09_00.png,,,,,0,111,111,180,,,,,,,,,,,,,,,,,,821.585614441,0.0007662309999432182,822.109484996,822.109484996,822.109484996,822.109484996,20,return,6.794491139999991,,,6,001,2023-04-16_19h14.32.496,untitled,2022.2.5,None,
0,0,0,0,0,0,0,None,None,None,None,None,None,,stimuli/P_00_00_00_00.png,,,,,0,112,112,0,,,,,,,,,,,,,,,,,,828.9220086530004,0.000632354999652307,829.417148216,829.417148216,829.417148216,829.417148216,0,return,2.6145738360000905,,,6,001,2023-04-16_19h14.32.496,untitled,2022.2.5,None,
9,36,18,36,45,27,99,0.64,0.8,0.2,0.33,-0.13,-0.2,,stimuli/P_09_36_18_36.png,,,,,0,113,113,123,,,,,,,,,,,,,,,,,,832.053808443,0.0007790929994371254,832.5679276210003,832.5679276210003,832.5679276210003,832.5679276210003,15,None,,,,6,001,2023-04-16_19h14.32.496,untitled,2022.2.5,None,
0,18,0,9,18,0,27,0.33,1.0,0.0,0.0,0.0,0.0,,stimuli/P_00_18_00_09.png,,,,,0,114,114,33,,,,,,,,,,,,,,,,,,840.1670857959998,0.016275472999041085,840.6734969589997,840.6734969589997,840.6734969589997,840.6734969589997,0,return,3.335584012000254,,,6,001,2023-04-16_19h14.32.496,untitled,2022.2.5,None,
36,36,9,36,72,45,117,0.69,0.5,0.5,0.2,0.3,0.37,,stimuli/P_36_36_09_36.png,,,,,0,115,115,247,,,,,,,,,,,,,,,,,,844.0366657409995,0.0007597339999847463,844.5517524770003,844.5517524770003,844.5517524770003,844.5517524770003,30,return,4.549731495000742,,,6,001,2023-04-16_19h14.32.496,untitled,2022.2.5,None,
36,18,9,18,54,45,81,0.78,0.33,0.67,0.33,0.33,0.5,,stimuli/P_36_18_09_18.png,,,,,0,116,116,230,,,,,,,,,,,,,,,,,,849.1248764869997,0.0007604140000694315,849.6351386879996,849.6351386879996,849.6351386879996,849.6351386879996,35,return,5.151122242000383,,,6,001,2023-04-16_19h14.32.496,untitled,2022.2.5,None,
0,36,9,0,36,9,45,0.2,1.0,0.0,1.0,-1.0,#NAME?,,stimuli/P_00_36_09_00.png,,,,,0,117,117,52,,,,,,,,,,,,,,,,,,854.811365734,0.0005183439998290851,855.3119687819999,855.3119687819999,855.3119687819999,855.3119687819999,0,return,1.8565039439999964,,,6,001,2023-04-16_19h14.32.496,untitled,2022.2.5,None,
9,36,9,0,45,18,54,0.33,0.8,0.2,1.0,-0.8,#NAME?,,stimuli/P_09_36_09_00.png,,,,,0,118,118,116,,,,,,,,,,,,,,,,,,857.1838225299998,0.0004911160003757686,857.6773464360003,857.6773464360003,857.6773464360003,857.6773464360003,20,return,7.399669596000422,,,6,001,2023-04-16_19h14.32.496,untitled,2022.2.5,None,
36,36,9,9,72,45,90,0.6,0.5,0.5,0.5,0.0,0.0,,stimuli/P_36_36_09_09.png,,,,,0,119,119,245,,,,,,,,,,,,,,,,,,865.1018300260002,0.0005530340004042955,865.6095111819996,865.6095111819996,865.6095111819996,865.6095111819996,30,return,5.597973597999953,,,6,001,2023-04-16_19h14.32.496,untitled,2022.2.5,None,
18,0,0,0,18,18,18,1.0,0.0,1.0,None,None,None,,stimuli/P_18_00_00_00.png,,,,,0,120,120,128,,,,,,,,,,,,,,,,,,871.237278433,0.0009333170000900282,871.747931848,871.747931848,871.747931848,871.747931848,100,return,2.0944433100003153,,,6,001,2023-04-16_19h14.32.496,untitled,2022.2.5,None,
18,18,18,18,36,36,72,0.75,0.5,0.5,0.5,0.0,0.0,,stimuli/P_18_18_18_18.png,,,,,0,121,121,170,,,,,,,,,,,,,,,,,,873.8682363560001,0.0013207990004957537,874.3794006369999,874.3794006369999,874.3794006369999,874.3794006369999,25,return,2.0771297110004525,,,6,001,2023-04-16_19h14.32.496,untitled,2022.2.5,None,
36,9,18,36,45,54,99,0.91,0.2,0.8,0.33,0.47,0.7,,stimuli/P_36_09_18_36.png,,,,,0,122,122,219,,,,,,,,,,,,,,,,,,876.4855724489998,0.0009518520000710851,876.9977814029999,876.9977814029999,876.9977814029999,876.9977814029999,30,return,4.06644184400011,,,6,001,2023-04-16_19h14.32.496,untitled,2022.2.5,None,
9,9,0,0,18,9,18,0.5,0.5,0.5,None,None,None,,stimuli/P_09_09_00_00.png,,,,,0,123,123,80,,,,,,,,,,,,,,,,,,881.0862444719996,0.000726422999832721,881.5819721899998,881.5819721899998,881.5819721899998,881.5819721899998,50,return,2.169809115001044,,,6,001,2023-04-16_19h14.32.496,untitled,2022.2.5,None,
9,36,0,18,45,9,63,0.43,0.8,0.2,0.0,0.2,0.2,,stimuli/P_09_36_00_18.png,,,,,0,124,124,114,,,,,,,,,,,,,,,,,,883.7671804600004,0.0005658609998135944,884.2633765499995,884.2633765499995,884.2633765499995,884.2633765499995,20,return,6.941663388000052,,,6,001,2023-04-16_19h14.32.496,untitled,2022.2.5,None,
18,36,18,36,54,36,108,0.67,0.67,0.33,0.33,0.0,0.0,,stimuli/P_18_36_18_36.png,,,,,0,125,125,187,,,,,,,,,,,,,,,,,,891.2230982800002,0.0006450860000768444,891.729739077,891.729739077,891.729739077,891.729739077,15,return,4.8901424539999425,,,6,001,2023-04-16_19h14.32.496,untitled,2022.2.5,None,
9,18,18,9,27,27,54,0.67,0.67,0.33,0.67,-0.33,-1.0,,stimuli/P_09_18_18_09.png,,,,,0,126,126,105,,,,,,,,,,,,,,,,,,896.6360855390003,0.0006434960005208268,897.1385077759996,897.1385077759996,897.1385077759996,897.1385077759996,15,return,4.292821799000194,,,6,001,2023-04-16_19h14.32.496,untitled,2022.2.5,None,
18,36,9,36,54,27,99,0.64,0.67,0.33,0.2,0.13,0.17,,stimuli/P_18_36_09_36.png,,,,,0,127,127,183,,,,,,,,,,,,,,,,,,901.4596564960002,0.0008797810005489737,901.9549936789999,901.9549936789999,901.9549936789999,901.9549936789999,15,None,,,,6,001,2023-04-16_19h14.32.496,untitled,2022.2.5,None,
0,18,36,36,18,36,90,0.8,1.0,0.0,0.5,-0.5,-1.0,,stimuli/P_00_18_36_36.png,,,,,0,128,128,47,,,,,,,,,,,,,,,,,,909.5663147109999,0.009696815999632236,910.0750320179995,910.0750320179995,910.0750320179995,910.0750320179995,0,return,1.648713274000329,,,6,001,2023-04-16_19h14.32.496,untitled,2022.2.5,None,
36,9,18,0,45,54,63,0.86,0.2,0.8,1.0,-0.2,#NAME?,,stimuli/P_36_09_18_00.png,,,,,0,129,129,216,,,,,,,,,,,,,,,,,,911.7525473249998,0.0007576300004075165,912.257023532,912.257023532,912.257023532,912.257023532,40,return,6.67166185699989,,,6,001,2023-04-16_19h14.32.496,untitled,2022.2.5,None,
0,9,0,0,9,0,9,0.0,1.0,0.0,None,None,None,,stimuli/P_00_09_00_00.png,,,,,0,130,130,16,,,,,,,,,,,,,,,,,,918.9541966770003,0.0007684560005145613,919.4536975150004,919.4536975150004,919.4536975150004,919.4536975150004,0,return,1.5641014370003177,,,6,001,2023-04-16_19h14.32.496,untitled,2022.2.5,None,
0,36,0,9,36,0,45,0.2,1.0,0.0,0.0,0.0,0.0,,stimuli/P_00_36_00_09.png,,,,,0,131,131,49,,,,,,,,,,,,,,,,,,921.0338637180002,0.0005588089998127543,921.536251986,921.536251986,921.536251986,921.536251986,0,return,1.545162977000473,,,6,001,2023-04-16_19h14.32.496,untitled,2022.2.5,None,
18,36,0,9,54,18,63,0.43,0.67,0.33,0.0,0.33,0.33,,stimuli/P_18_36_00_09.png,,,,,0,132,132,177,,,,,,,,,,,,,,,,,,923.1049132239996,0.0007590740005980479,923.6003534849997,923.6003534849997,923.6003534849997,923.6003534849997,25,return,5.620911813000021,,,6,001,2023-04-16_19h14.32.496,untitled,2022.2.5,None,
36,0,18,18,36,54,72,1.0,0.0,1.0,0.5,0.5,1.0,,stimuli/P_36_00_18_18.png,,,,,0,133,133,202,,,,,,,,,,,,,,,,,,929.235160485,0.0006443880001825164,929.7373703989997,929.7373703989997,929.7373703989997,929.7373703989997,40,None,,,,6,001,2023-04-16_19h14.32.496,untitled,2022.2.5,None,
18,18,36,0,36,54,72,0.75,0.5,0.5,1.0,-0.5,#NAME?,,stimuli/P_18_18_36_00.png,,,,,0,134,134,172,,,,,,,,,,,,,,,,,,937.3530268289996,0.019699583999681636,937.8634339170003,937.8634339170003,937.8634339170003,937.8634339170003,30,return,5.3943703390004885,,,6,001,2023-04-16_19h14.32.496,untitled,2022.2.5,None,
18,9,9,9,27,27,45,0.8,0.33,0.67,0.5,0.17,0.33,,stimuli/P_18_09_09_09.png,,,,,0,135,135,149,,,,,,,,,,,,,,,,,,943.2836874719997,0.0005558249995374354,943.7714571690003,943.7714571690003,943.7714571690003,943.7714571690003,40,return,5.444377474999783,,,6,001,2023-04-16_19h14.32.496,untitled,2022.2.5,None,
18,18,36,18,36,54,90,0.8,0.5,0.5,0.67,-0.17,-0.5,,stimuli/P_18_18_36_18.png,,,,,0,136,136,174,,,,,,,,,,,,,,,,,,949.2318334069996,0.0005625280000458588,949.733481575,949.733481575,949.733481575,949.733481575,25,return,4.098618023999734,,,6,001,2023-04-16_19h14.32.496,untitled,2022.2.5,None,
9,36,0,0,45,9,45,0.2,0.8,0.2,None,None,None,,stimuli/P_09_36_00_00.png,,,,,0,137,137,112,,,,,,,,,,,,,,,,,,953.8504892330002,0.0006483389997811173,954.350629171,954.350629171,954.350629171,954.350629171,30,return,4.76813136400051,,,6,001,2023-04-16_19h14.32.496,untitled,2022.2.5,None,
18,9,18,18,27,36,63,0.86,0.33,0.67,0.5,0.17,0.33,,stimuli/P_18_09_18_18.png,,,,,0,138,138,154,,,,,,,,,,,,,,,,,,959.1351480900003,0.0005679430005329777,959.6325228779997,959.6325228779997,959.6325228779997,959.6325228779997,26,return,5.625783178000347,,,6,001,2023-04-16_19h14.32.496,untitled,2022.2.5,None,
9,36,9,18,45,18,72,0.5,0.8,0.2,0.33,-0.13,-0.2,,stimuli/P_09_36_09_18.png,,,,,0,139,139,118,,,,,,,,,,,,,,,,,,965.2720864599996,0.0005105179998281528,965.7684884090004,965.7684884090004,965.7684884090004,965.7684884090004,10,return,7.407987837000292,,,6,001,2023-04-16_19h14.32.496,untitled,2022.2.5,None,
18,18,9,18,36,27,63,0.71,0.5,0.5,0.33,0.17,0.25,,stimuli/P_18_18_09_18.png,,,,,0,140,140,166,,,,,,,,,,,,,,,,,,973.1981873880004,0.0006482600001618266,973.7021218350001,973.7021218350001,973.7021218350001,973.7021218350001,30,return,3.928911746000267,,,6,001,2023-04-16_19h14.32.496,untitled,2022.2.5,None,
18,9,18,0,27,36,45,0.8,0.33,0.67,1.0,-0.33,#NAME?,,stimuli/P_18_09_18_00.png,,,,,0,141,141,152,,,,,,,,,,,,,,,,,,977.6492869020003,0.0005583949996434967,978.1483518949999,978.1483518949999,978.1483518949999,978.1483518949999,35,return,4.041618056000516,,,6,001,2023-04-16_19h14.32.496,untitled,2022.2.5,None,
18,9,9,18,27,27,54,0.83,0.33,0.67,0.33,0.33,0.5,,stimuli/P_18_09_09_18.png,,,,,0,142,142,150,,,,,,,,,,,,,,,,,,982.2196383580003,0.0009295640002164873,982.7328913129995,982.7328913129995,982.7328913129995,982.7328913129995,35,return,5.190645774000586,,,6,001,2023-04-16_19h14.32.496,untitled,2022.2.5,None,
9,0,0,36,9,9,45,1.0,0.0,1.0,0.0,1.0,1.0,,stimuli/P_09_00_00_36.png,,,,,0,143,143,67,,,,,,,,,,,,,,,,,,987.9486857539996,0.00048728999990999,988.4550305880002,988.4550305880002,988.4550305880002,988.4550305880002,25,return,4.5693168039997545,,,6,001,2023-04-16_19h14.32.496,untitled,2022.2.5,None,
18,18,36,36,36,54,108,0.83,0.5,0.5,0.5,0.0,0.0,,stimuli/P_18_18_36_36.png,,,,,0,144,144,175,,,,,,,,,,,,,,,,,,993.0539549329997,0.0006380230006470811,993.5489701269998,993.5489701269998,993.5489701269998,993.5489701269998,15,None,,,,6,001,2023-04-16_19h14.32.496,untitled,2022.2.5,None,
36,36,36,0,72,72,108,0.67,0.5,0.5,1.0,-0.5,#NAME?,,stimuli/P_36_36_36_00.png,,,,,0,145,145,252,,,,,,,,,,,,,,,,,,1001.1653519029996,0.012530773000435147,1001.6618399859999,1001.6618399859999,1001.6618399859999,1001.6618399859999,33,return,4.854979866000576,,,6,001,2023-04-16_19h14.32.496,untitled,2022.2.5,None,
9,36,18,0,45,27,63,0.43,0.8,0.2,1.0,-0.8,#NAME?,,stimuli/P_09_36_18_00.png,,,,,0,146,146,120,,,,,,,,,,,,,,,,,,1006.5318247940004,0.000499120000313269,1007.0289472129998,1007.0289472129998,1007.0289472129998,1007.0289472129998,15,return,6.460203765999722,,,6,001,2023-04-16_19h14.32.496,untitled,2022.2.5,None,
18,18,9,36,36,27,81,0.78,0.5,0.5,0.2,0.3,0.37,,stimuli/P_18_18_09_36.png,,,,,0,147,147,167,,,,,,,,,,,,,,,,,,1013.5168242119998,0.000675308999234403,1014.0214319200004,1014.0214319200004,1014.0214319200004,1014.0214319200004,25,return,5.753955012000006,,,6,001,2023-04-16_19h14.32.496,untitled,2022.2.5,None,
9,0,18,36,9,27,63,1.0,0.0,1.0,0.33,0.67,1.0,,stimuli/P_09_00_18_36.png,,,,,0,148,148,75,,,,,,,,,,,,,,,,,,1019.8018894440002,0.0009427000004507136,1020.3131610250002,1020.3131610250002,1020.3131610250002,1020.3131610250002,23,return,6.600504924999768,,,6,001,2023-04-16_19h14.32.496,untitled,2022.2.5,None,
0,0,9,9,0,9,18,1.0,None,None,0.5,None,None,,stimuli/P_00_00_09_09.png,,,,,0,149,149,5,,,,,,,,,,,,,,,,,,1026.935607034,0.0006382100000337232,1027.4333907239998,1027.4333907239998,1027.4333907239998,1027.4333907239998,0,return,2.379839704000915,,,6,001,2023-04-16_19h14.32.496,untitled,2022.2.5,None,
0,0,0,18,0,0,18,1.0,None,None,0.0,None,None,,stimuli/P_00_00_00_18.png,,,,,0,150,150,2,,,,,,,,,,,,,,,,,,1029.8324451939998,0.0006442160001824959,1030.3210307529998,1030.3210307529998,1030.3210307529998,1030.3210307529998,0,return,1.3746183499997642,,,6,001,2023-04-16_19h14.32.496,untitled,2022.2.5,None,
36,36,36,9,72,72,117,0.69,0.5,0.5,0.8,-0.3,-1.5,,stimuli/P_36_36_36_09.png,,,,,0,151,151,253,,,,,,,,,,,,,,,,,,1031.7169781659995,0.000760166999498324,1032.2203112179996,1032.2203112179996,1032.2203112179996,1032.2203112179996,29,return,4.961978031999934,,,6,001,2023-04-16_19h14.32.496,untitled,2022.2.5,None,
18,9,0,36,27,18,63,0.86,0.33,0.67,0.0,0.67,0.67,,stimuli/P_18_09_00_36.png,,,,,0,152,152,147,,,,,,,,,,,,,,,,,,1037.1977769659998,0.000560632000087935,1037.6953128300001,1037.6953128300001,1037.6953128300001,1037.6953128300001,3,None,,,,6,001,2023-04-16_19h14.32.496,untitled,2022.2.5,None,
18,0,9,0,18,27,27,1.0,0.0,1.0,1.0,0.0,None,,stimuli/P_18_00_09_00.png,,,,,0,153,153,132,,,,,,,,,,,,,,,,,,1045.313578843,0.01700568399974145,1045.8188424569998,1045.8188424569998,1045.8188424569998,1045.8188424569998,60,return,5.882454600000528,,,6,001,2023-04-16_19h14.32.496,untitled,2022.2.5,None,
9,9,18,0,18,27,36,0.75,0.5,0.5,1.0,-0.5,#NAME?,,stimuli/P_09_09_18_00.png,,,,,0,154,154,88,,,,,,,,,,,,,,,,,,1051.7167288,0.0006953310003154911,1052.2158585939997,1052.2158585939997,1052.2158585939997,1052.2158585939997,29,return,6.660557209000217,,,6,001,2023-04-16_19h14.32.496,untitled,2022.2.5,None,
9,9,36,18,18,45,72,0.88,0.5,0.5,0.67,-0.17,-0.5,,stimuli/P_09_09_36_18.png,,,,,0,155,155,94,,,,,,,,,,,,,,,,,,1058.899637513,0.0006371649997163331,1059.4050471909995,1059.4050471909995,1059.4050471909995,1059.4050471909995,20,return,6.533155090000946,,,6,001,2023-04-16_19h14.32.496,untitled,2022.2.5,None,
0,18,18,36,18,18,72,0.75,1.0,0.0,0.33,-0.33,-0.5,,stimuli/P_00_18_18_36.png,,,,,0,156,156,43,,,,,,,,,,,,,,,,,,1065.9631032400002,0.000647730999844498,1066.4519008500001,1066.4519008500001,1066.4519008500001,1066.4519008500001,0,return,1.7322260760001882,,,6,001,2023-04-16_19h14.32.496,untitled,2022.2.5,None,
36,9,9,36,45,45,90,0.9,0.2,0.8,0.2,0.6,0.75,,stimuli/P_36_09_09_36.png,,,,,0,157,157,215,,,,,,,,,,,,,,,,,,1068.199884007,0.0005605040005320916,1068.6985628920002,1068.6985628920002,1068.6985628920002,1068.6985628920002,30,return,7.102621334000105,,,6,001,2023-04-16_19h14.32.496,untitled,2022.2.5,None,
36,18,18,18,54,54,90,0.8,0.33,0.67,0.5,0.17,0.33,,stimuli/P_36_18_18_18.png,,,,,0,158,158,234,,,,,,,,,,,,,,,,,,1075.8155781449996,0.0006399329995474545,1076.3109506049996,1076.3109506049996,1076.3109506049996,1076.3109506049996,40,return,5.327167747000203,,,6,001,2023-04-16_19h14.32.496,untitled,2022.2.5,None,
0,36,36,0,36,36,72,0.5,1.0,0.0,1.0,-1.0,#NAME?,,stimuli/P_00_36_36_00.png,,,,,0,159,159,60,,,,,,,,,,,,,,,,,,1081.667593964,0.0009505230000286247,1082.177075699,1082.177075699,1082.177075699,1082.177075699,0,return,1.8984531850001076,,,6,001,2023-04-16_19h14.32.496,untitled,2022.2.5,None,
18,0,0,36,18,18,54,1.0,0.0,1.0,0.0,1.0,1.0,,stimuli/P_18_00_00_36.png,,,,,0,160,160,131,,,,,,,,,,,,,,,,,,1084.0925333579999,0.000650008000775415,1084.585187957,1084.585187957,1084.585187957,1084.585187957,30,return,3.270885969000119,,,6,001,2023-04-16_19h14.32.496,untitled,2022.2.5,None,
18,9,0,9,27,18,36,0.75,0.33,0.67,0.0,0.67,0.67,,stimuli/P_18_09_00_09.png,,,,,0,161,161,145,,,,,,,,,,,,,,,,,,1087.8804521000002,0.0006552069999088417,1088.378971534,1088.378971534,1088.378971534,1088.378971534,40,return,6.434862179999982,,,6,001,2023-04-16_19h14.32.496,untitled,2022.2.5,None,
9,9,18,36,18,27,72,0.88,0.5,0.5,0.33,0.17,0.25,,stimuli/P_09_09_18_36.png,,,,,0,162,162,91,,,,,,,,,,,,,,,,,,1094.8333843789997,0.0006753759998900932,1095.3295498039997,1095.3295498039997,1095.3295498039997,1095.3295498039997,15,None,,,,6,001,2023-04-16_19h14.32.496,untitled,2022.2.5,None,
9,18,0,36,27,9,63,0.71,0.67,0.33,0.0,0.33,0.33,,stimuli/P_09_18_00_36.png,,,,,0,163,163,99,,,,,,,,,,,,,,,,,,1102.9445111189998,0.01294266599961702,1103.4476321749999,1103.4476321749999,1103.4476321749999,1103.4476321749999,15,return,3.7242266719995314,,,6,001,2023-04-16_19h14.32.496,untitled,2022.2.5,None,
9,0,36,9,9,45,54,1.0,0.0,1.0,0.8,0.2,1.0,,stimuli/P_09_00_36_09.png,,,,,0,164,164,77,,,,,,,,,,,,,,,,,,1107.1837669589995,0.0006960439995964407,1107.6788196360003,1107.6788196360003,1107.6788196360003,1107.6788196360003,15,return,4.504371618000732,,,6,001,2023-04-16_19h14.32.496,untitled,2022.2.5,None,
0,36,9,36,36,9,81,0.56,1.0,0.0,0.2,-0.2,-0.25,,stimuli/P_00_36_09_36.png,,,,,0,165,165,55,,,,,,,,,,,,,,,,,,1112.198167085,0.0005759249997936422,1112.704904866,1112.704904866,1112.704904866,1112.704904866,0,return,3.8515492570004426,,,6,001,2023-04-16_19h14.32.496,untitled,2022.2.5,None,
36,0,18,36,36,54,90,1.0,0.0,1.0,0.33,0.67,1.0,,stimuli/P_36_00_18_36.png,,,,,0,166,166,203,,,,,,,,,,,,,,,,,,1116.5834016569997,0.0007605299997521797,1117.0854917529996,1117.0854917529996,1117.0854917529996,1117.0854917529996,39,return,7.511982958000772,,,6,001,2023-04-16_19h14.32.496,untitled,2022.2.5,None,
0,9,9,0,9,9,18,0.5,1.0,0.0,1.0,-1.0,#NAME?,,stimuli/P_00_09_09_00.png,,,,,0,167,167,20,,,,,,,,,,,,,,,,,,1124.6134450339996,0.0005588370004261378,1125.1113350169999,1125.1113350169999,1125.1113350169999,1125.1113350169999,0,return,1.917246454000633,,,6,001,2023-04-16_19h14.32.496,untitled,2022.2.5,None,
18,0,0,18,18,18,36,1.0,0.0,1.0,0.0,1.0,1.0,,stimuli/P_18_00_00_18.png,,,,,0,168,168,130,,,,,,,,,,,,,,,,,,1127.048114655,0.000560452999707195,1127.5439479329998,1127.5439479329998,1127.5439479329998,1127.5439479329998,50,return,2.3118079169998964,,,6,001,2023-04-16_19h14.32.496,untitled,2022.2.5,None,
9,18,18,0,27,27,45,0.6,0.67,0.33,1.0,-0.67,#NAME?,,stimuli/P_09_18_18_00.png,,,,,0,169,169,104,,,,,,,,,,,,,,,,,,1129.879381242,0.0007603220001328737,1130.3797319169998,1130.3797319169998,1130.3797319169998,1130.3797319169998,20,return,6.842355116999897,,,6,001,2023-04-16_19h14.32.496,untitled,2022.2.5,None,
36,18,0,36,54,36,90,0.8,0.33,0.67,0.0,0.67,0.67,,stimuli/P_36_18_00_36.png,,,,,0,170,170,227,,,,,,,,,,,,,,,,,,1137.244080812,0.0008817190000627306,1137.7387978349998,1137.7387978349998,1137.7387978349998,1137.7387978349998,40,return,7.255210583000917,,,6,001,2023-04-16_19h14.32.496,untitled,2022.2.5,None,
36,36,0,36,72,36,108,0.67,0.5,0.5,0.0,0.5,0.5,,stimuli/P_36_36_00_36.png,,,,,0,171,171,243,,,,,,,,,,,,,,,,,,1145.0155747930003,0.0006409269999494427,1145.5119691849995,1145.5119691849995,1145.5119691849995,1145.5119691849995,33,return,4.930732079999871,,,6,001,2023-04-16_19h14.32.496,untitled,2022.2.5,None,
36,0,9,0,36,45,45,1.0,0.0,1.0,1.0,0.0,None,,stimuli/P_36_00_09_00.png,,,,,0,172,172,196,,,,,,,,,,,,,,,,,,1150.466995914,0.0007558340003015473,1150.9641521719996,1150.9641521719996,1150.9641521719996,1150.9641521719996,40,None,,,,6,001,2023-04-16_19h14.32.496,untitled,2022.2.5,None,
18,9,9,0,27,27,36,0.75,0.33,0.67,1.0,-0.33,#NAME?,,stimuli/P_18_09_09_00.png,,,,,0,173,173,148,,,,,,,,,,,,,,,,,,1158.5786388139995,0.015271272000063618,1159.0840025090001,1159.0840025090001,1159.0840025090001,1159.0840025090001,3,None,,,,6,001,2023-04-16_19h14.32.496,untitled,2022.2.5,None,
36,0,36,18,36,72,90,1.0,0.0,1.0,0.67,0.33,1.0,,stimuli/P_36_00_36_18.png,,,,,0,174,174,206,,,,,,,,,,,,,,,,,,1166.680229439,0.016455251999104803,1167.1844477100003,1167.1844477100003,1167.1844477100003,1167.1844477100003,35,return,6.008094314000118,,,6,001,2023-04-16_19h14.32.496,untitled,2022.2.5,None,
36,18,9,9,54,45,72,0.75,0.33,0.67,0.5,0.17,0.33,,stimuli/P_36_18_09_09.png,,,,,0,175,175,229,,,,,,,,,,,,,,,,,,1173.2186406399996,0.000766617000408587,1173.7181077699997,1173.7181077699997,1173.7181077699997,1173.7181077699997,40,None,,,,6,001,2023-04-16_19h14.32.496,untitled,2022.2.5,None,
0,9,0,9,9,0,18,0.5,1.0,0.0,0.0,0.0,0.0,,stimuli/P_00_09_00_09.png,,,,,0,176,176,17,,,,,,,,,,,,,,,,,,1181.3305282350002,0.013269711999782885,1181.8331046820003,1181.8331046820003,1181.8331046820003,1181.8331046820003,0,return,2.3959169190002285,,,6,001,2023-04-16_19h14.32.496,untitled,2022.2.5,None,
36,18,36,36,54,72,126,0.86,0.33,0.67,0.5,0.17,0.33,,stimuli/P_36_18_36_36.png,,,,,0,177,177,239,,,,,,,,,,,,,,,,,,1184.2478521740004,0.0006308530000751489,1184.7510178290004,1184.7510178290004,1184.7510178290004,1184.7510178290004,28,return,5.945991593000144,,,6,001,2023-04-16_19h14.32.496,untitled,2022.2.5,None,
9,36,36,9,45,45,90,0.6,0.8,0.2,0.8,-0.6,-3.0,,stimuli/P_09_36_36_09.png,,,,,0,178,178,125,,,,,,,,,,,,,,,,,,1190.7131056790004,0.0006639499997618259,1191.2163994410002,1191.2163994410002,1191.2163994410002,1191.2163994410002,15,return,6.957151026999782,,,6,001,2023-04-16_19h14.32.496,untitled,2022.2.5,None,
0,18,0,36,18,0,54,0.67,1.0,0.0,0.0,0.0,0.0,,stimuli/P_00_18_00_36.png,,,,,0,179,179,35,,,,,,,,,,,,,,,,,,1198.198892384,0.0007595580000270274,1198.7067440459996,1198.7067440459996,1198.7067440459996,1198.7067440459996,0,return,1.9907089380003526,,,6,001,2023-04-16_19h14.32.496,untitled,2022.2.5,None,
0,36,0,0,36,0,36,0.0,1.0,0.0,None,None,None,,stimuli/P_00_36_00_00.png,,,,,0,180,180,48,,,,,,,,,,,,,,,,,,1200.7133875319996,0.000565074999940407,1201.2117067190002,1201.2117067190002,1201.2117067190002,1201.2117067190002,0,return,1.5555308240009253,,,6,001,2023-04-16_19h14.32.496,untitled,2022.2.5,None,
0,9,9,18,9,9,36,0.75,1.0,0.0,0.33,-0.33,-0.5,,stimuli/P_00_09_09_18.png,,,,,0,181,181,22,,,,,,,,,,,,,,,,,,1202.781487366,0.0009331040000688517,1203.3066547529997,1203.3066547529997,1203.3066547529997,1203.3066547529997,0,return,3.1399441490002573,,,6,001,2023-04-16_19h14.32.496,untitled,2022.2.5,None,
0,36,0,36,36,0,72,0.5,1.0,0.0,0.0,0.0,0.0,,stimuli/P_00_36_00_36.png,,,,,0,182,182,51,,,,,,,,,,,,,,,,,,1206.4624328250002,0.0006644539998887922,1206.988776186,1206.988776186,1206.988776186,1206.988776186,0,return,4.88497400200049,,,6,001,2023-04-16_19h14.32.496,untitled,2022.2.5,None,
18,18,9,9,36,27,54,0.67,0.5,0.5,0.5,0.0,0.0,,stimuli/P_18_18_09_09.png,,,,,0,183,183,165,,,,,,,,,,,,,,,,,,1211.900324235,0.0007688240002607927,1212.4141069870002,1212.4141069870002,1212.4141069870002,1212.4141069870002,30,None,,,,6,001,2023-04-16_19h14.32.496,untitled,2022.2.5,None,
18,18,18,0,36,36,54,0.67,0.5,0.5,1.0,-0.5,#NAME?,,stimuli/P_18_18_18_00.png,,,,,0,184,184,168,,,,,,,,,,,,,,,,,,1220.008459703,0.008754510999096965,1220.5252507730002,1220.5252507730002,1220.5252507730002,1220.5252507730002,33,return,4.257222002999697,,,6,001,2023-04-16_19h14.32.496,untitled,2022.2.5,None,
9,18,0,9,27,9,36,0.5,0.67,0.33,0.0,0.33,0.33,,stimuli/P_09_18_00_09.png,,,,,0,185,185,97,,,,,,,,,,,,,,,,,,1224.7989562700004,0.0007008460006545647,1225.294536069,1225.294536069,1225.294536069,1225.294536069,30,return,6.702453855000385,,,6,001,2023-04-16_19h14.32.496,untitled,2022.2.5,None,
36,36,9,18,72,45,99,0.64,0.5,0.5,0.33,0.17,0.25,,stimuli/P_36_36_09_18.png,,,,,0,186,186,246,,,,,,,,,,,,,,,,,,1232.0156642929996,0.0006484039995484636,1232.5158708520003,1232.5158708520003,1232.5158708520003,1232.5158708520003,5,None,,,,6,001,2023-04-16_19h14.32.496,untitled,2022.2.5,None,
0,18,9,0,18,9,27,0.33,1.0,0.0,1.0,-1.0,#NAME?,,stimuli/P_00_18_09_00.png,,,,,0,187,187,36,,,,,,,,,,,,,,,,,,1240.1278770709996,0.015391052999802923,1240.6327633339997,1240.6327633339997,1240.6327633339997,1240.6327633339997,0,return,3.339104998000039,,,6,001,2023-04-16_19h14.32.496,untitled,2022.2.5,None,
36,36,18,0,72,54,90,0.6,0.5,0.5,1.0,-0.5,#NAME?,,stimuli/P_36_36_18_00.png,,,,,0,188,188,248,,,,,,,,,,,,,,,,,,1243.992544273,0.0009320590006609564,1244.4955102209997,1244.4955102209997,1244.4955102209997,1244.4955102209997,35,return,5.201662392000799,,,6,001,2023-04-16_19h14.32.496,untitled,2022.2.5,None,
18,18,0,0,36,18,36,0.5,0.5,0.5,None,None,None,,stimuli/P_18_18_00_00.png,,,,,0,189,189,160,,,,,,,,,,,,,,,,,,1249.7117416410001,0.000565940999877057,1250.2109422960002,1250.2109422960002,1250.2109422960002,1250.2109422960002,50,return,2.178659465000237,,,6,001,2023-04-16_19h14.32.496,untitled,2022.2.5,None,
18,36,0,36,54,18,90,0.6,0.67,0.33,0.0,0.33,0.33,,stimuli/P_18_36_00_36.png,,,,,0,190,190,179,,,,,,,,,,,,,,,,,,1252.4170746050004,0.0006500310000774334,1252.9175015170003,1252.9175015170003,1252.9175015170003,1252.9175015170003,2,None,,,,6,001,2023-04-16_19h14.32.496,untitled,2022.2.5,None,
0,18,0,0,18,0,18,0.0,1.0,0.0,None,None,None,,stimuli/P_00_18_00_00.png,,,,,0,191,191,32,,,,,,,,,,,,,,,,,,1260.5312129969998,0.01456702499945095,1261.0270081010003,1261.0270081010003,1261.0270081010003,1261.0270081010003,0,return,2.3755938090007476,,,6,001,2023-04-16_19h14.32.496,untitled,2022.2.5,None,
18,0,18,0,18,36,36,1.0,0.0,1.0,1.0,0.0,None,,stimuli/P_18_00_18_00.png,,,,,0,192,192,136,,,,,,,,,,,,,,,,,,1263.43232231,0.0007364829998550704,1263.9362007179998,1263.9362007179998,1263.9362007179998,1263.9362007179998,50,return,2.617628861999947,,,6,001,2023-04-16_19h14.32.496,untitled,2022.2.5,None,
9,9,9,0,18,18,27,0.67,0.5,0.5,1.0,-0.5,#NAME?,,stimuli/P_09_09_09_00.png,,,,,0,193,193,84,,,,,,,,,,,,,,,,,,1266.5784857629997,0.0006422479991670116,1267.0803444450003,1267.0803444450003,1267.0803444450003,1267.0803444450003,33,return,4.526516168000853,,,6,001,2023-04-16_19h14.32.496,untitled,2022.2.5,None,
9,0,36,18,9,45,63,1.0,0.0,1.0,0.67,0.33,1.0,,stimuli/P_09_00_36_18.png,,,,,0,194,194,78,,,,,,,,,,,,,,,,,,1271.628984977,0.0007666419996894547,1272.131317546,1272.131317546,1272.131317546,1272.131317546,10,None,,,,6,001,2023-04-16_19h14.32.496,untitled,2022.2.5,None,
18,18,0,18,36,18,54,0.67,0.5,0.5,0.0,0.5,0.5,,stimuli/P_18_18_00_18.png,,,,,0,195,195,162,,,,,,,,,,,,,,,,,,1279.7279516629997,0.0022233169993342017,1280.2330498170004,1280.2330498170004,1280.2330498170004,1280.2330498170004,33,return,4.290913705001003,,,6,001,2023-04-16_19h14.32.496,untitled,2022.2.5,None,
0,9,0,18,9,0,27,0.67,1.0,0.0,0.0,0.0,0.0,,stimuli/P_00_09_00_18.png,,,,,0,196,196,18,,,,,,,,,,,,,,,,,,1284.5516078809997,0.0007665800003451295,1285.0542289120003,1285.0542289120003,1285.0542289120003,1285.0542289120003,25,return,3.435644314000456,,,6,001,2023-04-16_19h14.32.496,untitled,2022.2.5,None,
36,36,0,0,72,36,72,0.5,0.5,0.5,None,None,None,,stimuli/P_36_36_00_00.png,,,,,0,197,197,240,,,,,,,,,,,,,,,,,,1288.5127765320003,0.0006433850003304542,1289.0161452559996,1289.0161452559996,1289.0161452559996,1289.0161452559996,50,return,2.764375311000549,,,6,001,2023-04-16_19h14.32.496,untitled,2022.2.5,None,
36,0,9,18,36,45,63,1.0,0.0,1.0,0.33,0.67,1.0,,stimuli/P_36_00_09_18.png,,,,,0,198,198,198,,,,,,,,,,,,,,,,,,1291.7958227939998,0.0006455450002249563,1292.2915981409997,1292.2915981409997,1292.2915981409997,1292.2915981409997,40,return,4.846154220000244,,,6,001,2023-04-16_19h14.32.496,untitled,2022.2.5,None,
18,18,0,36,36,18,72,0.75,0.5,0.5,0.0,0.5,0.5,,stimuli/P_18_18_00_36.png,,,,,0,199,199,163,,,,,,,,,,,,,,,,,,1297.1579103550002,0.0006868000000395114,1297.6530100620002,1297.6530100620002,1297.6530100620002,1297.6530100620002,25,return,6.865294837000874,,,6,001,2023-04-16_19h14.32.496,untitled,2022.2.5,None,
9,36,9,36,45,18,90,0.6,0.8,0.2,0.2,0.0,0.0,,stimuli/P_09_36_09_36.png,,,,,0,200,200,119,,,,,,,,,,,,,,,,,,1304.5361557360002,0.0006449130005421466,1305.0308975469998,1305.0308975469998,1305.0308975469998,1305.0308975469998,15,return,6.404879826000069,,,6,001,2023-04-16_19h14.32.496,untitled,2022.2.5,None,
0,0,36,18,0,36,54,1.0,None,None,0.67,None,None,,stimuli/P_00_00_36_18.png,,,,,0,201,201,14,,,,,,,,,,,,,,,,,,1311.463824112,0.0007891259992902633,1311.958493309,1311.958493309,1311.958493309,1311.958493309,0,return,2.0100795560001643,,,6,001,2023-04-16_19h14.32.496,untitled,2022.2.5,None,
9,18,0,18,27,9,45,0.6,0.67,0.33,0.0,0.33,0.33,,stimuli/P_09_18_00_18.png,,,,,0,202,202,98,,,,,,,,,,,,,,,,,,1313.9971516169999,0.0007913669996924,1314.511505855,1314.511505855,1314.511505855,1314.511505855,30,return,5.236231109000073,,,6,001,2023-04-16_19h14.32.496,untitled,2022.2.5,None,
9,18,36,18,27,45,81,0.78,0.67,0.33,0.67,-0.33,-1.0,,stimuli/P_09_18_36_18.png,,,,,0,203,203,110,,,,,,,,,,,,,,,,,,1319.7736683849998,0.0010352389999752631,1320.2816096139995,1320.2816096139995,1320.2816096139995,1320.2816096139995,15,return,4.423886683000092,,,6,001,2023-04-16_19h14.32.496,untitled,2022.2.5,None,
36,9,36,18,45,72,99,0.91,0.2,0.8,0.67,0.13,0.4,,stimuli/P_36_09_36_18.png,,,,,0,204,204,222,,,,,,,,,,,,,,,,,,1324.7309805719997,0.0009493630004726583,1325.2355148650004,1325.2355148650004,1325.2355148650004,1325.2355148650004,35,return,5.073034801000176,,,6,001,2023-04-16_19h14.32.496,untitled,2022.2.5,None,
36,36,18,36,72,54,126,0.71,0.5,0.5,0.33,0.17,0.25,,stimuli/P_36_36_18_36.png,,,,,0,205,205,251,,,,,,,,,,,,,,,,,,1330.3317179340002,0.0007639240002390579,1330.8334792739997,1330.8334792739997,1330.8334792739997,1330.8334792739997,40,return,2.9424583870004426,,,6,001,2023-04-16_19h14.32.496,untitled,2022.2.5,None,
18,36,36,0,54,54,90,0.6,0.67,0.33,1.0,-0.67,#NAME?,,stimuli/P_18_36_36_00.png,,,,,0,206,206,188,,,,,,,,,,,,,,,,,,1333.79614734,0.0006614350004383596,1334.2969640499996,1334.2969640499996,1334.2969640499996,1334.2969640499996,25,return,7.490948261000085,,,6,001,2023-04-16_19h14.32.496,untitled,2022.2.5,None,
36,0,0,36,36,36,72,1.0,0.0,1.0,0.0,1.0,1.0,,stimuli/P_36_00_00_36.png,,,,,0,207,207,195,,,,,,,,,,,,,,,,,,1341.8142301859998,0.0007638249999217805,1342.319153722,1342.319153722,1342.319153722,1342.319153722,100,return,4.485173654000391,,,6,001,2023-04-16_19h14.32.496,untitled,2022.2.5,None,
18,0,9,36,18,27,63,1.0,0.0,1.0,0.2,0.8,1.0,,stimuli/P_18_00_09_36.png,,,,,0,208,208,135,,,,,,,,,,,,,,,,,,1346.8290356280004,0.0006550739999511279,1347.3389784809997,1347.3389784809997,1347.3389784809997,1347.3389784809997,100,return,4.717090326000289,,,6,001,2023-04-16_19h14.32.496,untitled,2022.2.5,None,
9,18,18,36,27,27,81,0.78,0.67,0.33,0.33,0.0,0.0,,stimuli/P_09_18_18_36.png,,,,,0,209,209,107,,,,,,,,,,,,,,,,,,1352.0835659949998,0.0007596169998578262,1352.5798737369996,1352.5798737369996,1352.5798737369996,1352.5798737369996,25,None,,,,6,001,2023-04-16_19h14.32.496,untitled,2022.2.5,None,
18,36,36,9,54,54,99,0.64,0.67,0.33,0.8,-0.47,-2.33,,stimuli/P_18_36_36_09.png,,,,,0,210,210,189,,,,,,,,,,,,,,,,,,1360.2029469540003,0.016679647999808367,1360.7122473589998,1360.7122473589998,1360.7122473589998,1360.7122473589998,30,return,4.782914881000579,,,6,001,2023-04-16_19h14.32.496,untitled,2022.2.5,None,
9,36,9,9,45,18,63,0.43,0.8,0.2,0.5,-0.3,-0.6,,stimuli/P_09_36_09_09.png,,,,,0,211,211,117,,,,,,,,,,,,,,,,,,1365.52647394,0.0012727370003631222,1366.0363699509999,1366.0363699509999,1366.0363699509999,1366.0363699509999,15,return,7.209482672999911,,,6,001,2023-04-16_19h14.32.496,untitled,2022.2.5,None,
9,0,36,36,9,45,81,1.0,0.0,1.0,0.5,0.5,1.0,,stimuli/P_09_00_36_36.png,,,,,0,212,212,79,,,,,,,,,,,,,,,,,,1373.2602524719996,0.0005447290004667593,1373.7565800399998,1373.7565800399998,1373.7565800399998,1373.7565800399998,10,return,5.277954334000242,,,6,001,2023-04-16_19h14.32.496,untitled,2022.2.5,None,
9,18,0,0,27,9,27,0.33,0.67,0.33,None,None,None,,stimuli/P_09_18_00_00.png,,,,,0,213,213,96,,,,,,,,,,,,,,,,,,1379.0636322009996,0.0007452300005752477,1379.5721478280002,1379.5721478280002,1379.5721478280002,1379.5721478280002,30,return,6.802989106000496,,,6,001,2023-04-16_19h14.32.496,untitled,2022.2.5,None,
0,36,18,0,36,18,54,0.33,1.0,0.0,1.0,-1.0,#NAME?,,stimuli/P_00_36_18_00.png,,,,,0,214,214,56,,,,,,,,,,,,,,,,,,1386.3943948699998,0.0006670969996775966,1386.8970272329998,1386.8970272329998,1386.8970272329998,1386.8970272329998,0,return,3.8411214640000253,,,6,001,2023-04-16_19h14.32.496,untitled,2022.2.5,None,
9,9,0,18,18,9,36,0.75,0.5,0.5,0.0,0.5,0.5,,stimuli/P_09_09_00_18.png,,,,,0,215,215,82,,,,,,,,,,,,,,,,,,1390.7627465140004,0.0008051909999267082,1391.2583648130003,1391.2583648130003,1391.2583648130003,1391.2583648130003,35,return,5.91609946600056,,,6,001,2023-04-16_19h14.32.496,untitled,2022.2.5,None,
36,9,9,0,45,45,54,0.83,0.2,0.8,1.0,-0.2,#NAME?,,stimuli/P_36_09_09_00.png,,,,,0,216,216,212,,,,,,,,,,,,,,,,,,1397.195410106,0.0006501210000351421,1397.7077521419997,1397.7077521419997,1397.7077521419997,1397.7077521419997,60,return,3.12197582600038,,,6,001,2023-04-16_19h14.32.496,untitled,2022.2.5,None,
0,9,18,18,9,18,45,0.8,1.0,0.0,0.5,-0.5,-1.0,,stimuli/P_00_09_18_18.png,,,,,0,217,217,26,,,,,,,,,,,,,,,,,,1400.8545390959998,0.000687996000124258,1401.3610707999997,1401.3610707999997,1401.3610707999997,1401.3610707999997,0,return,1.5933759460003785,,,6,001,2023-04-16_19h14.32.496,untitled,2022.2.5,None,
36,9,0,9,45,36,54,0.83,0.2,0.8,0.0,0.8,0.8,,stimuli/P_36_09_00_09.png,,,,,0,218,218,209,,,,,,,,,,,,,,,,,,1402.9792847159997,0.0007498069999201107,1403.4785193950001,1403.4785193950001,1403.4785193950001,1403.4785193950001,60,return,5.5923779009999635,,,6,001,2023-04-16_19h14.32.496,untitled,2022.2.5,None,
36,0,18,9,36,54,63,1.0,0.0,1.0,0.67,0.33,1.0,,stimuli/P_36_00_18_09.png,,,,,0,219,219,201,,,,,,,,,,,,,,,,,,1409.099905997,0.0009684870001365198,1409.60655976,1409.60655976,1409.60655976,1409.60655976,5,None,,,,6,001,2023-04-16_19h14.32.496,untitled,2022.2.5,None,
18,9,36,0,27,54,63,0.86,0.33,0.67,1.0,-0.33,#NAME?,,stimuli/P_18_09_36_00.png,,,,,0,220,220,156,,,,,,,,,,,,,,,,,,1417.2094789889998,0.011892933999661182,1417.7182809750002,1417.7182809750002,1417.7182809750002,1417.7182809750002,30,return,7.017431231999581,,,6,001,2023-04-16_19h14.32.496,untitled,2022.2.5,None,
18,36,18,9,54,36,81,0.56,0.67,0.33,0.67,-0.33,-1.0,,stimuli/P_18_36_18_09.png,,,,,0,221,221,185,,,,,,,,,,,,,,,,,,1424.760681279,0.0005160299997442053,1425.261882752,1425.261882752,1425.261882752,1425.261882752,30,return,3.076089528000921,,,6,001,2023-04-16_19h14.32.496,untitled,2022.2.5,None,
18,0,36,36,18,54,90,1.0,0.0,1.0,0.5,0.5,1.0,,stimuli/P_18_00_36_36.png,,,,,0,222,222,143,,,,,,,,,,,,,,,,,,1428.364187651,0.0007553079994977452,1428.8699868200001,1428.8699868200001,1428.8699868200001,1428.8699868200001,25,return,5.062810086999889,,,6,001,2023-04-16_19h14.32.496,untitled,2022.2.5,None,
36,9,0,18,45,36,63,0.86,0.2,0.8,0.0,0.8,0.8,,stimuli/P_36_09_00_18.png,,,,,0,223,223,210,,,,,,,,,,,,,,,,,,1433.95636345,0.001039887999468192,1434.4710808290001,1434.4710808290001,1434.4710808290001,1434.4710808290001,50,return,7.383146707000378,,,6,001,2023-04-16_19h14.32.496,untitled,2022.2.5,None,
18,36,18,18,54,36,90,0.6,0.67,0.33,0.5,-0.17,-0.33,,stimuli/P_18_36_18_18.png,,,,,0,224,224,186,,,,,,,,,,,,,,,,,,1441.885706766,0.0009603170001355466,1442.3787314390001,1442.3787314390001,1442.3787314390001,1442.3787314390001,35,return,6.263495778000106,,,6,001,2023-04-16_19h14.32.496,untitled,2022.2.5,None,
0,18,18,9,18,18,45,0.6,1.0,0.0,0.67,-0.67,-2.0,,stimuli/P_00_18_18_09.png,,,,,0,225,225,41,,,,,,,,,,,,,,,,,,1448.671749706,0.0009727750002639368,1449.1785840359998,1449.1785840359998,1449.1785840359998,1449.1785840359998,0,return,3.573317239000062,,,6,001,2023-04-16_19h14.32.496,untitled,2022.2.5,None,
36,9,36,36,45,72,117,0.92,0.2,0.8,0.5,0.3,0.6,,stimuli/P_36_09_36_36.png,,,,,0,226,226,223,,,,,,,,,,,,,,,,,,1452.7802754490003,0.0007886349994805641,1453.2860607780003,1453.2860607780003,1453.2860607780003,1453.2860607780003,25,None,,,,6,001,2023-04-16_19h14.32.496,untitled,2022.2.5,None,
18,0,36,18,18,54,72,1.0,0.0,1.0,0.67,0.33,1.0,,stimuli/P_18_00_36_18.png,,,,,0,227,227,142,,,,,,,,,,,,,,,,,,1460.8896874169995,0.011138972999106045,1461.3847880960002,1461.3847880960002,1461.3847880960002,1461.3847880960002,15,return,6.0533209559998795,,,6,001,2023-04-16_19h14.32.496,untitled,2022.2.5,None,
9,9,18,18,18,27,54,0.83,0.5,0.5,0.5,0.0,0.0,,stimuli/P_09_09_18_18.png,,,,,0,228,228,90,,,,,,,,,,,,,,,,,,1467.4635193659997,0.000763196000661992,1467.9757007460003,1467.9757007460003,1467.9757007460003,1467.9757007460003,15,return,6.5661067390001335,,,6,001,2023-04-16_19h14.32.496,untitled,2022.2.5,None,
0,18,18,0,18,18,36,0.5,1.0,0.0,1.0,-1.0,#NAME?,,stimuli/P_00_18_18_00.png,,,,,0,229,229,40,,,,,,,,,,,,,,,,,,1474.5576979870002,0.0005639720002363902,1475.0541619619999,1475.0541619619999,1475.0541619619999,1475.0541619619999,0,return,2.5288013950003005,,,6,001,2023-04-16_19h14.32.496,untitled,2022.2.5,None,
18,36,36,36,54,54,126,0.71,0.67,0.33,0.5,-0.17,-0.33,,stimuli/P_18_36_36_36.png,,,,,0,230,230,191,,,,,,,,,,,,,,,,,,1477.5958865679995,0.0007741830004306394,1478.1059585639996,1478.1059585639996,1478.1059585639996,1478.1059585639996,20,return,5.745935656000256,,,6,001,2023-04-16_19h14.32.496,untitled,2022.2.5,None,
36,9,9,9,45,45,63,0.86,0.2,0.8,0.5,0.3,0.6,,stimuli/P_36_09_09_09.png,,,,,0,231,231,213,,,,,,,,,,,,,,,,,,1483.8637220740002,0.0005882519999431679,1484.3724484180002,1484.3724484180002,1484.3724484180002,1484.3724484180002,75,return,6.8117038599993975,,,6,001,2023-04-16_19h14.32.496,untitled,2022.2.5,None,
9,9,9,18,18,18,45,0.8,0.5,0.5,0.33,0.17,0.25,,stimuli/P_09_09_09_18.png,,,,,0,232,232,86,,,,,,,,,,,,,,,,,,1491.207285812,0.0006558100003530853,1491.7131980060003,1491.7131980060003,1491.7131980060003,1491.7131980060003,3,None,,,,6,001,2023-04-16_19h14.32.496,untitled,2022.2.5,None,
36,36,36,18,72,72,126,0.71,0.5,0.5,0.67,-0.17,-0.5,,stimuli/P_36_36_36_18.png,,,,,0,233,233,254,,,,,,,,,,,,,,,,,,1499.320459767,0.010685940000257688,1499.827097927,1499.827097927,1499.827097927,1499.827097927,29,return,5.934932220000519,,,6,001,2023-04-16_19h14.32.496,untitled,2022.2.5,None,
0,0,0,9,0,0,9,1.0,None,None,0.0,None,None,,stimuli/P_00_00_00_09.png,,,,,0,234,234,1,,,,,,,,,,,,,,,,,,1505.7757472949997,0.0006659139999101171,1506.276907044,1506.276907044,1506.276907044,1506.276907044,0,return,2.247567162999985,,,6,001,2023-04-16_19h14.32.496,untitled,2022.2.5,None,
0,9,36,18,9,36,63,0.86,1.0,0.0,0.67,-0.67,-2.0,,stimuli/P_00_09_36_18.png,,,,,0,235,235,30,,,,,,,,,,,,,,,,,,1508.5418561750002,0.0006385979995684465,1509.050981712,1509.050981712,1509.050981712,1509.050981712,0,return,2.650806337999711,,,6,001,2023-04-16_19h14.32.496,untitled,2022.2.5,None,
18,0,18,9,18,36,45,1.0,0.0,1.0,0.67,0.33,1.0,,stimuli/P_18_00_18_09.png,,,,,0,236,236,137,,,,,,,,,,,,,,,,,,1511.726244548,0.0006677259998468799,1512.2412985629999,1512.2412985629999,1512.2412985629999,1512.2412985629999,37,return,6.776536723999925,,,6,001,2023-04-16_19h14.32.496,untitled,2022.2.5,None,
18,0,36,9,18,54,63,1.0,0.0,1.0,0.8,0.2,1.0,,stimuli/P_18_00_36_09.png,,,,,0,237,237,141,,,,,,,,,,,,,,,,,,1519.0447193620003,0.0009404180000274209,1519.550467604,1519.550467604,1519.550467604,1519.550467604,3,None,,,,6,001,2023-04-16_19h14.32.496,untitled,2022.2.5,None,
0,18,18,18,18,18,54,0.67,1.0,0.0,0.5,-0.5,-1.0,,stimuli/P_00_18_18_18.png,,,,,0,238,238,42,,,,,,,,,,,,,,,,,,1527.1532900109996,0.008237566999014234,1527.6655001689996,1527.6655001689996,1527.6655001689996,1527.6655001689996,0,return,1.9711558680000962,,,6,001,2023-04-16_19h14.32.496,untitled,2022.2.5,None,
36,18,0,18,54,36,72,0.75,0.33,0.67,0.0,0.67,0.67,,stimuli/P_36_18_00_18.png,,,,,0,239,239,226,,,,,,,,,,,,,,,,,,1529.660211171,0.0007646499998372747,1530.1638584459997,1530.1638584459997,1530.1638584459997,1530.1638584459997,50,return,6.708277682000698,,,6,001,2023-04-16_19h14.32.496,untitled,2022.2.5,None,
18,9,36,9,27,54,72,0.88,0.33,0.67,0.8,-0.13,-0.67,,stimuli/P_18_09_36_09.png,,,,,0,240,240,157,,,,,,,,,,,,,,,,,,1536.894724113,0.0007745160000922624,1537.3911538009997,1537.3911538009997,1537.3911538009997,1537.3911538009997,30,None,,,,6,001,2023-04-16_19h14.32.496,untitled,2022.2.5,None,
0,36,0,18,36,0,54,0.33,1.0,0.0,0.0,0.0,0.0,,stimuli/P_00_36_00_18.png,,,,,0,241,241,50,,,,,,,,,,,,,,,,,,1545.0068841900002,0.013394015999438125,1545.5155934630002,1545.5155934630002,1545.5155934630002,1545.5155934630002,0,return,1.5534709390003627,,,6,001,2023-04-16_19h14.32.496,untitled,2022.2.5,None,
0,18,9,36,18,9,63,0.71,1.0,0.0,0.2,-0.2,-0.25,,stimuli/P_00_18_09_36.png,,,,,0,242,242,39,,,,,,,,,,,,,,,,,,1547.0917546310002,0.0006481850005002343,1547.5957665300002,1547.5957665300002,1547.5957665300002,1547.5957665300002,0,return,3.9595597420002377,,,6,001,2023-04-16_19h14.32.496,untitled,2022.2.5,None,
0,36,36,9,36,36,81,0.56,1.0,0.0,0.8,-0.8,-4.0,,stimuli/P_00_36_36_09.png,,,,,0,243,243,61,,,,,,,,,,,,,,,,,,1551.5870167020003,0.0011690139999700477,1552.0881042350002,1552.0881042350002,1552.0881042350002,1552.0881042350002,0,return,2.0748348990000522,,,6,001,2023-04-16_19h14.32.496,untitled,2022.2.5,None,
36,18,18,0,54,54,72,0.75,0.33,0.67,1.0,-0.33,#NAME?,,stimuli/P_36_18_18_00.png,,,,,0,244,244,232,,,,,,,,,,,,,,,,,,1554.1776698490003,0.0008011709996935679,1554.675474396,1554.675474396,1554.675474396,1554.675474396,40,return,6.449170435000269,,,6,001,2023-04-16_19h14.32.496,untitled,2022.2.5,None,
0,0,9,18,0,9,27,1.0,None,None,0.33,None,None,,stimuli/P_00_00_09_18.png,,,,,0,245,245,6,,,,,,,,,,,,,,,,,,1561.1416069830002,0.0005588340000031167,1561.6391476130002,1561.6391476130002,1561.6391476130002,1561.6391476130002,0,return,1.349577304000377,,,6,001,2023-04-16_19h14.32.496,untitled,2022.2.5,None,
18,36,0,0,54,18,54,0.33,0.67,0.33,None,None,None,,stimuli/P_18_36_00_00.png,,,,,0,246,246,176,,,,,,,,,,,,,,,,,,1563.010001859,0.0006635689996983274,1563.5149020059998,1563.5149020059998,1563.5149020059998,1563.5149020059998,30,return,3.204912954000065,,,6,001,2023-04-16_19h14.32.496,untitled,2022.2.5,None,
9,18,9,18,27,18,54,0.67,0.67,0.33,0.33,0.0,0.0,,stimuli/P_09_18_09_18.png,,,,,0,247,247,102,,,,,,,,,,,,,,,,,,1566.745559893,0.0009544980002829107,1567.2502015749997,1567.2502015749997,1567.2502015749997,1567.2502015749997,20,return,5.3411054400003195,,,6,001,2023-04-16_19h14.32.496,untitled,2022.2.5,None,
36,36,18,18,72,54,108,0.67,0.5,0.5,0.5,0.0,0.0,,stimuli/P_36_36_18_18.png,,,,,0,248,248,250,,,,,,,,,,,,,,,,,,1572.6097830019999,0.0006146480000097654,1573.1132515640002,1573.1132515640002,1573.1132515640002,1573.1132515640002,35,return,5.468975296000281,,,6,001,2023-04-16_19h14.32.496,untitled,2022.2.5,None,
0,0,18,36,0,18,54,1.0,None,None,0.33,None,None,,stimuli/P_00_00_18_36.png,,,,,0,249,249,11,,,,,,,,,,,,,,,,,,1578.6065604059995,0.0006541479997395072,1579.119810231,1579.119810231,1579.119810231,1579.119810231,0,return,1.8641050140004154,,,6,001,2023-04-16_19h14.32.496,untitled,2022.2.5,None,
36,18,0,9,54,36,63,0.71,0.33,0.67,0.0,0.67,0.67,,stimuli/P_36_18_00_09.png,,,,,0,250,250,225,,,,,,,,,,,,,,,,,,1581.0096384569997,0.0009539819993733545,1581.5211317439998,1581.5211317439998,1581.5211317439998,1581.5211317439998,40,return,5.403447919000428,,,6,001,2023-04-16_19h14.32.496,untitled,2022.2.5,None,
0,0,36,9,0,36,45,1.0,None,None,0.8,None,None,,stimuli/P_00_00_36_09.png,,,,,0,251,251,13,,,,,,,,,,,,,,,,,,1586.944254336,0.0006478949999291217,1587.452254971,1587.452254971,1587.452254971,1587.452254971,0,return,1.4384406299996044,,,6,001,2023-04-16_19h14.32.496,untitled,2022.2.5,None,
36,18,9,36,54,45,99,0.82,0.33,0.67,0.2,0.47,0.58,,stimuli/P_36_18_09_36.png,,,,,0,252,252,231,,,,,,,,,,,,,,,,,,1588.9122359849998,0.0007428220005749608,1589.4115895969999,1589.4115895969999,1589.4115895969999,1589.4115895969999,26,return,7.119261825000649,,,6,001,2023-04-16_19h14.32.496,untitled,2022.2.5,None,
0,18,36,9,18,36,63,0.71,1.0,0.0,0.8,-0.8,-4.0,,stimuli/P_00_18_36_09.png,,,,,0,253,253,45,,,,,,,,,,,,,,,,,,1596.5582209949998,0.000751127000512497,1597.0669533609998,1597.0669533609998,1597.0669533609998,1597.0669533609998,0,return,2.6880008570005884,,,6,001,2023-04-16_19h14.32.496,untitled,2022.2.5,None,
9,18,9,36,27,18,72,0.75,0.67,0.33,0.2,0.13,0.17,,stimuli/P_09_18_09_36.png,,,,,0,254,254,103,,,,,,,,,,,,,,,,,,1599.7752972360004,0.0007806359999449342,1600.2778591099996,1600.2778591099996,1600.2778591099996,1600.2778591099996,15,return,3.8262957120005012,,,6,001,2023-04-16_19h14.32.496,untitled,2022.2.5,None,
36,18,0,0,54,36,54,0.67,0.33,0.67,None,None,None,,stimuli/P_36_18_00_00.png,,,,,0,255,255,224,,,,,,,,,,,,,,,,,,1604.1243222949997,0.00065483399976074,1604.6302033129996,1604.6302033129996,1604.6302033129996,1604.6302033129996,55,return,5.8358023800010415,,,6,001,2023-04-16_19h14.32.496,untitled,2022.2.5,None,
,,,,,,,,,,,,,,,,,,,,,,,,,,,,,,,,,,,,,,,,,,,,,,,,,1610.4914185469997,1611.4833761230002,,,,,,,
