A1C1,A1C0,A0C1,A0C0,A1,C1,Total,MI,C0GvA1,C1GvA1,C1GvA0,dltP,dltPp,Image_practice,Image,trials_2.thisRepN,trials_2.thisTrialN,trials_2.thisN,trials_2.thisIndex,trials.thisRepN,trials.thisTrialN,trials.thisN,trials.thisIndex,image.started,image.stopped,key_resp.keys,key_resp.rt,key_resp.started,key_resp.stopped,betweenTrial.started,betweenTrial.stopped,ISI.started,ISI.stopped,image_card.started,image_card.stopped,textbox.text,textbox.started,textbox.stopped,key_resp_3.keys,key_resp_3.rt,key_resp_3.started,key_resp_3.stopped,text_2.started,text_2.stopped,key_resp_2.keys,key_resp_2.rt,key_resp_2.started,key_resp_2.stopped,image_endPractice.started,image_endPractice.stopped,polygon_2.started,polygon_2.stopped,ISI_2.started,ISI_2.stopped,Cards.started,Cards.stopped,TextNote.started,TextNote.stopped,Estimation.text,Estimation.started,Estimation.stopped,key_resp_4.keys,key_resp_4.started,key_resp_4.stopped,key_resp_4.rt,text.started,text.stopped,participant,gender,session,date,expName,psychopyVersion,frameRate,
,,,,,,,,,,,,,,,,,,,,,,,536.5023751090848,None,space,51.89386931723129,536.5023751090848,None,,,,,,,,,,,,,,,,,,,,,,,,,,,,,,,,,,,,,,,FEISUOJIA2,F,002,2023_Apr_18_1845,untitled,2021.1.4,60.00737370003205,
0,0,0,9,0,0,9,1.0,None,None,0.0,None,None,practice_stimuli/P_00_00_00_09.png,,0,0,0,0,,,,,,,,,,,None,None,None,None,None,None,0,589.7758545557153,None,return,2.5459422896847173,589.7758545557153,None,589.7758545557153,None,,,,,,,,,,,,,,,,,,,,,,,,FEISUOJIA2,F,002,2023_Apr_18_1845,untitled,2021.1.4,60.00737370003205,
18,0,36,0,18,54,54,1.0,0.0,1.0,1.0,0.0,None,practice_stimuli/P_18_00_36_00.png,,0,1,1,1,,,,,,,,,,,592.3523854059649,None,592.3523854059649,None,593.076352219291,None,50,593.076352219291,None,return,3.9653108918237194,593.076352219291,None,593.076352219291,None,,,,,,,,,,,,,,,,,,,,,,,,FEISUOJIA2,F,002,2023_Apr_18_1845,untitled,2021.1.4,60.00737370003205,
9,18,18,0,27,27,45,0.6,0.67,0.33,1.0,-0.67,#NAME?,practice_stimuli/P_09_18_18_00.png,,0,2,2,2,,,,,,,,,,,597.0717044010344,None,597.0717044010344,None,597.6775381240568,None,25,597.6775381240568,None,return,5.335290878329943,597.6775381240568,None,597.6775381240568,None,,,,,,,,,,,,,,,,,,,,,,,,FEISUOJIA2,F,002,2023_Apr_18_1845,untitled,2021.1.4,60.00737370003205,
36,18,18,36,54,54,108,0.83,0.33,0.67,0.33,0.33,0.5,practice_stimuli/P_36_18_18_36.png,,0,3,3,3,,,,,,,,,,,603.0308246492523,None,603.0308246492523,None,603.6168690202721,None,100,603.6168690202721,None,return,2.791987093059106,603.6168690202721,None,603.6168690202721,None,,,,,,,,,,,,,,,,,,,,,,,,FEISUOJIA2,F,002,2023_Apr_18_1845,untitled,2021.1.4,60.00737370003205,
,,,,,,,,,,,,,,,,,,,,,,,,,,,,,,,,,,,,,,,,,,,,space,70.10331127184145,606.4387017056415,None,,,,,,,,,,,,,,,,,,,,FEISUOJIA2,F,002,2023_Apr_18_1845,untitled,2021.1.4,60.00737370003205,
18,9,36,0,27,54,63,0.86,0.33,0.67,1.0,-0.33,#NAME?,,stimuli/P_18_09_36_00.png,,,,,0,0,0,156,,,,,,,,,,,,,,,,,,,,,,,,,,606.4387017056415,None,684.1540743218566,None,684.1540743218566,None,684.7942762999955,None,684.7942762999955,None,40,684.7942762999955,None,None,684.7942762999955,None,,,,FEISUOJIA2,F,002,2023_Apr_18_1845,untitled,2021.1.4,60.00737370003205,
18,36,9,36,54,27,99,0.64,0.67,0.33,0.2,0.13,0.17,,stimuli/P_18_36_09_36.png,,,,,0,1,1,183,,,,,,,,,,,,,,,,,,,,,,,,,,,,692.8141003541905,None,692.8141003541905,None,693.4445834428443,None,693.4445834428443,None,50,693.4445834428443,None,None,693.4445834428443,None,,,,FEISUOJIA2,F,002,2023_Apr_18_1845,untitled,2021.1.4,60.00737370003205,
18,9,18,9,27,36,54,0.83,0.33,0.67,0.67,0.0,0.0,,stimuli/P_18_09_18_09.png,,,,,0,2,2,153,,,,,,,,,,,,,,,,,,,,,,,,,,,,701.4873564552336,None,701.4873564552336,None,702.1082122454372,None,702.1082122454372,None,30,702.1082122454372,None,None,702.1082122454372,None,,,,FEISUOJIA2,F,002,2023_Apr_18_1845,untitled,2021.1.4,60.00737370003205,
9,0,9,9,9,18,27,1.0,0.0,1.0,0.5,0.5,1.0,,stimuli/P_09_00_09_09.png,,,,,0,3,3,69,,,,,,,,,,,,,,,,,,,,,,,,,,,,710.1363682391884,None,710.1363682391884,None,710.6595003794491,None,710.6595003794491,None,30,710.6595003794491,None,None,710.6595003794491,None,,,,FEISUOJIA2,F,002,2023_Apr_18_1845,untitled,2021.1.4,60.00737370003205,
18,18,0,0,36,18,36,0.5,0.5,0.5,None,None,None,,stimuli/P_18_18_00_00.png,,,,,0,4,4,160,,,,,,,,,,,,,,,,,,,,,,,,,,,,718.6717781289717,None,718.6717781289717,None,719.3115813163395,None,719.3115813163395,None,50,719.3115813163395,None,None,719.3115813163395,None,,,,FEISUOJIA2,F,002,2023_Apr_18_1845,untitled,2021.1.4,60.00737370003205,
0,0,18,9,0,18,27,1.0,None,None,0.67,None,None,,stimuli/P_00_00_18_09.png,,,,,0,5,5,9,,,,,,,,,,,,,,,,,,,,,,,,,,,,727.3473171791784,None,727.3473171791784,None,727.9112101735454,None,727.9112101735454,None,0,727.9112101735454,None,return,727.9112101735454,None,3.0889889373956976,,,FEISUOJIA2,F,002,2023_Apr_18_1845,untitled,2021.1.4,60.00737370003205,
0,0,18,0,0,18,18,1.0,None,None,1.0,None,None,,stimuli/P_00_00_18_00.png,,,,,0,6,6,8,,,,,,,,,,,,,,,,,,,,,,,,,,,,731.0209919820873,None,731.0209919820873,None,731.5035589658519,None,731.5035589658519,None,0,731.5035589658519,None,return,731.5035589658519,None,1.5013539544006562,,,FEISUOJIA2,F,002,2023_Apr_18_1845,untitled,2021.1.4,60.00737370003205,
18,0,9,0,18,27,27,1.0,0.0,1.0,1.0,0.0,None,,stimuli/P_18_00_09_00.png,,,,,0,7,7,132,,,,,,,,,,,,,,,,,,,,,,,,,,,,733.0462944316068,None,733.0462944316068,None,733.6736930073375,None,733.6736930073375,None,80,733.6736930073375,None,return,733.6736930073375,None,6.386796327711636,,,FEISUOJIA2,F,002,2023_Apr_18_1845,untitled,2021.1.4,60.00737370003205,
36,0,36,9,36,72,81,1.0,0.0,1.0,0.8,0.2,1.0,,stimuli/P_36_00_36_09.png,,,,,0,8,8,205,,,,,,,,,,,,,,,,,,,,,,,,,,,,740.0838012440454,None,740.0838012440454,None,740.700183864732,None,740.700183864732,None,80,740.700183864732,None,None,740.700183864732,None,,,,FEISUOJIA2,F,002,2023_Apr_18_1845,untitled,2021.1.4,60.00737370003205,
0,36,18,18,36,18,72,0.5,1.0,0.0,0.5,-0.5,-1.0,,stimuli/P_00_36_18_18.png,,,,,0,9,9,58,,,,,,,,,,,,,,,,,,,,,,,,,,,,748.7159773445883,None,748.7159773445883,None,749.3368405303409,None,749.3368405303409,None,0,749.3368405303409,None,return,749.3368405303409,None,1.7097201410388152,,,FEISUOJIA2,F,002,2023_Apr_18_1845,untitled,2021.1.4,60.00737370003205,
36,0,18,9,36,54,63,1.0,0.0,1.0,0.67,0.33,1.0,,stimuli/P_36_00_18_09.png,,,,,0,10,10,201,,,,,,,,,,,,,,,,,,,,,,,,,,,,751.0722090050485,None,751.0722090050485,None,751.6740366159329,None,751.6740366159329,None,80,751.6740366159329,None,None,751.6740366159329,None,,,,FEISUOJIA2,F,002,2023_Apr_18_1845,untitled,2021.1.4,60.00737370003205,
9,0,0,18,9,9,27,1.0,0.0,1.0,0.0,1.0,1.0,,stimuli/P_09_00_00_18.png,,,,,0,11,11,66,,,,,,,,,,,,,,,,,,,,,,,,,,,,759.6997077051383,None,759.6997077051383,None,760.3128015819648,None,760.3128015819648,None,30,760.3128015819648,None,return,760.3128015819648,None,6.716422215319653,,,FEISUOJIA2,F,002,2023_Apr_18_1845,untitled,2021.1.4,60.00737370003205,
18,36,18,36,54,36,108,0.67,0.67,0.33,0.33,0.0,0.0,,stimuli/P_18_36_18_36.png,,,,,0,12,12,187,,,,,,,,,,,,,,,,,,,,,,,,,,,,767.0566026894767,None,767.0566026894767,None,767.6571286836952,None,767.6571286836952,None,30,767.6571286836952,None,None,767.6571286836952,None,,,,FEISUOJIA2,F,002,2023_Apr_18_1845,untitled,2021.1.4,60.00737370003205,
0,36,9,36,36,9,81,0.56,1.0,0.0,0.2,-0.2,-0.25,,stimuli/P_00_36_09_36.png,,,,,0,13,13,55,,,,,,,,,,,,,,,,,,,,,,,,,,,,775.6787020697302,None,775.6787020697302,None,776.2694608189495,None,776.2694608189495,None,0,776.2694608189495,None,return,776.2694608189495,None,1.662068910589369,,,FEISUOJIA2,F,002,2023_Apr_18_1845,untitled,2021.1.4,60.00737370003205,
36,18,18,0,54,54,72,0.75,0.33,0.67,1.0,-0.33,#NAME?,,stimuli/P_36_18_18_00.png,,,,,0,14,14,232,,,,,,,,,,,,,,,,,,,,,,,,,,,,777.9581246935113,None,777.9581246935113,None,778.5587644654097,None,778.5587644654097,None,80,778.5587644654097,None,return,778.5587644654097,None,3.6762632451445825,,,FEISUOJIA2,F,002,2023_Apr_18_1845,untitled,2021.1.4,60.00737370003205,
0,0,9,9,0,9,18,1.0,None,None,0.5,None,None,,stimuli/P_00_00_09_09.png,,,,,0,15,15,5,,,,,,,,,,,,,,,,,,,,,,,,,,,,782.2761987331996,None,782.2761987331996,None,782.8905418889599,None,782.8905418889599,None,0,782.8905418889599,None,return,782.8905418889599,None,1.514856520655485,,,FEISUOJIA2,F,002,2023_Apr_18_1845,untitled,2021.1.4,60.00737370003205,
0,36,36,9,36,36,81,0.56,1.0,0.0,0.8,-0.8,-4.0,,stimuli/P_00_36_36_09.png,,,,,0,16,16,61,,,,,,,,,,,,,,,,,,,,,,,,,,,,784.442075213874,None,784.442075213874,None,785.0570134269046,None,785.0570134269046,None,0,785.0570134269046,None,return,785.0570134269046,None,2.3578598190706543,,,FEISUOJIA2,F,002,2023_Apr_18_1845,untitled,2021.1.4,60.00737370003205,
9,0,0,36,9,9,45,1.0,0.0,1.0,0.0,1.0,1.0,,stimuli/P_09_00_00_36.png,,,,,0,17,17,67,,,,,,,,,,,,,,,,,,,,,,,,,,,,787.4477834401141,None,787.4477834401141,None,787.9547631319356,None,787.9547631319356,None,20,787.9547631319356,None,return,787.9547631319356,None,6.045461010096005,,,FEISUOJIA2,F,002,2023_Apr_18_1845,untitled,2021.1.4,60.00737370003205,
0,9,36,9,9,36,54,0.83,1.0,0.0,0.8,-0.8,-4.0,,stimuli/P_00_09_36_09.png,,,,,0,18,18,29,,,,,,,,,,,,,,,,,,,,,,,,,,,,794.0302102497762,None,794.0302102497762,None,794.6342548187695,None,794.6342548187695,None,0,794.6342548187695,None,return,794.6342548187695,None,2.1793045225495007,,,FEISUOJIA2,F,002,2023_Apr_18_1845,untitled,2021.1.4,60.00737370003205,
36,0,0,9,36,36,45,1.0,0.0,1.0,0.0,1.0,1.0,,stimuli/P_36_00_00_09.png,,,,,0,19,19,193,,,,,,,,,,,,,,,,,,,,,,,,,,,,796.8405257894183,None,796.8405257894183,None,797.4560215130841,None,797.4560215130841,None,90,797.4560215130841,None,return,797.4560215130841,None,4.986428598247585,,,FEISUOJIA2,F,002,2023_Apr_18_1845,untitled,2021.1.4,60.00737370003205,
9,18,36,9,27,45,72,0.75,0.67,0.33,0.8,-0.47,-2.33,,stimuli/P_09_18_36_09.png,,,,,0,20,20,109,,,,,,,,,,,,,,,,,,,,,,,,,,,,802.4606266647097,None,802.4606266647097,None,803.0870001035382,None,803.0870001035382,None,2,803.0870001035382,None,None,803.0870001035382,None,,,,FEISUOJIA2,F,002,2023_Apr_18_1845,untitled,2021.1.4,60.00737370003205,
18,9,36,9,27,54,72,0.88,0.33,0.67,0.8,-0.13,-0.67,,stimuli/P_18_09_36_09.png,,,,,0,21,21,157,,,,,,,,,,,,,,,,,,,,,,,,,,,,811.1196531601181,None,811.1196531601181,None,811.7429415171346,None,811.7429415171346,None,20,811.7429415171346,None,None,811.7429415171346,None,,,,FEISUOJIA2,F,002,2023_Apr_18_1845,untitled,2021.1.4,60.00737370003205,
9,18,18,18,27,27,63,0.71,0.67,0.33,0.5,-0.17,-0.33,,stimuli/P_09_18_18_18.png,,,,,0,22,22,106,,,,,,,,,,,,,,,,,,,,,,,,,,,,819.7722460965724,None,819.7722460965724,None,820.3758696881468,None,820.3758696881468,None,20,820.3758696881468,None,return,820.3758696881468,None,5.9579528892136295,,,FEISUOJIA2,F,002,2023_Apr_18_1845,untitled,2021.1.4,60.00737370003205,
0,36,0,18,36,0,54,0.33,1.0,0.0,0.0,0.0,0.0,,stimuli/P_00_36_00_18.png,,,,,0,23,23,50,,,,,,,,,,,,,,,,,,,,,,,,,,,,826.3522113261133,None,826.3522113261133,None,826.840693042609,None,826.840693042609,None,0,826.840693042609,None,return,826.840693042609,None,2.2733013845609094,,,FEISUOJIA2,F,002,2023_Apr_18_1845,untitled,2021.1.4,60.00737370003205,
9,0,0,0,9,9,9,1.0,0.0,1.0,None,None,None,,stimuli/P_09_00_00_00.png,,,,,0,24,24,64,,,,,,,,,,,,,,,,,,,,,,,,,,,,829.1481004247325,None,829.1481004247325,None,829.7474784021515,None,829.7474784021515,None,100,829.7474784021515,None,return,829.7474784021515,None,6.462079605691542,,,FEISUOJIA2,F,002,2023_Apr_18_1845,untitled,2021.1.4,60.00737370003205,
9,18,36,0,27,45,63,0.71,0.67,0.33,1.0,-0.67,#NAME?,,stimuli/P_09_18_36_00.png,,,,,0,25,25,108,,,,,,,,,,,,,,,,,,,,,,,,,,,,836.2311160338922,None,836.2311160338922,None,836.8421539480287,None,836.8421539480287,None,30,836.8421539480287,None,None,836.8421539480287,None,,,,FEISUOJIA2,F,002,2023_Apr_18_1845,untitled,2021.1.4,60.00737370003205,
18,36,36,18,54,54,108,0.67,0.67,0.33,0.67,-0.33,-1.0,,stimuli/P_18_36_36_18.png,,,,,0,26,26,190,,,,,,,,,,,,,,,,,,,,,,,,,,,,844.8677562017374,None,844.8677562017374,None,845.4586651374948,None,845.4586651374948,None,20,845.4586651374948,None,None,845.4586651374948,None,,,,FEISUOJIA2,F,002,2023_Apr_18_1845,untitled,2021.1.4,60.00737370003205,
36,18,18,9,54,54,81,0.78,0.33,0.67,0.67,0.0,0.0,,stimuli/P_36_18_18_09.png,,,,,0,27,27,233,,,,,,,,,,,,,,,,,,,,,,,,,,,,853.4818655443642,None,853.4818655443642,None,854.0861109309635,None,854.0861109309635,None,50,854.0861109309635,None,None,854.0861109309635,None,,,,FEISUOJIA2,F,002,2023_Apr_18_1845,untitled,2021.1.4,60.00737370003205,
36,9,18,9,45,54,72,0.88,0.2,0.8,0.67,0.13,0.4,,stimuli/P_36_09_18_09.png,,,,,0,28,28,217,,,,,,,,,,,,,,,,,,,,,,,,,,,,862.0949139101176,None,862.0949139101176,None,862.6213979408512,None,862.6213979408512,None,40,862.6213979408512,None,None,862.6213979408512,None,,,,FEISUOJIA2,F,002,2023_Apr_18_1845,untitled,2021.1.4,60.00737370003205,
0,18,0,18,18,0,36,0.5,1.0,0.0,0.0,0.0,0.0,,stimuli/P_00_18_00_18.png,,,,,0,29,29,34,,,,,,,,,,,,,,,,,,,,,,,,,,,,870.6410314174318,None,870.6410314174318,None,871.2526296866454,None,871.2526296866454,None,0,871.2526296866454,None,return,871.2526296866454,None,2.6641186155065952,,,FEISUOJIA2,F,002,2023_Apr_18_1845,untitled,2021.1.4,60.00737370003205,
18,9,36,18,27,54,81,0.89,0.33,0.67,0.67,0.0,0.0,,stimuli/P_18_09_36_18.png,,,,,0,30,30,158,,,,,,,,,,,,,,,,,,,,,,,,,,,,873.9591759992818,None,873.9591759992818,None,874.5598846066769,None,874.5598846066769,None,40,874.5598846066769,None,None,874.5598846066769,None,,,,FEISUOJIA2,F,002,2023_Apr_18_1845,untitled,2021.1.4,60.00737370003205,
36,0,18,0,36,54,54,1.0,0.0,1.0,1.0,0.0,None,,stimuli/P_36_00_18_00.png,,,,,0,31,31,200,,,,,,,,,,,,,,,,,,,,,,,,,,,,882.5927982141457,None,882.5927982141457,None,883.2022307252082,None,883.2022307252082,None,80,883.2022307252082,None,return,883.2022307252082,None,4.581299272846081,,,FEISUOJIA2,F,002,2023_Apr_18_1845,untitled,2021.1.4,60.00737370003205,
9,0,9,36,9,18,54,1.0,0.0,1.0,0.2,0.8,1.0,,stimuli/P_09_00_09_36.png,,,,,0,32,32,71,,,,,,,,,,,,,,,,,,,,,,,,,,,,887.8104384195376,None,887.8104384195376,None,888.3052444684145,None,888.3052444684145,None,30,888.3052444684145,None,None,888.3052444684145,None,,,,FEISUOJIA2,F,002,2023_Apr_18_1845,untitled,2021.1.4,60.00737370003205,
9,36,18,18,45,27,81,0.56,0.8,0.2,0.5,-0.3,-0.6,,stimuli/P_09_36_18_18.png,,,,,0,33,33,122,,,,,,,,,,,,,,,,,,,,,,,,,,,,896.331116375226,None,896.331116375226,None,896.9645007947365,None,896.9645007947365,None,25,896.9645007947365,None,return,896.9645007947365,None,5.913740589163353,,,FEISUOJIA2,F,002,2023_Apr_18_1845,untitled,2021.1.4,60.00737370003205,
36,36,36,9,72,72,117,0.69,0.5,0.5,0.8,-0.3,-1.5,,stimuli/P_36_36_36_09.png,,,,,0,34,34,253,,,,,,,,,,,,,,,,,,,,,,,,,,,,902.9146843750259,None,902.9146843750259,None,903.5296675302397,None,903.5296675302397,None,30,903.5296675302397,None,return,903.5296675302397,None,6.170779729824062,,,FEISUOJIA2,F,002,2023_Apr_18_1845,untitled,2021.1.4,60.00737370003205,
0,9,36,0,9,36,45,0.8,1.0,0.0,1.0,-1.0,#NAME?,,stimuli/P_00_09_36_00.png,,,,,0,35,35,28,,,,,,,,,,,,,,,,,,,,,,,,,,,,909.7388495028481,None,909.7388495028481,None,910.3466413397546,None,910.3466413397546,None,0,910.3466413397546,None,return,910.3466413397546,None,1.7484938679517654,,,FEISUOJIA2,F,002,2023_Apr_18_1845,untitled,2021.1.4,60.00737370003205,
9,9,9,36,18,18,63,0.86,0.5,0.5,0.2,0.3,0.37,,stimuli/P_09_09_09_36.png,,,,,0,36,36,87,,,,,,,,,,,,,,,,,,,,,,,,,,,,912.1326482779186,None,912.1326482779186,None,912.7396533421634,None,912.7396533421634,None,20,912.7396533421634,None,return,912.7396533421634,None,4.2511022212820535,,,FEISUOJIA2,F,002,2023_Apr_18_1845,untitled,2021.1.4,60.00737370003205,
0,18,9,18,18,9,45,0.6,1.0,0.0,0.33,-0.33,-0.5,,stimuli/P_00_18_09_18.png,,,,,0,37,37,38,,,,,,,,,,,,,,,,,,,,,,,,,,,,917.025746751362,None,917.025746751362,None,917.6271966203476,None,917.6271966203476,None,0,917.6271966203476,None,return,917.6271966203476,None,3.094708541404543,,,FEISUOJIA2,F,002,2023_Apr_18_1845,untitled,2021.1.4,60.00737370003205,
0,0,36,0,0,36,36,1.0,None,None,1.0,None,None,,stimuli/P_00_00_36_00.png,,,,,0,38,38,12,,,,,,,,,,,,,,,,,,,,,,,,,,,,920.7454611238736,None,920.7454611238736,None,921.3620775576946,None,921.3620775576946,None,0,921.3620775576946,None,return,921.3620775576946,None,1.4449953180483135,,,FEISUOJIA2,F,002,2023_Apr_18_1845,untitled,2021.1.4,60.00737370003205,
0,0,0,0,0,0,0,None,None,None,None,None,None,,stimuli/P_00_00_00_00.png,,,,,0,39,39,0,,,,,,,,,,,,,,,,,,,,,,,,,,,,922.8453954741508,None,922.8453954741508,None,923.4559862420028,None,923.4559862420028,None,0,923.4559862420028,None,return,923.4559862420028,None,1.4617871970531269,,,FEISUOJIA2,F,002,2023_Apr_18_1845,untitled,2021.1.4,60.00737370003205,
36,9,36,36,45,72,117,0.92,0.2,0.8,0.5,0.3,0.6,,stimuli/P_36_09_36_36.png,,,,,0,40,40,223,,,,,,,,,,,,,,,,,,,,,,,,,,,,924.9386539190164,None,924.9386539190164,None,925.5566288583432,None,925.5566288583432,None,30,925.5566288583432,None,return,925.5566288583432,None,6.3039547984026285,,,FEISUOJIA2,F,002,2023_Apr_18_1845,untitled,2021.1.4,60.00737370003205,
0,36,0,9,36,0,45,0.2,1.0,0.0,0.0,0.0,0.0,,stimuli/P_00_36_00_09.png,,,,,0,41,41,49,,,,,,,,,,,,,,,,,,,,,,,,,,,,931.8792221475087,None,931.8792221475087,None,932.3370191612994,None,932.3370191612994,None,0,932.3370191612994,None,return,932.3370191612994,None,1.5660678547319549,,,FEISUOJIA2,F,002,2023_Apr_18_1845,untitled,2021.1.4,60.00737370003205,
18,18,36,0,36,54,72,0.75,0.5,0.5,1.0,-0.5,#NAME?,,stimuli/P_18_18_36_00.png,,,,,0,42,42,172,,,,,,,,,,,,,,,,,,,,,,,,,,,,933.9368647649862,None,933.9368647649862,None,934.5190372815323,None,934.5190372815323,None,30,934.5190372815323,None,None,934.5190372815323,None,,,,FEISUOJIA2,F,002,2023_Apr_18_1845,untitled,2021.1.4,60.00737370003205,
0,36,18,9,36,18,63,0.43,1.0,0.0,0.67,-0.67,-2.0,,stimuli/P_00_36_18_09.png,,,,,0,43,43,57,,,,,,,,,,,,,,,,,,,,,,,,,,,,942.5618654760965,None,942.5618654760965,None,943.1764322050003,None,943.1764322050003,None,0,943.1764322050003,None,return,943.1764322050003,None,2.1005208742208197,,,FEISUOJIA2,F,002,2023_Apr_18_1845,untitled,2021.1.4,60.00737370003205,
18,18,9,9,36,27,54,0.67,0.5,0.5,0.5,0.0,0.0,,stimuli/P_18_18_09_09.png,,,,,0,44,44,165,,,,,,,,,,,,,,,,,,,,,,,,,,,,945.3000471039595,None,945.3000471039595,None,945.8975284074422,None,945.8975284074422,None,30,945.8975284074422,None,None,945.8975284074422,None,,,,FEISUOJIA2,F,002,2023_Apr_18_1845,untitled,2021.1.4,60.00737370003205,
9,18,9,36,27,18,72,0.75,0.67,0.33,0.2,0.13,0.17,,stimuli/P_09_18_09_36.png,,,,,0,45,45,103,,,,,,,,,,,,,,,,,,,,,,,,,,,,953.9037042599502,None,953.9037042599502,None,954.500877794806,None,954.500877794806,None,20,954.500877794806,None,None,954.500877794806,None,,,,FEISUOJIA2,F,002,2023_Apr_18_1845,untitled,2021.1.4,60.00737370003205,
36,36,0,18,72,36,90,0.6,0.5,0.5,0.0,0.5,0.5,,stimuli/P_36_36_00_18.png,,,,,0,46,46,242,,,,,,,,,,,,,,,,,,,,,,,,,,,,962.5213788262008,None,962.5213788262008,None,963.13042051093,None,963.13042051093,None,30,963.13042051093,None,return,963.13042051093,None,7.018098046777595,,,FEISUOJIA2,F,002,2023_Apr_18_1845,untitled,2021.1.4,60.00737370003205,
18,0,9,36,18,27,63,1.0,0.0,1.0,0.2,0.8,1.0,,stimuli/P_18_00_09_36.png,,,,,0,47,47,135,,,,,,,,,,,,,,,,,,,,,,,,,,,,970.1674187371354,None,970.1674187371354,None,970.7749796053504,None,970.7749796053504,None,30,970.7749796053504,None,return,970.7749796053504,None,5.816496512145022,,,FEISUOJIA2,F,002,2023_Apr_18_1845,untitled,2021.1.4,60.00737370003205,
36,36,36,0,72,72,108,0.67,0.5,0.5,1.0,-0.5,#NAME?,,stimuli/P_36_36_36_00.png,,,,,0,48,48,252,,,,,,,,,,,,,,,,,,,,,,,,,,,,976.6111414518255,None,976.6111414518255,None,977.2437527519978,None,977.2437527519978,None,4,977.2437527519978,None,None,977.2437527519978,None,,,,FEISUOJIA2,F,002,2023_Apr_18_1845,untitled,2021.1.4,60.00737370003205,
9,36,9,0,45,18,54,0.33,0.8,0.2,1.0,-0.8,#NAME?,,stimuli/P_09_36_09_00.png,,,,,0,49,49,116,,,,,,,,,,,,,,,,,,,,,,,,,,,,985.268051682373,None,985.268051682373,None,985.9078400786439,None,985.9078400786439,None,30,985.9078400786439,None,None,985.9078400786439,None,,,,FEISUOJIA2,F,002,2023_Apr_18_1845,untitled,2021.1.4,60.00737370003205,
36,9,0,18,45,36,63,0.86,0.2,0.8,0.0,0.8,0.8,,stimuli/P_36_09_00_18.png,,,,,0,50,50,210,,,,,,,,,,,,,,,,,,,,,,,,,,,,993.9423738802852,None,993.9423738802852,None,994.6111215407327,None,994.6111215407327,None,70,994.6111215407327,None,return,994.6111215407327,None,5.655122783184197,,,FEISUOJIA2,F,002,2023_Apr_18_1845,untitled,2021.1.4,60.00737370003205,
9,9,18,18,18,27,54,0.83,0.5,0.5,0.5,0.0,0.0,,stimuli/P_09_09_18_18.png,,,,,0,51,51,90,,,,,,,,,,,,,,,,,,,,,,,,,,,,1000.299452615578,None,1000.299452615578,None,1000.8918093723223,None,1000.8918093723223,None,30,1000.8918093723223,None,None,1000.8918093723223,None,,,,FEISUOJIA2,F,002,2023_Apr_18_1845,untitled,2021.1.4,60.00737370003205,
36,0,0,18,36,36,54,1.0,0.0,1.0,0.0,1.0,1.0,,stimuli/P_36_00_00_18.png,,,,,0,52,52,194,,,,,,,,,,,,,,,,,,,,,,,,,,,,1008.9019970258523,None,1008.9019970258523,None,1009.5021708781478,None,1009.5021708781478,None,80,1009.5021708781478,None,return,1009.5021708781478,None,4.148164709122284,,,FEISUOJIA2,F,002,2023_Apr_18_1845,untitled,2021.1.4,60.00737370003205,
18,9,18,18,27,36,63,0.86,0.33,0.67,0.5,0.17,0.33,,stimuli/P_18_09_18_18.png,,,,,0,53,53,154,,,,,,,,,,,,,,,,,,,,,,,,,,,,1013.6793352425229,None,1013.6793352425229,None,1014.2963772048697,None,1014.2963772048697,None,30,1014.2963772048697,None,return,1014.2963772048697,None,4.859885061787281,,,FEISUOJIA2,F,002,2023_Apr_18_1845,untitled,2021.1.4,60.00737370003205,
9,9,36,36,18,45,90,0.9,0.5,0.5,0.5,0.0,0.0,,stimuli/P_09_09_36_36.png,,,,,0,54,54,95,,,,,,,,,,,,,,,,,,,,,,,,,,,,1019.1922615248259,None,1019.1922615248259,None,1019.8058691078804,None,1019.8058691078804,None,30,1019.8058691078804,None,return,1019.8058691078804,None,2.7255733541769587,,,FEISUOJIA2,F,002,2023_Apr_18_1845,untitled,2021.1.4,60.00737370003205,
18,36,9,18,54,27,81,0.56,0.67,0.33,0.33,0.0,0.0,,stimuli/P_18_36_09_18.png,,,,,0,55,55,182,,,,,,,,,,,,,,,,,,,,,,,,,,,,1022.548864100525,None,1022.548864100525,None,1023.1556273871975,None,1023.1556273871975,None,30,1023.1556273871975,None,return,1023.1556273871975,None,4.1087879605001945,,,FEISUOJIA2,F,002,2023_Apr_18_1845,untitled,2021.1.4,60.00737370003205,
9,36,9,18,45,18,72,0.5,0.8,0.2,0.33,-0.13,-0.2,,stimuli/P_09_36_09_18.png,,,,,0,56,56,118,,,,,,,,,,,,,,,,,,,,,,,,,,,,1027.2844328239516,None,1027.2844328239516,None,1027.8925062606177,None,1027.8925062606177,None,30,1027.8925062606177,None,return,1027.8925062606177,None,5.955182402689388,,,FEISUOJIA2,F,002,2023_Apr_18_1845,untitled,2021.1.4,60.00737370003205,
0,0,0,18,0,0,18,1.0,None,None,0.0,None,None,,stimuli/P_00_00_00_18.png,,,,,0,57,57,2,,,,,,,,,,,,,,,,,,,,,,,,,,,,1033.8816860031839,None,1033.8816860031839,None,1034.4912345674802,None,1034.4912345674802,None,0,1034.4912345674802,None,return,1034.4912345674802,None,1.8533451207003964,,,FEISUOJIA2,F,002,2023_Apr_18_1845,untitled,2021.1.4,60.00737370003205,
9,0,0,9,9,9,18,1.0,0.0,1.0,0.0,1.0,1.0,,stimuli/P_09_00_00_09.png,,,,,0,58,58,65,,,,,,,,,,,,,,,,,,,,,,,,,,,,1036.3719386692792,None,1036.3719386692792,None,1036.8743541694403,None,1036.8743541694403,None,50,1036.8743541694403,None,return,1036.8743541694403,None,3.845805642689811,,,FEISUOJIA2,F,002,2023_Apr_18_1845,untitled,2021.1.4,60.00737370003205,
9,9,9,9,18,18,36,0.75,0.5,0.5,0.5,0.0,0.0,,stimuli/P_09_09_09_09.png,,,,,0,59,59,85,,,,,,,,,,,,,,,,,,,,,,,,,,,,1040.7521944870168,None,1040.7521944870168,None,1041.3912689283388,None,1041.3912689283388,None,25,1041.3912689283388,None,return,1041.3912689283388,None,3.7355835145244782,,,FEISUOJIA2,F,002,2023_Apr_18_1845,untitled,2021.1.4,60.00737370003205,
0,0,9,18,0,9,27,1.0,None,None,0.33,None,None,,stimuli/P_00_00_09_18.png,,,,,0,60,60,6,,,,,,,,,,,,,,,,,,,,,,,,,,,,1045.1521275857394,None,1045.1521275857394,None,1045.7533368149307,None,1045.7533368149307,None,0,1045.7533368149307,None,return,1045.7533368149307,None,1.458141760163926,,,FEISUOJIA2,F,002,2023_Apr_18_1845,untitled,2021.1.4,60.00737370003205,
9,9,0,9,18,9,27,0.67,0.5,0.5,0.0,0.5,0.5,,stimuli/P_09_09_00_09.png,,,,,0,61,61,81,,,,,,,,,,,,,,,,,,,,,,,,,,,,1047.234109524672,None,1047.234109524672,None,1047.8394306792416,None,1047.8394306792416,None,30,1047.8394306792416,None,None,1047.8394306792416,None,,,,FEISUOJIA2,F,002,2023_Apr_18_1845,untitled,2021.1.4,60.00737370003205,
9,36,9,36,45,18,90,0.6,0.8,0.2,0.2,0.0,0.0,,stimuli/P_09_36_09_36.png,,,,,0,62,62,119,,,,,,,,,,,,,,,,,,,,,,,,,,,,1055.866801038108,None,1055.866801038108,None,1056.5021748603667,None,1056.5021748603667,None,30,1056.5021748603667,None,None,1056.5021748603667,None,,,,FEISUOJIA2,F,002,2023_Apr_18_1845,untitled,2021.1.4,60.00737370003205,
36,36,18,18,72,54,108,0.67,0.5,0.5,0.5,0.0,0.0,,stimuli/P_36_36_18_18.png,,,,,0,63,63,250,,,,,,,,,,,,,,,,,,,,,,,,,,,,1064.5173784029485,None,1064.5173784029485,None,1065.0383436472803,None,1065.0383436472803,None,40,1065.0383436472803,None,return,1065.0383436472803,None,6.586127997614312,,,FEISUOJIA2,F,002,2023_Apr_18_1845,untitled,2021.1.4,60.00737370003205,
18,36,18,0,54,36,72,0.5,0.67,0.33,1.0,-0.67,#NAME?,,stimuli/P_18_36_18_00.png,,,,,0,64,64,184,,,,,,,,,,,,,,,,,,,,,,,,,,,,1071.6621474171898,None,1071.6621474171898,None,1072.270095698408,None,1072.270095698408,None,40,1072.270095698408,None,return,1072.270095698408,None,6.083449102123268,,,FEISUOJIA2,F,002,2023_Apr_18_1845,untitled,2021.1.4,60.00737370003205,
0,36,18,0,36,18,54,0.33,1.0,0.0,1.0,-1.0,#NAME?,,stimuli/P_00_36_18_00.png,,,,,0,65,65,56,,,,,,,,,,,,,,,,,,,,,,,,,,,,1078.3894860320834,None,1078.3894860320834,None,1078.9857396743919,None,1078.9857396743919,None,0,1078.9857396743919,None,return,1078.9857396743919,None,1.7761355865859514,,,FEISUOJIA2,F,002,2023_Apr_18_1845,untitled,2021.1.4,60.00737370003205,
18,36,36,9,54,54,99,0.64,0.67,0.33,0.8,-0.47,-2.33,,stimuli/P_18_36_36_09.png,,,,,0,66,66,189,,,,,,,,,,,,,,,,,,,,,,,,,,,,1080.7823506923942,None,1080.7823506923942,None,1081.381275265756,None,1081.381275265756,None,30,1081.381275265756,None,return,1081.381275265756,None,4.532562603322731,,,FEISUOJIA2,F,002,2023_Apr_18_1845,untitled,2021.1.4,60.00737370003205,
9,9,9,0,18,18,27,0.67,0.5,0.5,1.0,-0.5,#NAME?,,stimuli/P_09_09_09_00.png,,,,,0,67,67,84,,,,,,,,,,,,,,,,,,,,,,,,,,,,1085.935998347948,None,1085.935998347948,None,1086.5628342930486,None,1086.5628342930486,None,75,1086.5628342930486,None,return,1086.5628342930486,None,7.082257280917474,,,FEISUOJIA2,F,002,2023_Apr_18_1845,untitled,2021.1.4,60.00737370003205,
36,18,0,0,54,36,54,0.67,0.33,0.67,None,None,None,,stimuli/P_36_18_00_00.png,,,,,0,68,68,224,,,,,,,,,,,,,,,,,,,,,,,,,,,,1093.667031893021,None,1093.667031893021,None,1094.2760121378033,None,1094.2760121378033,None,80,1094.2760121378033,None,return,1094.2760121378033,None,3.942635000063092,,,FEISUOJIA2,F,002,2023_Apr_18_1845,untitled,2021.1.4,60.00737370003205,
36,18,9,9,54,45,72,0.75,0.33,0.67,0.5,0.17,0.33,,stimuli/P_36_18_09_09.png,,,,,0,69,69,229,,,,,,,,,,,,,,,,,,,,,,,,,,,,1098.247141051328,None,1098.247141051328,None,1098.8582330098634,None,1098.8582330098634,None,80,1098.8582330098634,None,None,1098.8582330098634,None,,,,FEISUOJIA2,F,002,2023_Apr_18_1845,untitled,2021.1.4,60.00737370003205,
36,0,36,18,36,72,90,1.0,0.0,1.0,0.67,0.33,1.0,,stimuli/P_36_00_36_18.png,,,,,0,70,70,206,,,,,,,,,,,,,,,,,,,,,,,,,,,,1106.8915954702825,None,1106.8915954702825,None,1107.4120327861765,None,1107.4120327861765,None,70,1107.4120327861765,None,return,1107.4120327861765,None,5.121887184877778,,,FEISUOJIA2,F,002,2023_Apr_18_1845,untitled,2021.1.4,60.00737370003205,
0,18,36,36,18,36,90,0.8,1.0,0.0,0.5,-0.5,-1.0,,stimuli/P_00_18_36_36.png,,,,,0,71,71,47,,,,,,,,,,,,,,,,,,,,,,,,,,,,1112.5540893405105,None,1112.5540893405105,None,1113.04438353546,None,1113.04438353546,None,0,1113.04438353546,None,return,1113.04438353546,None,5.836978770221322,,,FEISUOJIA2,F,002,2023_Apr_18_1845,untitled,2021.1.4,60.00737370003205,
9,36,0,0,45,9,45,0.2,0.8,0.2,None,None,None,,stimuli/P_09_36_00_00.png,,,,,0,72,72,112,,,,,,,,,,,,,,,,,,,,,,,,,,,,1118.9070686659688,None,1118.9070686659688,None,1119.50447544507,None,1119.50447544507,None,30,1119.50447544507,None,return,1119.50447544507,None,5.960141971791018,,,FEISUOJIA2,F,002,2023_Apr_18_1845,untitled,2021.1.4,60.00737370003205,
18,9,18,0,27,36,45,0.8,0.33,0.67,1.0,-0.33,#NAME?,,stimuli/P_18_09_18_00.png,,,,,0,73,73,152,,,,,,,,,,,,,,,,,,,,,,,,,,,,1125.4898504619941,None,1125.4898504619941,None,1126.1046293862728,None,1126.1046293862728,None,20,1126.1046293862728,None,None,1126.1046293862728,None,,,,FEISUOJIA2,F,002,2023_Apr_18_1845,untitled,2021.1.4,60.00737370003205,
36,18,0,18,54,36,72,0.75,0.33,0.67,0.0,0.67,0.67,,stimuli/P_36_18_00_18.png,,,,,0,74,74,226,,,,,,,,,,,,,,,,,,,,,,,,,,,,1134.1410359685378,None,1134.1410359685378,None,1134.7412507808003,None,1134.7412507808003,None,75,1134.7412507808003,None,None,1134.7412507808003,None,,,,FEISUOJIA2,F,002,2023_Apr_18_1845,untitled,2021.1.4,60.00737370003205,
36,36,18,0,72,54,90,0.6,0.5,0.5,1.0,-0.5,#NAME?,,stimuli/P_36_36_18_00.png,,,,,0,75,75,248,,,,,,,,,,,,,,,,,,,,,,,,,,,,1142.7706486579355,None,1142.7706486579355,None,1143.2889367134412,None,1143.2889367134412,None,60,1143.2889367134412,None,return,1143.2889367134412,None,4.8045703356565355,,,FEISUOJIA2,F,002,2023_Apr_18_1845,untitled,2021.1.4,60.00737370003205,
9,0,18,9,9,27,36,1.0,0.0,1.0,0.67,0.33,1.0,,stimuli/P_09_00_18_09.png,,,,,0,76,76,73,,,,,,,,,,,,,,,,,,,,,,,,,,,,1148.1267767807058,None,1148.1267767807058,None,1148.7487612455025,None,1148.7487612455025,None,30,1148.7487612455025,None,return,1148.7487612455025,None,5.153363211351461,,,FEISUOJIA2,F,002,2023_Apr_18_1845,untitled,2021.1.4,60.00737370003205,
9,9,36,9,18,45,63,0.86,0.5,0.5,0.8,-0.3,-1.5,,stimuli/P_09_09_36_09.png,,,,,0,77,77,93,,,,,,,,,,,,,,,,,,,,,,,,,,,,1153.9360313434754,None,1153.9360313434754,None,1154.5316518129912,None,1154.5316518129912,None,30,1154.5316518129912,None,None,1154.5316518129912,None,,,,FEISUOJIA2,F,002,2023_Apr_18_1845,untitled,2021.1.4,60.00737370003205,
9,36,18,0,45,27,63,0.43,0.8,0.2,1.0,-0.8,#NAME?,,stimuli/P_09_36_18_00.png,,,,,0,78,78,120,,,,,,,,,,,,,,,,,,,,,,,,,,,,1162.5467956222892,None,1162.5467956222892,None,1163.1531424826517,None,1163.1531424826517,None,2,1163.1531424826517,None,None,1163.1531424826517,None,,,,FEISUOJIA2,F,002,2023_Apr_18_1845,untitled,2021.1.4,60.00737370003205,
9,18,36,36,27,45,99,0.82,0.67,0.33,0.5,-0.17,-0.33,,stimuli/P_09_18_36_36.png,,,,,0,79,79,111,,,,,,,,,,,,,,,,,,,,,,,,,,,,1171.1903073931608,None,1171.1903073931608,None,1171.707178347653,None,1171.707178347653,None,20,1171.707178347653,None,return,1171.707178347653,None,6.821691032157105,,,FEISUOJIA2,F,002,2023_Apr_18_1845,untitled,2021.1.4,60.00737370003205,
18,36,36,36,54,54,126,0.71,0.67,0.33,0.5,-0.17,-0.33,,stimuli/P_18_36_36_36.png,,,,,0,80,80,191,,,,,,,,,,,,,,,,,,,,,,,,,,,,1178.5514053250226,None,1178.5514053250226,None,1179.048754873951,None,1179.048754873951,None,30,1179.048754873951,None,None,1179.048754873951,None,,,,FEISUOJIA2,F,002,2023_Apr_18_1845,untitled,2021.1.4,60.00737370003205,
9,0,36,9,9,45,54,1.0,0.0,1.0,0.8,0.2,1.0,,stimuli/P_09_00_36_09.png,,,,,0,81,81,77,,,,,,,,,,,,,,,,,,,,,,,,,,,,1187.0705643486745,None,1187.0705643486745,None,1187.6831553281518,None,1187.6831553281518,None,20,1187.6831553281518,None,return,1187.6831553281518,None,3.7849254813081643,,,FEISUOJIA2,F,002,2023_Apr_18_1845,untitled,2021.1.4,60.00737370003205,
36,18,36,36,54,72,126,0.86,0.33,0.67,0.5,0.17,0.33,,stimuli/P_36_18_36_36.png,,,,,0,82,82,239,,,,,,,,,,,,,,,,,,,,,,,,,,,,1191.496961567038,None,1191.496961567038,None,1192.1421424564833,None,1192.1421424564833,None,80,1192.1421424564833,None,None,1192.1421424564833,None,,,,FEISUOJIA2,F,002,2023_Apr_18_1845,untitled,2021.1.4,60.00737370003205,
0,36,36,36,36,36,108,0.67,1.0,0.0,0.5,-0.5,-1.0,,stimuli/P_00_36_36_36.png,,,,,0,83,83,63,,,,,,,,,,,,,,,,,,,,,,,,,,,,1200.183402225719,None,1200.183402225719,None,1200.7158573091347,None,1200.7158573091347,None,0,1200.7158573091347,None,return,1200.7158573091347,None,1.645763431170053,,,FEISUOJIA2,F,002,2023_Apr_18_1845,untitled,2021.1.4,60.00737370003205,
18,18,36,9,36,54,81,0.78,0.5,0.5,0.8,-0.3,-1.5,,stimuli/P_18_18_36_09.png,,,,,0,84,84,173,,,,,,,,,,,,,,,,,,,,,,,,,,,,1202.3907859420851,None,1202.3907859420851,None,1202.9848800840136,None,1202.9848800840136,None,30,1202.9848800840136,None,return,1202.9848800840136,None,7.324913216074492,,,FEISUOJIA2,F,002,2023_Apr_18_1845,untitled,2021.1.4,60.00737370003205,
9,0,18,18,9,27,45,1.0,0.0,1.0,0.5,0.5,1.0,,stimuli/P_09_00_18_18.png,,,,,0,85,85,74,,,,,,,,,,,,,,,,,,,,,,,,,,,,1210.3485954714215,None,1210.3485954714215,None,1210.9445362251063,None,1210.9445362251063,None,20,1210.9445362251063,None,return,1210.9445362251063,None,5.764708894115756,,,FEISUOJIA2,F,002,2023_Apr_18_1845,untitled,2021.1.4,60.00737370003205,
0,0,36,36,0,36,72,1.0,None,None,0.5,None,None,,stimuli/P_00_00_36_36.png,,,,,0,86,86,15,,,,,,,,,,,,,,,,,,,,,,,,,,,,1216.7458240746746,None,1216.7458240746746,None,1217.2361444384896,None,1217.2361444384896,None,0,1217.2361444384896,None,return,1217.2361444384896,None,1.7984405631086702,,,FEISUOJIA2,F,002,2023_Apr_18_1845,untitled,2021.1.4,60.00737370003205,
18,36,0,18,54,18,72,0.5,0.67,0.33,0.0,0.33,0.33,,stimuli/P_18_36_00_18.png,,,,,0,87,87,178,,,,,,,,,,,,,,,,,,,,,,,,,,,,1219.0773022629237,None,1219.0773022629237,None,1219.5672238359693,None,1219.5672238359693,None,20,1219.5672238359693,None,return,1219.5672238359693,None,2.5604608906305657,,,FEISUOJIA2,F,002,2023_Apr_18_1845,untitled,2021.1.4,60.00737370003205,
9,0,36,18,9,45,63,1.0,0.0,1.0,0.67,0.33,1.0,,stimuli/P_09_00_36_18.png,,,,,0,88,88,78,,,,,,,,,,,,,,,,,,,,,,,,,,,,1222.1522555856318,None,1222.1522555856318,None,1222.753944387745,None,1222.753944387745,None,20,1222.753944387745,None,return,1222.753944387745,None,3.3183795327622647,,,FEISUOJIA2,F,002,2023_Apr_18_1845,untitled,2021.1.4,60.00737370003205,
9,0,18,0,9,27,27,1.0,0.0,1.0,1.0,0.0,None,,stimuli/P_09_00_18_00.png,,,,,0,89,89,72,,,,,,,,,,,,,,,,,,,,,,,,,,,,1226.1076917125483,None,1226.1076917125483,None,1226.7261632914524,None,1226.7261632914524,None,70,1226.7261632914524,None,return,1226.7261632914524,None,5.18968844257688,,,FEISUOJIA2,F,002,2023_Apr_18_1845,untitled,2021.1.4,60.00737370003205,
36,9,18,18,45,54,81,0.89,0.2,0.8,0.5,0.3,0.6,,stimuli/P_36_09_18_18.png,,,,,0,90,90,218,,,,,,,,,,,,,,,,,,,,,,,,,,,,1231.946398196851,None,1231.946398196851,None,1232.5784024930963,None,1232.5784024930963,None,70,1232.5784024930963,None,return,1232.5784024930963,None,5.324227136659829,,,FEISUOJIA2,F,002,2023_Apr_18_1845,untitled,2021.1.4,60.00737370003205,
9,9,36,0,18,45,54,0.83,0.5,0.5,1.0,-0.5,#NAME?,,stimuli/P_09_09_36_00.png,,,,,0,91,91,92,,,,,,,,,,,,,,,,,,,,,,,,,,,,1237.9288019096439,None,1237.9288019096439,None,1238.4288235274034,None,1238.4288235274034,None,20,1238.4288235274034,None,return,1238.4288235274034,None,5.979016551238601,,,FEISUOJIA2,F,002,2023_Apr_18_1845,untitled,2021.1.4,60.00737370003205,
36,9,0,0,45,36,45,0.8,0.2,0.8,None,None,None,,stimuli/P_36_09_00_00.png,,,,,0,92,92,208,,,,,,,,,,,,,,,,,,,,,,,,,,,,1244.441142805781,None,1244.441142805781,None,1245.0546457133696,None,1245.0546457133696,None,80,1245.0546457133696,None,return,1245.0546457133696,None,4.597243508129395,,,FEISUOJIA2,F,002,2023_Apr_18_1845,untitled,2021.1.4,60.00737370003205,
9,18,36,18,27,45,81,0.78,0.67,0.33,0.67,-0.33,-1.0,,stimuli/P_09_18_36_18.png,,,,,0,93,93,110,,,,,,,,,,,,,,,,,,,,,,,,,,,,1249.6876387376597,None,1249.6876387376597,None,1250.2733793222724,None,1250.2733793222724,None,30,1250.2733793222724,None,return,1250.2733793222724,None,5.466450375295608,,,FEISUOJIA2,F,002,2023_Apr_18_1845,untitled,2021.1.4,60.00737370003205,
0,0,0,36,0,0,36,1.0,None,None,0.0,None,None,,stimuli/P_00_00_00_36.png,,,,,0,94,94,3,,,,,,,,,,,,,,,,,,,,,,,,,,,,1255.779892525603,None,1255.779892525603,None,1256.3952824360258,None,1256.3952824360258,None,0,1256.3952824360258,None,return,1256.3952824360258,None,1.6992878654964443,,,FEISUOJIA2,F,002,2023_Apr_18_1845,untitled,2021.1.4,60.00737370003205,
36,36,18,36,72,54,126,0.71,0.5,0.5,0.33,0.17,0.25,,stimuli/P_36_36_18_36.png,,,,,0,95,95,251,,,,,,,,,,,,,,,,,,,,,,,,,,,,1258.130528599726,None,1258.130528599726,None,1258.7343990888676,None,1258.7343990888676,None,60,1258.7343990888676,None,return,1258.7343990888676,None,7.127808744269714,,,FEISUOJIA2,F,002,2023_Apr_18_1845,untitled,2021.1.4,60.00737370003205,
18,0,18,0,18,36,36,1.0,0.0,1.0,1.0,0.0,None,,stimuli/P_18_00_18_00.png,,,,,0,96,96,136,,,,,,,,,,,,,,,,,,,,,,,,,,,,1265.8842920809602,None,1265.8842920809602,None,1266.4807078564627,None,1266.4807078564627,None,50,1266.4807078564627,None,return,1266.4807078564627,None,3.3996896144872153,,,FEISUOJIA2,F,002,2023_Apr_18_1845,untitled,2021.1.4,60.00737370003205,
18,36,18,18,54,36,90,0.6,0.67,0.33,0.5,-0.17,-0.33,,stimuli/P_18_36_18_18.png,,,,,0,97,97,186,,,,,,,,,,,,,,,,,,,,,,,,,,,,1269.919213864494,None,1269.919213864494,None,1270.411238049077,None,1270.411238049077,None,40,1270.411238049077,None,return,1270.411238049077,None,5.0159806441406545,,,FEISUOJIA2,F,002,2023_Apr_18_1845,untitled,2021.1.4,60.00737370003205,
0,9,0,36,9,0,45,0.8,1.0,0.0,0.0,0.0,0.0,,stimuli/P_00_09_00_36.png,,,,,0,98,98,19,,,,,,,,,,,,,,,,,,,,,,,,,,,,1275.4480547998828,None,1275.4480547998828,None,1276.0339905132168,None,1276.0339905132168,None,0,1276.0339905132168,None,return,1276.0339905132168,None,1.725972144948173,,,FEISUOJIA2,F,002,2023_Apr_18_1845,untitled,2021.1.4,60.00737370003205,
18,9,9,36,27,27,72,0.88,0.33,0.67,0.2,0.47,0.58,,stimuli/P_18_09_09_36.png,,,,,0,99,99,151,,,,,,,,,,,,,,,,,,,,,,,,,,,,1277.7986447940457,None,1277.7986447940457,None,1278.4182592697525,None,1278.4182592697525,None,30,1278.4182592697525,None,return,1278.4182592697525,None,5.6082776676030335,,,FEISUOJIA2,F,002,2023_Apr_18_1845,untitled,2021.1.4,60.00737370003205,
36,36,9,18,72,45,99,0.64,0.5,0.5,0.33,0.17,0.25,,stimuli/P_36_36_09_18.png,,,,,0,100,100,246,,,,,,,,,,,,,,,,,,,,,,,,,,,,1284.0644499361133,None,1284.0644499361133,None,1284.6660118761138,None,1284.6660118761138,None,40,1284.6660118761138,None,return,1284.6660118761138,None,6.983229738754744,,,FEISUOJIA2,F,002,2023_Apr_18_1845,untitled,2021.1.4,60.00737370003205,
18,18,0,18,36,18,54,0.67,0.5,0.5,0.0,0.5,0.5,,stimuli/P_18_18_00_18.png,,,,,0,101,101,162,,,,,,,,,,,,,,,,,,,,,,,,,,,,1291.6841150428882,None,1291.6841150428882,None,1292.2708039644695,None,1292.2708039644695,None,40,1292.2708039644695,None,return,1292.2708039644695,None,6.308935985263815,,,FEISUOJIA2,F,002,2023_Apr_18_1845,untitled,2021.1.4,60.00737370003205,
0,0,9,0,0,9,9,1.0,None,None,1.0,None,None,,stimuli/P_00_00_09_00.png,,,,,0,102,102,4,,,,,,,,,,,,,,,,,,,,,,,,,,,,1298.6004907231363,None,1298.6004907231363,None,1299.2213539088898,None,1299.2213539088898,None,0,1299.2213539088898,None,return,1299.2213539088898,None,1.6651164457671257,,,FEISUOJIA2,F,002,2023_Apr_18_1845,untitled,2021.1.4,60.00737370003205,
36,0,18,36,36,54,90,1.0,0.0,1.0,0.33,0.67,1.0,,stimuli/P_36_00_18_36.png,,,,,0,103,103,203,,,,,,,,,,,,,,,,,,,,,,,,,,,,1300.9135221360175,None,1300.9135221360175,None,1301.5119847719961,None,1301.5119847719961,None,40,1301.5119847719961,None,None,1301.5119847719961,None,,,,FEISUOJIA2,F,002,2023_Apr_18_1845,untitled,2021.1.4,60.00737370003205,
18,9,0,18,27,18,45,0.8,0.33,0.67,0.0,0.67,0.67,,stimuli/P_18_09_00_18.png,,,,,0,104,104,146,,,,,,,,,,,,,,,,,,,,,,,,,,,,1309.5241157483106,None,1309.5241157483106,None,1310.039743112753,None,1310.039743112753,None,40,1310.039743112753,None,return,1310.039743112753,None,7.811765636182827,,,FEISUOJIA2,F,002,2023_Apr_18_1845,untitled,2021.1.4,60.00737370003205,
9,18,0,9,27,9,36,0.5,0.67,0.33,0.0,0.33,0.33,,stimuli/P_09_18_00_09.png,,,,,0,105,105,97,,,,,,,,,,,,,,,,,,,,,,,,,,,,1317.8815358166448,None,1317.8815358166448,None,1318.4872284553421,None,1318.4872284553421,None,30,1318.4872284553421,None,return,1318.4872284553421,None,4.9570984188321745,,,FEISUOJIA2,F,002,2023_Apr_18_1845,untitled,2021.1.4,60.00737370003205,
18,9,9,9,27,27,45,0.8,0.33,0.67,0.5,0.17,0.33,,stimuli/P_18_09_09_09.png,,,,,0,106,106,149,,,,,,,,,,,,,,,,,,,,,,,,,,,,1323.462560885282,None,1323.462560885282,None,1324.0695699317457,None,1324.0695699317457,None,40,1324.0695699317457,None,return,1324.0695699317457,None,7.109610573132159,,,FEISUOJIA2,F,002,2023_Apr_18_1845,untitled,2021.1.4,60.00737370003205,
18,18,18,9,36,36,63,0.71,0.5,0.5,0.67,-0.17,-0.5,,stimuli/P_18_18_18_09.png,,,,,0,107,107,169,,,,,,,,,,,,,,,,,,,,,,,,,,,,1331.218608453455,None,1331.218608453455,None,1331.8192402609147,None,1331.8192402609147,None,5,1331.8192402609147,None,None,1331.8192402609147,None,,,,FEISUOJIA2,F,002,2023_Apr_18_1845,untitled,2021.1.4,60.00737370003205,
18,0,36,36,18,54,90,1.0,0.0,1.0,0.5,0.5,1.0,,stimuli/P_18_00_36_36.png,,,,,0,108,108,143,,,,,,,,,,,,,,,,,,,,,,,,,,,,1339.843269538187,None,1339.843269538187,None,1340.4834914274215,None,1340.4834914274215,None,30,1340.4834914274215,None,return,1340.4834914274215,None,5.442118449391273,,,FEISUOJIA2,F,002,2023_Apr_18_1845,untitled,2021.1.4,60.00737370003205,
18,0,18,36,18,36,72,1.0,0.0,1.0,0.33,0.67,1.0,,stimuli/P_18_00_18_36.png,,,,,0,109,109,139,,,,,,,,,,,,,,,,,,,,,,,,,,,,1345.962467018695,None,1345.962467018695,None,1346.4542460123776,None,1346.4542460123776,None,40,1346.4542460123776,None,return,1346.4542460123776,None,6.947963777736732,,,FEISUOJIA2,F,002,2023_Apr_18_1845,untitled,2021.1.4,60.00737370003205,
18,0,36,0,18,54,54,1.0,0.0,1.0,1.0,0.0,None,,stimuli/P_18_00_36_00.png,,,,,0,110,110,140,,,,,,,,,,,,,,,,,,,,,,,,,,,,1353.4429586975639,None,1353.4429586975639,None,1354.0438942914334,None,1354.0438942914334,None,40,1354.0438942914334,None,return,1354.0438942914334,None,5.7413679718101776,,,FEISUOJIA2,F,002,2023_Apr_18_1845,untitled,2021.1.4,60.00737370003205,
18,9,0,36,27,18,63,0.86,0.33,0.67,0.0,0.67,0.67,,stimuli/P_18_09_00_36.png,,,,,0,111,111,147,,,,,,,,,,,,,,,,,,,,,,,,,,,,1359.8107547214895,None,1359.8107547214895,None,1360.303732931925,None,1360.303732931925,None,30,1360.303732931925,None,return,1360.303732931925,None,4.858239836523353,,,FEISUOJIA2,F,002,2023_Apr_18_1845,untitled,2021.1.4,60.00737370003205,
18,0,0,9,18,18,27,1.0,0.0,1.0,0.0,1.0,1.0,,stimuli/P_18_00_00_09.png,,,,,0,112,112,129,,,,,,,,,,,,,,,,,,,,,,,,,,,,1365.194931318103,None,1365.194931318103,None,1365.8015694493279,None,1365.8015694493279,None,70,1365.8015694493279,None,return,1365.8015694493279,None,5.676977200089823,,,FEISUOJIA2,F,002,2023_Apr_18_1845,untitled,2021.1.4,60.00737370003205,
0,18,36,0,18,36,54,0.67,1.0,0.0,1.0,-1.0,#NAME?,,stimuli/P_00_18_36_00.png,,,,,0,113,113,44,,,,,,,,,,,,,,,,,,,,,,,,,,,,1371.4947110445137,None,1371.4947110445137,None,1371.9809120873997,None,1371.9809120873997,None,0,1371.9809120873997,None,return,1371.9809120873997,None,2.244903613236602,,,FEISUOJIA2,F,002,2023_Apr_18_1845,untitled,2021.1.4,60.00737370003205,
18,36,9,9,54,27,72,0.5,0.67,0.33,0.5,-0.17,-0.33,,stimuli/P_18_36_09_09.png,,,,,0,114,114,181,,,,,,,,,,,,,,,,,,,,,,,,,,,,1374.2548853291646,None,1374.2548853291646,None,1374.8647797776102,None,1374.8647797776102,None,40,1374.8647797776102,None,return,1374.8647797776102,None,5.7815030486726755,,,FEISUOJIA2,F,002,2023_Apr_18_1845,untitled,2021.1.4,60.00737370003205,
0,9,9,18,9,9,36,0.75,1.0,0.0,0.33,-0.33,-0.5,,stimuli/P_00_09_09_18.png,,,,,0,115,115,22,,,,,,,,,,,,,,,,,,,,,,,,,,,,1380.6678317501173,None,1380.6678317501173,None,1381.2865872043349,None,1381.2865872043349,None,0,1381.2865872043349,None,return,1381.2865872043349,None,1.7787592999029584,,,FEISUOJIA2,F,002,2023_Apr_18_1845,untitled,2021.1.4,60.00737370003205,
18,0,9,9,18,27,36,1.0,0.0,1.0,0.5,0.5,1.0,,stimuli/P_18_00_09_09.png,,,,,0,116,116,133,,,,,,,,,,,,,,,,,,,,,,,,,,,,1383.088973577409,None,1383.088973577409,None,1383.7088247106913,None,1383.7088247106913,None,40,1383.7088247106913,None,return,1383.7088247106913,None,4.946130250413262,,,FEISUOJIA2,F,002,2023_Apr_18_1845,untitled,2021.1.4,60.00737370003205,
36,0,36,36,36,72,108,1.0,0.0,1.0,0.5,0.5,1.0,,stimuli/P_36_00_36_36.png,,,,,0,117,117,207,,,,,,,,,,,,,,,,,,,,,,,,,,,,1388.6876415821007,None,1388.6876415821007,None,1389.3024148174954,None,1389.3024148174954,None,70,1389.3024148174954,None,None,1389.3024148174954,None,,,,FEISUOJIA2,F,002,2023_Apr_18_1845,untitled,2021.1.4,60.00737370003205,
18,36,9,0,54,27,63,0.43,0.67,0.33,1.0,-0.67,#NAME?,,stimuli/P_18_36_09_00.png,,,,,0,118,118,180,,,,,,,,,,,,,,,,,,,,,,,,,,,,1397.3249035449717,None,1397.3249035449717,None,1397.9457041529986,None,1397.9457041529986,None,60,1397.9457041529986,None,None,1397.9457041529986,None,,,,FEISUOJIA2,F,002,2023_Apr_18_1845,untitled,2021.1.4,60.00737370003205,
9,18,0,0,27,9,27,0.33,0.67,0.33,None,None,None,,stimuli/P_09_18_00_00.png,,,,,0,119,119,96,,,,,,,,,,,,,,,,,,,,,,,,,,,,1405.966276295445,None,1405.966276295445,None,1406.5805153446272,None,1406.5805153446272,None,40,1406.5805153446272,None,None,1406.5805153446272,None,,,,FEISUOJIA2,F,002,2023_Apr_18_1845,untitled,2021.1.4,60.00737370003205,
9,36,36,36,45,45,117,0.69,0.8,0.2,0.5,-0.3,-0.6,,stimuli/P_09_36_36_36.png,,,,,0,120,120,127,,,,,,,,,,,,,,,,,,,,,,,,,,,,1414.6178361305574,None,1414.6178361305574,None,1415.2396533421634,None,1415.2396533421634,None,30,1415.2396533421634,None,return,1415.2396533421634,None,6.694683282759797,,,FEISUOJIA2,F,002,2023_Apr_18_1845,untitled,2021.1.4,60.00737370003205,
0,9,36,36,9,36,81,0.89,1.0,0.0,0.5,-0.5,-1.0,,stimuli/P_00_09_36_36.png,,,,,0,121,121,31,,,,,,,,,,,,,,,,,,,,,,,,,,,,1421.9674493433322,None,1421.9674493433322,None,1422.561473511987,None,1422.561473511987,None,0,1422.561473511987,None,return,1422.561473511987,None,1.8047893576895149,,,FEISUOJIA2,F,002,2023_Apr_18_1845,untitled,2021.1.4,60.00737370003205,
0,36,9,9,36,9,54,0.33,1.0,0.0,0.5,-0.5,-1.0,,stimuli/P_00_36_09_09.png,,,,,0,122,122,53,,,,,,,,,,,,,,,,,,,,,,,,,,,,1424.3855271376833,None,1424.3855271376833,None,1424.9926112774156,None,1424.9926112774156,None,0,1424.9926112774156,None,return,1424.9926112774156,None,1.7184258402758132,,,FEISUOJIA2,F,002,2023_Apr_18_1845,untitled,2021.1.4,60.00737370003205,
36,36,0,9,72,36,81,0.56,0.5,0.5,0.0,0.5,0.5,,stimuli/P_36_36_00_09.png,,,,,0,123,123,241,,,,,,,,,,,,,,,,,,,,,,,,,,,,1426.7340497913883,None,1426.7340497913883,None,1427.2312474471128,None,1427.2312474471128,None,60,1427.2312474471128,None,None,1427.2312474471128,None,,,,FEISUOJIA2,F,002,2023_Apr_18_1845,untitled,2021.1.4,60.00737370003205,
36,36,18,9,72,54,99,0.64,0.5,0.5,0.67,-0.17,-0.5,,stimuli/P_36_36_18_09.png,,,,,0,124,124,249,,,,,,,,,,,,,,,,,,,,,,,,,,,,1435.246114776648,None,1435.246114776648,None,1435.775772066896,None,1435.775772066896,None,70,1435.775772066896,None,None,1435.775772066896,None,,,,FEISUOJIA2,F,002,2023_Apr_18_1845,untitled,2021.1.4,60.00737370003205,
36,9,36,18,45,72,99,0.91,0.2,0.8,0.67,0.13,0.4,,stimuli/P_36_09_36_18.png,,,,,0,125,125,222,,,,,,,,,,,,,,,,,,,,,,,,,,,,1443.7977692747918,None,1443.7977692747918,None,1444.3870540341577,None,1444.3870540341577,None,60,1444.3870540341577,None,return,1444.3870540341577,None,5.981127127217405,,,FEISUOJIA2,F,002,2023_Apr_18_1845,untitled,2021.1.4,60.00737370003205,
18,36,0,36,54,18,90,0.6,0.67,0.33,0.0,0.33,0.33,,stimuli/P_18_36_00_36.png,,,,,0,126,126,179,,,,,,,,,,,,,,,,,,,,,,,,,,,,1450.4068974305592,None,1450.4068974305592,None,1451.0100152803425,None,1451.0100152803425,None,30,1451.0100152803425,None,return,1451.0100152803425,None,4.829250990149376,,,FEISUOJIA2,F,002,2023_Apr_18_1845,untitled,2021.1.4,60.00737370003205,
0,0,9,36,0,9,45,1.0,None,None,0.2,None,None,,stimuli/P_00_00_09_36.png,,,,,0,127,127,7,,,,,,,,,,,,,,,,,,,,,,,,,,,,1455.8720439136341,None,1455.8720439136341,None,1456.4639785551826,None,1456.4639785551826,None,0,1456.4639785551826,None,return,1456.4639785551826,None,1.4590906660196197,,,FEISUOJIA2,F,002,2023_Apr_18_1845,untitled,2021.1.4,60.00737370003205,
0,9,18,18,9,18,45,0.8,1.0,0.0,0.5,-0.5,-1.0,,stimuli/P_00_09_18_18.png,,,,,0,128,128,26,,,,,,,,,,,,,,,,,,,,,,,,,,,,1457.9444605629487,None,1457.9444605629487,None,1458.4147179394404,None,1458.4147179394404,None,0,1458.4147179394404,None,return,1458.4147179394404,None,1.3764078565764066,,,FEISUOJIA2,F,002,2023_Apr_18_1845,untitled,2021.1.4,60.00737370003205,
18,18,0,9,36,18,45,0.6,0.5,0.5,0.0,0.5,0.5,,stimuli/P_18_18_00_09.png,,,,,0,129,129,161,,,,,,,,,,,,,,,,,,,,,,,,,,,,1459.8195707850773,None,1459.8195707850773,None,1460.4179930299797,None,1460.4179930299797,None,60,1460.4179930299797,None,return,1460.4179930299797,None,4.9705816428813705,,,FEISUOJIA2,F,002,2023_Apr_18_1845,untitled,2021.1.4,60.00737370003205,
18,18,9,18,36,27,63,0.71,0.5,0.5,0.33,0.17,0.25,,stimuli/P_18_18_09_18.png,,,,,0,130,130,166,,,,,,,,,,,,,,,,,,,,,,,,,,,,1465.4089550999142,None,1465.4089550999142,None,1465.9044074060166,None,1465.9044074060166,None,40,1465.9044074060166,None,return,1465.9044074060166,None,6.778651779994107,,,FEISUOJIA2,F,002,2023_Apr_18_1845,untitled,2021.1.4,60.00737370003205,
9,18,9,0,27,18,36,0.5,0.67,0.33,1.0,-0.67,#NAME?,,stimuli/P_09_18_09_00.png,,,,,0,131,131,100,,,,,,,,,,,,,,,,,,,,,,,,,,,,1472.705017709497,None,1472.705017709497,None,1473.2045489454522,None,1473.2045489454522,None,60,1473.2045489454522,None,None,1473.2045489454522,None,,,,FEISUOJIA2,F,002,2023_Apr_18_1845,untitled,2021.1.4,60.00737370003205,
0,9,0,0,9,0,9,0.0,1.0,0.0,None,None,None,,stimuli/P_00_09_00_00.png,,,,,0,132,132,16,,,,,,,,,,,,,,,,,,,,,,,,,,,,1481.2408286656046,None,1481.2408286656046,None,1481.7596668361948,None,1481.7596668361948,None,0,1481.7596668361948,None,return,1481.7596668361948,None,1.5310852001402964,,,FEISUOJIA2,F,002,2023_Apr_18_1845,untitled,2021.1.4,60.00737370003205,
36,36,9,0,72,45,81,0.56,0.5,0.5,1.0,-0.5,#NAME?,,stimuli/P_36_36_09_00.png,,,,,0,133,133,244,,,,,,,,,,,,,,,,,,,,,,,,,,,,1483.3191372921137,None,1483.3191372921137,None,1483.9167511465948,None,1483.9167511465948,None,80,1483.9167511465948,None,return,1483.9167511465948,None,3.7487043566598004,,,FEISUOJIA2,F,002,2023_Apr_18_1845,untitled,2021.1.4,60.00737370003205,
18,0,18,18,18,36,54,1.0,0.0,1.0,0.5,0.5,1.0,,stimuli/P_18_00_18_18.png,,,,,0,134,134,138,,,,,,,,,,,,,,,,,,,,,,,,,,,,1487.695449575438,None,1487.695449575438,None,1488.2972009552777,None,1488.2972009552777,None,75,1488.2972009552777,None,None,1488.2972009552777,None,,,,FEISUOJIA2,F,002,2023_Apr_18_1845,untitled,2021.1.4,60.00737370003205,
0,18,0,9,18,0,27,0.33,1.0,0.0,0.0,0.0,0.0,,stimuli/P_00_18_00_09.png,,,,,0,135,135,33,,,,,,,,,,,,,,,,,,,,,,,,,,,,1496.3208923128386,None,1496.3208923128386,None,1496.8424179122485,None,1496.8424179122485,None,0,1496.8424179122485,None,return,1496.8424179122485,None,1.353289369637423,,,FEISUOJIA2,F,002,2023_Apr_18_1845,untitled,2021.1.4,60.00737370003205,
9,18,18,0,27,27,45,0.6,0.67,0.33,1.0,-0.67,#NAME?,,stimuli/P_09_18_18_00.png,,,,,0,136,136,104,,,,,,,,,,,,,,,,,,,,,,,,,,,,1498.228143591985,None,1498.228143591985,None,1498.825408148985,None,1498.825408148985,None,30,1498.825408148985,None,None,1498.825408148985,None,,,,FEISUOJIA2,F,002,2023_Apr_18_1845,untitled,2021.1.4,60.00737370003205,
0,0,36,9,0,36,45,1.0,None,None,0.8,None,None,,stimuli/P_00_00_36_09.png,,,,,0,137,137,13,,,,,,,,,,,,,,,,,,,,,,,,,,,,1506.8393709459597,None,1506.8393709459597,None,1507.4345988824753,None,1507.4345988824753,None,0,1507.4345988824753,None,return,1507.4345988824753,None,1.437533208860259,,,FEISUOJIA2,F,002,2023_Apr_18_1845,untitled,2021.1.4,60.00737370003205,
36,9,9,0,45,45,54,0.83,0.2,0.8,1.0,-0.2,#NAME?,,stimuli/P_36_09_09_00.png,,,,,0,138,138,212,,,,,,,,,,,,,,,,,,,,,,,,,,,,1508.9031615404128,None,1508.9031615404128,None,1509.3977792872283,None,1509.3977792872283,None,80,1509.3977792872283,None,return,1509.3977792872283,None,6.636204399326743,,,FEISUOJIA2,F,002,2023_Apr_18_1845,untitled,2021.1.4,60.00737370003205,
36,0,36,0,36,72,72,1.0,0.0,1.0,1.0,0.0,None,,stimuli/P_36_00_36_00.png,,,,,0,139,139,204,,,,,,,,,,,,,,,,,,,,,,,,,,,,1516.0518234579995,None,1516.0518234579995,None,1516.6670364441288,None,1516.6670364441288,None,50,1516.6670364441288,None,return,1516.6670364441288,None,2.616399687340163,,,FEISUOJIA2,F,002,2023_Apr_18_1845,untitled,2021.1.4,60.00737370003205,
36,18,36,9,54,72,99,0.82,0.33,0.67,0.8,-0.13,-0.67,,stimuli/P_36_18_36_09.png,,,,,0,140,140,237,,,,,,,,,,,,,,,,,,,,,,,,,,,,1519.304965713096,None,1519.304965713096,None,1519.7933450296787,None,1519.7933450296787,None,70,1519.7933450296787,None,return,1519.7933450296787,None,5.349816305935747,,,FEISUOJIA2,F,002,2023_Apr_18_1845,untitled,2021.1.4,60.00737370003205,
9,9,9,18,18,18,45,0.8,0.5,0.5,0.33,0.17,0.25,,stimuli/P_09_09_09_18.png,,,,,0,141,141,86,,,,,,,,,,,,,,,,,,,,,,,,,,,,1525.171192173917,None,1525.171192173917,None,1525.7698903296932,None,1525.7698903296932,None,4,1525.7698903296932,None,return,1525.7698903296932,None,2.398716815318039,,,FEISUOJIA2,F,002,2023_Apr_18_1845,untitled,2021.1.4,60.00737370003205,
0,9,0,18,9,0,27,0.67,1.0,0.0,0.0,0.0,0.0,,stimuli/P_00_09_00_18.png,,,,,0,142,142,18,,,,,,,,,,,,,,,,,,,,,,,,,,,,1528.2076306139334,None,1528.2076306139334,None,1528.8142528162825,None,1528.8142528162825,None,0,1528.8142528162825,None,return,1528.8142528162825,None,2.609767017442209,,,FEISUOJIA2,F,002,2023_Apr_18_1845,untitled,2021.1.4,60.00737370003205,
18,0,18,9,18,36,45,1.0,0.0,1.0,0.67,0.33,1.0,,stimuli/P_18_00_18_09.png,,,,,0,143,143,137,,,,,,,,,,,,,,,,,,,,,,,,,,,,1531.4459123661545,None,1531.4459123661545,None,1531.94629181472,None,1531.94629181472,None,40,1531.94629181472,None,return,1531.94629181472,None,2.611976011112347,,,FEISUOJIA2,F,002,2023_Apr_18_1845,untitled,2021.1.4,60.00737370003205,
36,9,18,36,45,54,99,0.91,0.2,0.8,0.33,0.47,0.7,,stimuli/P_36_09_18_36.png,,,,,0,144,144,219,,,,,,,,,,,,,,,,,,,,,,,,,,,,1534.593911528751,None,1534.593911528751,None,1535.1029073610753,None,1535.1029073610753,None,40,1535.1029073610753,None,return,1535.1029073610753,None,5.222649836670826,,,FEISUOJIA2,F,002,2023_Apr_18_1845,untitled,2021.1.4,60.00737370003205,
0,36,36,0,36,36,72,0.5,1.0,0.0,1.0,-1.0,#NAME?,,stimuli/P_00_36_36_00.png,,,,,0,145,145,60,,,,,,,,,,,,,,,,,,,,,,,,,,,,1540.350315221065,None,1540.350315221065,None,1540.9408316238241,None,1540.9408316238241,None,0,1540.9408316238241,None,return,1540.9408316238241,None,1.282050319316113,,,FEISUOJIA2,F,002,2023_Apr_18_1845,untitled,2021.1.4,60.00737370003205,
18,0,9,18,18,27,45,1.0,0.0,1.0,0.33,0.67,1.0,,stimuli/P_18_00_09_18.png,,,,,0,146,146,134,,,,,,,,,,,,,,,,,,,,,,,,,,,,1542.2562273369076,None,1542.2562273369076,None,1542.8595562442897,None,1542.8595562442897,None,40,1542.8595562442897,None,return,1542.8595562442897,None,4.865373128215651,,,FEISUOJIA2,F,002,2023_Apr_18_1845,untitled,2021.1.4,60.00737370003205,
18,36,36,0,54,54,90,0.6,0.67,0.33,1.0,-0.67,#NAME?,,stimuli/P_18_36_36_00.png,,,,,0,147,147,188,,,,,,,,,,,,,,,,,,,,,,,,,,,,1547.7584789972097,None,1547.7584789972097,None,1548.261771723288,None,1548.261771723288,None,30,1548.261771723288,None,return,1548.261771723288,None,5.457715093860315,,,FEISUOJIA2,F,002,2023_Apr_18_1845,untitled,2021.1.4,60.00737370003205,
0,18,9,0,18,9,27,0.33,1.0,0.0,1.0,-1.0,#NAME?,,stimuli/P_00_18_09_00.png,,,,,0,148,148,36,,,,,,,,,,,,,,,,,,,,,,,,,,,,1553.7417986203327,None,1553.7417986203327,None,1554.3281991154927,None,1554.3281991154927,None,0,1554.3281991154927,None,return,1554.3281991154927,None,5.659252344104971,,,FEISUOJIA2,F,002,2023_Apr_18_1845,untitled,2021.1.4,60.00737370003205,
0,9,36,18,9,36,63,0.86,1.0,0.0,0.67,-0.67,-2.0,,stimuli/P_00_09_36_18.png,,,,,0,149,149,30,,,,,,,,,,,,,,,,,,,,,,,,,,,,1560.0172321986283,None,1560.0172321986283,None,1560.6480236247971,None,1560.6480236247971,None,0,1560.6480236247971,None,return,1560.6480236247971,None,2.0455975433123967,,,FEISUOJIA2,F,002,2023_Apr_18_1845,untitled,2021.1.4,60.00737370003205,
36,36,36,18,72,72,126,0.71,0.5,0.5,0.67,-0.17,-0.5,,stimuli/P_36_36_36_18.png,,,,,0,150,150,254,,,,,,,,,,,,,,,,,,,,,,,,,,,,1562.7202343365116,None,1562.7202343365116,None,1563.3239062836,None,1563.3239062836,None,70,1563.3239062836,None,return,1563.3239062836,None,6.184861993362574,,,FEISUOJIA2,F,002,2023_Apr_18_1845,untitled,2021.1.4,60.00737370003205,
36,18,0,36,54,36,90,0.8,0.33,0.67,0.0,0.67,0.67,,stimuli/P_36_18_00_36.png,,,,,0,151,151,227,,,,,,,,,,,,,,,,,,,,,,,,,,,,1569.5455093656092,None,1569.5455093656092,None,1570.139479489866,None,1570.139479489866,None,80,1570.139479489866,None,return,1570.139479489866,None,6.072121396235161,,,FEISUOJIA2,F,002,2023_Apr_18_1845,untitled,2021.1.4,60.00737370003205,
18,18,36,36,36,54,108,0.83,0.5,0.5,0.5,0.0,0.0,,stimuli/P_18_18_36_36.png,,,,,0,152,152,175,,,,,,,,,,,,,,,,,,,,,,,,,,,,1576.2477702419037,None,1576.2477702419037,None,1576.8454466741077,None,1576.8454466741077,None,40,1576.8454466741077,None,None,1576.8454466741077,None,,,,FEISUOJIA2,F,002,2023_Apr_18_1845,untitled,2021.1.4,60.00737370003205,
36,18,36,0,54,72,90,0.8,0.33,0.67,1.0,-0.33,#NAME?,,stimuli/P_36_18_36_00.png,,,,,0,153,153,236,,,,,,,,,,,,,,,,,,,,,,,,,,,,1584.887342460579,None,1584.887342460579,None,1585.4977386685969,None,1585.4977386685969,None,40,1585.4977386685969,None,return,1585.4977386685969,None,7.24191126023652,,,FEISUOJIA2,F,002,2023_Apr_18_1845,untitled,2021.1.4,60.00737370003205,
0,36,9,18,36,9,63,0.43,1.0,0.0,0.33,-0.33,-0.5,,stimuli/P_00_36_09_18.png,,,,,0,154,154,54,,,,,,,,,,,,,,,,,,,,,,,,,,,,1592.769790205335,None,1592.769790205335,None,1593.353877600246,None,1593.353877600246,None,0,1593.353877600246,None,return,1593.353877600246,None,2.5549608775436354,,,FEISUOJIA2,F,002,2023_Apr_18_1845,untitled,2021.1.4,60.00737370003205,
36,36,0,0,72,36,72,0.5,0.5,0.5,None,None,None,,stimuli/P_36_36_00_00.png,,,,,0,155,155,240,,,,,,,,,,,,,,,,,,,,,,,,,,,,1595.9307133746806,None,1595.9307133746806,None,1596.5432360875493,None,1596.5432360875493,None,50,1596.5432360875493,None,return,1596.5432360875493,None,2.4929019793908083,,,FEISUOJIA2,F,002,2023_Apr_18_1845,untitled,2021.1.4,60.00737370003205,
36,0,9,18,36,45,63,1.0,0.0,1.0,0.33,0.67,1.0,,stimuli/P_36_00_09_18.png,,,,,0,156,156,198,,,,,,,,,,,,,,,,,,,,,,,,,,,,1599.0715815211388,None,1599.0715815211388,None,1599.710840851194,None,1599.710840851194,None,80,1599.710840851194,None,return,1599.710840851194,None,3.1406644844119,,,FEISUOJIA2,F,002,2023_Apr_18_1845,untitled,2021.1.4,60.00737370003205,
0,18,18,36,18,18,72,0.75,1.0,0.0,0.33,-0.33,-0.5,,stimuli/P_00_18_18_36.png,,,,,0,157,157,43,,,,,,,,,,,,,,,,,,,,,,,,,,,,1602.8881275265758,None,1602.8881275265758,None,1603.4884965075944,None,1603.4884965075944,None,0,1603.4884965075944,None,return,1603.4884965075944,None,2.346254495640096,,,FEISUOJIA2,F,002,2023_Apr_18_1845,untitled,2021.1.4,60.00737370003205,
18,0,0,18,18,18,36,1.0,0.0,1.0,0.0,1.0,1.0,,stimuli/P_18_00_00_18.png,,,,,0,158,158,130,,,,,,,,,,,,,,,,,,,,,,,,,,,,1605.8687363964564,None,1605.8687363964564,None,1606.3555120166293,None,1606.3555120166293,None,50,1606.3555120166293,None,return,1606.3555120166293,None,2.110295514770769,,,FEISUOJIA2,F,002,2023_Apr_18_1845,untitled,2021.1.4,60.00737370003205,
18,18,18,36,36,36,90,0.8,0.5,0.5,0.33,0.17,0.25,,stimuli/P_18_18_18_36.png,,,,,0,159,159,171,,,,,,,,,,,,,,,,,,,,,,,,,,,,1608.4881119390338,None,1608.4881119390338,None,1609.0775155960764,None,1609.0775155960764,None,60,1609.0775155960764,None,return,1609.0775155960764,None,5.235066394965543,,,FEISUOJIA2,F,002,2023_Apr_18_1845,untitled,2021.1.4,60.00737370003205,
0,9,18,0,9,18,27,0.67,1.0,0.0,1.0,-1.0,#NAME?,,stimuli/P_00_09_18_00.png,,,,,0,160,160,24,,,,,,,,,,,,,,,,,,,,,,,,,,,,1614.3450393500116,None,1614.3450393500116,None,1614.957673565008,None,1614.957673565008,None,0,1614.957673565008,None,return,1614.957673565008,None,1.6269218472480134,,,FEISUOJIA2,F,002,2023_Apr_18_1845,untitled,2021.1.4,60.00737370003205,
18,0,36,9,18,54,63,1.0,0.0,1.0,0.8,0.2,1.0,,stimuli/P_18_00_36_09.png,,,,,0,161,161,141,,,,,,,,,,,,,,,,,,,,,,,,,,,,1616.6130836368357,None,1616.6130836368357,None,1617.1013133357683,None,1617.1013133357683,None,,1617.1013133357683,None,None,1617.1013133357683,None,,,,FEISUOJIA2,F,002,2023_Apr_18_1845,untitled,2021.1.4,60.00737370003205,
0,18,18,0,18,18,36,0.5,1.0,0.0,1.0,-1.0,#NAME?,,stimuli/P_00_18_18_00.png,,,,,0,162,162,40,,,,,,,,,,,,,,,,,,,,,,,,,,,,1625.1023373348944,None,1625.1023373348944,None,1625.7197752435695,None,1625.7197752435695,None,0,1625.7197752435695,None,return,1625.7197752435695,None,2.1469137235217204,,,FEISUOJIA2,F,002,2023_Apr_18_1845,untitled,2021.1.4,60.00737370003205,
18,9,18,36,27,36,81,0.89,0.33,0.67,0.33,0.33,0.5,,stimuli/P_18_09_18_36.png,,,,,0,163,163,155,,,,,,,,,,,,,,,,,,,,,,,,,,,,1627.89763649624,None,1627.89763649624,None,1628.4914865850424,None,1628.4914865850424,None,40,1628.4914865850424,None,return,1628.4914865850424,None,5.121792749403539,,,FEISUOJIA2,F,002,2023_Apr_18_1845,untitled,2021.1.4,60.00737370003205,
18,9,36,36,27,54,99,0.91,0.33,0.67,0.5,0.17,0.33,,stimuli/P_18_09_36_36.png,,,,,0,164,164,159,,,,,,,,,,,,,,,,,,,,,,,,,,,,1633.6543729882687,None,1633.6543729882687,None,1634.2616272256346,None,1634.2616272256346,None,40,1634.2616272256346,None,return,1634.2616272256346,None,3.1147123643349914,,,FEISUOJIA2,F,002,2023_Apr_18_1845,untitled,2021.1.4,60.00737370003205,
0,18,18,9,18,18,45,0.6,1.0,0.0,0.67,-0.67,-2.0,,stimuli/P_00_18_18_09.png,,,,,0,165,165,41,,,,,,,,,,,,,,,,,,,,,,,,,,,,1637.4055303917248,None,1637.4055303917248,None,1637.9077479187217,None,1637.9077479187217,None,0,1637.9077479187217,None,return,1637.9077479187217,None,1.7974330617453234,,,FEISUOJIA2,F,002,2023_Apr_18_1845,untitled,2021.1.4,60.00737370003205,
18,0,0,0,18,18,18,1.0,0.0,1.0,None,None,None,,stimuli/P_18_00_00_00.png,,,,,0,166,166,128,,,,,,,,,,,,,,,,,,,,,,,,,,,,1639.7418936246959,None,1639.7418936246959,None,1640.2376497172063,None,1640.2376497172063,None,100,1640.2376497172063,None,return,1640.2376497172063,None,3.3437104267013638,,,FEISUOJIA2,F,002,2023_Apr_18_1845,untitled,2021.1.4,60.00737370003205,
9,9,0,36,18,9,54,0.83,0.5,0.5,0.0,0.5,0.5,,stimuli/P_09_09_00_36.png,,,,,0,167,167,83,,,,,,,,,,,,,,,,,,,,,,,,,,,,1643.609104831341,None,1643.609104831341,None,1644.0868743791998,None,1644.0868743791998,None,40,1644.0868743791998,None,return,1644.0868743791998,None,6.926521236035114,,,FEISUOJIA2,F,002,2023_Apr_18_1845,untitled,2021.1.4,60.00737370003205,
0,36,0,36,36,0,72,0.5,1.0,0.0,0.0,0.0,0.0,,stimuli/P_00_36_00_36.png,,,,,0,168,168,51,,,,,,,,,,,,,,,,,,,,,,,,,,,,1651.04988525521,None,1651.04988525521,None,1651.527236101203,None,1651.527236101203,None,0,1651.527236101203,None,return,1651.527236101203,None,1.8829955842884374,,,FEISUOJIA2,F,002,2023_Apr_18_1845,untitled,2021.1.4,60.00737370003205,
36,18,9,36,54,45,99,0.82,0.33,0.67,0.2,0.47,0.58,,stimuli/P_36_18_09_36.png,,,,,0,169,169,231,,,,,,,,,,,,,,,,,,,,,,,,,,,,1653.4473516538164,None,1653.4473516538164,None,1653.9339042697356,None,1653.9339042697356,None,40,1653.9339042697356,None,return,1653.9339042697356,None,4.378966147725805,,,FEISUOJIA2,F,002,2023_Apr_18_1845,untitled,2021.1.4,60.00737370003205,
9,36,18,9,45,27,72,0.5,0.8,0.2,0.67,-0.47,-1.4,,stimuli/P_09_36_18_09.png,,,,,0,170,170,121,,,,,,,,,,,,,,,,,,,,,,,,,,,,1658.3523171393554,None,1658.3523171393554,None,1658.8370038013127,None,1658.8370038013127,None,20,1658.8370038013127,None,return,1658.8370038013127,None,4.522794220547439,,,FEISUOJIA2,F,002,2023_Apr_18_1845,untitled,2021.1.4,60.00737370003205,
9,18,0,36,27,9,63,0.71,0.67,0.33,0.0,0.33,0.33,,stimuli/P_09_18_00_36.png,,,,,0,171,171,99,,,,,,,,,,,,,,,,,,,,,,,,,,,,1663.393926774961,None,1663.393926774961,None,1663.8720899935943,None,1663.8720899935943,None,30,1663.8720899935943,None,return,1663.8720899935943,None,4.048848171649297,,,FEISUOJIA2,F,002,2023_Apr_18_1845,untitled,2021.1.4,60.00737370003205,
0,18,18,18,18,18,54,0.67,1.0,0.0,0.5,-0.5,-1.0,,stimuli/P_00_18_18_18.png,,,,,0,172,172,42,,,,,,,,,,,,,,,,,,,,,,,,,,,,1667.9426503600498,None,1667.9426503600498,None,1668.4179731188851,None,1668.4179731188851,None,0,1668.4179731188851,None,return,1668.4179731188851,None,1.5193052279701078,,,FEISUOJIA2,F,002,2023_Apr_18_1845,untitled,2021.1.4,60.00737370003205,
0,18,36,18,18,36,72,0.75,1.0,0.0,0.67,-0.67,-2.0,,stimuli/P_00_18_36_18.png,,,,,0,173,173,46,,,,,,,,,,,,,,,,,,,,,,,,,,,,1669.9738561645318,None,1669.9738561645318,None,1670.4573305252998,None,1670.4573305252998,None,0,1670.4573305252998,None,return,1670.4573305252998,None,1.8799178980243596,,,FEISUOJIA2,F,002,2023_Apr_18_1845,untitled,2021.1.4,60.00737370003205,
18,18,9,36,36,27,81,0.78,0.5,0.5,0.2,0.3,0.37,,stimuli/P_18_18_09_36.png,,,,,0,174,174,167,,,,,,,,,,,,,,,,,,,,,,,,,,,,1672.372819308528,None,1672.372819308528,None,1672.8500939234764,None,1672.8500939234764,None,40,1672.8500939234764,None,return,1672.8500939234764,None,4.6136166852684255,,,FEISUOJIA2,F,002,2023_Apr_18_1845,untitled,2021.1.4,60.00737370003205,
36,36,9,36,72,45,117,0.69,0.5,0.5,0.2,0.3,0.37,,stimuli/P_36_36_09_36.png,,,,,0,175,175,247,,,,,,,,,,,,,,,,,,,,,,,,,,,,1677.5042928318926,None,1677.5042928318926,None,1678.0011229857082,None,1678.0011229857082,None,60,1678.0011229857082,None,return,1678.0011229857082,None,6.734591373149669,,,FEISUOJIA2,F,002,2023_Apr_18_1845,untitled,2021.1.4,60.00737370003205,
9,18,18,36,27,27,81,0.78,0.67,0.33,0.33,0.0,0.0,,stimuli/P_09_18_18_36.png,,,,,0,176,176,107,,,,,,,,,,,,,,,,,,,,,,,,,,,,1684.7697788275673,None,1684.7697788275673,None,1685.260528702127,None,1685.260528702127,None,30,1685.260528702127,None,return,1685.260528702127,None,3.719751350257866,,,FEISUOJIA2,F,002,2023_Apr_18_1845,untitled,2021.1.4,60.00737370003205,
36,18,9,0,54,45,63,0.71,0.33,0.67,1.0,-0.33,#NAME?,,stimuli/P_36_18_09_00.png,,,,,0,177,177,228,,,,,,,,,,,,,,,,,,,,,,,,,,,,1689.016732145723,None,1689.016732145723,None,1689.5020007805142,None,1689.5020007805142,None,40,1689.5020007805142,None,return,1689.5020007805142,None,4.542915234491375,,,FEISUOJIA2,F,002,2023_Apr_18_1845,untitled,2021.1.4,60.00737370003205,
18,18,36,18,36,54,90,0.8,0.5,0.5,0.67,-0.17,-0.5,,stimuli/P_18_18_36_18.png,,,,,0,178,178,174,,,,,,,,,,,,,,,,,,,,,,,,,,,,1694.0721959206148,None,1694.0721959206148,None,1694.554942104227,None,1694.554942104227,None,40,1694.554942104227,None,None,1694.554942104227,None,,,,FEISUOJIA2,F,002,2023_Apr_18_1845,untitled,2021.1.4,60.00737370003205,
9,0,36,0,9,45,45,1.0,0.0,1.0,1.0,0.0,None,,stimuli/P_09_00_36_00.png,,,,,0,179,179,76,,,,,,,,,,,,,,,,,,,,,,,,,,,,1702.5762657482537,None,1702.5762657482537,None,1703.091184277746,None,1703.091184277746,None,40,1703.091184277746,None,return,1703.091184277746,None,4.514264307827034,,,FEISUOJIA2,F,002,2023_Apr_18_1845,untitled,2021.1.4,60.00737370003205,
0,18,9,9,18,9,36,0.5,1.0,0.0,0.5,-0.5,-1.0,,stimuli/P_00_18_09_09.png,,,,,0,180,180,37,,,,,,,,,,,,,,,,,,,,,,,,,,,,1707.6335749971277,None,1707.6335749971277,None,1708.1276301133112,None,1708.1276301133112,None,0,1708.1276301133112,None,return,1708.1276301133112,None,5.462393632091334,,,FEISUOJIA2,F,002,2023_Apr_18_1845,untitled,2021.1.4,60.00737370003205,
36,9,18,0,45,54,63,0.86,0.2,0.8,1.0,-0.2,#NAME?,,stimuli/P_36_09_18_00.png,,,,,0,181,181,216,,,,,,,,,,,,,,,,,,,,,,,,,,,,1713.6247213869046,None,1713.6247213869046,None,1714.1041765511036,None,1714.1041765511036,None,80,1714.1041765511036,None,return,1714.1041765511036,None,4.934440731500217,,,FEISUOJIA2,F,002,2023_Apr_18_1845,untitled,2021.1.4,60.00737370003205,
36,0,9,9,36,45,54,1.0,0.0,1.0,0.5,0.5,1.0,,stimuli/P_36_00_09_09.png,,,,,0,182,182,197,,,,,,,,,,,,,,,,,,,,,,,,,,,,1719.0723751204623,None,1719.0723751204623,None,1719.5567011071707,None,1719.5567011071707,None,80,1719.5567011071707,None,return,1719.5567011071707,None,4.2232369295052195,,,FEISUOJIA2,F,002,2023_Apr_18_1845,untitled,2021.1.4,60.00737370003205,
0,0,18,18,0,18,36,1.0,None,None,0.5,None,None,,stimuli/P_00_00_18_18.png,,,,,0,183,183,10,,,,,,,,,,,,,,,,,,,,,,,,,,,,1723.819989486943,None,1723.819989486943,None,1724.309953726617,None,1724.309953726617,None,0,1724.309953726617,None,return,1724.309953726617,None,1.6029107744052453,,,FEISUOJIA2,F,002,2023_Apr_18_1845,untitled,2021.1.4,60.00737370003205,
0,9,9,0,9,9,18,0.5,1.0,0.0,1.0,-1.0,#NAME?,,stimuli/P_00_09_09_00.png,,,,,0,184,184,20,,,,,,,,,,,,,,,,,,,,,,,,,,,,1725.948921216921,None,1725.948921216921,None,1726.443666963627,None,1726.443666963627,None,0,1726.443666963627,None,return,1726.443666963627,None,1.2797685079312942,,,FEISUOJIA2,F,002,2023_Apr_18_1845,untitled,2021.1.4,60.00737370003205,
9,36,0,9,45,9,54,0.33,0.8,0.2,0.0,0.2,0.2,,stimuli/P_09_36_00_09.png,,,,,0,185,185,113,,,,,,,,,,,,,,,,,,,,,,,,,,,,1727.763203615399,None,1727.763203615399,None,1728.2418543713957,None,1728.2418543713957,None,30,1728.2418543713957,None,return,1728.2418543713957,None,6.577979809013414,,,FEISUOJIA2,F,002,2023_Apr_18_1845,untitled,2021.1.4,60.00737370003205,
9,36,0,36,45,9,81,0.56,0.8,0.2,0.0,0.2,0.2,,stimuli/P_09_36_00_36.png,,,,,0,186,186,115,,,,,,,,,,,,,,,,,,,,,,,,,,,,1734.858352476429,None,1734.858352476429,None,1735.3466322375407,None,1735.3466322375407,None,30,1735.3466322375407,None,return,1735.3466322375407,None,3.2317884599851823,,,FEISUOJIA2,F,002,2023_Apr_18_1845,untitled,2021.1.4,60.00737370003205,
9,9,0,0,18,9,18,0.5,0.5,0.5,None,None,None,,stimuli/P_09_09_00_00.png,,,,,0,187,187,80,,,,,,,,,,,,,,,,,,,,,,,,,,,,1738.6049161060273,None,1738.6049161060273,None,1739.0767891255837,None,1739.0767891255837,None,50,1739.0767891255837,None,return,1739.0767891255837,None,2.369039045086538,,,FEISUOJIA2,F,002,2023_Apr_18_1845,untitled,2021.1.4,60.00737370003205,
36,9,36,0,45,72,81,0.89,0.2,0.8,1.0,-0.2,#NAME?,,stimuli/P_36_09_36_00.png,,,,,0,188,188,220,,,,,,,,,,,,,,,,,,,,,,,,,,,,1741.4801105236384,None,1741.4801105236384,None,1741.9643801903949,None,1741.9643801903949,None,40,1741.9643801903949,None,return,1741.9643801903949,None,7.6645640551287215,,,FEISUOJIA2,F,002,2023_Apr_18_1845,untitled,2021.1.4,60.00737370003205,
0,18,0,36,18,0,54,0.67,1.0,0.0,0.0,0.0,0.0,,stimuli/P_00_18_00_36.png,,,,,0,189,189,35,,,,,,,,,,,,,,,,,,,,,,,,,,,,1749.6649321259247,None,1749.6649321259247,None,1750.1526981808092,None,1750.1526981808092,None,0,1750.1526981808092,None,return,1750.1526981808092,None,2.7636883083196153,,,FEISUOJIA2,F,002,2023_Apr_18_1845,untitled,2021.1.4,60.00737370003205,
9,18,9,9,27,18,45,0.6,0.67,0.33,0.5,-0.17,-0.33,,stimuli/P_09_18_09_09.png,,,,,0,190,190,101,,,,,,,,,,,,,,,,,,,,,,,,,,,,1752.9587743640677,None,1752.9587743640677,None,1753.450160824752,None,1753.450160824752,None,40,1753.450160824752,None,return,1753.450160824752,None,6.7368686334266386,,,FEISUOJIA2,F,002,2023_Apr_18_1845,untitled,2021.1.4,60.00737370003205,
9,9,18,9,18,27,45,0.8,0.5,0.5,0.67,-0.17,-0.5,,stimuli/P_09_09_18_09.png,,,,,0,191,191,89,,,,,,,,,,,,,,,,,,,,,,,,,,,,1760.2234866715135,None,1760.2234866715135,None,1760.7080732091108,None,1760.7080732091108,None,30,1760.7080732091108,None,return,1760.7080732091108,None,3.411854724105069,,,FEISUOJIA2,F,002,2023_Apr_18_1845,untitled,2021.1.4,60.00737370003205,
36,36,36,36,72,72,144,0.75,0.5,0.5,0.5,0.0,0.0,,stimuli/P_36_36_36_36.png,,,,,0,192,192,255,,,,,,,,,,,,,,,,,,,,,,,,,,,,1764.1558919203053,None,1764.1558919203053,None,1764.6436039307919,None,1764.6436039307919,None,25,1764.6436039307919,None,return,1764.6436039307919,None,6.092912560714467,,,FEISUOJIA2,F,002,2023_Apr_18_1845,untitled,2021.1.4,60.00737370003205,
18,9,0,0,27,18,27,0.67,0.33,0.67,None,None,None,,stimuli/P_18_09_00_00.png,,,,,0,193,193,144,,,,,,,,,,,,,,,,,,,,,,,,,,,,1770.77448467244,None,1770.77448467244,None,1771.2649808227725,None,1771.2649808227725,None,40,1771.2649808227725,None,return,1771.2649808227725,None,3.7536696146453323,,,FEISUOJIA2,F,002,2023_Apr_18_1845,untitled,2021.1.4,60.00737370003205,
18,18,0,36,36,18,72,0.75,0.5,0.5,0.0,0.5,0.5,,stimuli/P_18_18_00_36.png,,,,,0,194,194,163,,,,,,,,,,,,,,,,,,,,,,,,,,,,1775.051223849623,None,1775.051223849623,None,1775.5345679349466,None,1775.5345679349466,None,,1775.5345679349466,None,None,1775.5345679349466,None,,,,FEISUOJIA2,F,002,2023_Apr_18_1845,untitled,2021.1.4,60.00737370003205,
36,36,9,9,72,45,90,0.6,0.5,0.5,0.5,0.0,0.0,,stimuli/P_36_36_09_09.png,,,,,0,195,195,245,,,,,,,,,,,,,,,,,,,,,,,,,,,,1783.5592946694014,None,1783.5592946694014,None,1784.0710251482815,None,1784.0710251482815,None,60,1784.0710251482815,None,return,1784.0710251482815,None,4.0772914540448255,,,FEISUOJIA2,F,002,2023_Apr_18_1845,untitled,2021.1.4,60.00737370003205,
0,0,18,36,0,18,54,1.0,None,None,0.33,None,None,,stimuli/P_00_00_18_36.png,,,,,0,196,196,11,,,,,,,,,,,,,,,,,,,,,,,,,,,,1788.1830830793242,None,1788.1830830793242,None,1788.6722343774709,None,1788.6722343774709,None,0,1788.6722343774709,None,return,1788.6722343774709,None,1.80861171887409,,,FEISUOJIA2,F,002,2023_Apr_18_1845,untitled,2021.1.4,60.00737370003205,
0,36,0,0,36,0,36,0.0,1.0,0.0,None,None,None,,stimuli/P_00_36_00_00.png,,,,,0,197,197,48,,,,,,,,,,,,,,,,,,,,,,,,,,,,1790.5157582087759,None,1790.5157582087759,None,1791.0019325139074,None,1791.0019325139074,None,0,1791.0019325139074,None,return,1791.0019325139074,None,1.433857620886556,,,FEISUOJIA2,F,002,2023_Apr_18_1845,untitled,2021.1.4,60.00737370003205,
0,18,9,36,18,9,63,0.71,1.0,0.0,0.2,-0.2,-0.25,,stimuli/P_00_18_09_36.png,,,,,0,198,198,39,,,,,,,,,,,,,,,,,,,,,,,,,,,,1792.476313762434,None,1792.476313762434,None,1792.9669214148944,None,1792.9669214148944,None,0,1792.9669214148944,None,return,1792.9669214148944,None,1.6094945198983623,,,FEISUOJIA2,F,002,2023_Apr_18_1845,untitled,2021.1.4,60.00737370003205,
36,9,9,36,45,45,90,0.9,0.2,0.8,0.2,0.6,0.75,,stimuli/P_36_09_09_36.png,,,,,0,199,199,215,,,,,,,,,,,,,,,,,,,,,,,,,,,,1794.609357986681,None,1794.609357986681,None,1795.0947648613565,None,1795.0947648613565,None,60,1795.0947648613565,None,return,1795.0947648613565,None,2.9909643454884645,,,FEISUOJIA2,F,002,2023_Apr_18_1845,untitled,2021.1.4,60.00737370003205,
0,0,36,18,0,36,54,1.0,None,None,0.67,None,None,,stimuli/P_00_00_36_18.png,,,,,0,200,200,14,,,,,,,,,,,,,,,,,,,,,,,,,,,,1798.1041947555314,None,1798.1041947555314,None,1798.5920450059002,None,1798.5920450059002,None,0,1798.5920450059002,None,return,1798.5920450059002,None,2.0785782796119747,,,FEISUOJIA2,F,002,2023_Apr_18_1845,untitled,2021.1.4,60.00737370003205,
9,9,18,36,18,27,72,0.88,0.5,0.5,0.33,0.17,0.25,,stimuli/P_09_09_18_36.png,,,,,0,201,201,91,,,,,,,,,,,,,,,,,,,,,,,,,,,,1800.696536152289,None,1800.696536152289,None,1801.1827946529047,None,1801.1827946529047,None,30,1801.1827946529047,None,return,1801.1827946529047,None,4.2533823260018835,,,FEISUOJIA2,F,002,2023_Apr_18_1845,untitled,2021.1.4,60.00737370003205,
18,36,0,0,54,18,54,0.33,0.67,0.33,None,None,None,,stimuli/P_18_36_00_00.png,,,,,0,202,202,176,,,,,,,,,,,,,,,,,,,,,,,,,,,,1805.466120988911,None,1805.466120988911,None,1805.9593551991275,None,1805.9593551991275,None,40,1805.9593551991275,None,return,1805.9593551991275,None,6.333188835678811,,,FEISUOJIA2,F,002,2023_Apr_18_1845,untitled,2021.1.4,60.00737370003205,
36,9,36,9,45,72,90,0.9,0.2,0.8,0.8,0.0,0.0,,stimuli/P_36_09_36_09.png,,,,,0,203,203,221,,,,,,,,,,,,,,,,,,,,,,,,,,,,1812.3100436109853,None,1812.3100436109853,None,1812.8041590293396,None,1812.8041590293396,None,60,1812.8041590293396,None,None,1812.8041590293396,None,,,,FEISUOJIA2,F,002,2023_Apr_18_1845,untitled,2021.1.4,60.00737370003205,
9,36,18,36,45,27,99,0.64,0.8,0.2,0.33,-0.13,-0.2,,stimuli/P_09_36_18_36.png,,,,,0,204,204,123,,,,,,,,,,,,,,,,,,,,,,,,,,,,1820.8183783949844,None,1820.8183783949844,None,1821.3080769637745,None,1821.3080769637745,None,30,1821.3080769637745,None,return,1821.3080769637745,None,2.4361650322498463,,,FEISUOJIA2,F,002,2023_Apr_18_1845,untitled,2021.1.4,60.00737370003205,
0,0,0,9,0,0,9,1.0,None,None,0.0,None,None,,stimuli/P_00_00_00_09.png,,,,,0,205,205,1,,,,,,,,,,,,,,,,,,,,,,,,,,,,1823.7678161625754,None,1823.7678161625754,None,1824.2432470102067,None,1824.2432470102067,None,0,1824.2432470102067,None,return,1824.2432470102067,None,1.3226217335850379,,,FEISUOJIA2,F,002,2023_Apr_18_1845,untitled,2021.1.4,60.00737370003205,
36,0,9,0,36,45,45,1.0,0.0,1.0,1.0,0.0,None,,stimuli/P_36_00_09_00.png,,,,,0,206,206,196,,,,,,,,,,,,,,,,,,,,,,,,,,,,1825.5979955785988,None,1825.5979955785988,None,1826.086238361966,None,1826.086238361966,None,80,1826.086238361966,None,return,1826.086238361966,None,4.77949885482667,,,FEISUOJIA2,F,002,2023_Apr_18_1845,untitled,2021.1.4,60.00737370003205,
0,9,0,9,9,0,18,0.5,1.0,0.0,0.0,0.0,0.0,,stimuli/P_00_09_00_09.png,,,,,0,207,207,17,,,,,,,,,,,,,,,,,,,,,,,,,,,,1830.9009730267262,None,1830.9009730267262,None,1831.391816198984,None,1831.391816198984,None,0,1831.391816198984,None,return,1831.391816198984,None,1.3295809454248229,,,FEISUOJIA2,F,002,2023_Apr_18_1845,untitled,2021.1.4,60.00737370003205,
36,0,0,36,36,36,72,1.0,0.0,1.0,0.0,1.0,1.0,,stimuli/P_36_00_00_36.png,,,,,0,208,208,195,,,,,,,,,,,,,,,,,,,,,,,,,,,,1832.7627564691138,None,1832.7627564691138,None,1833.287246545995,None,1833.287246545995,None,50,1833.287246545995,None,return,1833.287246545995,None,4.383185593014787,,,FEISUOJIA2,F,002,2023_Apr_18_1845,untitled,2021.1.4,60.00737370003205,
9,18,0,18,27,9,45,0.6,0.67,0.33,0.0,0.33,0.33,,stimuli/P_09_18_00_18.png,,,,,0,209,209,98,,,,,,,,,,,,,,,,,,,,,,,,,,,,1837.7102036961824,None,1837.7102036961824,None,1838.1953266955443,None,1838.1953266955443,None,30,1838.1953266955443,None,return,1838.1953266955443,None,3.362052526603293,,,FEISUOJIA2,F,002,2023_Apr_18_1845,untitled,2021.1.4,60.00737370003205,
36,9,0,36,45,36,81,0.89,0.2,0.8,0.0,0.8,0.8,,stimuli/P_36_09_00_36.png,,,,,0,210,210,211,,,,,,,,,,,,,,,,,,,,,,,,,,,,1841.5866582016079,None,1841.5866582016079,None,1842.058073834889,None,1842.058073834889,None,70,1842.058073834889,None,return,1842.058073834889,None,7.419242308913454,,,FEISUOJIA2,F,002,2023_Apr_18_1845,untitled,2021.1.4,60.00737370003205,
36,18,18,18,54,54,90,0.8,0.33,0.67,0.5,0.17,0.33,,stimuli/P_36_18_18_18.png,,,,,0,211,211,234,,,,,,,,,,,,,,,,,,,,,,,,,,,,1849.5016748074595,None,1849.5016748074595,None,1849.997730704159,None,1849.997730704159,None,70,1849.997730704159,None,return,1849.997730704159,None,5.853638098229567,,,FEISUOJIA2,F,002,2023_Apr_18_1845,untitled,2021.1.4,60.00737370003205,
36,18,0,9,54,36,63,0.71,0.33,0.67,0.0,0.67,0.67,,stimuli/P_36_18_00_09.png,,,,,0,212,212,225,,,,,,,,,,,,,,,,,,,,,,,,,,,,1855.876791856248,None,1855.876791856248,None,1856.3622032820313,None,1856.3622032820313,None,70,1856.3622032820313,None,return,1856.3622032820313,None,6.66991274389693,,,FEISUOJIA2,F,002,2023_Apr_18_1845,untitled,2021.1.4,60.00737370003205,
9,9,0,18,18,9,36,0.75,0.5,0.5,0.0,0.5,0.5,,stimuli/P_09_09_00_18.png,,,,,0,213,213,82,,,,,,,,,,,,,,,,,,,,,,,,,,,,1863.0631915549657,None,1863.0631915549657,None,1863.5469378443904,None,1863.5469378443904,None,40,1863.5469378443904,None,return,1863.5469378443904,None,7.95673774358329,,,FEISUOJIA2,F,002,2023_Apr_18_1845,untitled,2021.1.4,60.00737370003205,
0,36,9,0,36,9,45,0.2,1.0,0.0,1.0,-1.0,#NAME?,,stimuli/P_00_36_09_00.png,,,,,0,214,214,52,,,,,,,,,,,,,,,,,,,,,,,,,,,,1871.5230479447764,None,1871.5230479447764,None,1872.0121736429446,None,1872.0121736429446,None,0,1872.0121736429446,None,return,1872.0121736429446,None,1.4842787689703982,,,FEISUOJIA2,F,002,2023_Apr_18_1845,untitled,2021.1.4,60.00737370003205,
18,0,0,36,18,18,54,1.0,0.0,1.0,0.0,1.0,1.0,,stimuli/P_18_00_00_36.png,,,,,0,215,215,131,,,,,,,,,,,,,,,,,,,,,,,,,,,,1873.5298677789579,None,1873.5298677789579,None,1874.0102234934984,None,1874.0102234934984,None,40,1874.0102234934984,None,return,1874.0102234934984,None,4.139600094207708,,,FEISUOJIA2,F,002,2023_Apr_18_1845,untitled,2021.1.4,60.00737370003205,
18,18,18,0,36,36,54,0.67,0.5,0.5,1.0,-0.5,#NAME?,,stimuli/P_18_18_18_00.png,,,,,0,216,216,168,,,,,,,,,,,,,,,,,,,,,,,,,,,,1878.1948613448294,None,1878.1948613448294,None,1878.6813070097287,None,1878.6813070097287,None,70,1878.6813070097287,None,None,1878.6813070097287,None,,,,FEISUOJIA2,F,002,2023_Apr_18_1845,untitled,2021.1.4,60.00737370003205,
9,0,18,36,9,27,63,1.0,0.0,1.0,0.33,0.67,1.0,,stimuli/P_09_00_18_36.png,,,,,0,217,217,75,,,,,,,,,,,,,,,,,,,,,,,,,,,,1886.7215996686791,None,1886.7215996686791,None,1887.2282249430264,None,1887.2282249430264,None,30,1887.2282249430264,None,return,1887.2282249430264,None,6.999275805061188,,,FEISUOJIA2,F,002,2023_Apr_18_1845,untitled,2021.1.4,60.00737370003205,
0,9,9,9,9,9,27,0.67,1.0,0.0,0.5,-0.5,-1.0,,stimuli/P_00_09_09_09.png,,,,,0,218,218,21,,,,,,,,,,,,,,,,,,,,,,,,,,,,1894.246834989368,None,1894.246834989368,None,1894.7385610764286,None,1894.7385610764286,None,0,1894.7385610764286,None,return,1894.7385610764286,None,1.5495894332379976,,,FEISUOJIA2,F,002,2023_Apr_18_1845,untitled,2021.1.4,60.00737370003205,
9,18,9,18,27,18,54,0.67,0.67,0.33,0.33,0.0,0.0,,stimuli/P_09_18_09_18.png,,,,,0,219,219,102,,,,,,,,,,,,,,,,,,,,,,,,,,,,1896.3126138487914,None,1896.3126138487914,None,1896.797246466349,None,1896.797246466349,None,30,1896.797246466349,None,return,1896.797246466349,None,4.656364666569061,,,FEISUOJIA2,F,002,2023_Apr_18_1845,untitled,2021.1.4,60.00737370003205,
0,18,0,0,18,0,18,0.0,1.0,0.0,None,None,None,,stimuli/P_00_18_00_00.png,,,,,0,220,220,32,,,,,,,,,,,,,,,,,,,,,,,,,,,,1901.4720260505383,None,1901.4720260505383,None,1901.957620658386,None,1901.957620658386,None,0,1901.957620658386,None,return,1901.957620658386,None,3.0566061028057447,,,FEISUOJIA2,F,002,2023_Apr_18_1845,untitled,2021.1.4,60.00737370003205,
9,36,36,0,45,45,81,0.56,0.8,0.2,1.0,-0.8,#NAME?,,stimuli/P_09_36_36_00.png,,,,,0,221,221,124,,,,,,,,,,,,,,,,,,,,,,,,,,,,1905.051382569487,None,1905.051382569487,None,1905.5438539003553,None,1905.5438539003553,None,20,1905.5438539003553,None,return,1905.5438539003553,None,3.2250482701820147,,,FEISUOJIA2,F,002,2023_Apr_18_1845,untitled,2021.1.4,60.00737370003205,
0,9,18,9,9,18,36,0.75,1.0,0.0,0.67,-0.67,-2.0,,stimuli/P_00_09_18_09.png,,,,,0,222,222,25,,,,,,,,,,,,,,,,,,,,,,,,,,,,1908.7962349827685,None,1908.7962349827685,None,1909.2845653749482,None,1909.2845653749482,None,0,1909.2845653749482,None,return,1909.2845653749482,None,2.373670934466645,,,FEISUOJIA2,F,002,2023_Apr_18_1845,untitled,2021.1.4,60.00737370003205,
18,18,9,0,36,27,45,0.6,0.5,0.5,1.0,-0.5,#NAME?,,stimuli/P_18_18_09_00.png,,,,,0,223,223,164,,,,,,,,,,,,,,,,,,,,,,,,,,,,1911.6951457890318,None,1911.6951457890318,None,1912.2142041194347,None,1912.2142041194347,None,40,1912.2142041194347,None,return,1912.2142041194347,None,5.357981561188353,,,FEISUOJIA2,F,002,2023_Apr_18_1845,untitled,2021.1.4,60.00737370003205,
36,9,9,9,45,45,63,0.86,0.2,0.8,0.5,0.3,0.6,,stimuli/P_36_09_09_09.png,,,,,0,224,224,213,,,,,,,,,,,,,,,,,,,,,,,,,,,,1917.606216016029,None,1917.606216016029,None,1918.093810266615,None,1918.093810266615,None,80,1918.093810266615,None,return,1918.093810266615,None,4.910346600947378,,,FEISUOJIA2,F,002,2023_Apr_18_1845,untitled,2021.1.4,60.00737370003205,
9,36,36,18,45,45,99,0.64,0.8,0.2,0.67,-0.47,-1.4,,stimuli/P_09_36_36_18.png,,,,,0,225,225,126,,,,,,,,,,,,,,,,,,,,,,,,,,,,1923.0446184863704,None,1923.0446184863704,None,1923.5330239718205,None,1923.5330239718205,None,20,1923.5330239718205,None,return,1923.5330239718205,None,4.354771323927707,,,FEISUOJIA2,F,002,2023_Apr_18_1845,untitled,2021.1.4,60.00737370003205,
18,0,36,18,18,54,72,1.0,0.0,1.0,0.67,0.33,1.0,,stimuli/P_18_00_36_18.png,,,,,0,226,226,142,,,,,,,,,,,,,,,,,,,,,,,,,,,,1927.9085665491348,None,1927.9085665491348,None,1928.3871672429505,None,1928.3871672429505,None,40,1928.3871672429505,None,None,1928.3871672429505,None,,,,FEISUOJIA2,F,002,2023_Apr_18_1845,untitled,2021.1.4,60.00737370003205,
9,36,36,9,45,45,90,0.6,0.8,0.2,0.8,-0.6,-3.0,,stimuli/P_09_36_36_09.png,,,,,0,227,227,125,,,,,,,,,,,,,,,,,,,,,,,,,,,,1936.4225970438292,None,1936.4225970438292,None,1936.9373278401472,None,1936.9373278401472,None,30,1936.9373278401472,None,return,1936.9373278401472,None,2.8445557948689384,,,FEISUOJIA2,F,002,2023_Apr_18_1845,untitled,2021.1.4,60.00737370003205,
9,9,18,0,18,27,36,0.75,0.5,0.5,1.0,-0.5,#NAME?,,stimuli/P_09_09_18_00.png,,,,,0,228,228,88,,,,,,,,,,,,,,,,,,,,,,,,,,,,1939.8211426237358,None,1939.8211426237358,None,1940.3011331119214,None,1940.3011331119214,None,40,1940.3011331119214,None,return,1940.3011331119214,None,4.21069919797992,,,FEISUOJIA2,F,002,2023_Apr_18_1845,untitled,2021.1.4,60.00737370003205,
36,18,18,36,54,54,108,0.83,0.33,0.67,0.33,0.33,0.5,,stimuli/P_36_18_18_36.png,,,,,0,229,229,235,,,,,,,,,,,,,,,,,,,,,,,,,,,,1944.552258657628,None,1944.552258657628,None,1945.0447658284666,None,1945.0447658284666,None,40,1945.0447658284666,None,return,1945.0447658284666,None,7.8340415993952774,,,FEISUOJIA2,F,002,2023_Apr_18_1845,untitled,2021.1.4,60.00737370003205,
36,9,9,18,45,45,72,0.88,0.2,0.8,0.33,0.47,0.7,,stimuli/P_36_09_09_18.png,,,,,0,230,230,214,,,,,,,,,,,,,,,,,,,,,,,,,,,,1952.9054331118077,None,1952.9054331118077,None,1953.382250909368,None,1953.382250909368,None,40,1953.382250909368,None,return,1953.382250909368,None,5.821980596354479,,,FEISUOJIA2,F,002,2023_Apr_18_1845,untitled,2021.1.4,60.00737370003205,
36,9,0,9,45,36,54,0.83,0.2,0.8,0.0,0.8,0.8,,stimuli/P_36_09_00_09.png,,,,,0,231,231,209,,,,,,,,,,,,,,,,,,,,,,,,,,,,1959.2226515433376,None,1959.2226515433376,None,1959.7109762466334,None,1959.7109762466334,None,40,1959.7109762466334,None,return,1959.7109762466334,None,5.210521704799248,,,FEISUOJIA2,F,002,2023_Apr_18_1845,untitled,2021.1.4,60.00737370003205,
18,18,18,18,36,36,72,0.75,0.5,0.5,0.5,0.0,0.0,,stimuli/P_18_18_18_18.png,,,,,0,232,232,170,,,,,,,,,,,,,,,,,,,,,,,,,,,,1964.9624084231891,None,1964.9624084231891,None,1965.4446420383501,None,1965.4446420383501,None,30,1965.4446420383501,None,None,1965.4446420383501,None,,,,FEISUOJIA2,F,002,2023_Apr_18_1845,untitled,2021.1.4,60.00737370003205,
18,9,0,9,27,18,36,0.75,0.33,0.67,0.0,0.67,0.67,,stimuli/P_18_09_00_09.png,,,,,0,233,233,145,,,,,,,,,,,,,,,,,,,,,,,,,,,,1973.485837523196,None,1973.485837523196,None,1973.9880169346707,None,1973.9880169346707,None,30,1973.9880169346707,None,None,1973.9880169346707,None,,,,FEISUOJIA2,F,002,2023_Apr_18_1845,untitled,2021.1.4,60.00737370003205,
9,9,36,18,18,45,72,0.88,0.5,0.5,0.67,-0.17,-0.5,,stimuli/P_09_09_36_18.png,,,,,0,234,234,94,,,,,,,,,,,,,,,,,,,,,,,,,,,,1982.0194264012007,None,1982.0194264012007,None,1982.5364850888654,None,1982.5364850888654,None,30,1982.5364850888654,None,return,1982.5364850888654,None,5.000191715391338,,,FEISUOJIA2,F,002,2023_Apr_18_1845,untitled,2021.1.4,60.00737370003205,
0,9,9,36,9,9,54,0.83,1.0,0.0,0.2,-0.2,-0.25,,stimuli/P_00_09_09_36.png,,,,,0,235,235,23,,,,,,,,,,,,,,,,,,,,,,,,,,,,1987.5614035387134,None,1987.5614035387134,None,1988.0462068227916,None,1988.0462068227916,None,0,1988.0462068227916,None,return,1988.0462068227916,None,3.250586239499171,,,FEISUOJIA2,F,002,2023_Apr_18_1845,untitled,2021.1.4,60.00737370003205,
9,0,9,0,9,18,18,1.0,0.0,1.0,1.0,0.0,None,,stimuli/P_09_00_09_00.png,,,,,0,236,236,68,,,,,,,,,,,,,,,,,,,,,,,,,,,,1991.3351662917685,None,1991.3351662917685,None,1991.8144257583572,None,1991.8144257583572,None,50,1991.8144257583572,None,return,1991.8144257583572,None,2.2007715264535364,,,FEISUOJIA2,F,002,2023_Apr_18_1845,untitled,2021.1.4,60.00737370003205,
36,18,9,18,54,45,81,0.78,0.33,0.67,0.33,0.33,0.5,,stimuli/P_36_18_09_18.png,,,,,0,237,237,230,,,,,,,,,,,,,,,,,,,,,,,,,,,,1994.041189795962,None,1994.041189795962,None,1994.5246778100536,None,1994.5246778100536,None,40,1994.5246778100536,None,return,1994.5246778100536,None,5.832204658740011,,,FEISUOJIA2,F,002,2023_Apr_18_1845,untitled,2021.1.4,60.00737370003205,
18,36,18,9,54,36,81,0.56,0.67,0.33,0.67,-0.33,-1.0,,stimuli/P_18_36_18_09.png,,,,,0,238,238,185,,,,,,,,,,,,,,,,,,,,,,,,,,,,2000.393673619621,None,2000.393673619621,None,2000.8942112191617,None,2000.8942112191617,None,30,2000.8942112191617,None,return,2000.8942112191617,None,4.268909566084403,,,FEISUOJIA2,F,002,2023_Apr_18_1845,untitled,2021.1.4,60.00737370003205,
36,0,0,0,36,36,36,1.0,0.0,1.0,None,None,None,,stimuli/P_36_00_00_00.png,,,,,0,239,239,192,,,,,,,,,,,,,,,,,,,,,,,,,,,,2005.186640338512,None,2005.186640338512,None,2005.6771472977234,None,2005.6771472977234,None,100,2005.6771472977234,None,return,2005.6771472977234,None,2.333775928511386,,,FEISUOJIA2,F,002,2023_Apr_18_1845,untitled,2021.1.4,60.00737370003205,
36,36,0,36,72,36,108,0.67,0.5,0.5,0.0,0.5,0.5,,stimuli/P_36_36_00_36.png,,,,,0,240,240,243,,,,,,,,,,,,,,,,,,,,,,,,,,,,2008.0457994986955,None,2008.0457994986955,None,2008.5388784023799,None,2008.5388784023799,None,75,2008.5388784023799,None,return,2008.5388784023799,None,7.817024440582827,,,FEISUOJIA2,F,002,2023_Apr_18_1845,untitled,2021.1.4,60.00737370003205,
36,18,36,18,54,72,108,0.83,0.33,0.67,0.67,0.0,0.0,,stimuli/P_36_18_36_18.png,,,,,0,241,241,238,,,,,,,,,,,,,,,,,,,,,,,,,,,,2016.3915272036738,None,2016.3915272036738,None,2016.8715802695842,None,2016.8715802695842,None,60,2016.8715802695842,None,return,2016.8715802695842,None,6.799439531143435,,,FEISUOJIA2,F,002,2023_Apr_18_1845,untitled,2021.1.4,60.00737370003205,
0,9,18,36,9,18,63,0.86,1.0,0.0,0.33,-0.33,-0.5,,stimuli/P_00_09_18_36.png,,,,,0,242,242,27,,,,,,,,,,,,,,,,,,,,,,,,,,,,2023.6964462679207,None,2023.6964462679207,None,2024.1870789514705,None,2024.1870789514705,None,0,2024.1870789514705,None,return,2024.1870789514705,None,3.6499885653429374,,,FEISUOJIA2,F,002,2023_Apr_18_1845,untitled,2021.1.4,60.00737370003205,
9,36,9,9,45,18,63,0.43,0.8,0.2,0.5,-0.3,-0.6,,stimuli/P_09_36_09_09.png,,,,,0,243,243,117,,,,,,,,,,,,,,,,,,,,,,,,,,,,2027.8716058695627,None,2027.8716058695627,None,2028.3463682733218,None,2028.3463682733218,None,30,2028.3463682733218,None,return,2028.3463682733218,None,6.389899613952366,,,FEISUOJIA2,F,002,2023_Apr_18_1845,untitled,2021.1.4,60.00737370003205,
0,36,36,18,36,36,90,0.6,1.0,0.0,0.67,-0.67,-2.0,,stimuli/P_00_36_36_18.png,,,,,0,244,244,62,,,,,,,,,,,,,,,,,,,,,,,,,,,,2034.7740625572442,None,2034.7740625572442,None,2035.259033663402,None,2035.259033663402,None,0,2035.259033663402,None,return,2035.259033663402,None,1.405917235839297,,,FEISUOJIA2,F,002,2023_Apr_18_1845,untitled,2021.1.4,60.00737370003205,
36,0,9,36,36,45,81,1.0,0.0,1.0,0.2,0.8,1.0,,stimuli/P_36_00_09_36.png,,,,,0,245,245,199,,,,,,,,,,,,,,,,,,,,,,,,,,,,2036.6853398596213,None,2036.6853398596213,None,2037.158374549299,None,2037.158374549299,None,40,2037.158374549299,None,return,2037.158374549299,None,5.3837436725389125,,,FEISUOJIA2,F,002,2023_Apr_18_1845,untitled,2021.1.4,60.00737370003205,
9,0,36,36,9,45,81,1.0,0.0,1.0,0.5,0.5,1.0,,stimuli/P_09_00_36_36.png,,,,,0,246,246,79,,,,,,,,,,,,,,,,,,,,,,,,,,,,2042.5647787536109,None,2042.5647787536109,None,2043.0412688714514,None,2043.0412688714514,None,20,2043.0412688714514,None,return,2043.0412688714514,None,3.140379471320557,,,FEISUOJIA2,F,002,2023_Apr_18_1845,untitled,2021.1.4,60.00737370003205,
18,9,9,0,27,27,36,0.75,0.33,0.67,1.0,-0.33,#NAME?,,stimuli/P_18_09_09_00.png,,,,,0,247,247,148,,,,,,,,,,,,,,,,,,,,,,,,,,,,2046.2179570762328,None,2046.2179570762328,None,2046.6964064457334,None,2046.6964064457334,None,60,2046.6964064457334,None,return,2046.6964064457334,None,3.838712742075586,,,FEISUOJIA2,F,002,2023_Apr_18_1845,untitled,2021.1.4,60.00737370003205,
9,18,18,9,27,27,54,0.67,0.67,0.33,0.67,-0.33,-1.0,,stimuli/P_09_18_18_09.png,,,,,0,248,248,105,,,,,,,,,,,,,,,,,,,,,,,,,,,,2050.553697945288,None,2050.553697945288,None,2051.0424874304117,None,2051.0424874304117,None,30,2051.0424874304117,None,return,2051.0424874304117,None,2.742378886501683,,,FEISUOJIA2,F,002,2023_Apr_18_1845,untitled,2021.1.4,60.00737370003205,
0,36,18,36,36,18,90,0.6,1.0,0.0,0.33,-0.33,-0.5,,stimuli/P_00_36_18_36.png,,,,,0,249,249,59,,,,,,,,,,,,,,,,,,,,,,,,,,,,2053.8142664696043,None,2053.8142664696043,None,2054.2954169212444,None,2054.2954169212444,None,0,2054.2954169212444,None,return,2054.2954169212444,None,1.5538304962865368,,,FEISUOJIA2,F,002,2023_Apr_18_1845,untitled,2021.1.4,60.00737370003205,
36,0,18,18,36,54,72,1.0,0.0,1.0,0.5,0.5,1.0,,stimuli/P_36_00_18_18.png,,,,,0,250,250,202,,,,,,,,,,,,,,,,,,,,,,,,,,,,2055.885446924418,None,2055.885446924418,None,2056.356609971248,None,2056.356609971248,None,80,2056.356609971248,None,return,2056.356609971248,None,5.19320189735663,,,FEISUOJIA2,F,002,2023_Apr_18_1845,untitled,2021.1.4,60.00737370003205,
18,9,9,18,27,27,54,0.83,0.33,0.67,0.33,0.33,0.5,,stimuli/P_18_09_09_18.png,,,,,0,251,251,150,,,,,,,,,,,,,,,,,,,,,,,,,,,,2061.583781332951,None,2061.583781332951,None,2062.06055703277,None,2062.06055703277,None,40,2062.06055703277,None,None,2062.06055703277,None,,,,FEISUOJIA2,F,002,2023_Apr_18_1845,untitled,2021.1.4,60.00737370003205,
9,0,9,18,9,18,36,1.0,0.0,1.0,0.33,0.67,1.0,,stimuli/P_09_00_09_18.png,,,,,0,252,252,70,,,,,,,,,,,,,,,,,,,,,,,,,,,,2070.069606909492,None,2070.069606909492,None,2070.596584735358,None,2070.596584735358,None,40,2070.596584735358,None,return,2070.596584735358,None,6.1080375966957945,,,FEISUOJIA2,F,002,2023_Apr_18_1845,untitled,2021.1.4,60.00737370003205,
9,36,0,18,45,9,63,0.43,0.8,0.2,0.0,0.2,0.2,,stimuli/P_09_36_00_18.png,,,,,0,253,253,114,,,,,,,,,,,,,,,,,,,,,,,,,,,,2076.725974420502,None,2076.725974420502,None,2077.211825028131,None,2077.211825028131,None,30,2077.211825028131,None,return,2077.211825028131,None,3.3325107207019755,,,FEISUOJIA2,F,002,2023_Apr_18_1845,untitled,2021.1.4,60.00737370003205,
18,36,0,9,54,18,63,0.43,0.67,0.33,0.0,0.33,0.33,,stimuli/P_18_36_00_09.png,,,,,0,254,254,177,,,,,,,,,,,,,,,,,,,,,,,,,,,,2080.584444087941,None,2080.584444087941,None,2081.0640244075876,None,2081.0640244075876,None,70,2081.0640244075876,None,None,2081.0640244075876,None,,,,FEISUOJIA2,F,002,2023_Apr_18_1845,untitled,2021.1.4,60.00737370003205,
0,18,36,9,18,36,63,0.71,1.0,0.0,0.8,-0.8,-4.0,,stimuli/P_00_18_36_09.png,,,,,0,255,255,45,,,,,,,,,,,,,,,,,,,,,,,,,,,,2089.095467438534,None,2089.095467438534,None,2089.61214155764,None,2089.61214155764,None,0,2089.61214155764,None,return,2089.61214155764,None,5.535936111557021,,,FEISUOJIA2,F,002,2023_Apr_18_1845,untitled,2021.1.4,60.00737370003205,
,,,,,,,,,,,,,,,,,,,,,,,,,,,,,,,,,,,,,,,,,,,,,,,,,,,,,,,,,,,,,,,,,2095.1727600303566,None,,,,,,,,
