A1C1,A1C0,A0C1,A0C0,A1,C1,Total,MI,C0GvA1,C1GvA1,C1GvA0,dltP,dltPp,Image_practice,Image,trials_2.thisRepN,trials_2.thisTrialN,trials_2.thisN,trials_2.thisIndex,trials.thisRepN,trials.thisTrialN,trials.thisN,trials.thisIndex,image.started,image.stopped,key_resp.keys,key_resp.rt,key_resp.started,key_resp.stopped,betweenTrial.started,betweenTrial.stopped,ISI.started,ISI.stopped,image_card.started,image_card.stopped,textbox.text,textbox.started,textbox.stopped,key_resp_3.keys,key_resp_3.started,key_resp_3.stopped,text_2.started,text_2.stopped,key_resp_2.keys,key_resp_2.rt,key_resp_2.started,key_resp_2.stopped,image_endPractice.started,image_endPractice.stopped,polygon_2.started,polygon_2.stopped,ISI_2.started,ISI_2.stopped,Cards.started,Cards.stopped,TextNote.started,TextNote.stopped,Estimation.text,Estimation.started,Estimation.stopped,key_resp_4.keys,key_resp_4.rt,key_resp_4.started,key_resp_4.stopped,text.started,text.stopped,participant,gender,session,date,expName,psychopyVersion,frameRate,
,,,,,,,,,,,,,,,,,,,,,,,23.52596619911492,None,space,4.267258800566196,23.52596619911492,None,,,,,,,,,,,,,,,,,,,,,,,,,,,,,,,,,,,,,,HERUN,F,001,2023_Apr_18_1242,untitled,2021.1.4,60.1304831620093,
0,0,0,9,0,0,9,1.0,None,None,0.0,None,None,practice_stimuli/P_00_00_00_09.png,,0,0,0,0,,,,,,,,,,,27.894496899098158,None,27.894496899098158,None,28.256470700725913,None,0,28.256470700725913,None,None,28.256470700725913,None,28.256470700725913,None,,,,,,,,,,,,,,,,,,,,,,,,HERUN,F,001,2023_Apr_18_1242,untitled,2021.1.4,60.1304831620093,
18,0,36,0,18,54,54,1.0,0.0,1.0,1.0,0.0,None,practice_stimuli/P_18_00_36_00.png,,0,1,1,1,,,,,,,,,,,36.26096970029175,None,36.26096970029175,None,36.6081422008574,None,40,36.6081422008574,None,None,36.6081422008574,None,36.6081422008574,None,,,,,,,,,,,,,,,,,,,,,,,,HERUN,F,001,2023_Apr_18_1242,untitled,2021.1.4,60.1304831620093,
9,18,18,0,27,27,45,0.6,0.67,0.33,1.0,-0.67,#NAME?,practice_stimuli/P_09_18_18_00.png,,0,2,2,2,,,,,,,,,,,44.605855299159884,None,44.605855299159884,None,44.949593000113964,None,30,44.949593000113964,None,None,44.949593000113964,None,44.949593000113964,None,,,,,,,,,,,,,,,,,,,,,,,,HERUN,F,001,2023_Apr_18_1242,untitled,2021.1.4,60.1304831620093,
36,18,18,36,54,54,108,0.83,0.33,0.67,0.33,0.33,0.5,practice_stimuli/P_36_18_18_36.png,,0,3,3,3,,,,,,,,,,,52.95977419987321,None,52.95977419987321,None,53.30266210064292,None,45,53.30266210064292,None,None,53.30266210064292,None,53.30266210064292,None,,,,,,,,,,,,,,,,,,,,,,,,HERUN,F,001,2023_Apr_18_1242,untitled,2021.1.4,60.1304831620093,
,,,,,,,,,,,,,,,,,,,,,,,,,,,,,,,,,,,,,,,,,,,space,4.455508001148701,61.304157700389624,None,,,,,,,,,,,,,,,,,,,,HERUN,F,001,2023_Apr_18_1242,untitled,2021.1.4,60.1304831620093,
18,18,0,0,36,18,36,0.5,0.5,0.5,None,None,None,,stimuli/P_18_18_00_00.png,,,,,0,0,0,160,,,,,,,,,,,,,,,,,,,,,,,,,61.304157700389624,None,71.95776019990444,None,71.95776019990444,None,72.3400301001966,None,72.3400301001966,None,50,72.3400301001966,None,return,6.013600300997496,72.3400301001966,None,,,HERUN,F,001,2023_Apr_18_1242,untitled,2021.1.4,60.1304831620093,
36,18,0,36,54,36,90,0.8,0.33,0.67,0.0,0.67,0.67,,stimuli/P_36_18_00_36.png,,,,,0,1,1,227,,,,,,,,,,,,,,,,,,,,,,,,,,,78.38945269957185,None,78.38945269957185,None,78.73065450042486,None,78.73065450042486,None,45,78.73065450042486,None,return,5.159797500818968,78.73065450042486,None,,,HERUN,F,001,2023_Apr_18_1242,untitled,2021.1.4,60.1304831620093,
0,18,18,9,18,18,45,0.6,1.0,0.0,0.67,-0.67,-2.0,,stimuli/P_00_18_18_09.png,,,,,0,2,2,41,,,,,,,,,,,,,,,,,,,,,,,,,,,83.91210299916565,None,83.91210299916565,None,84.2558246999979,None,84.2558246999979,None,0,84.2558246999979,None,return,3.8654247000813484,84.2558246999979,None,,,HERUN,F,001,2023_Apr_18_1242,untitled,2021.1.4,60.1304831620093,
36,36,18,0,72,54,90,0.6,0.5,0.5,1.0,-0.5,#NAME?,,stimuli/P_36_36_18_00.png,,,,,0,3,3,248,,,,,,,,,,,,,,,,,,,,,,,,,,,88.13372760079801,None,88.13372760079801,None,88.46674679964781,None,88.46674679964781,None,45,88.46674679964781,None,return,5.378862600773573,88.46674679964781,None,,,HERUN,F,001,2023_Apr_18_1242,untitled,2021.1.4,60.1304831620093,
0,18,9,9,18,9,36,0.5,1.0,0.0,0.5,-0.5,-1.0,,stimuli/P_00_18_09_09.png,,,,,0,4,4,37,,,,,,,,,,,,,,,,,,,,,,,,,,,93.88012339919806,None,93.88012339919806,None,94.22998240031302,None,94.22998240031302,None,0,94.22998240031302,None,return,3.1291992012411356,94.22998240031302,None,,,HERUN,F,001,2023_Apr_18_1242,untitled,2021.1.4,60.1304831620093,
36,0,18,18,36,54,72,1.0,0.0,1.0,0.5,0.5,1.0,,stimuli/P_36_00_18_18.png,,,,,0,5,5,202,,,,,,,,,,,,,,,,,,,,,,,,,,,97.37952869944274,None,97.37952869944274,None,97.72707599960268,None,97.72707599960268,None,50,97.72707599960268,None,return,2.853591298684478,97.72707599960268,None,,,HERUN,F,001,2023_Apr_18_1242,untitled,2021.1.4,60.1304831620093,
18,18,0,36,36,18,72,0.75,0.5,0.5,0.0,0.5,0.5,,stimuli/P_18_18_00_36.png,,,,,0,6,6,163,,,,,,,,,,,,,,,,,,,,,,,,,,,100.59445090033114,None,100.59445090033114,None,100.9430906008929,None,100.9430906008929,None,45,100.9430906008929,None,return,5.56610600091517,100.9430906008929,None,,,HERUN,F,001,2023_Apr_18_1242,untitled,2021.1.4,60.1304831620093,
0,18,0,18,18,0,36,0.5,1.0,0.0,0.0,0.0,0.0,,stimuli/P_00_18_00_18.png,,,,,0,7,7,34,,,,,,,,,,,,,,,,,,,,,,,,,,,106.52516509965062,None,106.52516509965062,None,106.87498229928315,None,106.87498229928315,None,0,106.87498229928315,None,return,2.87289360165596,106.87498229928315,None,,,HERUN,F,001,2023_Apr_18_1242,untitled,2021.1.4,60.1304831620093,
9,36,0,9,45,9,54,0.33,0.8,0.2,0.0,0.2,0.2,,stimuli/P_09_36_00_09.png,,,,,0,8,8,113,,,,,,,,,,,,,,,,,,,,,,,,,,,109.78461140021682,None,109.78461140021682,None,110.1145190000534,None,110.1145190000534,None,25,110.1145190000534,None,return,4.747400598600507,110.1145190000534,None,,,HERUN,F,001,2023_Apr_18_1242,untitled,2021.1.4,60.1304831620093,
18,36,0,36,54,18,90,0.6,0.67,0.33,0.0,0.33,0.33,,stimuli/P_18_36_00_36.png,,,,,0,9,9,179,,,,,,,,,,,,,,,,,,,,,,,,,,,114.88047149963677,None,114.88047149963677,None,115.22729130089283,None,115.22729130089283,None,35,115.22729130089283,None,return,4.088179100304842,115.22729130089283,None,,,HERUN,F,001,2023_Apr_18_1242,untitled,2021.1.4,60.1304831620093,
36,9,36,36,45,72,117,0.92,0.2,0.8,0.5,0.3,0.6,,stimuli/P_36_09_36_36.png,,,,,0,10,10,223,,,,,,,,,,,,,,,,,,,,,,,,,,,119.3362291008234,None,119.3362291008234,None,119.68601709976792,None,119.68601709976792,None,40,119.68601709976792,None,return,5.587489699944854,119.68601709976792,None,,,HERUN,F,001,2023_Apr_18_1242,untitled,2021.1.4,60.1304831620093,
36,9,0,18,45,36,63,0.86,0.2,0.8,0.0,0.8,0.8,,stimuli/P_36_09_00_18.png,,,,,0,11,11,210,,,,,,,,,,,,,,,,,,,,,,,,,,,125.28993600048125,None,125.28993600048125,None,125.64309649914503,None,125.64309649914503,None,50,125.64309649914503,None,return,5.418403999879956,125.64309649914503,None,,,HERUN,F,001,2023_Apr_18_1242,untitled,2021.1.4,60.1304831620093,
18,0,18,36,18,36,72,1.0,0.0,1.0,0.33,0.67,1.0,,stimuli/P_18_00_18_36.png,,,,,0,12,12,139,,,,,,,,,,,,,,,,,,,,,,,,,,,131.07539059966803,None,131.07539059966803,None,131.41512770019472,None,131.41512770019472,None,35,131.41512770019472,None,return,3.3955733999609947,131.41512770019472,None,,,HERUN,F,001,2023_Apr_18_1242,untitled,2021.1.4,60.1304831620093,
36,9,18,0,45,54,63,0.86,0.2,0.8,1.0,-0.2,#NAME?,,stimuli/P_36_09_18_00.png,,,,,0,13,13,216,,,,,,,,,,,,,,,,,,,,,,,,,,,134.83946480043232,None,134.83946480043232,None,135.1850934997201,None,135.1850934997201,None,50,135.1850934997201,None,return,4.556465700268745,135.1850934997201,None,,,HERUN,F,001,2023_Apr_18_1242,untitled,2021.1.4,60.1304831620093,
36,36,0,18,72,36,90,0.6,0.5,0.5,0.0,0.5,0.5,,stimuli/P_36_36_00_18.png,,,,,0,14,14,242,,,,,,,,,,,,,,,,,,,,,,,,,,,139.77035590074956,None,139.77035590074956,None,140.11667440086603,None,140.11667440086603,None,45,140.11667440086603,None,return,3.2339396998286247,140.11667440086603,None,,,HERUN,F,001,2023_Apr_18_1242,untitled,2021.1.4,60.1304831620093,
0,18,0,9,18,0,27,0.33,1.0,0.0,0.0,0.0,0.0,,stimuli/P_00_18_00_09.png,,,,,0,15,15,33,,,,,,,,,,,,,,,,,,,,,,,,,,,143.37110329978168,None,143.37110329978168,None,143.71335219964385,None,143.71335219964385,None,0,143.71335219964385,None,return,2.826519699767232,143.71335219964385,None,,,HERUN,F,001,2023_Apr_18_1242,untitled,2021.1.4,60.1304831620093,
18,18,9,36,36,27,81,0.78,0.5,0.5,0.2,0.3,0.37,,stimuli/P_18_18_09_36.png,,,,,0,16,16,167,,,,,,,,,,,,,,,,,,,,,,,,,,,146.565649099648,None,146.565649099648,None,146.9071823991835,None,146.9071823991835,None,35,146.9071823991835,None,return,3.856921300292015,146.9071823991835,None,,,HERUN,F,001,2023_Apr_18_1242,untitled,2021.1.4,60.1304831620093,
0,0,9,18,0,9,27,1.0,None,None,0.33,None,None,,stimuli/P_00_00_09_18.png,,,,,0,17,17,6,,,,,,,,,,,,,,,,,,,,,,,,,,,150.77972860075533,None,150.77972860075533,None,151.11597209982574,None,151.11597209982574,None,0,151.11597209982574,None,return,3.8806865997612476,151.11597209982574,None,,,HERUN,F,001,2023_Apr_18_1242,untitled,2021.1.4,60.1304831620093,
9,9,9,0,18,18,27,0.67,0.5,0.5,1.0,-0.5,#NAME?,,stimuli/P_09_09_09_00.png,,,,,0,18,18,84,,,,,,,,,,,,,,,,,,,,,,,,,,,155.02855630032718,None,155.02855630032718,None,155.3649422004819,None,155.3649422004819,None,40,155.3649422004819,None,return,4.771635299548507,155.3649422004819,None,,,HERUN,F,001,2023_Apr_18_1242,untitled,2021.1.4,60.1304831620093,
9,18,36,9,27,45,72,0.75,0.67,0.33,0.8,-0.47,-2.33,,stimuli/P_09_18_36_09.png,,,,,0,19,19,109,,,,,,,,,,,,,,,,,,,,,,,,,,,160.15306770056486,None,160.15306770056486,None,160.50107070058584,None,160.50107070058584,None,25,160.50107070058584,None,return,4.683145500719547,160.50107070058584,None,,,HERUN,F,001,2023_Apr_18_1242,untitled,2021.1.4,60.1304831620093,
18,36,0,9,54,18,63,0.43,0.67,0.33,0.0,0.33,0.33,,stimuli/P_18_36_00_09.png,,,,,0,20,20,177,,,,,,,,,,,,,,,,,,,,,,,,,,,165.1980173997581,None,165.1980173997581,None,165.54756640084088,None,165.54756640084088,None,35,165.54756640084088,None,return,2.0429389998316765,165.54756640084088,None,,,HERUN,F,001,2023_Apr_18_1242,untitled,2021.1.4,60.1304831620093,
9,0,18,18,9,27,45,1.0,0.0,1.0,0.5,0.5,1.0,,stimuli/P_09_00_18_18.png,,,,,0,21,21,74,,,,,,,,,,,,,,,,,,,,,,,,,,,167.61400889977813,None,167.61400889977813,None,167.95927610062063,None,167.95927610062063,None,30,167.95927610062063,None,return,4.99674079939723,167.95927610062063,None,,,HERUN,F,001,2023_Apr_18_1242,untitled,2021.1.4,60.1304831620093,
9,36,36,36,45,45,117,0.69,0.8,0.2,0.5,-0.3,-0.6,,stimuli/P_09_36_36_36.png,,,,,0,22,22,127,,,,,,,,,,,,,,,,,,,,,,,,,,,172.9777304995805,None,172.9777304995805,None,173.32939519919455,None,173.32939519919455,None,20,173.32939519919455,None,return,4.044215900823474,173.32939519919455,None,,,HERUN,F,001,2023_Apr_18_1242,untitled,2021.1.4,60.1304831620093,
36,18,36,18,54,72,108,0.83,0.33,0.67,0.67,0.0,0.0,,stimuli/P_36_18_36_18.png,,,,,0,23,23,238,,,,,,,,,,,,,,,,,,,,,,,,,,,177.39156880043447,None,177.39156880043447,None,177.73844289965928,None,177.73844289965928,None,35,177.73844289965928,None,return,4.815546900033951,177.73844289965928,None,,,HERUN,F,001,2023_Apr_18_1242,untitled,2021.1.4,60.1304831620093,
36,18,9,36,54,45,99,0.82,0.33,0.67,0.2,0.47,0.58,,stimuli/P_36_18_09_36.png,,,,,0,24,24,231,,,,,,,,,,,,,,,,,,,,,,,,,,,182.56836820021272,None,182.56836820021272,None,182.91606930084527,None,182.91606930084527,None,35,182.91606930084527,None,return,3.3261427003890276,182.91606930084527,None,,,HERUN,F,001,2023_Apr_18_1242,untitled,2021.1.4,60.1304831620093,
18,0,18,0,18,36,36,1.0,0.0,1.0,1.0,0.0,None,,stimuli/P_18_00_18_00.png,,,,,0,25,25,136,,,,,,,,,,,,,,,,,,,,,,,,,,,186.26616309955716,None,186.26616309955716,None,186.61412139981985,None,186.61412139981985,None,50,186.61412139981985,None,return,3.2013959996402264,186.61412139981985,None,,,HERUN,F,001,2023_Apr_18_1242,untitled,2021.1.4,60.1304831620093,
9,36,18,18,45,27,81,0.56,0.8,0.2,0.5,-0.3,-0.6,,stimuli/P_09_36_18_18.png,,,,,0,26,26,122,,,,,,,,,,,,,,,,,,,,,,,,,,,189.8375103008002,None,189.8375103008002,None,190.19107819907367,None,190.19107819907367,None,20,190.19107819907367,None,return,3.7018104009330273,190.19107819907367,None,,,HERUN,F,001,2023_Apr_18_1242,untitled,2021.1.4,60.1304831620093,
36,36,36,18,72,72,126,0.71,0.5,0.5,0.67,-0.17,-0.5,,stimuli/P_36_36_36_18.png,,,,,0,27,27,254,,,,,,,,,,,,,,,,,,,,,,,,,,,193.90925730019808,None,193.90925730019808,None,194.25459839962423,None,194.25459839962423,None,40,194.25459839962423,None,return,5.414521299302578,194.25459839962423,None,,,HERUN,F,001,2023_Apr_18_1242,untitled,2021.1.4,60.1304831620093,
0,9,36,9,9,36,54,0.83,1.0,0.0,0.8,-0.8,-4.0,,stimuli/P_00_09_36_09.png,,,,,0,28,28,29,,,,,,,,,,,,,,,,,,,,,,,,,,,199.6885467004031,None,199.6885467004031,None,200.03396840021014,None,200.03396840021014,None,0,200.03396840021014,None,return,2.441255299374461,200.03396840021014,None,,,HERUN,F,001,2023_Apr_18_1242,untitled,2021.1.4,60.1304831620093,
18,18,9,9,36,27,54,0.67,0.5,0.5,0.5,0.0,0.0,,stimuli/P_18_18_09_09.png,,,,,0,29,29,165,,,,,,,,,,,,,,,,,,,,,,,,,,,202.5014784000814,None,202.5014784000814,None,202.85071229934692,None,202.85071229934692,None,35,202.85071229934692,None,return,5.11806970089674,202.85071229934692,None,,,HERUN,F,001,2023_Apr_18_1242,untitled,2021.1.4,60.1304831620093,
18,18,18,36,36,36,90,0.8,0.5,0.5,0.33,0.17,0.25,,stimuli/P_18_18_18_36.png,,,,,0,30,30,171,,,,,,,,,,,,,,,,,,,,,,,,,,,207.9906994998455,None,207.9906994998455,None,208.33542310073972,None,208.33542310073972,None,40,208.33542310073972,None,return,5.1767960004508495,208.33542310073972,None,,,HERUN,F,001,2023_Apr_18_1242,untitled,2021.1.4,60.1304831620093,
9,9,18,9,18,27,45,0.8,0.5,0.5,0.67,-0.17,-0.5,,stimuli/P_09_09_18_09.png,,,,,0,31,31,89,,,,,,,,,,,,,,,,,,,,,,,,,,,213.54273989982903,None,213.54273989982903,None,213.92234270088375,None,213.92234270088375,None,30,213.92234270088375,None,return,6.8001063000410795,213.92234270088375,None,,,HERUN,F,001,2023_Apr_18_1242,untitled,2021.1.4,60.1304831620093,
9,0,9,18,9,18,36,1.0,0.0,1.0,0.33,0.67,1.0,,stimuli/P_09_00_09_18.png,,,,,0,32,32,70,,,,,,,,,,,,,,,,,,,,,,,,,,,220.73954769968987,None,220.73954769968987,None,221.08586589992046,None,221.08586589992046,None,30,221.08586589992046,None,return,5.247131099924445,221.08586589992046,None,,,HERUN,F,001,2023_Apr_18_1242,untitled,2021.1.4,60.1304831620093,
0,18,36,9,18,36,63,0.71,1.0,0.0,0.8,-0.8,-4.0,,stimuli/P_00_18_36_09.png,,,,,0,33,33,45,,,,,,,,,,,,,,,,,,,,,,,,,,,226.35507700033486,None,226.35507700033486,None,226.70074949972332,None,226.70074949972332,None,0,226.70074949972332,None,return,2.9730327017605305,226.70074949972332,None,,,HERUN,F,001,2023_Apr_18_1242,untitled,2021.1.4,60.1304831620093,
36,36,9,18,72,45,99,0.64,0.5,0.5,0.33,0.17,0.25,,stimuli/P_36_36_09_18.png,,,,,0,34,34,246,,,,,,,,,,,,,,,,,,,,,,,,,,,229.69014710001647,None,229.69014710001647,None,230.02355349995196,None,230.02355349995196,None,40,230.02355349995196,None,return,4.549846600741148,230.02355349995196,None,,,HERUN,F,001,2023_Apr_18_1242,untitled,2021.1.4,60.1304831620093,
0,18,9,36,18,9,63,0.71,1.0,0.0,0.2,-0.2,-0.25,,stimuli/P_00_18_09_36.png,,,,,0,35,35,39,,,,,,,,,,,,,,,,,,,,,,,,,,,234.59543929994106,None,234.59543929994106,None,234.94974209927022,None,234.94974209927022,None,0,234.94974209927022,None,return,2.314284799620509,234.94974209927022,None,,,HERUN,F,001,2023_Apr_18_1242,untitled,2021.1.4,60.1304831620093,
9,36,18,0,45,27,63,0.43,0.8,0.2,1.0,-0.8,#NAME?,,stimuli/P_09_36_18_00.png,,,,,0,36,36,120,,,,,,,,,,,,,,,,,,,,,,,,,,,237.2820218000561,None,237.2820218000561,None,237.63518070057034,None,237.63518070057034,None,25,237.63518070057034,None,return,3.6035450994968414,237.63518070057034,None,,,HERUN,F,001,2023_Apr_18_1242,untitled,2021.1.4,60.1304831620093,
0,0,0,18,0,0,18,1.0,None,None,0.0,None,None,,stimuli/P_00_00_00_18.png,,,,,0,37,37,2,,,,,,,,,,,,,,,,,,,,,,,,,,,241.25099390000105,None,241.25099390000105,None,241.5841723997146,None,241.5841723997146,None,0,241.5841723997146,None,return,1.8643056005239487,241.5841723997146,None,,,HERUN,F,001,2023_Apr_18_1242,untitled,2021.1.4,60.1304831620093,
36,18,0,0,54,36,54,0.67,0.33,0.67,None,None,None,,stimuli/P_36_18_00_00.png,,,,,0,38,38,224,,,,,,,,,,,,,,,,,,,,,,,,,,,243.46881780028343,None,243.46881780028343,None,243.81473840028048,None,243.81473840028048,None,60,243.81473840028048,None,None,,243.81473840028048,None,,,HERUN,F,001,2023_Apr_18_1242,untitled,2021.1.4,60.1304831620093,
0,0,0,0,0,0,0,None,None,None,None,None,None,,stimuli/P_00_00_00_00.png,,,,,0,39,39,0,,,,,,,,,,,,,,,,,,,,,,,,,,,251.82990049943328,None,251.82990049943328,None,252.2024856004864,None,252.2024856004864,None,,252.2024856004864,None,None,,252.2024856004864,None,,,HERUN,F,001,2023_Apr_18_1242,untitled,2021.1.4,60.1304831620093,
0,9,9,0,9,9,18,0.5,1.0,0.0,1.0,-1.0,#NAME?,,stimuli/P_00_09_09_00.png,,,,,0,40,40,20,,,,,,,,,,,,,,,,,,,,,,,,,,,260.20933480001986,None,260.20933480001986,None,260.5920295007527,None,260.5920295007527,None,0,260.5920295007527,None,return,2.7861978001892567,260.5920295007527,None,,,HERUN,F,001,2023_Apr_18_1242,untitled,2021.1.4,60.1304831620093,
36,18,18,9,54,54,81,0.78,0.33,0.67,0.67,0.0,0.0,,stimuli/P_36_18_18_09.png,,,,,0,41,41,233,,,,,,,,,,,,,,,,,,,,,,,,,,,263.3962542992085,None,263.3962542992085,None,263.7634517997503,None,263.7634517997503,None,50,263.7634517997503,None,return,5.7617825996130705,263.7634517997503,None,,,HERUN,F,001,2023_Apr_18_1242,untitled,2021.1.4,60.1304831620093,
18,0,0,9,18,18,27,1.0,0.0,1.0,0.0,1.0,1.0,,stimuli/P_18_00_00_09.png,,,,,0,42,42,129,,,,,,,,,,,,,,,,,,,,,,,,,,,269.5503608006984,None,269.5503608006984,None,269.9025812000036,None,269.9025812000036,None,60,269.9025812000036,None,return,3.4876378998160362,269.9025812000036,None,,,HERUN,F,001,2023_Apr_18_1242,untitled,2021.1.4,60.1304831620093,
0,9,0,36,9,0,45,0.8,1.0,0.0,0.0,0.0,0.0,,stimuli/P_00_09_00_36.png,,,,,0,43,43,19,,,,,,,,,,,,,,,,,,,,,,,,,,,273.4110969007015,None,273.4110969007015,None,273.74752259999514,None,273.74752259999514,None,0,273.74752259999514,None,return,1.7722942996770144,273.74752259999514,None,,,HERUN,F,001,2023_Apr_18_1242,untitled,2021.1.4,60.1304831620093,
18,9,36,36,27,54,99,0.91,0.33,0.67,0.5,0.17,0.33,,stimuli/P_18_09_36_36.png,,,,,0,44,44,159,,,,,,,,,,,,,,,,,,,,,,,,,,,275.5493426993489,None,275.5493426993489,None,275.9266520999372,None,275.9266520999372,None,30,275.9266520999372,None,return,3.9822308998554945,275.9266520999372,None,,,HERUN,F,001,2023_Apr_18_1242,untitled,2021.1.4,60.1304831620093,
36,36,36,0,72,72,108,0.67,0.5,0.5,1.0,-0.5,#NAME?,,stimuli/P_36_36_36_00.png,,,,,0,45,45,252,,,,,,,,,,,,,,,,,,,,,,,,,,,279.9379779994488,None,279.9379779994488,None,280.28353269957006,None,280.28353269957006,None,36,280.28353269957006,None,return,5.502980498597026,280.28353269957006,None,,,HERUN,F,001,2023_Apr_18_1242,untitled,2021.1.4,60.1304831620093,
0,0,9,0,0,9,9,1.0,None,None,1.0,None,None,,stimuli/P_00_00_09_00.png,,,,,0,46,46,4,,,,,,,,,,,,,,,,,,,,,,,,,,,285.80374339967966,None,285.80374339967966,None,286.14023290015757,None,286.14023290015757,None,0,286.14023290015757,None,return,2.408652000129223,286.14023290015757,None,,,HERUN,F,001,2023_Apr_18_1242,untitled,2021.1.4,60.1304831620093,
18,9,0,9,27,18,36,0.75,0.33,0.67,0.0,0.67,0.67,,stimuli/P_18_09_00_09.png,,,,,0,47,47,145,,,,,,,,,,,,,,,,,,,,,,,,,,,288.56911800056696,None,288.56911800056696,None,288.90885890088975,None,288.90885890088975,None,67,288.90885890088975,None,return,5.067597299814224,288.90885890088975,None,,,HERUN,F,001,2023_Apr_18_1242,untitled,2021.1.4,60.1304831620093,
18,36,18,9,54,36,81,0.56,0.67,0.33,0.67,-0.33,-1.0,,stimuli/P_18_36_18_09.png,,,,,0,48,48,185,,,,,,,,,,,,,,,,,,,,,,,,,,,294.0018285997212,None,294.0018285997212,None,294.352089099586,None,294.352089099586,None,37,294.352089099586,None,return,6.533018900081515,294.352089099586,None,,,HERUN,F,001,2023_Apr_18_1242,untitled,2021.1.4,60.1304831620093,
9,18,18,18,27,27,63,0.71,0.67,0.33,0.5,-0.17,-0.33,,stimuli/P_09_18_18_18.png,,,,,0,49,49,106,,,,,,,,,,,,,,,,,,,,,,,,,,,300.90457650087774,None,300.90457650087774,None,301.2532898001373,None,301.2532898001373,None,28,301.2532898001373,None,return,3.703411800786853,301.2532898001373,None,,,HERUN,F,001,2023_Apr_18_1242,untitled,2021.1.4,60.1304831620093,
36,9,36,0,45,72,81,0.89,0.2,0.8,1.0,-0.2,#NAME?,,stimuli/P_36_09_36_00.png,,,,,0,50,50,220,,,,,,,,,,,,,,,,,,,,,,,,,,,304.9857611004263,None,304.9857611004263,None,305.3324787002057,None,305.3324787002057,None,47,305.3324787002057,None,return,6.011543698608875,305.3324787002057,None,,,HERUN,F,001,2023_Apr_18_1242,untitled,2021.1.4,60.1304831620093,
9,9,9,18,18,18,45,0.8,0.5,0.5,0.33,0.17,0.25,,stimuli/P_09_09_09_18.png,,,,,0,51,51,86,,,,,,,,,,,,,,,,,,,,,,,,,,,311.3682393003255,None,311.3682393003255,None,311.7112083993852,None,311.7112083993852,None,37,311.7112083993852,None,None,,311.7112083993852,None,,,HERUN,F,001,2023_Apr_18_1242,untitled,2021.1.4,60.1304831620093,
0,36,36,36,36,36,108,0.67,1.0,0.0,0.5,-0.5,-1.0,,stimuli/P_00_36_36_36.png,,,,,0,52,52,63,,,,,,,,,,,,,,,,,,,,,,,,,,,319.71374990046024,None,319.71374990046024,None,320.052648300305,None,320.052648300305,None,0,320.052648300305,None,return,3.2815415989607573,320.052648300305,None,,,HERUN,F,001,2023_Apr_18_1242,untitled,2021.1.4,60.1304831620093,
36,9,9,0,45,45,54,0.83,0.2,0.8,1.0,-0.2,#NAME?,,stimuli/P_36_09_09_00.png,,,,,0,53,53,212,,,,,,,,,,,,,,,,,,,,,,,,,,,323.3566472996026,None,323.3566472996026,None,323.70071740075946,None,323.70071740075946,None,70,323.70071740075946,None,return,5.031257100403309,323.70071740075946,None,,,HERUN,F,001,2023_Apr_18_1242,untitled,2021.1.4,60.1304831620093,
9,0,0,9,9,9,18,1.0,0.0,1.0,0.0,1.0,1.0,,stimuli/P_09_00_00_09.png,,,,,0,54,54,65,,,,,,,,,,,,,,,,,,,,,,,,,,,328.7600030004978,None,328.7600030004978,None,329.1020117998123,None,329.1020117998123,None,50,329.1020117998123,None,return,3.717221599072218,329.1020117998123,None,,,HERUN,F,001,2023_Apr_18_1242,untitled,2021.1.4,60.1304831620093,
9,9,0,18,18,9,36,0.75,0.5,0.5,0.0,0.5,0.5,,stimuli/P_09_09_00_18.png,,,,,0,55,55,82,,,,,,,,,,,,,,,,,,,,,,,,,,,332.8378451000899,None,332.8378451000899,None,333.1884998995811,None,333.1884998995811,None,38,333.1884998995811,None,return,5.393016001209617,333.1884998995811,None,,,HERUN,F,001,2023_Apr_18_1242,untitled,2021.1.4,60.1304831620093,
0,36,9,36,36,9,81,0.56,1.0,0.0,0.2,-0.2,-0.25,,stimuli/P_00_36_09_36.png,,,,,0,56,56,55,,,,,,,,,,,,,,,,,,,,,,,,,,,338.59859599918127,None,338.59859599918127,None,338.93859880045056,None,338.93859880045056,None,0,338.93859880045056,None,return,3.035564200952649,338.93859880045056,None,,,HERUN,F,001,2023_Apr_18_1242,untitled,2021.1.4,60.1304831620093,
0,0,18,0,0,18,18,1.0,None,None,1.0,None,None,,stimuli/P_00_00_18_00.png,,,,,0,57,57,8,,,,,,,,,,,,,,,,,,,,,,,,,,,341.99124119989574,None,341.99124119989574,None,342.3312435001135,None,342.3312435001135,None,0,342.3312435001135,None,return,2.2669034004211426,342.3312435001135,None,,,HERUN,F,001,2023_Apr_18_1242,untitled,2021.1.4,60.1304831620093,
9,18,36,0,27,45,63,0.71,0.67,0.33,1.0,-0.67,#NAME?,,stimuli/P_09_18_36_00.png,,,,,0,58,58,108,,,,,,,,,,,,,,,,,,,,,,,,,,,344.61511299945414,None,344.61511299945414,None,344.9475711006671,None,344.9475711006671,None,30,344.9475711006671,None,return,4.228563399985433,344.9475711006671,None,,,HERUN,F,001,2023_Apr_18_1242,untitled,2021.1.4,60.1304831620093,
36,9,9,18,45,45,72,0.88,0.2,0.8,0.33,0.47,0.7,,stimuli/P_36_09_09_18.png,,,,,0,59,59,214,,,,,,,,,,,,,,,,,,,,,,,,,,,349.20012740045786,None,349.20012740045786,None,349.54607119970024,None,349.54607119970024,None,48,349.54607119970024,None,return,5.324732698500156,349.54607119970024,None,,,HERUN,F,001,2023_Apr_18_1242,untitled,2021.1.4,60.1304831620093,
36,0,0,0,36,36,36,1.0,0.0,1.0,None,None,None,,stimuli/P_36_00_00_00.png,,,,,0,60,60,192,,,,,,,,,,,,,,,,,,,,,,,,,,,354.90157330036163,None,354.90157330036163,None,355.2428894992918,None,355.2428894992918,None,100,355.2428894992918,None,return,4.726309800520539,355.2428894992918,None,,,HERUN,F,001,2023_Apr_18_1242,untitled,2021.1.4,60.1304831620093,
9,9,0,0,18,9,18,0.5,0.5,0.5,None,None,None,,stimuli/P_09_09_00_00.png,,,,,0,61,61,80,,,,,,,,,,,,,,,,,,,,,,,,,,,359.9959843996912,None,359.9959843996912,None,360.34029039926827,None,360.34029039926827,None,50,360.34029039926827,None,return,2.6167159005999565,360.34029039926827,None,,,HERUN,F,001,2023_Apr_18_1242,untitled,2021.1.4,60.1304831620093,
0,9,9,18,9,9,36,0.75,1.0,0.0,0.33,-0.33,-0.5,,stimuli/P_00_09_09_18.png,,,,,0,62,62,22,,,,,,,,,,,,,,,,,,,,,,,,,,,362.9770647007972,None,362.9770647007972,None,363.32397959940135,None,363.32397959940135,None,0,363.32397959940135,None,return,2.4273997005075216,363.32397959940135,None,,,HERUN,F,001,2023_Apr_18_1242,untitled,2021.1.4,60.1304831620093,
18,9,18,36,27,36,81,0.89,0.33,0.67,0.33,0.33,0.5,,stimuli/P_18_09_18_36.png,,,,,0,63,63,155,,,,,,,,,,,,,,,,,,,,,,,,,,,365.770512400195,None,365.770512400195,None,366.4048213995993,None,366.4048213995993,None,27,366.4048213995993,None,return,5.282300600782037,366.4048213995993,None,,,HERUN,F,001,2023_Apr_18_1242,untitled,2021.1.4,60.1304831620093,
0,9,0,18,9,0,27,0.67,1.0,0.0,0.0,0.0,0.0,,stimuli/P_00_09_00_18.png,,,,,0,64,64,18,,,,,,,,,,,,,,,,,,,,,,,,,,,371.71896759979427,None,371.71896759979427,None,372.0617878995836,None,372.0617878995836,None,0,372.0617878995836,None,return,1.7508707009255886,372.0617878995836,None,,,HERUN,F,001,2023_Apr_18_1242,untitled,2021.1.4,60.1304831620093,
36,36,18,18,72,54,108,0.67,0.5,0.5,0.5,0.0,0.0,,stimuli/P_36_36_18_18.png,,,,,0,65,65,250,,,,,,,,,,,,,,,,,,,,,,,,,,,373.82671619951725,None,373.82671619951725,None,374.1740371994674,None,374.1740371994674,None,35,374.1740371994674,None,None,,374.1740371994674,None,,,HERUN,F,001,2023_Apr_18_1242,untitled,2021.1.4,60.1304831620093,
18,9,0,18,27,18,45,0.8,0.33,0.67,0.0,0.67,0.67,,stimuli/P_18_09_00_18.png,,,,,0,66,66,146,,,,,,,,,,,,,,,,,,,,,,,,,,,382.1728322003037,None,382.1728322003037,None,382.51860710047185,None,382.51860710047185,None,45,382.51860710047185,None,return,6.892363499850035,382.51860710047185,None,,,HERUN,F,001,2023_Apr_18_1242,untitled,2021.1.4,60.1304831620093,
9,36,0,18,45,9,63,0.43,0.8,0.2,0.0,0.2,0.2,,stimuli/P_09_36_00_18.png,,,,,0,67,67,114,,,,,,,,,,,,,,,,,,,,,,,,,,,389.43142260052264,None,389.43142260052264,None,389.77548100054264,None,389.77548100054264,None,30,389.77548100054264,None,return,4.811921900138259,389.77548100054264,None,,,HERUN,F,001,2023_Apr_18_1242,untitled,2021.1.4,60.1304831620093,
18,18,36,0,36,54,72,0.75,0.5,0.5,1.0,-0.5,#NAME?,,stimuli/P_18_18_36_00.png,,,,,0,68,68,172,,,,,,,,,,,,,,,,,,,,,,,,,,,394.6049748007208,None,394.6049748007208,None,394.95150760002434,None,394.95150760002434,None,27,394.95150760002434,None,None,,394.95150760002434,None,,,HERUN,F,001,2023_Apr_18_1242,untitled,2021.1.4,60.1304831620093,
9,18,9,0,27,18,36,0.5,0.67,0.33,1.0,-0.67,#NAME?,,stimuli/P_09_18_09_00.png,,,,,0,69,69,100,,,,,,,,,,,,,,,,,,,,,,,,,,,402.95086709968746,None,402.95086709968746,None,403.2939650006592,None,403.2939650006592,None,38,403.2939650006592,None,None,,403.2939650006592,None,,,HERUN,F,001,2023_Apr_18_1242,untitled,2021.1.4,60.1304831620093,
0,18,0,36,18,0,54,0.67,1.0,0.0,0.0,0.0,0.0,,stimuli/P_00_18_00_36.png,,,,,0,70,70,35,,,,,,,,,,,,,,,,,,,,,,,,,,,411.3014321997762,None,411.3014321997762,None,411.652645599097,None,411.652645599097,None,0,411.652645599097,None,return,2.7182783000171185,411.652645599097,None,,,HERUN,F,001,2023_Apr_18_1242,untitled,2021.1.4,60.1304831620093,
0,36,18,9,36,18,63,0.43,1.0,0.0,0.67,-0.67,-2.0,,stimuli/P_00_36_18_09.png,,,,,0,71,71,57,,,,,,,,,,,,,,,,,,,,,,,,,,,414.39356690086424,None,414.39356690086424,None,414.72643269971013,None,414.72643269971013,None,0,414.72643269971013,None,return,3.8529847990721464,414.72643269971013,None,,,HERUN,F,001,2023_Apr_18_1242,untitled,2021.1.4,60.1304831620093,
18,18,36,18,36,54,90,0.8,0.5,0.5,0.67,-0.17,-0.5,,stimuli/P_18_18_36_18.png,,,,,0,72,72,174,,,,,,,,,,,,,,,,,,,,,,,,,,,418.6008551996201,None,418.6008551996201,None,418.9482505992055,None,418.9482505992055,None,24,418.9482505992055,None,return,7.630731400102377,418.9482505992055,None,,,HERUN,F,001,2023_Apr_18_1242,untitled,2021.1.4,60.1304831620093,
18,36,18,18,54,36,90,0.6,0.67,0.33,0.5,-0.17,-0.33,,stimuli/P_18_36_18_18.png,,,,,0,73,73,186,,,,,,,,,,,,,,,,,,,,,,,,,,,426.6083533000201,None,426.6083533000201,None,426.94611999951303,None,426.94611999951303,None,24,426.94611999951303,None,return,7.7626489996910095,426.94611999951303,None,,,HERUN,F,001,2023_Apr_18_1242,untitled,2021.1.4,60.1304831620093,
0,9,36,36,9,36,81,0.89,1.0,0.0,0.5,-0.5,-1.0,,stimuli/P_00_09_36_36.png,,,,,0,74,74,31,,,,,,,,,,,,,,,,,,,,,,,,,,,434.7401567995548,None,434.7401567995548,None,435.0851076003164,None,435.0851076003164,None,0,435.0851076003164,None,return,2.5623522996902466,435.0851076003164,None,,,HERUN,F,001,2023_Apr_18_1242,untitled,2021.1.4,60.1304831620093,
0,0,36,18,0,36,54,1.0,None,None,0.67,None,None,,stimuli/P_00_00_36_18.png,,,,,0,75,75,14,,,,,,,,,,,,,,,,,,,,,,,,,,,437.68364780023694,None,437.68364780023694,None,438.0264302995056,None,438.0264302995056,None,0,438.0264302995056,None,return,1.7327087987214327,438.0264302995056,None,,,HERUN,F,001,2023_Apr_18_1242,untitled,2021.1.4,60.1304831620093,
18,36,9,36,54,27,99,0.64,0.67,0.33,0.2,0.13,0.17,,stimuli/P_18_36_09_36.png,,,,,0,76,76,183,,,,,,,,,,,,,,,,,,,,,,,,,,,439.78104979917407,None,439.78104979917407,None,440.1205103006214,None,440.1205103006214,None,27,440.1205103006214,None,None,,440.1205103006214,None,,,HERUN,F,001,2023_Apr_18_1242,untitled,2021.1.4,60.1304831620093,
36,0,36,0,36,72,72,1.0,0.0,1.0,1.0,0.0,None,,stimuli/P_36_00_36_00.png,,,,,0,77,77,204,,,,,,,,,,,,,,,,,,,,,,,,,,,448.12743229977787,None,448.12743229977787,None,448.46763109974563,None,448.46763109974563,None,50,448.46763109974563,None,return,4.126354301348329,448.46763109974563,None,,,HERUN,F,001,2023_Apr_18_1242,untitled,2021.1.4,60.1304831620093,
18,18,18,9,36,36,63,0.71,0.5,0.5,0.67,-0.17,-0.5,,stimuli/P_18_18_18_09.png,,,,,0,78,78,169,,,,,,,,,,,,,,,,,,,,,,,,,,,452.61362699978054,None,452.61362699978054,None,452.9477523993701,None,452.9477523993701,None,43,452.9477523993701,None,return,4.730526000261307,452.9477523993701,None,,,HERUN,F,001,2023_Apr_18_1242,untitled,2021.1.4,60.1304831620093,
0,36,0,9,36,0,45,0.2,1.0,0.0,0.0,0.0,0.0,,stimuli/P_00_36_00_09.png,,,,,0,79,79,49,,,,,,,,,,,,,,,,,,,,,,,,,,,457.69281160086393,None,457.69281160086393,None,458.03741459921,None,458.03741459921,None,0,458.03741459921,None,return,1.8896546997129917,458.03741459921,None,,,HERUN,F,001,2023_Apr_18_1242,untitled,2021.1.4,60.1304831620093,
0,9,9,9,9,9,27,0.67,1.0,0.0,0.5,-0.5,-1.0,,stimuli/P_00_09_09_09.png,,,,,0,80,80,21,,,,,,,,,,,,,,,,,,,,,,,,,,,459.95711340010166,None,459.95711340010166,None,460.2917050998658,None,460.2917050998658,None,0,460.2917050998658,None,return,1.8234829995781183,460.2917050998658,None,,,HERUN,F,001,2023_Apr_18_1242,untitled,2021.1.4,60.1304831620093,
18,18,18,0,36,36,54,0.67,0.5,0.5,1.0,-0.5,#NAME?,,stimuli/P_18_18_18_00.png,,,,,0,81,81,168,,,,,,,,,,,,,,,,,,,,,,,,,,,462.1457634996623,None,462.1457634996623,None,462.4912260994315,None,462.4912260994315,None,35,462.4912260994315,None,return,4.826727099716663,462.4912260994315,None,,,HERUN,F,001,2023_Apr_18_1242,untitled,2021.1.4,60.1304831620093,
18,18,18,18,36,36,72,0.75,0.5,0.5,0.5,0.0,0.0,,stimuli/P_18_18_18_18.png,,,,,0,82,82,170,,,,,,,,,,,,,,,,,,,,,,,,,,,467.3639297001064,None,467.3639297001064,None,467.7037690002471,None,467.7037690002471,None,25,467.7037690002471,None,return,4.63218910060823,467.7037690002471,None,,,HERUN,F,001,2023_Apr_18_1242,untitled,2021.1.4,60.1304831620093,
0,0,0,36,0,0,36,1.0,None,None,0.0,None,None,,stimuli/P_00_00_00_36.png,,,,,0,83,83,3,,,,,,,,,,,,,,,,,,,,,,,,,,,472.3547497000545,None,472.3547497000545,None,472.693401299417,None,472.693401299417,None,0,472.693401299417,None,return,1.6813078001141548,472.693401299417,None,,,HERUN,F,001,2023_Apr_18_1242,untitled,2021.1.4,60.1304831620093,
0,36,9,9,36,9,54,0.33,1.0,0.0,0.5,-0.5,-1.0,,stimuli/P_00_36_09_09.png,,,,,0,84,84,53,,,,,,,,,,,,,,,,,,,,,,,,,,,474.4067464992404,None,474.4067464992404,None,474.73741340078413,None,474.73741340078413,None,0,474.73741340078413,None,return,2.7840119004249573,474.73741340078413,None,,,HERUN,F,001,2023_Apr_18_1242,untitled,2021.1.4,60.1304831620093,
9,0,36,36,9,45,81,1.0,0.0,1.0,0.5,0.5,1.0,,stimuli/P_09_00_36_36.png,,,,,0,85,85,79,,,,,,,,,,,,,,,,,,,,,,,,,,,477.5477463006973,None,477.5477463006973,None,477.8963188007474,None,477.8963188007474,None,20,477.8963188007474,None,return,4.815268399193883,477.8963188007474,None,,,HERUN,F,001,2023_Apr_18_1242,untitled,2021.1.4,60.1304831620093,
36,9,36,18,45,72,99,0.91,0.2,0.8,0.67,0.13,0.4,,stimuli/P_36_09_36_18.png,,,,,0,86,86,222,,,,,,,,,,,,,,,,,,,,,,,,,,,482.7313717994839,None,482.7313717994839,None,483.0694768000394,None,483.0694768000394,None,37,483.0694768000394,None,return,6.930318798869848,483.0694768000394,None,,,HERUN,F,001,2023_Apr_18_1242,untitled,2021.1.4,60.1304831620093,
0,0,18,18,0,18,36,1.0,None,None,0.5,None,None,,stimuli/P_00_00_18_18.png,,,,,0,87,87,10,,,,,,,,,,,,,,,,,,,,,,,,,,,490.0201859008521,None,490.0201859008521,None,490.3615816999227,None,490.3615816999227,None,0,490.3615816999227,None,return,2.4657154995948076,490.3615816999227,None,,,HERUN,F,001,2023_Apr_18_1242,untitled,2021.1.4,60.1304831620093,
36,18,36,0,54,72,90,0.8,0.33,0.67,1.0,-0.33,#NAME?,,stimuli/P_36_18_36_00.png,,,,,0,88,88,236,,,,,,,,,,,,,,,,,,,,,,,,,,,492.84716139920056,None,492.84716139920056,None,493.1902814991772,None,493.1902814991772,None,38,493.1902814991772,None,return,4.382846599444747,493.1902814991772,None,,,HERUN,F,001,2023_Apr_18_1242,untitled,2021.1.4,60.1304831620093,
18,9,0,36,27,18,63,0.86,0.33,0.67,0.0,0.67,0.67,,stimuli/P_18_09_00_36.png,,,,,0,89,89,147,,,,,,,,,,,,,,,,,,,,,,,,,,,497.5881693996489,None,497.5881693996489,None,497.92760469950736,None,497.92760469950736,None,38,497.92760469950736,None,None,,497.92760469950736,None,,,HERUN,F,001,2023_Apr_18_1242,untitled,2021.1.4,60.1304831620093,
9,36,36,0,45,45,81,0.56,0.8,0.2,1.0,-0.8,#NAME?,,stimuli/P_09_36_36_00.png,,,,,0,90,90,124,,,,,,,,,,,,,,,,,,,,,,,,,,,505.9417218994349,None,505.9417218994349,None,506.29199280031025,None,506.29199280031025,None,30,506.29199280031025,None,return,6.624213499948382,506.29199280031025,None,,,HERUN,F,001,2023_Apr_18_1242,untitled,2021.1.4,60.1304831620093,
9,0,18,36,9,27,63,1.0,0.0,1.0,0.33,0.67,1.0,,stimuli/P_09_00_18_36.png,,,,,0,91,91,75,,,,,,,,,,,,,,,,,,,,,,,,,,,512.9477906003594,None,512.9477906003594,None,513.2907647006214,None,513.2907647006214,None,30,513.2907647006214,None,return,4.019360899925232,513.2907647006214,None,,,HERUN,F,001,2023_Apr_18_1242,untitled,2021.1.4,60.1304831620093,
18,9,9,18,27,27,54,0.83,0.33,0.67,0.33,0.33,0.5,,stimuli/P_18_09_09_18.png,,,,,0,92,92,150,,,,,,,,,,,,,,,,,,,,,,,,,,,517.3394299000502,None,517.3394299000502,None,517.6800113990903,None,517.6800113990903,None,34,517.6800113990903,None,None,,517.6800113990903,None,,,HERUN,F,001,2023_Apr_18_1242,untitled,2021.1.4,60.1304831620093,
18,9,18,0,27,36,45,0.8,0.33,0.67,1.0,-0.33,#NAME?,,stimuli/P_18_09_18_00.png,,,,,0,93,93,152,,,,,,,,,,,,,,,,,,,,,,,,,,,525.6907620001584,None,525.6907620001584,None,526.0296925995499,None,526.0296925995499,None,45,526.0296925995499,None,return,3.9179573003202677,526.0296925995499,None,,,HERUN,F,001,2023_Apr_18_1242,untitled,2021.1.4,60.1304831620093,
36,0,9,36,36,45,81,1.0,0.0,1.0,0.2,0.8,1.0,,stimuli/P_36_00_09_36.png,,,,,0,94,94,199,,,,,,,,,,,,,,,,,,,,,,,,,,,529.9869640991092,None,529.9869640991092,None,530.3368826005608,None,530.3368826005608,None,46,530.3368826005608,None,None,,530.3368826005608,None,,,HERUN,F,001,2023_Apr_18_1242,untitled,2021.1.4,60.1304831620093,
9,0,9,9,9,18,27,1.0,0.0,1.0,0.5,0.5,1.0,,stimuli/P_09_00_09_09.png,,,,,0,95,95,69,,,,,,,,,,,,,,,,,,,,,,,,,,,538.3427229002118,None,538.3427229002118,None,538.6789082996547,None,538.6789082996547,None,35,538.6789082996547,None,None,,538.6789082996547,None,,,HERUN,F,001,2023_Apr_18_1242,untitled,2021.1.4,60.1304831620093,
9,9,36,36,18,45,90,0.9,0.5,0.5,0.5,0.0,0.0,,stimuli/P_09_09_36_36.png,,,,,0,96,96,95,,,,,,,,,,,,,,,,,,,,,,,,,,,546.683791000396,None,546.683791000396,None,547.0411221999675,None,547.0411221999675,None,20,547.0411221999675,None,return,6.093970999121666,547.0411221999675,None,,,HERUN,F,001,2023_Apr_18_1242,untitled,2021.1.4,60.1304831620093,
18,0,36,0,18,54,54,1.0,0.0,1.0,1.0,0.0,None,,stimuli/P_18_00_36_00.png,,,,,0,97,97,140,,,,,,,,,,,,,,,,,,,,,,,,,,,553.1596281994134,None,553.1596281994134,None,553.5038066003472,None,553.5038066003472,None,35,553.5038066003472,None,return,6.796019200235605,553.5038066003472,None,,,HERUN,F,001,2023_Apr_18_1242,untitled,2021.1.4,60.1304831620093,
9,9,36,18,18,45,72,0.88,0.5,0.5,0.67,-0.17,-0.5,,stimuli/P_09_09_36_18.png,,,,,0,98,98,94,,,,,,,,,,,,,,,,,,,,,,,,,,,560.3220282997936,None,560.3220282997936,None,560.666689099744,None,560.666689099744,None,24,560.666689099744,None,return,7.247832199558616,560.666689099744,None,,,HERUN,F,001,2023_Apr_18_1242,untitled,2021.1.4,60.1304831620093,
9,18,9,18,27,18,54,0.67,0.67,0.33,0.33,0.0,0.0,,stimuli/P_09_18_09_18.png,,,,,0,99,99,102,,,,,,,,,,,,,,,,,,,,,,,,,,,567.9478111993521,None,567.9478111993521,None,568.2840631008148,None,568.2840631008148,None,25,568.2840631008148,None,return,7.314978800714016,568.2840631008148,None,,,HERUN,F,001,2023_Apr_18_1242,untitled,2021.1.4,60.1304831620093,
18,0,36,18,18,54,72,1.0,0.0,1.0,0.67,0.33,1.0,,stimuli/P_18_00_36_18.png,,,,,0,100,100,142,,,,,,,,,,,,,,,,,,,,,,,,,,,575.6175204999745,None,575.6175204999745,None,575.9655770994723,None,575.9655770994723,None,38,575.9655770994723,None,None,,575.9655770994723,None,,,HERUN,F,001,2023_Apr_18_1242,untitled,2021.1.4,60.1304831620093,
36,18,18,18,54,54,90,0.8,0.33,0.67,0.5,0.17,0.33,,stimuli/P_36_18_18_18.png,,,,,0,101,101,234,,,,,,,,,,,,,,,,,,,,,,,,,,,583.9665059000254,None,583.9665059000254,None,584.3078982997686,None,584.3078982997686,None,46,584.3078982997686,None,None,,584.3078982997686,None,,,HERUN,F,001,2023_Apr_18_1242,untitled,2021.1.4,60.1304831620093,
0,36,18,36,36,18,90,0.6,1.0,0.0,0.33,-0.33,-0.5,,stimuli/P_00_36_18_36.png,,,,,0,102,102,59,,,,,,,,,,,,,,,,,,,,,,,,,,,592.3158854991198,None,592.3158854991198,None,592.6481993999332,None,592.6481993999332,None,0,592.6481993999332,None,return,2.6832724008709192,592.6481993999332,None,,,HERUN,F,001,2023_Apr_18_1242,untitled,2021.1.4,60.1304831620093,
0,0,36,0,0,36,36,1.0,None,None,1.0,None,None,,stimuli/P_00_00_36_00.png,,,,,0,103,103,12,,,,,,,,,,,,,,,,,,,,,,,,,,,595.3462426997721,None,595.3462426997721,None,595.6842420008034,None,595.6842420008034,None,0,595.6842420008034,None,return,2.058906599879265,595.6842420008034,None,,,HERUN,F,001,2023_Apr_18_1242,untitled,2021.1.4,60.1304831620093,
0,9,9,36,9,9,54,0.83,1.0,0.0,0.2,-0.2,-0.25,,stimuli/P_00_09_09_36.png,,,,,0,104,104,23,,,,,,,,,,,,,,,,,,,,,,,,,,,597.7763112001121,None,597.7763112001121,None,598.1036773994565,None,598.1036773994565,None,0,598.1036773994565,None,return,4.3373770006001,598.1036773994565,None,,,HERUN,F,001,2023_Apr_18_1242,untitled,2021.1.4,60.1304831620093,
36,0,0,9,36,36,45,1.0,0.0,1.0,0.0,1.0,1.0,,stimuli/P_36_00_00_09.png,,,,,0,105,105,193,,,,,,,,,,,,,,,,,,,,,,,,,,,602.4588507004082,None,602.4588507004082,None,602.8032495994121,None,602.8032495994121,None,70,602.8032495994121,None,return,5.788351798430085,602.8032495994121,None,,,HERUN,F,001,2023_Apr_18_1242,untitled,2021.1.4,60.1304831620093,
18,18,36,9,36,54,81,0.78,0.5,0.5,0.8,-0.3,-1.5,,stimuli/P_18_18_36_09.png,,,,,0,106,106,173,,,,,,,,,,,,,,,,,,,,,,,,,,,608.6124763004482,None,608.6124763004482,None,608.9507314004004,None,608.9507314004004,None,36,608.9507314004004,None,return,5.5841752998530865,608.9507314004004,None,,,HERUN,F,001,2023_Apr_18_1242,untitled,2021.1.4,60.1304831620093,
9,0,0,0,9,9,9,1.0,0.0,1.0,None,None,None,,stimuli/P_09_00_00_00.png,,,,,0,107,107,64,,,,,,,,,,,,,,,,,,,,,,,,,,,614.5540265999734,None,614.5540265999734,None,614.8975229002535,None,614.8975229002535,None,100,614.8975229002535,None,return,3.7236783988773823,614.8975229002535,None,,,HERUN,F,001,2023_Apr_18_1242,untitled,2021.1.4,60.1304831620093,
9,9,18,0,18,27,36,0.75,0.5,0.5,1.0,-0.5,#NAME?,,stimuli/P_09_09_18_00.png,,,,,0,108,108,88,,,,,,,,,,,,,,,,,,,,,,,,,,,618.657866999507,None,618.657866999507,None,619.0038319006562,None,619.0038319006562,None,31,619.0038319006562,None,None,,619.0038319006562,None,,,HERUN,F,001,2023_Apr_18_1242,untitled,2021.1.4,60.1304831620093,
36,0,9,18,36,45,63,1.0,0.0,1.0,0.33,0.67,1.0,,stimuli/P_36_00_09_18.png,,,,,0,109,109,198,,,,,,,,,,,,,,,,,,,,,,,,,,,627.0178504996002,None,627.0178504996002,None,627.3514574002475,None,627.3514574002475,None,46,627.3514574002475,None,return,3.598393300548196,627.3514574002475,None,,,HERUN,F,001,2023_Apr_18_1242,untitled,2021.1.4,60.1304831620093,
9,0,18,0,9,27,27,1.0,0.0,1.0,1.0,0.0,None,,stimuli/P_09_00_18_00.png,,,,,0,110,110,72,,,,,,,,,,,,,,,,,,,,,,,,,,,630.983718700707,None,630.983718700707,None,631.3284706994891,None,631.3284706994891,None,45,631.3284706994891,None,return,6.55244049988687,631.3284706994891,None,,,HERUN,F,001,2023_Apr_18_1242,untitled,2021.1.4,60.1304831620093,
0,36,0,36,36,0,72,0.5,1.0,0.0,0.0,0.0,0.0,,stimuli/P_00_36_00_36.png,,,,,0,111,111,51,,,,,,,,,,,,,,,,,,,,,,,,,,,637.9041141998023,None,637.9041141998023,None,638.247579600662,None,638.247579600662,None,0,638.247579600662,None,return,2.4734418001025915,638.247579600662,None,,,HERUN,F,001,2023_Apr_18_1242,untitled,2021.1.4,60.1304831620093,
18,18,0,18,36,18,54,0.67,0.5,0.5,0.0,0.5,0.5,,stimuli/P_18_18_00_18.png,,,,,0,112,112,162,,,,,,,,,,,,,,,,,,,,,,,,,,,640.7437979001552,None,640.7437979001552,None,641.0860229004174,None,641.0860229004174,None,34,641.0860229004174,None,return,4.38045939989388,641.0860229004174,None,,,HERUN,F,001,2023_Apr_18_1242,untitled,2021.1.4,60.1304831620093,
18,0,36,9,18,54,63,1.0,0.0,1.0,0.8,0.2,1.0,,stimuli/P_18_00_36_09.png,,,,,0,113,113,141,,,,,,,,,,,,,,,,,,,,,,,,,,,645.4910126999021,None,645.4910126999021,None,645.8213030006737,None,645.8213030006737,None,35,645.8213030006737,None,None,,645.8213030006737,None,,,HERUN,F,001,2023_Apr_18_1242,untitled,2021.1.4,60.1304831620093,
36,18,9,9,54,45,72,0.75,0.33,0.67,0.5,0.17,0.33,,stimuli/P_36_18_09_09.png,,,,,0,114,114,229,,,,,,,,,,,,,,,,,,,,,,,,,,,653.8197307996452,None,653.8197307996452,None,654.1545557994395,None,654.1545557994395,None,45,654.1545557994395,None,return,4.135455099865794,654.1545557994395,None,,,HERUN,F,001,2023_Apr_18_1242,untitled,2021.1.4,60.1304831620093,
18,9,36,18,27,54,81,0.89,0.33,0.67,0.67,0.0,0.0,,stimuli/P_18_09_36_18.png,,,,,0,115,115,158,,,,,,,,,,,,,,,,,,,,,,,,,,,658.3035007994622,None,658.3035007994622,None,658.6495510004461,None,658.6495510004461,None,40,658.6495510004461,None,None,,658.6495510004461,None,,,HERUN,F,001,2023_Apr_18_1242,untitled,2021.1.4,60.1304831620093,
0,18,18,18,18,18,54,0.67,1.0,0.0,0.5,-0.5,-1.0,,stimuli/P_00_18_18_18.png,,,,,0,116,116,42,,,,,,,,,,,,,,,,,,,,,,,,,,,666.6547897998244,None,666.6547897998244,None,666.9916757997125,None,666.9916757997125,None,0,666.9916757997125,None,return,2.005281599238515,666.9916757997125,None,,,HERUN,F,001,2023_Apr_18_1242,untitled,2021.1.4,60.1304831620093,
9,18,9,36,27,18,72,0.75,0.67,0.33,0.2,0.13,0.17,,stimuli/P_09_18_09_36.png,,,,,0,117,117,103,,,,,,,,,,,,,,,,,,,,,,,,,,,669.0176656991243,None,669.0176656991243,None,669.3481171000749,None,669.3481171000749,None,25,669.3481171000749,None,return,5.018771098926663,669.3481171000749,None,,,HERUN,F,001,2023_Apr_18_1242,untitled,2021.1.4,60.1304831620093,
9,9,36,0,18,45,54,0.83,0.5,0.5,1.0,-0.5,#NAME?,,stimuli/P_09_09_36_00.png,,,,,0,118,118,92,,,,,,,,,,,,,,,,,,,,,,,,,,,674.3857971001416,None,674.3857971001416,None,674.7161033991724,None,674.7161033991724,None,20,674.7161033991724,None,return,4.249861899763346,674.7161033991724,None,,,HERUN,F,001,2023_Apr_18_1242,untitled,2021.1.4,60.1304831620093,
9,36,18,36,45,27,99,0.64,0.8,0.2,0.33,-0.13,-0.2,,stimuli/P_09_36_18_36.png,,,,,0,119,119,123,,,,,,,,,,,,,,,,,,,,,,,,,,,678.9795411005616,None,678.9795411005616,None,679.3159314002842,None,679.3159314002842,None,20,679.3159314002842,None,return,4.954555599018931,679.3159314002842,None,,,HERUN,F,001,2023_Apr_18_1242,untitled,2021.1.4,60.1304831620093,
0,36,18,0,36,18,54,0.33,1.0,0.0,1.0,-1.0,#NAME?,,stimuli/P_00_36_18_00.png,,,,,0,120,120,56,,,,,,,,,,,,,,,,,,,,,,,,,,,684.2847202997655,None,684.2847202997655,None,684.625986399129,None,684.625986399129,None,0,684.625986399129,None,return,2.7286979015916586,684.625986399129,None,,,HERUN,F,001,2023_Apr_18_1242,untitled,2021.1.4,60.1304831620093,
36,9,9,36,45,45,90,0.9,0.2,0.8,0.2,0.6,0.75,,stimuli/P_36_09_09_36.png,,,,,0,121,121,215,,,,,,,,,,,,,,,,,,,,,,,,,,,687.3740334995091,None,687.3740334995091,None,687.7143252007663,None,687.7143252007663,None,37,687.7143252007663,None,None,,687.7143252007663,None,,,HERUN,F,001,2023_Apr_18_1242,untitled,2021.1.4,60.1304831620093,
0,18,9,0,18,9,27,0.33,1.0,0.0,1.0,-1.0,#NAME?,,stimuli/P_00_18_09_00.png,,,,,0,122,122,36,,,,,,,,,,,,,,,,,,,,,,,,,,,695.7096526995301,None,695.7096526995301,None,696.0540111009032,None,696.0540111009032,None,0,696.0540111009032,None,return,3.048351401463151,696.0540111009032,None,,,HERUN,F,001,2023_Apr_18_1242,untitled,2021.1.4,60.1304831620093,
18,36,36,9,54,54,99,0.64,0.67,0.33,0.8,-0.47,-2.33,,stimuli/P_18_36_36_09.png,,,,,0,123,123,189,,,,,,,,,,,,,,,,,,,,,,,,,,,699.129921099171,None,699.129921099171,None,699.4765383005142,None,699.4765383005142,None,34,699.4765383005142,None,return,6.583605101332068,699.4765383005142,None,,,HERUN,F,001,2023_Apr_18_1242,untitled,2021.1.4,60.1304831620093,
36,18,0,9,54,36,63,0.71,0.33,0.67,0.0,0.67,0.67,,stimuli/P_36_18_00_09.png,,,,,0,124,124,225,,,,,,,,,,,,,,,,,,,,,,,,,,,706.0930700991303,None,706.0930700991303,None,706.4356204997748,None,706.4356204997748,None,50,706.4356204997748,None,return,7.715885499492288,706.4356204997748,None,,,HERUN,F,001,2023_Apr_18_1242,untitled,2021.1.4,60.1304831620093,
36,0,36,9,36,72,81,1.0,0.0,1.0,0.8,0.2,1.0,,stimuli/P_36_00_36_09.png,,,,,0,125,125,205,,,,,,,,,,,,,,,,,,,,,,,,,,,714.1757737006992,None,714.1757737006992,None,714.5174176003784,None,714.5174176003784,None,45,714.5174176003784,None,return,6.109128599986434,714.5174176003784,None,,,HERUN,F,001,2023_Apr_18_1242,untitled,2021.1.4,60.1304831620093,
36,18,9,0,54,45,63,0.71,0.33,0.67,1.0,-0.33,#NAME?,,stimuli/P_36_18_09_00.png,,,,,0,126,126,228,,,,,,,,,,,,,,,,,,,,,,,,,,,720.6409236993641,None,720.6409236993641,None,720.9903720002621,None,720.9903720002621,None,50,720.9903720002621,None,return,7.839498000219464,720.9903720002621,None,,,HERUN,F,001,2023_Apr_18_1242,untitled,2021.1.4,60.1304831620093,
9,36,9,0,45,18,54,0.33,0.8,0.2,1.0,-0.8,#NAME?,,stimuli/P_09_36_09_00.png,,,,,0,127,127,116,,,,,,,,,,,,,,,,,,,,,,,,,,,728.8546994999051,None,728.8546994999051,None,729.2003469001502,None,729.2003469001502,None,30,729.2003469001502,None,None,,729.2003469001502,None,,,HERUN,F,001,2023_Apr_18_1242,untitled,2021.1.4,60.1304831620093,
18,36,9,9,54,27,72,0.5,0.67,0.33,0.5,-0.17,-0.33,,stimuli/P_18_36_09_09.png,,,,,0,128,128,181,,,,,,,,,,,,,,,,,,,,,,,,,,,737.198488900438,None,737.198488900438,None,737.5369381997734,None,737.5369381997734,None,30,737.5369381997734,None,return,5.187949199229479,737.5369381997734,None,,,HERUN,F,001,2023_Apr_18_1242,untitled,2021.1.4,60.1304831620093,
36,18,36,9,54,72,99,0.82,0.33,0.67,0.8,-0.13,-0.67,,stimuli/P_36_18_36_09.png,,,,,0,129,129,237,,,,,,,,,,,,,,,,,,,,,,,,,,,742.764134099707,None,742.764134099707,None,743.1026298999786,None,743.1026298999786,None,34,743.1026298999786,None,return,7.399346901103854,743.1026298999786,None,,,HERUN,F,001,2023_Apr_18_1242,untitled,2021.1.4,60.1304831620093,
36,0,36,18,36,72,90,1.0,0.0,1.0,0.67,0.33,1.0,,stimuli/P_36_00_36_18.png,,,,,0,130,130,206,,,,,,,,,,,,,,,,,,,,,,,,,,,750.5343683008105,None,750.5343683008105,None,750.8700920008123,None,750.8700920008123,None,38,750.8700920008123,None,return,7.564708899706602,750.8700920008123,None,,,HERUN,F,001,2023_Apr_18_1242,untitled,2021.1.4,60.1304831620093,
18,9,9,36,27,27,72,0.88,0.33,0.67,0.2,0.47,0.58,,stimuli/P_18_09_09_36.png,,,,,0,131,131,151,,,,,,,,,,,,,,,,,,,,,,,,,,,758.4663832001388,None,758.4663832001388,None,758.7911208998412,None,758.7911208998412,None,36,758.7911208998412,None,None,,758.7911208998412,None,,,HERUN,F,001,2023_Apr_18_1242,untitled,2021.1.4,60.1304831620093,
18,0,18,18,18,36,54,1.0,0.0,1.0,0.5,0.5,1.0,,stimuli/P_18_00_18_18.png,,,,,0,132,132,138,,,,,,,,,,,,,,,,,,,,,,,,,,,766.7902995999902,None,766.7902995999902,None,767.1413077991456,None,767.1413077991456,None,34,767.1413077991456,None,return,6.108799399808049,767.1413077991456,None,,,HERUN,F,001,2023_Apr_18_1242,untitled,2021.1.4,60.1304831620093,
18,0,0,36,18,18,54,1.0,0.0,1.0,0.0,1.0,1.0,,stimuli/P_18_00_00_36.png,,,,,0,133,133,131,,,,,,,,,,,,,,,,,,,,,,,,,,,773.2785311993212,None,773.2785311993212,None,773.6161867007613,None,773.6161867007613,None,40,773.6161867007613,None,return,5.97249379940331,773.6161867007613,None,,,HERUN,F,001,2023_Apr_18_1242,untitled,2021.1.4,60.1304831620093,
9,9,18,36,18,27,72,0.88,0.5,0.5,0.33,0.17,0.25,,stimuli/P_09_09_18_36.png,,,,,0,134,134,91,,,,,,,,,,,,,,,,,,,,,,,,,,,779.6045577991754,None,779.6045577991754,None,779.9495627004653,None,779.9495627004653,None,23,779.9495627004653,None,return,6.595420900732279,779.9495627004653,None,,,HERUN,F,001,2023_Apr_18_1242,untitled,2021.1.4,60.1304831620093,
0,0,9,9,0,9,18,1.0,None,None,0.5,None,None,,stimuli/P_00_00_09_09.png,,,,,0,135,135,5,,,,,,,,,,,,,,,,,,,,,,,,,,,786.5595130007714,None,786.5595130007714,None,786.893508400768,None,786.893508400768,None,0,786.893508400768,None,return,2.0808545984327793,786.893508400768,None,,,HERUN,F,001,2023_Apr_18_1242,untitled,2021.1.4,60.1304831620093,
0,0,36,9,0,36,45,1.0,None,None,0.8,None,None,,stimuli/P_00_00_36_09.png,,,,,0,136,136,13,,,,,,,,,,,,,,,,,,,,,,,,,,,788.9944988004863,None,788.9944988004863,None,789.3291049990803,None,789.3291049990803,None,0,789.3291049990803,None,return,1.9521639999002218,789.3291049990803,None,,,HERUN,F,001,2023_Apr_18_1242,untitled,2021.1.4,60.1304831620093,
36,9,18,9,45,54,72,0.88,0.2,0.8,0.67,0.13,0.4,,stimuli/P_36_09_18_09.png,,,,,0,137,137,217,,,,,,,,,,,,,,,,,,,,,,,,,,,791.3101087994874,None,791.3101087994874,None,791.6554354000837,None,791.6554354000837,None,45,791.6554354000837,None,None,,791.6554354000837,None,,,HERUN,F,001,2023_Apr_18_1242,untitled,2021.1.4,60.1304831620093,
36,36,36,36,72,72,144,0.75,0.5,0.5,0.5,0.0,0.0,,stimuli/P_36_36_36_36.png,,,,,0,138,138,255,,,,,,,,,,,,,,,,,,,,,,,,,,,799.658914199099,None,799.658914199099,None,799.9966924991459,None,799.9966924991459,None,25,799.9966924991459,None,return,7.920051200315356,799.9966924991459,None,,,HERUN,F,001,2023_Apr_18_1242,untitled,2021.1.4,60.1304831620093,
9,36,36,9,45,45,90,0.6,0.8,0.2,0.8,-0.6,-3.0,,stimuli/P_09_36_36_09.png,,,,,0,139,139,125,,,,,,,,,,,,,,,,,,,,,,,,,,,807.9445600006729,None,807.9445600006729,None,808.3032229002565,None,808.3032229002565,None,30,808.3032229002565,None,return,7.456226399168372,808.3032229002565,None,,,HERUN,F,001,2023_Apr_18_1242,untitled,2021.1.4,60.1304831620093,
9,9,18,18,18,27,54,0.83,0.5,0.5,0.5,0.0,0.0,,stimuli/P_09_09_18_18.png,,,,,0,140,140,90,,,,,,,,,,,,,,,,,,,,,,,,,,,815.7939142994583,None,815.7939142994583,None,816.1360685005784,None,816.1360685005784,None,25,816.1360685005784,None,None,,816.1360685005784,None,,,HERUN,F,001,2023_Apr_18_1242,untitled,2021.1.4,60.1304831620093,
0,0,0,9,0,0,9,1.0,None,None,0.0,None,None,,stimuli/P_00_00_00_09.png,,,,,0,141,141,1,,,,,,,,,,,,,,,,,,,,,,,,,,,824.1474091000855,None,824.1474091000855,None,824.4812052994967,None,824.4812052994967,None,0,824.4812052994967,None,return,1.772791299968958,824.4812052994967,None,,,HERUN,F,001,2023_Apr_18_1242,untitled,2021.1.4,60.1304831620093,
0,9,18,9,9,18,36,0.75,1.0,0.0,0.67,-0.67,-2.0,,stimuli/P_00_09_18_09.png,,,,,0,142,142,25,,,,,,,,,,,,,,,,,,,,,,,,,,,826.2731651999056,None,826.2731651999056,None,826.609926700592,None,826.609926700592,None,0,826.609926700592,None,return,1.953362600877881,826.609926700592,None,,,HERUN,F,001,2023_Apr_18_1242,untitled,2021.1.4,60.1304831620093,
0,18,0,0,18,0,18,0.0,1.0,0.0,None,None,None,,stimuli/P_00_18_00_00.png,,,,,0,143,143,32,,,,,,,,,,,,,,,,,,,,,,,,,,,828.5976448003203,None,828.5976448003203,None,828.928025899455,None,828.928025899455,None,0,828.928025899455,None,return,1.408329900354147,828.928025899455,None,,,HERUN,F,001,2023_Apr_18_1242,untitled,2021.1.4,60.1304831620093,
0,36,9,0,36,9,45,0.2,1.0,0.0,1.0,-1.0,#NAME?,,stimuli/P_00_36_09_00.png,,,,,0,144,144,52,,,,,,,,,,,,,,,,,,,,,,,,,,,830.349034100771,None,830.349034100771,None,830.6869213990867,None,830.6869213990867,None,0,830.6869213990867,None,return,2.2768703997135162,830.6869213990867,None,,,HERUN,F,001,2023_Apr_18_1242,untitled,2021.1.4,60.1304831620093,
9,18,36,18,27,45,81,0.78,0.67,0.33,0.67,-0.33,-1.0,,stimuli/P_09_18_36_18.png,,,,,0,145,145,110,,,,,,,,,,,,,,,,,,,,,,,,,,,832.9839083999395,None,832.9839083999395,None,833.3207917995751,None,833.3207917995751,None,23,833.3207917995751,None,None,,833.3207917995751,None,,,HERUN,F,001,2023_Apr_18_1242,untitled,2021.1.4,60.1304831620093,
18,0,0,18,18,18,36,1.0,0.0,1.0,0.0,1.0,1.0,,stimuli/P_18_00_00_18.png,,,,,0,146,146,130,,,,,,,,,,,,,,,,,,,,,,,,,,,841.3253883998841,None,841.3253883998841,None,841.6658772006631,None,841.6658772006631,None,50,841.6658772006631,None,return,2.973028799518943,841.6658772006631,None,,,HERUN,F,001,2023_Apr_18_1242,untitled,2021.1.4,60.1304831620093,
9,0,36,18,9,45,63,1.0,0.0,1.0,0.67,0.33,1.0,,stimuli/P_09_00_36_18.png,,,,,0,147,147,78,,,,,,,,,,,,,,,,,,,,,,,,,,,844.6679299995303,None,844.6679299995303,None,845.0098500996828,None,845.0098500996828,None,30,845.0098500996828,None,None,,845.0098500996828,None,,,HERUN,F,001,2023_Apr_18_1242,untitled,2021.1.4,60.1304831620093,
36,18,18,36,54,54,108,0.83,0.33,0.67,0.33,0.33,0.5,,stimuli/P_36_18_18_36.png,,,,,0,148,148,235,,,,,,,,,,,,,,,,,,,,,,,,,,,853.0231791995466,None,853.0231791995466,None,853.3636737000197,None,853.3636737000197,None,,853.3636737000197,None,None,,853.3636737000197,None,,,HERUN,F,001,2023_Apr_18_1242,untitled,2021.1.4,60.1304831620093,
36,0,18,0,36,54,54,1.0,0.0,1.0,1.0,0.0,None,,stimuli/P_36_00_18_00.png,,,,,0,149,149,200,,,,,,,,,,,,,,,,,,,,,,,,,,,861.3736924994737,None,861.3736924994737,None,861.7079473994672,None,861.7079473994672,None,65,861.7079473994672,None,None,,861.7079473994672,None,,,HERUN,F,001,2023_Apr_18_1242,untitled,2021.1.4,60.1304831620093,
36,9,0,0,45,36,45,0.8,0.2,0.8,None,None,None,,stimuli/P_36_09_00_00.png,,,,,0,150,150,208,,,,,,,,,,,,,,,,,,,,,,,,,,,869.7094294000417,None,869.7094294000417,None,870.0586325004697,None,870.0586325004697,None,70,870.0586325004697,None,return,3.8145329002290964,870.0586325004697,None,,,HERUN,F,001,2023_Apr_18_1242,untitled,2021.1.4,60.1304831620093,
36,36,9,0,72,45,81,0.56,0.5,0.5,1.0,-0.5,#NAME?,,stimuli/P_36_36_09_00.png,,,,,0,151,151,244,,,,,,,,,,,,,,,,,,,,,,,,,,,873.8935848996043,None,873.8935848996043,None,874.2165296003222,None,874.2165296003222,None,43,874.2165296003222,None,None,,874.2165296003222,None,,,HERUN,F,001,2023_Apr_18_1242,untitled,2021.1.4,60.1304831620093,
18,18,9,0,36,27,45,0.6,0.5,0.5,1.0,-0.5,#NAME?,,stimuli/P_18_18_09_00.png,,,,,0,152,152,164,,,,,,,,,,,,,,,,,,,,,,,,,,,882.2242021001875,None,882.2242021001875,None,882.5886413007975,None,882.5886413007975,None,43,882.5886413007975,None,return,5.139942899346352,882.5886413007975,None,,,HERUN,F,001,2023_Apr_18_1242,untitled,2021.1.4,60.1304831620093,
9,0,0,18,9,9,27,1.0,0.0,1.0,0.0,1.0,1.0,,stimuli/P_09_00_00_18.png,,,,,0,153,153,66,,,,,,,,,,,,,,,,,,,,,,,,,,,887.7422669995576,None,887.7422669995576,None,888.0873987004161,None,888.0873987004161,None,46,888.0873987004161,None,return,6.477699398994446,888.0873987004161,None,,,HERUN,F,001,2023_Apr_18_1242,untitled,2021.1.4,60.1304831620093,
9,0,36,9,9,45,54,1.0,0.0,1.0,0.8,0.2,1.0,,stimuli/P_09_00_36_09.png,,,,,0,154,154,77,,,,,,,,,,,,,,,,,,,,,,,,,,,894.5885774996132,None,894.5885774996132,None,894.9426559004933,None,894.9426559004933,None,28,894.9426559004933,None,return,6.725984800606966,894.9426559004933,None,,,HERUN,F,001,2023_Apr_18_1242,untitled,2021.1.4,60.1304831620093,
9,18,18,36,27,27,81,0.78,0.67,0.33,0.33,0.0,0.0,,stimuli/P_09_18_18_36.png,,,,,0,155,155,107,,,,,,,,,,,,,,,,,,,,,,,,,,,901.6984441000968,None,901.6984441000968,None,902.0369930993766,None,902.0369930993766,None,26,902.0369930993766,None,return,5.918016901239753,902.0369930993766,None,,,HERUN,F,001,2023_Apr_18_1242,untitled,2021.1.4,60.1304831620093,
36,0,9,9,36,45,54,1.0,0.0,1.0,0.5,0.5,1.0,,stimuli/P_36_00_09_09.png,,,,,0,156,156,197,,,,,,,,,,,,,,,,,,,,,,,,,,,907.9751621000469,None,907.9751621000469,None,908.3194309994578,None,908.3194309994578,None,48,908.3194309994578,None,return,6.1720912996679544,908.3194309994578,None,,,HERUN,F,001,2023_Apr_18_1242,untitled,2021.1.4,60.1304831620093,
0,0,9,36,0,9,45,1.0,None,None,0.2,None,None,,stimuli/P_00_00_09_36.png,,,,,0,157,157,7,,,,,,,,,,,,,,,,,,,,,,,,,,,914.503420099616,None,914.503420099616,None,914.848918100819,None,914.848918100819,None,0,914.848918100819,None,return,1.61220240034163,914.848918100819,None,,,HERUN,F,001,2023_Apr_18_1242,untitled,2021.1.4,60.1304831620093,
9,18,18,0,27,27,45,0.6,0.67,0.33,1.0,-0.67,#NAME?,,stimuli/P_09_18_18_00.png,,,,,0,158,158,104,,,,,,,,,,,,,,,,,,,,,,,,,,,916.4872705005109,None,916.4872705005109,None,916.8289508000016,None,916.8289508000016,None,26,916.8289508000016,None,return,7.5623180996626616,916.8289508000016,None,,,HERUN,F,001,2023_Apr_18_1242,untitled,2021.1.4,60.1304831620093,
18,36,36,18,54,54,108,0.67,0.67,0.33,0.67,-0.33,-1.0,,stimuli/P_18_36_36_18.png,,,,,0,159,159,190,,,,,,,,,,,,,,,,,,,,,,,,,,,924.4176998995245,None,924.4176998995245,None,924.7476380001754,None,924.7476380001754,None,20,924.7476380001754,None,None,,924.7476380001754,None,,,HERUN,F,001,2023_Apr_18_1242,untitled,2021.1.4,60.1304831620093,
18,18,36,36,36,54,108,0.83,0.5,0.5,0.5,0.0,0.0,,stimuli/P_18_18_36_36.png,,,,,0,160,160,175,,,,,,,,,,,,,,,,,,,,,,,,,,,932.7426967006177,None,932.7426967006177,None,933.0839898996055,None,933.0839898996055,None,20,933.0839898996055,None,None,,933.0839898996055,None,,,HERUN,F,001,2023_Apr_18_1242,untitled,2021.1.4,60.1304831620093,
9,18,36,36,27,45,99,0.82,0.67,0.33,0.5,-0.17,-0.33,,stimuli/P_09_18_36_36.png,,,,,0,161,161,111,,,,,,,,,,,,,,,,,,,,,,,,,,,941.0953991003335,None,941.0953991003335,None,941.4253521002829,None,941.4253521002829,None,21,941.4253521002829,None,None,,941.4253521002829,None,,,HERUN,F,001,2023_Apr_18_1242,untitled,2021.1.4,60.1304831620093,
36,36,18,9,72,54,99,0.64,0.5,0.5,0.67,-0.17,-0.5,,stimuli/P_36_36_18_09.png,,,,,0,162,162,249,,,,,,,,,,,,,,,,,,,,,,,,,,,949.4240688998252,None,949.4240688998252,None,949.7760837990791,None,949.7760837990791,None,30,949.7760837990791,None,return,4.712481601163745,949.7760837990791,None,,,HERUN,F,001,2023_Apr_18_1242,untitled,2021.1.4,60.1304831620093,
36,9,0,9,45,36,54,0.83,0.2,0.8,0.0,0.8,0.8,,stimuli/P_36_09_00_09.png,,,,,0,163,163,209,,,,,,,,,,,,,,,,,,,,,,,,,,,954.5150693003088,None,954.5150693003088,None,954.8563720993698,None,954.8563720993698,None,45,954.8563720993698,None,None,,954.8563720993698,None,,,HERUN,F,001,2023_Apr_18_1242,untitled,2021.1.4,60.1304831620093,
18,36,36,36,54,54,126,0.71,0.67,0.33,0.5,-0.17,-0.33,,stimuli/P_18_36_36_36.png,,,,,0,164,164,191,,,,,,,,,,,,,,,,,,,,,,,,,,,962.8682401999831,None,962.8682401999831,None,963.2339885998517,None,963.2339885998517,None,14,963.2339885998517,None,None,,963.2339885998517,None,,,HERUN,F,001,2023_Apr_18_1242,untitled,2021.1.4,60.1304831620093,
36,9,9,9,45,45,63,0.86,0.2,0.8,0.5,0.3,0.6,,stimuli/P_36_09_09_09.png,,,,,0,165,165,213,,,,,,,,,,,,,,,,,,,,,,,,,,,971.2508057001978,None,971.2508057001978,None,971.5916226003319,None,971.5916226003319,None,49,971.5916226003319,None,return,5.002321299165487,971.5916226003319,None,,,HERUN,F,001,2023_Apr_18_1242,untitled,2021.1.4,60.1304831620093,
9,9,36,9,18,45,63,0.86,0.5,0.5,0.8,-0.3,-1.5,,stimuli/P_09_09_36_09.png,,,,,0,166,166,93,,,,,,,,,,,,,,,,,,,,,,,,,,,976.6075560990721,None,976.6075560990721,None,976.9419621005654,None,976.9419621005654,None,20,976.9419621005654,None,return,7.190026700496674,976.9419621005654,None,,,HERUN,F,001,2023_Apr_18_1242,untitled,2021.1.4,60.1304831620093,
36,0,0,36,36,36,72,1.0,0.0,1.0,0.0,1.0,1.0,,stimuli/P_36_00_00_36.png,,,,,0,167,167,195,,,,,,,,,,,,,,,,,,,,,,,,,,,984.157348100096,None,984.157348100096,None,984.4884615000337,None,984.4884615000337,None,50,984.4884615000337,None,return,2.379135198891163,984.4884615000337,None,,,HERUN,F,001,2023_Apr_18_1242,untitled,2021.1.4,60.1304831620093,
9,18,9,9,27,18,45,0.6,0.67,0.33,0.5,-0.17,-0.33,,stimuli/P_09_18_09_09.png,,,,,0,168,168,101,,,,,,,,,,,,,,,,,,,,,,,,,,,986.8833422996104,None,986.8833422996104,None,987.2279164008796,None,987.2279164008796,None,18,987.2279164008796,None,return,4.525528999045491,987.2279164008796,None,,,HERUN,F,001,2023_Apr_18_1242,untitled,2021.1.4,60.1304831620093,
36,36,9,9,72,45,90,0.6,0.5,0.5,0.5,0.0,0.0,,stimuli/P_36_36_09_09.png,,,,,0,169,169,245,,,,,,,,,,,,,,,,,,,,,,,,,,,991.7861822992563,None,991.7861822992563,None,992.1268719993532,None,992.1268719993532,None,34,992.1268719993532,None,return,7.247646801173687,992.1268719993532,None,,,HERUN,F,001,2023_Apr_18_1242,untitled,2021.1.4,60.1304831620093,
9,9,9,9,18,18,36,0.75,0.5,0.5,0.5,0.0,0.0,,stimuli/P_09_09_09_09.png,,,,,0,170,170,85,,,,,,,,,,,,,,,,,,,,,,,,,,,999.4052575994283,None,999.4052575994283,None,999.7310268003494,None,999.7310268003494,None,25,999.7310268003494,None,return,3.225273499265313,999.7310268003494,None,,,HERUN,F,001,2023_Apr_18_1242,untitled,2021.1.4,60.1304831620093,
36,0,0,18,36,36,54,1.0,0.0,1.0,0.0,1.0,1.0,,stimuli/P_36_00_00_18.png,,,,,0,171,171,194,,,,,,,,,,,,,,,,,,,,,,,,,,,1002.9776135999709,None,1002.9776135999709,None,1003.3176867999136,None,1003.3176867999136,None,75,1003.3176867999136,None,return,4.837391000241041,1003.3176867999136,None,,,HERUN,F,001,2023_Apr_18_1242,untitled,2021.1.4,60.1304831620093,
36,18,18,0,54,54,72,0.75,0.33,0.67,1.0,-0.33,#NAME?,,stimuli/P_36_18_18_00.png,,,,,0,172,172,232,,,,,,,,,,,,,,,,,,,,,,,,,,,1008.1760716997087,None,1008.1760716997087,None,1008.5126067008823,None,1008.5126067008823,None,64,1008.5126067008823,None,return,7.349366899579763,1008.5126067008823,None,,,HERUN,F,001,2023_Apr_18_1242,untitled,2021.1.4,60.1304831620093,
9,9,0,36,18,9,54,0.83,0.5,0.5,0.0,0.5,0.5,,stimuli/P_09_09_00_36.png,,,,,0,173,173,83,,,,,,,,,,,,,,,,,,,,,,,,,,,1015.8782493006438,None,1015.8782493006438,None,1016.2221789006144,None,1016.2221789006144,None,23,1016.2221789006144,None,return,4.222517501562834,1016.2221789006144,None,,,HERUN,F,001,2023_Apr_18_1242,untitled,2021.1.4,60.1304831620093,
9,36,18,9,45,27,72,0.5,0.8,0.2,0.67,-0.47,-1.4,,stimuli/P_09_36_18_09.png,,,,,0,174,174,121,,,,,,,,,,,,,,,,,,,,,,,,,,,1020.4740469008684,None,1020.4740469008684,None,1020.8114002998918,None,1020.8114002998918,None,16,1020.8114002998918,None,return,4.781809099018574,1020.8114002998918,None,,,HERUN,F,001,2023_Apr_18_1242,untitled,2021.1.4,60.1304831620093,
36,36,9,36,72,45,117,0.69,0.5,0.5,0.2,0.3,0.37,,stimuli/P_36_36_09_36.png,,,,,0,175,175,247,,,,,,,,,,,,,,,,,,,,,,,,,,,1025.6370665002614,None,1025.6370665002614,None,1025.9774204995483,None,1025.9774204995483,None,30,1025.9774204995483,None,return,7.497913099825382,1025.9774204995483,None,,,HERUN,F,001,2023_Apr_18_1242,untitled,2021.1.4,60.1304831620093,
18,36,18,36,54,36,108,0.67,0.67,0.33,0.33,0.0,0.0,,stimuli/P_18_36_18_36.png,,,,,0,176,176,187,,,,,,,,,,,,,,,,,,,,,,,,,,,1033.4959129001945,None,1033.4959129001945,None,1033.8322200998664,None,1033.8322200998664,None,25,1033.8322200998664,None,return,5.961284000426531,1033.8322200998664,None,,,HERUN,F,001,2023_Apr_18_1242,untitled,2021.1.4,60.1304831620093,
0,36,36,9,36,36,81,0.56,1.0,0.0,0.8,-0.8,-4.0,,stimuli/P_00_36_36_09.png,,,,,0,177,177,61,,,,,,,,,,,,,,,,,,,,,,,,,,,1039.827800899744,None,1039.827800899744,None,1040.1618873998523,None,1040.1618873998523,None,0,1040.1618873998523,None,return,2.4650455992668867,1040.1618873998523,None,,,HERUN,F,001,2023_Apr_18_1242,untitled,2021.1.4,60.1304831620093,
9,18,0,0,27,9,27,0.33,0.67,0.33,None,None,None,,stimuli/P_09_18_00_00.png,,,,,0,178,178,96,,,,,,,,,,,,,,,,,,,,,,,,,,,1042.6626022998244,None,1042.6626022998244,None,1043.0096390992403,None,1043.0096390992403,None,40,1043.0096390992403,None,return,5.35317949950695,1043.0096390992403,None,,,HERUN,F,001,2023_Apr_18_1242,untitled,2021.1.4,60.1304831620093,
18,0,9,9,18,27,36,1.0,0.0,1.0,0.5,0.5,1.0,,stimuli/P_18_00_09_09.png,,,,,0,179,179,133,,,,,,,,,,,,,,,,,,,,,,,,,,,1048.3883727006614,None,1048.3883727006614,None,1048.7270253002644,None,1048.7270253002644,None,3,1048.7270253002644,None,None,,1048.7270253002644,None,,,HERUN,F,001,2023_Apr_18_1242,untitled,2021.1.4,60.1304831620093,
36,36,36,9,72,72,117,0.69,0.5,0.5,0.8,-0.3,-1.5,,stimuli/P_36_36_36_09.png,,,,,0,180,180,253,,,,,,,,,,,,,,,,,,,,,,,,,,,1056.7386150006205,None,1056.7386150006205,None,1057.0828304998577,None,1057.0828304998577,None,34,1057.0828304998577,None,return,6.461488898843527,1057.0828304998577,None,,,HERUN,F,001,2023_Apr_18_1242,untitled,2021.1.4,60.1304831620093,
0,18,18,0,18,18,36,0.5,1.0,0.0,1.0,-1.0,#NAME?,,stimuli/P_00_18_18_00.png,,,,,0,181,181,40,,,,,,,,,,,,,,,,,,,,,,,,,,,1063.5748455002904,None,1063.5748455002904,None,1063.9123167991638,None,1063.9123167991638,None,0,1063.9123167991638,None,return,1.807786799967289,1063.9123167991638,None,,,HERUN,F,001,2023_Apr_18_1242,untitled,2021.1.4,60.1304831620093,
9,0,9,0,9,18,18,1.0,0.0,1.0,1.0,0.0,None,,stimuli/P_09_00_09_00.png,,,,,0,182,182,68,,,,,,,,,,,,,,,,,,,,,,,,,,,1065.7370174005628,None,1065.7370174005628,None,1066.0691033992916,None,1066.0691033992916,None,50,1066.0691033992916,None,return,2.8436925001442432,1066.0691033992916,None,,,HERUN,F,001,2023_Apr_18_1242,untitled,2021.1.4,60.1304831620093,
36,9,0,36,45,36,81,0.89,0.2,0.8,0.0,0.8,0.8,,stimuli/P_36_09_00_36.png,,,,,0,183,183,211,,,,,,,,,,,,,,,,,,,,,,,,,,,1068.9400338996202,None,1068.9400338996202,None,1069.2781940996647,None,1069.2781940996647,None,40,1069.2781940996647,None,return,4.891812900081277,1069.2781940996647,None,,,HERUN,F,001,2023_Apr_18_1242,untitled,2021.1.4,60.1304831620093,
18,36,36,0,54,54,90,0.6,0.67,0.33,1.0,-0.67,#NAME?,,stimuli/P_18_36_36_00.png,,,,,0,184,184,188,,,,,,,,,,,,,,,,,,,,,,,,,,,1074.1828349996358,None,1074.1828349996358,None,1074.5175946000963,None,1074.5175946000963,None,30,1074.5175946000963,None,return,5.190524799749255,1074.5175946000963,None,,,HERUN,F,001,2023_Apr_18_1242,untitled,2021.1.4,60.1304831620093,
18,0,0,0,18,18,18,1.0,0.0,1.0,None,None,None,,stimuli/P_18_00_00_00.png,,,,,0,185,185,128,,,,,,,,,,,,,,,,,,,,,,,,,,,1079.7280112002045,None,1079.7280112002045,None,1080.0562498997897,None,1080.0562498997897,None,100,1080.0562498997897,None,return,2.3394067995250225,1080.0562498997897,None,,,HERUN,F,001,2023_Apr_18_1242,untitled,2021.1.4,60.1304831620093,
18,9,0,0,27,18,27,0.67,0.33,0.67,None,None,None,,stimuli/P_18_09_00_00.png,,,,,0,186,186,144,,,,,,,,,,,,,,,,,,,,,,,,,,,1082.4233845006675,None,1082.4233845006675,None,1082.7618438005447,None,1082.7618438005447,None,65,1082.7618438005447,None,return,6.811122201383114,1082.7618438005447,None,,,HERUN,F,001,2023_Apr_18_1242,untitled,2021.1.4,60.1304831620093,
9,36,36,18,45,45,99,0.64,0.8,0.2,0.67,-0.47,-1.4,,stimuli/P_09_36_36_18.png,,,,,0,187,187,126,,,,,,,,,,,,,,,,,,,,,,,,,,,1089.5945685002953,None,1089.5945685002953,None,1089.9312842991203,None,1089.9312842991203,None,16,1089.9312842991203,None,return,4.867762601003051,1089.9312842991203,None,,,HERUN,F,001,2023_Apr_18_1242,untitled,2021.1.4,60.1304831620093,
36,9,18,36,45,54,99,0.91,0.2,0.8,0.33,0.47,0.7,,stimuli/P_36_09_18_36.png,,,,,0,188,188,219,,,,,,,,,,,,,,,,,,,,,,,,,,,1094.829610100016,None,1094.829610100016,None,1095.1774509996176,None,1095.1774509996176,None,20,1095.1774509996176,None,return,4.729433599859476,1095.1774509996176,None,,,HERUN,F,001,2023_Apr_18_1242,untitled,2021.1.4,60.1304831620093,
18,36,18,0,54,36,72,0.5,0.67,0.33,1.0,-0.67,#NAME?,,stimuli/P_18_36_18_00.png,,,,,0,189,189,184,,,,,,,,,,,,,,,,,,,,,,,,,,,1099.9245282001793,None,1099.9245282001793,None,1100.2686563003808,None,1100.2686563003808,None,40,1100.2686563003808,None,return,5.212833000347018,1100.2686563003808,None,,,HERUN,F,001,2023_Apr_18_1242,untitled,2021.1.4,60.1304831620093,
9,36,0,36,45,9,81,0.56,0.8,0.2,0.0,0.2,0.2,,stimuli/P_09_36_00_36.png,,,,,0,190,190,115,,,,,,,,,,,,,,,,,,,,,,,,,,,1105.4963866993785,None,1105.4963866993785,None,1105.8238834999502,None,1105.8238834999502,None,16,1105.8238834999502,None,return,4.987783098593354,1105.8238834999502,None,,,HERUN,F,001,2023_Apr_18_1242,untitled,2021.1.4,60.1304831620093,
36,36,0,0,72,36,72,0.5,0.5,0.5,None,None,None,,stimuli/P_36_36_00_00.png,,,,,0,191,191,240,,,,,,,,,,,,,,,,,,,,,,,,,,,1110.8281705006957,None,1110.8281705006957,None,1111.1670458000153,None,1111.1670458000153,None,50,1111.1670458000153,None,return,2.386938599869609,1111.1670458000153,None,,,HERUN,F,001,2023_Apr_18_1242,untitled,2021.1.4,60.1304831620093,
36,36,0,36,72,36,108,0.67,0.5,0.5,0.0,0.5,0.5,,stimuli/P_36_36_00_36.png,,,,,0,192,192,243,,,,,,,,,,,,,,,,,,,,,,,,,,,1113.5730581991374,None,1113.5730581991374,None,1113.9088947996497,None,1113.9088947996497,None,32,1113.9088947996497,None,return,5.972009999677539,1113.9088947996497,None,,,HERUN,F,001,2023_Apr_18_1242,untitled,2021.1.4,60.1304831620093,
36,36,18,36,72,54,126,0.71,0.5,0.5,0.33,0.17,0.25,,stimuli/P_36_36_18_36.png,,,,,0,193,193,251,,,,,,,,,,,,,,,,,,,,,,,,,,,1119.9004868995398,None,1119.9004868995398,None,1120.24311869964,None,1120.24311869964,None,27,1120.24311869964,None,return,7.201960999518633,1120.24311869964,None,,,HERUN,F,001,2023_Apr_18_1242,untitled,2021.1.4,60.1304831620093,
0,18,36,0,18,36,54,0.67,1.0,0.0,1.0,-1.0,#NAME?,,stimuli/P_00_18_36_00.png,,,,,0,194,194,44,,,,,,,,,,,,,,,,,,,,,,,,,,,1127.459413100034,None,1127.459413100034,None,1127.7923677004874,None,1127.7923677004874,None,0,1127.7923677004874,None,return,3.057925099506974,1127.7923677004874,None,,,HERUN,F,001,2023_Apr_18_1242,untitled,2021.1.4,60.1304831620093,
9,18,0,18,27,9,45,0.6,0.67,0.33,0.0,0.33,0.33,,stimuli/P_09_18_00_18.png,,,,,0,195,195,98,,,,,,,,,,,,,,,,,,,,,,,,,,,1130.8684039004147,None,1130.8684039004147,None,1131.21767700091,None,1131.21767700091,None,2,1131.21767700091,None,return,7.387855499982834,1131.21767700091,None,,,HERUN,F,001,2023_Apr_18_1242,untitled,2021.1.4,60.1304831620093,
18,0,9,36,18,27,63,1.0,0.0,1.0,0.2,0.8,1.0,,stimuli/P_18_00_09_36.png,,,,,0,196,196,135,,,,,,,,,,,,,,,,,,,,,,,,,,,1138.624088300392,None,1138.624088300392,None,1138.9711245000362,None,1138.9711245000362,None,26,1138.9711245000362,None,return,5.665719699114561,1138.9711245000362,None,,,HERUN,F,001,2023_Apr_18_1242,untitled,2021.1.4,60.1304831620093,
36,9,36,9,45,72,90,0.9,0.2,0.8,0.8,0.0,0.0,,stimuli/P_36_09_36_09.png,,,,,0,197,197,221,,,,,,,,,,,,,,,,,,,,,,,,,,,1144.6656395997852,None,1144.6656395997852,None,1145.0105025004596,None,1145.0105025004596,None,35,1145.0105025004596,None,None,,1145.0105025004596,None,,,HERUN,F,001,2023_Apr_18_1242,untitled,2021.1.4,60.1304831620093,
36,0,9,0,36,45,45,1.0,0.0,1.0,1.0,0.0,None,,stimuli/P_36_00_09_00.png,,,,,0,198,198,196,,,,,,,,,,,,,,,,,,,,,,,,,,,1153.0053404998034,None,1153.0053404998034,None,1153.3561885003,None,1153.3561885003,None,75,1153.3561885003,None,return,5.256434500217438,1153.3561885003,None,,,HERUN,F,001,2023_Apr_18_1242,untitled,2021.1.4,60.1304831620093,
18,9,9,0,27,27,36,0.75,0.33,0.67,1.0,-0.33,#NAME?,,stimuli/P_18_09_09_00.png,,,,,0,199,199,148,,,,,,,,,,,,,,,,,,,,,,,,,,,1158.6307022999972,None,1158.6307022999972,None,1158.9610028006136,None,1158.9610028006136,None,38,1158.9610028006136,None,return,4.170536899939179,1158.9610028006136,None,,,HERUN,F,001,2023_Apr_18_1242,untitled,2021.1.4,60.1304831620093,
18,36,9,18,54,27,81,0.56,0.67,0.33,0.33,0.0,0.0,,stimuli/P_18_36_09_18.png,,,,,0,200,200,182,,,,,,,,,,,,,,,,,,,,,,,,,,,1163.152816399932,None,1163.152816399932,None,1163.4998336005956,None,1163.4998336005956,None,23,1163.4998336005956,None,return,3.934587800875306,1163.4998336005956,None,,,HERUN,F,001,2023_Apr_18_1242,untitled,2021.1.4,60.1304831620093,
0,9,18,18,9,18,45,0.8,1.0,0.0,0.5,-0.5,-1.0,,stimuli/P_00_09_18_18.png,,,,,0,201,201,26,,,,,,,,,,,,,,,,,,,,,,,,,,,1167.4534118007869,None,1167.4534118007869,None,1167.800434699282,None,1167.800434699282,None,0,1167.800434699282,None,return,2.1572707016021013,1167.800434699282,None,,,HERUN,F,001,2023_Apr_18_1242,untitled,2021.1.4,60.1304831620093,
9,36,9,18,45,18,72,0.5,0.8,0.2,0.33,-0.13,-0.2,,stimuli/P_09_36_09_18.png,,,,,0,202,202,118,,,,,,,,,,,,,,,,,,,,,,,,,,,1169.9788624998182,None,1169.9788624998182,None,1170.3249366991222,None,1170.3249366991222,None,15,1170.3249366991222,None,None,,1170.3249366991222,None,,,HERUN,F,001,2023_Apr_18_1242,untitled,2021.1.4,60.1304831620093,
0,9,18,36,9,18,63,0.86,1.0,0.0,0.33,-0.33,-0.5,,stimuli/P_00_09_18_36.png,,,,,0,203,203,27,,,,,,,,,,,,,,,,,,,,,,,,,,,1178.3282437007874,None,1178.3282437007874,None,1178.6493931002915,None,1178.6493931002915,None,0,1178.6493931002915,None,return,2.3941095992922783,1178.6493931002915,None,,,HERUN,F,001,2023_Apr_18_1242,untitled,2021.1.4,60.1304831620093,
9,18,0,9,27,9,36,0.5,0.67,0.33,0.0,0.33,0.33,,stimuli/P_09_18_00_09.png,,,,,0,204,204,97,,,,,,,,,,,,,,,,,,,,,,,,,,,1181.0653792992234,None,1181.0653792992234,None,1181.4096512999386,None,1181.4096512999386,None,30,1181.4096512999386,None,return,7.4542922005057335,1181.4096512999386,None,,,HERUN,F,001,2023_Apr_18_1242,untitled,2021.1.4,60.1304831620093,
18,9,36,0,27,54,63,0.86,0.33,0.67,1.0,-0.33,#NAME?,,stimuli/P_18_09_36_00.png,,,,,0,205,205,156,,,,,,,,,,,,,,,,,,,,,,,,,,,1188.8829354997724,None,1188.8829354997724,None,1189.249127600342,None,1189.249127600342,None,30,1189.249127600342,None,return,5.158292701467872,1189.249127600342,None,,,HERUN,F,001,2023_Apr_18_1242,untitled,2021.1.4,60.1304831620093,
18,0,36,36,18,54,90,1.0,0.0,1.0,0.5,0.5,1.0,,stimuli/P_18_00_36_36.png,,,,,0,206,206,143,,,,,,,,,,,,,,,,,,,,,,,,,,,1194.431508500129,None,1194.431508500129,None,1194.8637716006488,None,1194.8637716006488,None,24,1194.8637716006488,None,return,7.6176833007484674,1194.8637716006488,None,,,HERUN,F,001,2023_Apr_18_1242,untitled,2021.1.4,60.1304831620093,
18,0,9,0,18,27,27,1.0,0.0,1.0,1.0,0.0,None,,stimuli/P_18_00_09_00.png,,,,,0,207,207,132,,,,,,,,,,,,,,,,,,,,,,,,,,,1202.4955556001514,None,1202.4955556001514,None,1202.8357922006398,None,1202.8357922006398,None,60,1202.8357922006398,None,return,6.516540300101042,1202.8357922006398,None,,,HERUN,F,001,2023_Apr_18_1242,untitled,2021.1.4,60.1304831620093,
18,36,0,0,54,18,54,0.33,0.67,0.33,None,None,None,,stimuli/P_18_36_00_00.png,,,,,0,208,208,176,,,,,,,,,,,,,,,,,,,,,,,,,,,1209.3802099004388,None,1209.3802099004388,None,1209.714764399454,None,1209.714764399454,None,,1209.714764399454,None,None,,1209.714764399454,None,,,HERUN,F,001,2023_Apr_18_1242,untitled,2021.1.4,60.1304831620093,
0,0,36,36,0,36,72,1.0,None,None,0.5,None,None,,stimuli/P_00_00_36_36.png,,,,,0,209,209,15,,,,,,,,,,,,,,,,,,,,,,,,,,,1217.7216491997242,None,1217.7216491997242,None,1218.0548033993691,None,1218.0548033993691,None,0,1218.0548033993691,None,return,3.4947123993188143,1218.0548033993691,None,,,HERUN,F,001,2023_Apr_18_1242,untitled,2021.1.4,60.1304831620093,
36,0,18,9,36,54,63,1.0,0.0,1.0,0.67,0.33,1.0,,stimuli/P_36_00_18_09.png,,,,,0,210,210,201,,,,,,,,,,,,,,,,,,,,,,,,,,,1221.5679579004645,None,1221.5679579004645,None,1221.8939891997725,None,1221.8939891997725,None,50,1221.8939891997725,None,return,3.6459889002144337,1221.8939891997725,None,,,HERUN,F,001,2023_Apr_18_1242,untitled,2021.1.4,60.1304831620093,
0,36,36,18,36,36,90,0.6,1.0,0.0,0.67,-0.67,-2.0,,stimuli/P_00_36_36_18.png,,,,,0,211,211,62,,,,,,,,,,,,,,,,,,,,,,,,,,,1225.5608706008643,None,1225.5608706008643,None,1225.8960721995682,None,1225.8960721995682,None,0,1225.8960721995682,None,return,2.1384199000895023,1225.8960721995682,None,,,HERUN,F,001,2023_Apr_18_1242,untitled,2021.1.4,60.1304831620093,
18,9,36,9,27,54,72,0.88,0.33,0.67,0.8,-0.13,-0.67,,stimuli/P_18_09_36_09.png,,,,,0,212,212,157,,,,,,,,,,,,,,,,,,,,,,,,,,,1228.0550219994038,None,1228.0550219994038,None,1228.3885967005044,None,1228.3885967005044,None,20,1228.3885967005044,None,return,5.410549798980355,1228.3885967005044,None,,,HERUN,F,001,2023_Apr_18_1242,untitled,2021.1.4,60.1304831620093,
9,0,36,0,9,45,45,1.0,0.0,1.0,1.0,0.0,None,,stimuli/P_09_00_36_00.png,,,,,0,213,213,76,,,,,,,,,,,,,,,,,,,,,,,,,,,1233.8209448996931,None,1233.8209448996931,None,1234.1717617008835,None,1234.1717617008835,None,25,1234.1717617008835,None,return,7.731126198545098,1234.1717617008835,None,,,HERUN,F,001,2023_Apr_18_1242,untitled,2021.1.4,60.1304831620093,
9,9,0,9,18,9,27,0.67,0.5,0.5,0.0,0.5,0.5,,stimuli/P_09_09_00_09.png,,,,,0,214,214,81,,,,,,,,,,,,,,,,,,,,,,,,,,,1241.9301149006933,None,1241.9301149006933,None,1242.2639045007527,None,1242.2639045007527,None,31,1242.2639045007527,None,return,4.271861899644136,1242.2639045007527,None,,,HERUN,F,001,2023_Apr_18_1242,untitled,2021.1.4,60.1304831620093,
36,0,36,36,36,72,108,1.0,0.0,1.0,0.5,0.5,1.0,,stimuli/P_36_00_36_36.png,,,,,0,215,215,207,,,,,,,,,,,,,,,,,,,,,,,,,,,1246.5494487006217,None,1246.5494487006217,None,1246.8817046005279,None,1246.8817046005279,None,35,1246.8817046005279,None,return,5.084069000557065,1246.8817046005279,None,,,HERUN,F,001,2023_Apr_18_1242,untitled,2021.1.4,60.1304831620093,
18,36,9,0,54,27,63,0.43,0.67,0.33,1.0,-0.67,#NAME?,,stimuli/P_18_36_09_00.png,,,,,0,216,216,180,,,,,,,,,,,,,,,,,,,,,,,,,,,1251.9950411003083,None,1251.9950411003083,None,1252.3515248000622,None,1252.3515248000622,None,26,1252.3515248000622,None,return,5.481527499854565,1252.3515248000622,None,,,HERUN,F,001,2023_Apr_18_1242,untitled,2021.1.4,60.1304831620093,
36,36,0,9,72,36,81,0.56,0.5,0.5,0.0,0.5,0.5,,stimuli/P_36_36_00_09.png,,,,,0,217,217,241,,,,,,,,,,,,,,,,,,,,,,,,,,,1257.8598244991153,None,1257.8598244991153,None,1258.1901412997395,None,1258.1901412997395,None,35,1258.1901412997395,None,return,5.449617899954319,1258.1901412997395,None,,,HERUN,F,001,2023_Apr_18_1242,untitled,2021.1.4,60.1304831620093,
0,36,18,18,36,18,72,0.5,1.0,0.0,0.5,-0.5,-1.0,,stimuli/P_00_36_18_18.png,,,,,0,218,218,58,,,,,,,,,,,,,,,,,,,,,,,,,,,1263.661406500265,None,1263.661406500265,None,1263.9966777004302,None,1263.9966777004302,None,0,1263.9966777004302,None,return,1.8896082993596792,1263.9966777004302,None,,,HERUN,F,001,2023_Apr_18_1242,untitled,2021.1.4,60.1304831620093,
9,18,0,36,27,9,63,0.71,0.67,0.33,0.0,0.33,0.33,,stimuli/P_09_18_00_36.png,,,,,0,219,219,99,,,,,,,,,,,,,,,,,,,,,,,,,,,1265.9095182009041,None,1265.9095182009041,None,1266.2455727998167,None,1266.2455727998167,None,24,1266.2455727998167,None,return,5.529238799586892,1266.2455727998167,None,,,HERUN,F,001,2023_Apr_18_1242,untitled,2021.1.4,60.1304831620093,
9,18,18,9,27,27,54,0.67,0.67,0.33,0.67,-0.33,-1.0,,stimuli/P_09_18_18_09.png,,,,,0,220,220,105,,,,,,,,,,,,,,,,,,,,,,,,,,,1271.792108900845,None,1271.792108900845,None,1272.1392390001565,None,1272.1392390001565,None,23,1272.1392390001565,None,return,5.041470300406218,1272.1392390001565,None,,,HERUN,F,001,2023_Apr_18_1242,untitled,2021.1.4,60.1304831620093,
0,36,36,0,36,36,72,0.5,1.0,0.0,1.0,-1.0,#NAME?,,stimuli/P_00_36_36_00.png,,,,,0,221,221,60,,,,,,,,,,,,,,,,,,,,,,,,,,,1277.1987292002887,None,1277.1987292002887,None,1277.5249604992568,None,1277.5249604992568,None,0,1277.5249604992568,None,return,1.8733891993761063,1277.5249604992568,None,,,HERUN,F,001,2023_Apr_18_1242,untitled,2021.1.4,60.1304831620093,
18,18,0,9,36,18,45,0.6,0.5,0.5,0.0,0.5,0.5,,stimuli/P_18_18_00_09.png,,,,,0,222,222,161,,,,,,,,,,,,,,,,,,,,,,,,,,,1279.4146509002894,None,1279.4146509002894,None,1279.7500905003399,None,1279.7500905003399,None,36,1279.7500905003399,None,return,7.202771099284291,1279.7500905003399,None,,,HERUN,F,001,2023_Apr_18_1242,untitled,2021.1.4,60.1304831620093,
0,0,18,9,0,18,27,1.0,None,None,0.67,None,None,,stimuli/P_00_00_18_09.png,,,,,0,223,223,9,,,,,,,,,,,,,,,,,,,,,,,,,,,1286.980803899467,None,1286.980803899467,None,1287.3192461002618,None,1287.3192461002618,None,0,1287.3192461002618,None,return,1.6751629989594221,1287.3192461002618,None,,,HERUN,F,001,2023_Apr_18_1242,untitled,2021.1.4,60.1304831620093,
0,9,36,0,9,36,45,0.8,1.0,0.0,1.0,-1.0,#NAME?,,stimuli/P_00_09_36_00.png,,,,,0,224,224,28,,,,,,,,,,,,,,,,,,,,,,,,,,,1289.0250231996179,None,1289.0250231996179,None,1289.3654443994164,None,1289.3654443994164,None,0,1289.3654443994164,None,return,1.69915989972651,1289.3654443994164,None,,,HERUN,F,001,2023_Apr_18_1242,untitled,2021.1.4,60.1304831620093,
36,0,18,36,36,54,90,1.0,0.0,1.0,0.33,0.67,1.0,,stimuli/P_36_00_18_36.png,,,,,0,225,225,203,,,,,,,,,,,,,,,,,,,,,,,,,,,1291.0825178995728,None,1291.0825178995728,None,1291.4247457999736,None,1291.4247457999736,None,40,1291.4247457999736,None,return,6.318480499088764,1291.4247457999736,None,,,HERUN,F,001,2023_Apr_18_1242,untitled,2021.1.4,60.1304831620093,
0,9,36,18,9,36,63,0.86,1.0,0.0,0.67,-0.67,-2.0,,stimuli/P_00_09_36_18.png,,,,,0,226,226,30,,,,,,,,,,,,,,,,,,,,,,,,,,,1297.7719791997224,None,1297.7719791997224,None,1298.1065843999386,None,1298.1065843999386,None,0,1298.1065843999386,None,return,1.6607529986649752,1298.1065843999386,None,,,HERUN,F,001,2023_Apr_18_1242,untitled,2021.1.4,60.1304831620093,
0,18,36,36,18,36,90,0.8,1.0,0.0,0.5,-0.5,-1.0,,stimuli/P_00_18_36_36.png,,,,,0,227,227,47,,,,,,,,,,,,,,,,,,,,,,,,,,,1299.7947282996029,None,1299.7947282996029,None,1300.1253817006946,None,1300.1253817006946,None,0,1300.1253817006946,None,return,1.7313209008425474,1300.1253817006946,None,,,HERUN,F,001,2023_Apr_18_1242,untitled,2021.1.4,60.1304831620093,
0,18,18,36,18,18,72,0.75,1.0,0.0,0.33,-0.33,-0.5,,stimuli/P_00_18_18_36.png,,,,,0,228,228,43,,,,,,,,,,,,,,,,,,,,,,,,,,,1301.8847090993077,None,1301.8847090993077,None,1302.233744200319,None,1302.233744200319,None,0,1302.233744200319,None,return,1.9361934997141361,1302.233744200319,None,,,HERUN,F,001,2023_Apr_18_1242,untitled,2021.1.4,60.1304831620093,
18,0,9,18,18,27,45,1.0,0.0,1.0,0.33,0.67,1.0,,stimuli/P_18_00_09_18.png,,,,,0,229,229,134,,,,,,,,,,,,,,,,,,,,,,,,,,,1304.1906400993466,None,1304.1906400993466,None,1304.531031800434,None,1304.531031800434,None,40,1304.531031800434,None,return,4.2138633988797665,1304.531031800434,None,,,HERUN,F,001,2023_Apr_18_1242,untitled,2021.1.4,60.1304831620093,
9,36,9,36,45,18,90,0.6,0.8,0.2,0.2,0.0,0.0,,stimuli/P_09_36_09_36.png,,,,,0,230,230,119,,,,,,,,,,,,,,,,,,,,,,,,,,,1308.7667779996991,None,1308.7667779996991,None,1309.094290100038,None,1309.094290100038,None,20,1309.094290100038,None,return,5.000567900016904,1309.094290100038,None,,,HERUN,F,001,2023_Apr_18_1242,untitled,2021.1.4,60.1304831620093,
0,9,18,0,9,18,27,0.67,1.0,0.0,1.0,-1.0,#NAME?,,stimuli/P_00_09_18_00.png,,,,,0,231,231,24,,,,,,,,,,,,,,,,,,,,,,,,,,,1314.122501000762,None,1314.122501000762,None,1314.4689351003617,None,1314.4689351003617,None,0,1314.4689351003617,None,return,1.6268985010683537,1314.4689351003617,None,,,HERUN,F,001,2023_Apr_18_1242,untitled,2021.1.4,60.1304831620093,
9,0,18,9,9,27,36,1.0,0.0,1.0,0.67,0.33,1.0,,stimuli/P_09_00_18_09.png,,,,,0,232,232,73,,,,,,,,,,,,,,,,,,,,,,,,,,,1316.1268851999193,None,1316.1268851999193,None,1316.4596443008631,None,1316.4596443008631,None,27,1316.4596443008631,None,return,7.201587000861764,1316.4596443008631,None,,,HERUN,F,001,2023_Apr_18_1242,untitled,2021.1.4,60.1304831620093,
0,18,36,18,18,36,72,0.75,1.0,0.0,0.67,-0.67,-2.0,,stimuli/P_00_18_36_18.png,,,,,0,233,233,46,,,,,,,,,,,,,,,,,,,,,,,,,,,1323.67260969989,None,1323.67260969989,None,1324.0155558995903,None,1324.0155558995903,None,0,1324.0155558995903,None,return,1.6659835986793041,1324.0155558995903,None,,,HERUN,F,001,2023_Apr_18_1242,untitled,2021.1.4,60.1304831620093,
18,9,18,9,27,36,54,0.83,0.33,0.67,0.67,0.0,0.0,,stimuli/P_18_09_18_09.png,,,,,0,234,234,153,,,,,,,,,,,,,,,,,,,,,,,,,,,1325.7038091998547,None,1325.7038091998547,None,1326.0500658005476,None,1326.0500658005476,None,28,1326.0500658005476,None,return,5.197322899475694,1326.0500658005476,None,,,HERUN,F,001,2023_Apr_18_1242,untitled,2021.1.4,60.1304831620093,
18,9,18,18,27,36,63,0.86,0.33,0.67,0.5,0.17,0.33,,stimuli/P_18_09_18_18.png,,,,,0,235,235,154,,,,,,,,,,,,,,,,,,,,,,,,,,,1331.2787958998233,None,1331.2787958998233,None,1331.6169115994126,None,1331.6169115994126,None,27,1331.6169115994126,None,return,4.953268699347973,1331.6169115994126,None,,,HERUN,F,001,2023_Apr_18_1242,untitled,2021.1.4,60.1304831620093,
18,18,9,18,36,27,63,0.71,0.5,0.5,0.33,0.17,0.25,,stimuli/P_18_18_09_18.png,,,,,0,236,236,166,,,,,,,,,,,,,,,,,,,,,,,,,,,1336.5868682991713,None,1336.5868682991713,None,1336.9297692999244,None,1336.9297692999244,None,27,1336.9297692999244,None,return,5.717841900885105,1336.9297692999244,None,,,HERUN,F,001,2023_Apr_18_1242,untitled,2021.1.4,60.1304831620093,
9,36,0,0,45,9,45,0.2,0.8,0.2,None,None,None,,stimuli/P_09_36_00_00.png,,,,,0,237,237,112,,,,,,,,,,,,,,,,,,,,,,,,,,,1342.6805524006486,None,1342.6805524006486,None,1343.004229299724,None,1343.004229299724,None,30,1343.004229299724,None,return,3.791608801111579,1343.004229299724,None,,,HERUN,F,001,2023_Apr_18_1242,untitled,2021.1.4,60.1304831620093,
18,9,9,9,27,27,45,0.8,0.33,0.67,0.5,0.17,0.33,,stimuli/P_18_09_09_09.png,,,,,0,238,238,149,,,,,,,,,,,,,,,,,,,,,,,,,,,1346.8133438006043,None,1346.8133438006043,None,1347.1474741008133,None,1347.1474741008133,None,27,1347.1474741008133,None,return,5.656261200085282,1347.1474741008133,None,,,HERUN,F,001,2023_Apr_18_1242,untitled,2021.1.4,60.1304831620093,
0,0,18,36,0,18,54,1.0,None,None,0.33,None,None,,stimuli/P_00_00_18_36.png,,,,,0,239,239,11,,,,,,,,,,,,,,,,,,,,,,,,,,,1352.8307163007557,None,1352.8307163007557,None,1353.1666285991669,None,1353.1666285991669,None,0,1353.1666285991669,None,return,1.5340366996824741,1353.1666285991669,None,,,HERUN,F,001,2023_Apr_18_1242,untitled,2021.1.4,60.1304831620093,
18,0,18,9,18,36,45,1.0,0.0,1.0,0.67,0.33,1.0,,stimuli/P_18_00_18_09.png,,,,,0,240,240,137,,,,,,,,,,,,,,,,,,,,,,,,,,,1354.713607000187,None,1354.713607000187,None,1355.0605935007334,None,1355.0605935007334,None,36,1355.0605935007334,None,return,7.905832599848509,1355.0605935007334,None,,,HERUN,F,001,2023_Apr_18_1242,untitled,2021.1.4,60.1304831620093,
9,0,9,36,9,18,54,1.0,0.0,1.0,0.2,0.8,1.0,,stimuli/P_09_00_09_36.png,,,,,0,241,241,71,,,,,,,,,,,,,,,,,,,,,,,,,,,1362.9907597005367,None,1362.9907597005367,None,1363.326166300103,None,1363.326166300103,None,25,1363.326166300103,None,return,3.4578756000846624,1363.326166300103,None,,,HERUN,F,001,2023_Apr_18_1242,untitled,2021.1.4,60.1304831620093,
36,18,36,36,54,72,126,0.86,0.33,0.67,0.5,0.17,0.33,,stimuli/P_36_18_36_36.png,,,,,0,242,242,239,,,,,,,,,,,,,,,,,,,,,,,,,,,1366.8058892991394,None,1366.8058892991394,None,1367.1430718004704,None,1367.1430718004704,None,37,1367.1430718004704,None,return,5.467657400295138,1367.1430718004704,None,,,HERUN,F,001,2023_Apr_18_1242,untitled,2021.1.4,60.1304831620093,
9,9,9,36,18,18,63,0.86,0.5,0.5,0.2,0.3,0.37,,stimuli/P_09_09_09_36.png,,,,,0,243,243,87,,,,,,,,,,,,,,,,,,,,,,,,,,,1372.6300098001957,None,1372.6300098001957,None,1372.969241099432,None,1372.969241099432,None,18,1372.969241099432,None,return,6.544139299541712,1372.969241099432,None,,,HERUN,F,001,2023_Apr_18_1242,untitled,2021.1.4,60.1304831620093,
9,36,9,9,45,18,63,0.43,0.8,0.2,0.5,-0.3,-0.6,,stimuli/P_09_36_09_09.png,,,,,0,244,244,117,,,,,,,,,,,,,,,,,,,,,,,,,,,1379.52945430018,None,1379.52945430018,None,1379.8571086991578,None,1379.8571086991578,None,18,1379.8571086991578,None,return,4.494799200445414,1379.8571086991578,None,,,HERUN,F,001,2023_Apr_18_1242,untitled,2021.1.4,60.1304831620093,
0,36,0,18,36,0,54,0.33,1.0,0.0,0.0,0.0,0.0,,stimuli/P_00_36_00_18.png,,,,,0,245,245,50,,,,,,,,,,,,,,,,,,,,,,,,,,,1384.3699773997068,None,1384.3699773997068,None,1384.6968910004944,None,1384.6968910004944,None,0,1384.6968910004944,None,return,1.3386482000350952,1384.6968910004944,None,,,HERUN,F,001,2023_Apr_18_1242,untitled,2021.1.4,60.1304831620093,
0,36,0,0,36,0,36,0.0,1.0,0.0,None,None,None,,stimuli/P_00_36_00_00.png,,,,,0,246,246,48,,,,,,,,,,,,,,,,,,,,,,,,,,,1386.0532057993114,None,1386.0532057993114,None,1386.3987157996744,None,1386.3987157996744,None,0,1386.3987157996744,None,return,1.7837425991892815,1386.3987157996744,None,,,HERUN,F,001,2023_Apr_18_1242,untitled,2021.1.4,60.1304831620093,
0,9,0,9,9,0,18,0.5,1.0,0.0,0.0,0.0,0.0,,stimuli/P_00_09_00_09.png,,,,,0,247,247,17,,,,,,,,,,,,,,,,,,,,,,,,,,,1388.2035424001515,None,1388.2035424001515,None,1388.546462200582,None,1388.546462200582,None,0,1388.546462200582,None,return,2.2263025995343924,1388.546462200582,None,,,HERUN,F,001,2023_Apr_18_1242,untitled,2021.1.4,60.1304831620093,
36,9,18,18,45,54,81,0.89,0.2,0.8,0.5,0.3,0.6,,stimuli/P_36_09_18_18.png,,,,,0,248,248,218,,,,,,,,,,,,,,,,,,,,,,,,,,,1390.788842599839,None,1390.788842599839,None,1391.1292154993862,None,1391.1292154993862,None,36,1391.1292154993862,None,return,6.331398101523519,1391.1292154993862,None,,,HERUN,F,001,2023_Apr_18_1242,untitled,2021.1.4,60.1304831620093,
36,18,0,18,54,36,72,0.75,0.33,0.67,0.0,0.67,0.67,,stimuli/P_36_18_00_18.png,,,,,0,249,249,226,,,,,,,,,,,,,,,,,,,,,,,,,,,1397.49128369987,None,1397.49128369987,None,1397.8204319998622,None,1397.8204319998622,None,45,1397.8204319998622,None,return,7.550050400197506,1397.8204319998622,None,,,HERUN,F,001,2023_Apr_18_1242,untitled,2021.1.4,60.1304831620093,
18,36,0,18,54,18,72,0.5,0.67,0.33,0.0,0.33,0.33,,stimuli/P_18_36_00_18.png,,,,,0,250,250,178,,,,,,,,,,,,,,,,,,,,,,,,,,,1405.389664400369,None,1405.389664400369,None,1405.7196098994464,None,1405.7196098994464,None,24,1405.7196098994464,None,return,5.651399001479149,1405.7196098994464,None,,,HERUN,F,001,2023_Apr_18_1242,untitled,2021.1.4,60.1304831620093,
0,18,9,18,18,9,45,0.6,1.0,0.0,0.33,-0.33,-0.5,,stimuli/P_00_18_09_18.png,,,,,0,251,251,38,,,,,,,,,,,,,,,,,,,,,,,,,,,1411.3885292001069,None,1411.3885292001069,None,1411.747858600691,None,1411.747858600691,None,0,1411.747858600691,None,return,1.7803686000406742,1411.747858600691,None,,,HERUN,F,001,2023_Apr_18_1242,untitled,2021.1.4,60.1304831620093,
0,36,9,18,36,9,63,0.43,1.0,0.0,0.33,-0.33,-0.5,,stimuli/P_00_36_09_18.png,,,,,0,252,252,54,,,,,,,,,,,,,,,,,,,,,,,,,,,1413.5545134991407,None,1413.5545134991407,None,1413.8941447995603,None,1413.8941447995603,None,0,1413.8941447995603,None,return,1.437447801232338,1413.8941447995603,None,,,HERUN,F,001,2023_Apr_18_1242,untitled,2021.1.4,60.1304831620093,
36,18,9,18,54,45,81,0.78,0.33,0.67,0.33,0.33,0.5,,stimuli/P_36_18_09_18.png,,,,,0,253,253,230,,,,,,,,,,,,,,,,,,,,,,,,,,,1415.3557040002197,None,1415.3557040002197,None,1415.6810443997383,None,1415.6810443997383,None,40,1415.6810443997383,None,return,5.523531898856163,1415.6810443997383,None,,,HERUN,F,001,2023_Apr_18_1242,untitled,2021.1.4,60.1304831620093,
9,0,0,36,9,9,45,1.0,0.0,1.0,0.0,1.0,1.0,,stimuli/P_09_00_00_36.png,,,,,0,254,254,67,,,,,,,,,,,,,,,,,,,,,,,,,,,1421.2207001000643,None,1421.2207001000643,None,1421.5633953996003,None,1421.5633953996003,None,30,1421.5633953996003,None,return,5.21110069938004,1421.5633953996003,None,,,HERUN,F,001,2023_Apr_18_1242,untitled,2021.1.4,60.1304831620093,
0,9,0,0,9,0,9,0.0,1.0,0.0,None,None,None,,stimuli/P_00_09_00_00.png,,,,,0,255,255,16,,,,,,,,,,,,,,,,,,,,,,,,,,,1426.7847626004368,None,1426.7847626004368,None,1427.1148767005652,None,1427.1148767005652,None,0,1427.1148767005652,None,return,1.3734065014868975,1427.1148767005652,None,,,HERUN,F,001,2023_Apr_18_1242,untitled,2021.1.4,60.1304831620093,
,,,,,,,,,,,,,,,,,,,,,,,,,,,,,,,,,,,,,,,,,,,,,,,,,,,,,,,,,,,,,,,,1428.5180494002998,None,,,,,,,,
