A1C1,A1C0,A0C1,A0C0,A1,C1,Total,MI,C0GvA1,C1GvA1,C1GvA0,dltP,dltPp,Image_practice,Image,trials_2.thisRepN,trials_2.thisTrialN,trials_2.thisN,trials_2.thisIndex,trials.thisRepN,trials.thisTrialN,trials.thisN,trials.thisIndex,image.started,image.stopped,key_resp.keys,key_resp.rt,key_resp.started,key_resp.stopped,betweenTrial.started,betweenTrial.stopped,ISI.started,ISI.stopped,image_card.started,image_card.stopped,textbox.text,textbox.started,textbox.stopped,key_resp_3.keys,key_resp_3.rt,key_resp_3.started,key_resp_3.stopped,text_2.started,text_2.stopped,key_resp_2.keys,key_resp_2.rt,key_resp_2.started,key_resp_2.stopped,image_endPractice.started,image_endPractice.stopped,polygon_2.started,polygon_2.stopped,ISI_2.started,ISI_2.stopped,Cards.started,Cards.stopped,TextNote.started,TextNote.stopped,Estimation.text,Estimation.started,Estimation.stopped,key_resp_4.keys,key_resp_4.rt,key_resp_4.started,key_resp_4.stopped,text.started,text.stopped,participant,gender,session,date,expName,psychopyVersion,frameRate,
,,,,,,,,,,,,,,,,,,,,,,,1099.1360520146336,None,space,110.82675859149458,1099.1360520146336,None,,,,,,,,,,,,,,,,,,,,,,,,,,,,,,,,,,,,,,,HESHIYU,M,002,2023_Apr_19_0902,untitled,2021.1.4,60.35409442173986,
0,0,0,9,0,0,9,1.0,None,None,0.0,None,None,practice_stimuli/P_00_00_00_09.png,,0,0,0,0,,,,,,,,,,,1210.0627296532693,None,1210.0627296532693,None,1210.6305312339828,None,0,1210.6305312339828,None,return,4.773733611029456,1210.6305312339828,None,1210.6305312339828,None,,,,,,,,,,,,,,,,,,,,,,,,HESHIYU,M,002,2023_Apr_19_0902,untitled,2021.1.4,60.35409442173986,
18,0,36,0,18,54,54,1.0,0.0,1.0,1.0,0.0,None,practice_stimuli/P_18_00_36_00.png,,0,1,1,1,,,,,,,,,,,1215.4787989393662,None,1215.4787989393662,None,1215.8824670200993,None,50,1215.8824670200993,None,return,5.5897914055676665,1215.8824670200993,None,1215.8824670200993,None,,,,,,,,,,,,,,,,,,,,,,,,HESHIYU,M,002,2023_Apr_19_0902,untitled,2021.1.4,60.35409442173986,
9,18,18,0,27,27,45,0.6,0.67,0.33,1.0,-0.67,#NAME?,practice_stimuli/P_09_18_18_00.png,,0,2,2,2,,,,,,,,,,,1221.5087304508488,None,1221.5087304508488,None,1221.9073723996844,None,20,1221.9073723996844,None,return,4.616567291290266,1221.9073723996844,None,1221.9073723996844,None,,,,,,,,,,,,,,,,,,,,,,,,HESHIYU,M,002,2023_Apr_19_0902,untitled,2021.1.4,60.35409442173986,
36,18,18,36,54,54,108,0.83,0.33,0.67,0.33,0.33,0.5,practice_stimuli/P_36_18_18_36.png,,0,3,3,3,,,,,,,,,,,1226.555387290915,None,1226.555387290915,None,1226.952822057865,None,70,1226.952822057865,None,return,4.255009491906094,1226.952822057865,None,1226.952822057865,None,,,,,,,,,,,,,,,,,,,,,,,,HESHIYU,M,002,2023_Apr_19_0902,untitled,2021.1.4,60.35409442173986,
,,,,,,,,,,,,,,,,,,,,,,,,,,,,,,,,,,,,,,,,,,,,space,27.74335210856225,1231.2469198942126,None,,,,,,,,,,,,,,,,,,,,HESHIYU,M,002,2023_Apr_19_0902,untitled,2021.1.4,60.35409442173986,
0,18,36,18,18,36,72,0.75,1.0,0.0,0.67,-0.67,-2.0,,stimuli/P_00_18_36_18.png,,,,,0,0,0,46,,,,,,,,,,,,,,,,,,,,,,,,,,1231.2469198942126,None,1265.7663642264597,None,1265.7663642264597,None,1266.3574020672313,None,1266.3574020672313,None,0,1266.3574020672313,None,return,2.965178321013809,1266.3574020672313,None,,,HESHIYU,M,002,2023_Apr_19_0902,untitled,2021.1.4,60.35409442173986,
9,9,0,0,18,9,18,0.5,0.5,0.5,None,None,None,,stimuli/P_09_09_00_00.png,,,,,0,1,1,80,,,,,,,,,,,,,,,,,,,,,,,,,,,,1269.339470125662,None,1269.339470125662,None,1269.7450491036288,None,1269.7450491036288,None,50,1269.7450491036288,None,return,6.455776012582646,1269.7450491036288,None,,,HESHIYU,M,002,2023_Apr_19_0902,untitled,2021.1.4,60.35409442173986,
9,36,36,18,45,45,99,0.64,0.8,0.2,0.67,-0.47,-1.4,,stimuli/P_09_36_36_18.png,,,,,0,2,2,126,,,,,,,,,,,,,,,,,,,,,,,,,,,,1276.2266691621917,None,1276.2266691621917,None,1276.6216030943033,None,1276.6216030943033,None,10,1276.6216030943033,None,return,5.3021368029440055,1276.6216030943033,None,,,HESHIYU,M,002,2023_Apr_19_0902,untitled,2021.1.4,60.35409442173986,
0,0,18,36,0,18,54,1.0,None,None,0.33,None,None,,stimuli/P_00_00_18_36.png,,,,,0,3,3,11,,,,,,,,,,,,,,,,,,,,,,,,,,,,1281.952691782346,None,1281.952691782346,None,1282.3544398636295,None,1282.3544398636295,None,0,1282.3544398636295,None,return,2.5171409017857513,1282.3544398636295,None,,,HESHIYU,M,002,2023_Apr_19_0902,untitled,2021.1.4,60.35409442173986,
0,18,18,9,18,18,45,0.6,1.0,0.0,0.67,-0.67,-2.0,,stimuli/P_00_18_18_09.png,,,,,0,4,4,41,,,,,,,,,,,,,,,,,,,,,,,,,,,,1284.8953807942016,None,1284.8953807942016,None,1285.2916174814964,None,1285.2916174814964,None,0,1285.2916174814964,None,return,2.0265420724463183,1285.2916174814964,None,,,HESHIYU,M,002,2023_Apr_19_0902,untitled,2021.1.4,60.35409442173986,
36,18,18,18,54,54,90,0.8,0.33,0.67,0.5,0.17,0.33,,stimuli/P_36_18_18_18.png,,,,,0,5,5,234,,,,,,,,,,,,,,,,,,,,,,,,,,,,1287.3524129130892,None,1287.3524129130892,None,1287.7481939205172,None,1287.7481939205172,None,40,1287.7481939205172,None,return,4.018473523632565,1287.7481939205172,None,,,HESHIYU,M,002,2023_Apr_19_0902,untitled,2021.1.4,60.35409442173986,
9,0,0,36,9,9,45,1.0,0.0,1.0,0.0,1.0,1.0,,stimuli/P_09_00_00_36.png,,,,,0,6,6,67,,,,,,,,,,,,,,,,,,,,,,,,,,,,1291.7891624421973,None,1291.7891624421973,None,1292.185713156061,None,1292.185713156061,None,8,1292.185713156061,None,return,5.116206331396825,1292.185713156061,None,,,HESHIYU,M,002,2023_Apr_19_0902,untitled,2021.1.4,60.35409442173986,
0,9,36,18,9,36,63,0.86,1.0,0.0,0.67,-0.67,-2.0,,stimuli/P_00_09_36_18.png,,,,,0,7,7,30,,,,,,,,,,,,,,,,,,,,,,,,,,,,1297.3349776113828,None,1297.3349776113828,None,1297.7297124324396,None,1297.7297124324396,None,0,1297.7297124324396,None,return,2.99362730847497,1297.7297124324396,None,,,HESHIYU,M,002,2023_Apr_19_0902,untitled,2021.1.4,60.35409442173986,
36,36,18,36,72,54,126,0.71,0.5,0.5,0.33,0.17,0.25,,stimuli/P_36_36_18_36.png,,,,,0,8,8,251,,,,,,,,,,,,,,,,,,,,,,,,,,,,1300.746835414233,None,1300.746835414233,None,1301.1420060040546,None,1301.1420060040546,None,35,1301.1420060040546,None,return,4.814355110582255,1301.1420060040546,None,,,HESHIYU,M,002,2023_Apr_19_0902,untitled,2021.1.4,60.35409442173986,
36,18,0,9,54,36,63,0.71,0.33,0.67,0.0,0.67,0.67,,stimuli/P_36_18_00_09.png,,,,,0,9,9,225,,,,,,,,,,,,,,,,,,,,,,,,,,,,1305.980417712235,None,1305.980417712235,None,1306.3761554841185,None,1306.3761554841185,None,60,1306.3761554841185,None,return,4.5547859755315585,1306.3761554841185,None,,,HESHIYU,M,002,2023_Apr_19_0902,untitled,2021.1.4,60.35409442173986,
9,36,18,0,45,27,63,0.43,0.8,0.2,1.0,-0.8,#NAME?,,stimuli/P_09_36_18_00.png,,,,,0,10,10,120,,,,,,,,,,,,,,,,,,,,,,,,,,,,1310.9675852892178,None,1310.9675852892178,None,1311.3711794144183,None,1311.3711794144183,None,25,1311.3711794144183,None,return,5.0565725705746445,1311.3711794144183,None,,,HESHIYU,M,002,2023_Apr_19_0902,untitled,2021.1.4,60.35409442173986,
9,9,0,9,18,9,27,0.67,0.5,0.5,0.0,0.5,0.5,,stimuli/P_09_09_00_09.png,,,,,0,11,11,81,,,,,,,,,,,,,,,,,,,,,,,,,,,,1316.461086019961,None,1316.461086019961,None,1316.855821409903,None,1316.855821409903,None,33,1316.855821409903,None,return,3.309955609613098,1316.855821409903,None,,,HESHIYU,M,002,2023_Apr_19_0902,untitled,2021.1.4,60.35409442173986,
18,36,36,9,54,54,99,0.64,0.67,0.33,0.8,-0.47,-2.33,,stimuli/P_18_36_36_09.png,,,,,0,12,12,189,,,,,,,,,,,,,,,,,,,,,,,,,,,,1320.1856005160953,None,1320.1856005160953,None,1320.583390838503,None,1320.583390838503,None,23,1320.583390838503,None,return,5.245307094664895,1320.583390838503,None,,,HESHIYU,M,002,2023_Apr_19_0902,untitled,2021.1.4,60.35409442173986,
9,18,18,9,27,27,54,0.67,0.67,0.33,0.67,-0.33,-1.0,,stimuli/P_09_18_18_09.png,,,,,0,13,13,105,,,,,,,,,,,,,,,,,,,,,,,,,,,,1325.8423535381735,None,1325.8423535381735,None,1326.2378859412274,None,1326.2378859412274,None,20,1326.2378859412274,None,return,6.231834102945868,1326.2378859412274,None,,,HESHIYU,M,002,2023_Apr_19_0902,untitled,2021.1.4,60.35409442173986,
9,18,9,0,27,18,36,0.5,0.67,0.33,1.0,-0.67,#NAME?,,stimuli/P_09_18_09_00.png,,,,,0,14,14,100,,,,,,,,,,,,,,,,,,,,,,,,,,,,1332.4937715217748,None,1332.4937715217748,None,1332.8921603151175,None,1332.8921603151175,None,27,1332.8921603151175,None,return,6.809187325387029,1332.8921603151175,None,,,HESHIYU,M,002,2023_Apr_19_0902,untitled,2021.1.4,60.35409442173986,
9,36,9,0,45,18,54,0.33,0.8,0.2,1.0,-0.8,#NAME?,,stimuli/P_09_36_09_00.png,,,,,0,15,15,116,,,,,,,,,,,,,,,,,,,,,,,,,,,,1339.7355424041161,None,1339.7355424041161,None,1340.130866593885,None,1340.130866593885,None,15,1340.130866593885,None,return,5.140556475576886,1340.130866593885,None,,,HESHIYU,M,002,2023_Apr_19_0902,untitled,2021.1.4,60.35409442173986,
18,9,18,36,27,36,81,0.89,0.33,0.67,0.33,0.33,0.5,,stimuli/P_18_09_18_36.png,,,,,0,16,16,155,,,,,,,,,,,,,,,,,,,,,,,,,,,,1345.2851998477636,None,1345.2851998477636,None,1345.6801923754101,None,1345.6801923754101,None,45,1345.6801923754101,None,return,6.64226627064636,1345.6801923754101,None,,,HESHIYU,M,002,2023_Apr_19_0902,untitled,2021.1.4,60.35409442173986,
9,9,0,36,18,9,54,0.83,0.5,0.5,0.0,0.5,0.5,,stimuli/P_09_09_00_36.png,,,,,0,17,17,83,,,,,,,,,,,,,,,,,,,,,,,,,,,,1352.341628489492,None,1352.341628489492,None,1352.7379914700796,None,1352.7379914700796,None,15,1352.7379914700796,None,return,6.56339212419698,1352.7379914700796,None,,,HESHIYU,M,002,2023_Apr_19_0902,untitled,2021.1.4,60.35409442173986,
0,9,0,36,9,0,45,0.8,1.0,0.0,0.0,0.0,0.0,,stimuli/P_00_09_00_36.png,,,,,0,18,18,19,,,,,,,,,,,,,,,,,,,,,,,,,,,,1359.3258645828682,None,1359.3258645828682,None,1359.7168333605441,None,1359.7168333605441,None,0,1359.7168333605441,None,return,2.7576016333914595,1359.7168333605441,None,,,HESHIYU,M,002,2023_Apr_19_0902,untitled,2021.1.4,60.35409442173986,
9,9,18,36,18,27,72,0.88,0.5,0.5,0.33,0.17,0.25,,stimuli/P_09_09_18_36.png,,,,,0,19,19,91,,,,,,,,,,,,,,,,,,,,,,,,,,,,1362.494848428134,None,1362.494848428134,None,1362.8917842796727,None,1362.8917842796727,None,8,1362.8917842796727,None,return,7.861962563707493,1362.8917842796727,None,,,HESHIYU,M,002,2023_Apr_19_0902,untitled,2021.1.4,60.35409442173986,
0,18,36,0,18,36,54,0.67,1.0,0.0,1.0,-1.0,#NAME?,,stimuli/P_00_18_36_00.png,,,,,0,20,20,44,,,,,,,,,,,,,,,,,,,,,,,,,,,,1370.7767094679584,None,1370.7767094679584,None,1371.1740668660423,None,1371.1740668660423,None,0,1371.1740668660423,None,return,1.888814111625834,1371.1740668660423,None,,,HESHIYU,M,002,2023_Apr_19_0902,untitled,2021.1.4,60.35409442173986,
9,18,0,18,27,9,45,0.6,0.67,0.33,0.0,0.33,0.33,,stimuli/P_09_18_00_18.png,,,,,0,21,21,98,,,,,,,,,,,,,,,,,,,,,,,,,,,,1373.0870667130148,None,1373.0870667130148,None,1373.4827413382445,None,1373.4827413382445,None,24,1373.4827413382445,None,return,6.044248734076973,1373.4827413382445,None,,,HESHIYU,M,002,2023_Apr_19_0902,untitled,2021.1.4,60.35409442173986,
18,0,18,9,18,36,45,1.0,0.0,1.0,0.67,0.33,1.0,,stimuli/P_18_00_18_09.png,,,,,0,22,22,137,,,,,,,,,,,,,,,,,,,,,,,,,,,,1379.548181177408,None,1379.548181177408,None,1379.94313046951,None,1379.94313046951,None,1,1379.94313046951,None,None,,1379.94313046951,None,,,HESHIYU,M,002,2023_Apr_19_0902,untitled,2021.1.4,60.35409442173986,
9,9,9,18,18,18,45,0.8,0.5,0.5,0.33,0.17,0.25,,stimuli/P_09_09_09_18.png,,,,,0,23,23,86,,,,,,,,,,,,,,,,,,,,,,,,,,,,1387.943046842869,None,1387.943046842869,None,1388.3413645251203,None,1388.3413645251203,None,20,1388.3413645251203,None,return,4.848176683182828,1388.3413645251203,None,,,HESHIYU,M,002,2023_Apr_19_0902,untitled,2021.1.4,60.35409442173986,
36,0,0,36,36,36,72,1.0,0.0,1.0,0.0,1.0,1.0,,stimuli/P_36_00_00_36.png,,,,,0,24,24,195,,,,,,,,,,,,,,,,,,,,,,,,,,,,1393.220207724029,None,1393.220207724029,None,1393.6187273617834,None,1393.6187273617834,None,50,1393.6187273617834,None,return,2.87343932488875,1393.6187273617834,None,,,HESHIYU,M,002,2023_Apr_19_0902,untitled,2021.1.4,60.35409442173986,
36,9,0,18,45,36,63,0.86,0.2,0.8,0.0,0.8,0.8,,stimuli/P_36_09_00_18.png,,,,,0,25,25,210,,,,,,,,,,,,,,,,,,,,,,,,,,,,1396.522931620144,None,1396.522931620144,None,1396.9166202548295,None,1396.9166202548295,None,50,1396.9166202548295,None,return,4.120868374506244,1396.9166202548295,None,,,HESHIYU,M,002,2023_Apr_19_0902,untitled,2021.1.4,60.35409442173986,
9,36,36,36,45,45,117,0.69,0.8,0.2,0.5,-0.3,-0.6,,stimuli/P_09_36_36_36.png,,,,,0,26,26,127,,,,,,,,,,,,,,,,,,,,,,,,,,,,1401.0559627218609,None,1401.0559627218609,None,1401.454491461831,None,1401.454491461831,None,3,1401.454491461831,None,return,5.031238248891896,1401.454491461831,None,,,HESHIYU,M,002,2023_Apr_19_0902,untitled,2021.1.4,60.35409442173986,
18,36,0,18,54,18,72,0.5,0.67,0.33,0.0,0.33,0.33,,stimuli/P_18_36_00_18.png,,,,,0,27,27,178,,,,,,,,,,,,,,,,,,,,,,,,,,,,1406.4989831113999,None,1406.4989831113999,None,1406.8966323494024,None,1406.8966323494024,None,24,1406.8966323494024,None,return,5.688024835406395,1406.8966323494024,None,,,HESHIYU,M,002,2023_Apr_19_0902,untitled,2021.1.4,60.35409442173986,
18,36,36,18,54,54,108,0.67,0.67,0.33,0.67,-0.33,-1.0,,stimuli/P_18_36_36_18.png,,,,,0,28,28,190,,,,,,,,,,,,,,,,,,,,,,,,,,,,1412.6137239854288,None,1412.6137239854288,None,1413.0148007780153,None,1413.0148007780153,None,15,1413.0148007780153,None,return,5.2325827605091035,1413.0148007780153,None,,,HESHIYU,M,002,2023_Apr_19_0902,untitled,2021.1.4,60.35409442173986,
18,18,36,18,36,54,90,0.8,0.5,0.5,0.67,-0.17,-0.5,,stimuli/P_18_18_36_18.png,,,,,0,29,29,174,,,,,,,,,,,,,,,,,,,,,,,,,,,,1418.2730489534442,None,1418.2730489534442,None,1418.6695416406656,None,1418.6695416406656,None,25,1418.6695416406656,None,return,7.668418654313427,1418.6695416406656,None,,,HESHIYU,M,002,2023_Apr_19_0902,untitled,2021.1.4,60.35409442173986,
0,0,36,36,0,36,72,1.0,None,None,0.5,None,None,,stimuli/P_00_00_36_36.png,,,,,0,30,30,15,,,,,,,,,,,,,,,,,,,,,,,,,,,,1426.3718336364545,None,1426.3718336364545,None,1426.7684509103055,None,1426.7684509103055,None,0,1426.7684509103055,None,return,1.9890056564618135,1426.7684509103055,None,,,HESHIYU,M,002,2023_Apr_19_0902,untitled,2021.1.4,60.35409442173986,
36,0,0,0,36,36,36,1.0,0.0,1.0,None,None,None,,stimuli/P_36_00_00_00.png,,,,,0,31,31,192,,,,,,,,,,,,,,,,,,,,,,,,,,,,1428.7872543894046,None,1428.7872543894046,None,1429.1832737612058,None,1429.1832737612058,None,100,1429.1832737612058,None,return,2.7413416557974415,1429.1832737612058,None,,,HESHIYU,M,002,2023_Apr_19_0902,untitled,2021.1.4,60.35409442173986,
36,18,18,0,54,54,72,0.75,0.33,0.67,1.0,-0.33,#NAME?,,stimuli/P_36_18_18_00.png,,,,,0,32,32,232,,,,,,,,,,,,,,,,,,,,,,,,,,,,1431.939023661791,None,1431.939023661791,None,1432.3378846327832,None,1432.3378846327832,None,48,1432.3378846327832,None,return,4.092342018171621,1432.3378846327832,None,,,HESHIYU,M,002,2023_Apr_19_0902,untitled,2021.1.4,60.35409442173986,
18,9,18,18,27,36,63,0.86,0.33,0.67,0.5,0.17,0.33,,stimuli/P_18_09_18_18.png,,,,,0,33,33,154,,,,,,,,,,,,,,,,,,,,,,,,,,,,1436.454538110709,None,1436.454538110709,None,1436.8483837586828,None,1436.8483837586828,None,52,1436.8483837586828,None,return,6.651591494657623,1436.8483837586828,None,,,HESHIYU,M,002,2023_Apr_19_0902,untitled,2021.1.4,60.35409442173986,
0,36,0,36,36,0,72,0.5,1.0,0.0,0.0,0.0,0.0,,stimuli/P_00_36_00_36.png,,,,,0,34,34,51,,,,,,,,,,,,,,,,,,,,,,,,,,,,1443.5144164936792,None,1443.5144164936792,None,1443.9054671913327,None,1443.9054671913327,None,0,1443.9054671913327,None,return,2.188357350867591,1443.9054671913327,None,,,HESHIYU,M,002,2023_Apr_19_0902,untitled,2021.1.4,60.35409442173986,
36,18,36,18,54,72,108,0.83,0.33,0.67,0.67,0.0,0.0,,stimuli/P_36_18_36_18.png,,,,,0,35,35,238,,,,,,,,,,,,,,,,,,,,,,,,,,,,1446.1180671664188,None,1446.1180671664188,None,1446.5129231607716,None,1446.5129231607716,None,40,1446.5129231607716,None,return,5.878616212306952,1446.5129231607716,None,,,HESHIYU,M,002,2023_Apr_19_0902,untitled,2021.1.4,60.35409442173986,
9,9,36,9,18,45,63,0.86,0.5,0.5,0.8,-0.3,-1.5,,stimuli/P_09_09_36_09.png,,,,,0,36,36,93,,,,,,,,,,,,,,,,,,,,,,,,,,,,1452.4108241320355,None,1452.4108241320355,None,1452.8038027935836,None,1452.8038027935836,None,8,1452.8038027935836,None,return,5.924970972453593,1452.8038027935836,None,,,HESHIYU,M,002,2023_Apr_19_0902,untitled,2021.1.4,60.35409442173986,
0,36,36,0,36,36,72,0.5,1.0,0.0,1.0,-1.0,#NAME?,,stimuli/P_00_36_36_00.png,,,,,0,37,37,60,,,,,,,,,,,,,,,,,,,,,,,,,,,,1458.7673905017218,None,1458.7673905017218,None,1459.1600568433641,None,1459.1600568433641,None,0,1459.1600568433641,None,return,1.7125382506565074,1459.1600568433641,None,,,HESHIYU,M,002,2023_Apr_19_0902,untitled,2021.1.4,60.35409442173986,
0,0,9,36,0,9,45,1.0,None,None,0.2,None,None,,stimuli/P_00_00_09_36.png,,,,,0,38,38,7,,,,,,,,,,,,,,,,,,,,,,,,,,,,1460.8987565799107,None,1460.8987565799107,None,1461.2887997756334,None,1461.2887997756334,None,0,1461.2887997756334,None,return,1.6040881481676479,1461.2887997756334,None,,,HESHIYU,M,002,2023_Apr_19_0902,untitled,2021.1.4,60.35409442173986,
36,36,36,18,72,72,126,0.71,0.5,0.5,0.67,-0.17,-0.5,,stimuli/P_36_36_36_18.png,,,,,0,39,39,254,,,,,,,,,,,,,,,,,,,,,,,,,,,,1462.9107009676227,None,1462.9107009676227,None,1463.3074843569848,None,1463.3074843569848,None,28,1463.3074843569848,None,return,5.354925694598933,1463.3074843569848,None,,,HESHIYU,M,002,2023_Apr_19_0902,untitled,2021.1.4,60.35409442173986,
18,36,9,9,54,27,72,0.5,0.67,0.33,0.5,-0.17,-0.33,,stimuli/P_18_36_09_09.png,,,,,0,40,40,181,,,,,,,,,,,,,,,,,,,,,,,,,,,,1468.6922311986564,None,1468.6922311986564,None,1469.0892432812834,None,1469.0892432812834,None,45,1469.0892432812834,None,return,6.538902033382328,1469.0892432812834,None,,,HESHIYU,M,002,2023_Apr_19_0902,untitled,2021.1.4,60.35409442173986,
36,9,0,9,45,36,54,0.83,0.2,0.8,0.0,0.8,0.8,,stimuli/P_36_09_00_09.png,,,,,0,41,41,209,,,,,,,,,,,,,,,,,,,,,,,,,,,,1475.64928465087,None,1475.64928465087,None,1476.0433163254565,None,1476.0433163254565,None,70,1476.0433163254565,None,return,4.110911115116323,1476.0433163254565,None,,,HESHIYU,M,002,2023_Apr_19_0902,untitled,2021.1.4,60.35409442173986,
9,36,9,9,45,18,63,0.43,0.8,0.2,0.5,-0.3,-0.6,,stimuli/P_09_36_09_09.png,,,,,0,42,42,117,,,,,,,,,,,,,,,,,,,,,,,,,,,,1480.1876542044047,None,1480.1876542044047,None,1480.5836496828706,None,1480.5836496828706,None,30,1480.5836496828706,None,return,6.9827325204678345,1480.5836496828706,None,,,HESHIYU,M,002,2023_Apr_19_0902,untitled,2021.1.4,60.35409442173986,
36,18,36,9,54,72,99,0.82,0.33,0.67,0.8,-0.13,-0.67,,stimuli/P_36_18_36_09.png,,,,,0,43,43,237,,,,,,,,,,,,,,,,,,,,,,,,,,,,1487.5855406690025,None,1487.5855406690025,None,1487.9805098722136,None,1487.9805098722136,None,50,1487.9805098722136,None,return,5.219473288685549,1487.9805098722136,None,,,HESHIYU,M,002,2023_Apr_19_0902,untitled,2021.1.4,60.35409442173986,
0,9,18,9,9,18,36,0.75,1.0,0.0,0.67,-0.67,-2.0,,stimuli/P_00_09_18_09.png,,,,,0,44,44,25,,,,,,,,,,,,,,,,,,,,,,,,,,,,1493.2216208436294,None,1493.2216208436294,None,1493.6143139230408,None,1493.6143139230408,None,26,1493.6143139230408,None,return,6.0749328853489715,1493.6143139230408,None,,,HESHIYU,M,002,2023_Apr_19_0902,untitled,2021.1.4,60.35409442173986,
9,9,0,18,18,9,36,0.75,0.5,0.5,0.0,0.5,0.5,,stimuli/P_09_09_00_18.png,,,,,0,45,45,82,,,,,,,,,,,,,,,,,,,,,,,,,,,,1499.7244257494967,None,1499.7244257494967,None,1500.1166540468184,None,1500.1166540468184,None,24,1500.1166540468184,None,return,7.778198818639794,1500.1166540468184,None,,,HESHIYU,M,002,2023_Apr_19_0902,untitled,2021.1.4,60.35409442173986,
36,9,36,0,45,72,81,0.89,0.2,0.8,1.0,-0.2,#NAME?,,stimuli/P_36_09_36_00.png,,,,,0,46,46,220,,,,,,,,,,,,,,,,,,,,,,,,,,,,1507.927216376258,None,1507.927216376258,None,1508.3218351440155,None,1508.3218351440155,None,56,1508.3218351440155,None,None,,1508.3218351440155,None,,,HESHIYU,M,002,2023_Apr_19_0902,untitled,2021.1.4,60.35409442173986,
0,0,0,36,0,0,36,1.0,None,None,0.0,None,None,,stimuli/P_00_00_00_36.png,,,,,0,47,47,3,,,,,,,,,,,,,,,,,,,,,,,,,,,,1516.332681007596,None,1516.332681007596,None,1516.7207188705506,None,1516.7207188705506,None,0,1516.7207188705506,None,return,1.5546483044527122,1516.7207188705506,None,,,HESHIYU,M,002,2023_Apr_19_0902,untitled,2021.1.4,60.35409442173986,
18,18,9,18,36,27,63,0.71,0.5,0.5,0.33,0.17,0.25,,stimuli/P_18_18_09_18.png,,,,,0,48,48,166,,,,,,,,,,,,,,,,,,,,,,,,,,,,1518.2964314179044,None,1518.2964314179044,None,1518.6921037675784,None,1518.6921037675784,None,27,1518.6921037675784,None,return,5.519527390002622,1518.6921037675784,None,,,HESHIYU,M,002,2023_Apr_19_0902,untitled,2021.1.4,60.35409442173986,
0,9,9,9,9,9,27,0.67,1.0,0.0,0.5,-0.5,-1.0,,stimuli/P_00_09_09_09.png,,,,,0,49,49,21,,,,,,,,,,,,,,,,,,,,,,,,,,,,1524.233452022483,None,1524.233452022483,None,1524.623126009421,None,1524.623126009421,None,0,1524.623126009421,None,return,2.0134644583886256,1524.623126009421,None,,,HESHIYU,M,002,2023_Apr_19_0902,untitled,2021.1.4,60.35409442173986,
9,9,9,0,18,18,27,0.67,0.5,0.5,1.0,-0.5,#NAME?,,stimuli/P_09_09_09_00.png,,,,,0,50,50,84,,,,,,,,,,,,,,,,,,,,,,,,,,,,1526.6568320976148,None,1526.6568320976148,None,1527.049660572542,None,1527.049660572542,None,33,1527.049660572542,None,return,2.650137415075733,1527.049660572542,None,,,HESHIYU,M,002,2023_Apr_19_0902,untitled,2021.1.4,60.35409442173986,
9,18,0,0,27,9,27,0.33,0.67,0.33,None,None,None,,stimuli/P_09_18_00_00.png,,,,,0,51,51,96,,,,,,,,,,,,,,,,,,,,,,,,,,,,1529.7190878665715,None,1529.7190878665715,None,1530.1086418179839,None,1530.1086418179839,None,40,1530.1086418179839,None,return,4.108038795937318,1530.1086418179839,None,,,HESHIYU,M,002,2023_Apr_19_0902,untitled,2021.1.4,60.35409442173986,
36,36,0,36,72,36,108,0.67,0.5,0.5,0.0,0.5,0.5,,stimuli/P_36_36_00_36.png,,,,,0,52,52,243,,,,,,,,,,,,,,,,,,,,,,,,,,,,1534.2348878976336,None,1534.2348878976336,None,1534.6280776169006,None,1534.6280776169006,None,33,1534.6280776169006,None,return,2.8243504855199717,1534.6280776169006,None,,,HESHIYU,M,002,2023_Apr_19_0902,untitled,2021.1.4,60.35409442173986,
9,36,0,36,45,9,81,0.56,0.8,0.2,0.0,0.2,0.2,,stimuli/P_09_36_00_36.png,,,,,0,53,53,115,,,,,,,,,,,,,,,,,,,,,,,,,,,,1537.4747859982817,None,1537.4747859982817,None,1537.865029442837,None,1537.865029442837,None,24,1537.865029442837,None,return,5.48917831419385,1537.865029442837,None,,,HESHIYU,M,002,2023_Apr_19_0902,untitled,2021.1.4,60.35409442173986,
36,18,9,36,54,45,99,0.82,0.33,0.67,0.2,0.47,0.58,,stimuli/P_36_18_09_36.png,,,,,0,54,54,231,,,,,,,,,,,,,,,,,,,,,,,,,,,,1543.3812834471028,None,1543.3812834471028,None,1543.7776236721402,None,1543.7776236721402,None,50,1543.7776236721402,None,return,7.242982046438556,1543.7776236721402,None,,,HESHIYU,M,002,2023_Apr_19_0902,untitled,2021.1.4,60.35409442173986,
0,9,36,0,9,36,45,0.8,1.0,0.0,1.0,-1.0,#NAME?,,stimuli/P_00_09_36_00.png,,,,,0,55,55,28,,,,,,,,,,,,,,,,,,,,,,,,,,,,1551.039495668767,None,1551.039495668767,None,1551.4328247657759,None,1551.4328247657759,None,0,1551.4328247657759,None,return,1.79702619107411,1551.4328247657759,None,,,HESHIYU,M,002,2023_Apr_19_0902,untitled,2021.1.4,60.35409442173986,
36,18,0,18,54,36,72,0.75,0.33,0.67,0.0,0.67,0.67,,stimuli/P_36_18_00_18.png,,,,,0,56,56,226,,,,,,,,,,,,,,,,,,,,,,,,,,,,1553.2499628800142,None,1553.2499628800142,None,1553.6413014353675,None,1553.6413014353675,None,50,1553.6413014353675,None,return,4.058705334413389,1553.6413014353675,None,,,HESHIYU,M,002,2023_Apr_19_0902,untitled,2021.1.4,60.35409442173986,
36,0,0,9,36,36,45,1.0,0.0,1.0,0.0,1.0,1.0,,stimuli/P_36_00_00_09.png,,,,,0,57,57,193,,,,,,,,,,,,,,,,,,,,,,,,,,,,1557.7250179626644,None,1557.7250179626644,None,1558.117835059813,None,1558.117835059813,None,80,1558.117835059813,None,return,3.115042385055858,1558.117835059813,None,,,HESHIYU,M,002,2023_Apr_19_0902,untitled,2021.1.4,60.35409442173986,
0,9,0,9,9,0,18,0.5,1.0,0.0,0.0,0.0,0.0,,stimuli/P_00_09_00_09.png,,,,,0,58,58,17,,,,,,,,,,,,,,,,,,,,,,,,,,,,1561.2563805137397,None,1561.2563805137397,None,1561.6491879397872,None,1561.6491879397872,None,0,1561.6491879397872,None,return,1.9029743209321168,1561.6491879397872,None,,,HESHIYU,M,002,2023_Apr_19_0902,untitled,2021.1.4,60.35409442173986,
0,18,18,0,18,18,36,0.5,1.0,0.0,1.0,-1.0,#NAME?,,stimuli/P_00_18_18_00.png,,,,,0,59,59,40,,,,,,,,,,,,,,,,,,,,,,,,,,,,1563.568130398402,None,1563.568130398402,None,1563.9589706072293,None,1563.9589706072293,None,0,1563.9589706072293,None,return,1.9181482899439288,1563.9589706072293,None,,,HESHIYU,M,002,2023_Apr_19_0902,untitled,2021.1.4,60.35409442173986,
18,0,9,36,18,27,63,1.0,0.0,1.0,0.2,0.8,1.0,,stimuli/P_18_00_09_36.png,,,,,0,60,60,135,,,,,,,,,,,,,,,,,,,,,,,,,,,,1565.9084453238174,None,1565.9084453238174,None,1566.2968114355754,None,1566.2968114355754,None,35,1566.2968114355754,None,return,4.933210187889927,1566.2968114355754,None,,,HESHIYU,M,002,2023_Apr_19_0902,untitled,2021.1.4,60.35409442173986,
36,9,18,18,45,54,81,0.89,0.2,0.8,0.5,0.3,0.6,,stimuli/P_36_09_18_18.png,,,,,0,61,61,218,,,,,,,,,,,,,,,,,,,,,,,,,,,,1571.2450590591834,None,1571.2450590591834,None,1571.6377362097119,None,1571.6377362097119,None,48,1571.6377362097119,None,None,,1571.6377362097119,None,,,HESHIYU,M,002,2023_Apr_19_0902,untitled,2021.1.4,60.35409442173986,
36,36,0,0,72,36,72,0.5,0.5,0.5,None,None,None,,stimuli/P_36_36_00_00.png,,,,,0,62,62,240,,,,,,,,,,,,,,,,,,,,,,,,,,,,1579.6443842433728,None,1579.6443842433728,None,1580.0356915098455,None,1580.0356915098455,None,50,1580.0356915098455,None,return,2.9256547766999574,1580.0356915098455,None,,,HESHIYU,M,002,2023_Apr_19_0902,untitled,2021.1.4,60.35409442173986,
0,0,36,0,0,36,36,1.0,None,None,1.0,None,None,,stimuli/P_00_00_36_00.png,,,,,0,63,63,12,,,,,,,,,,,,,,,,,,,,,,,,,,,,1582.9878792567833,None,1582.9878792567833,None,1583.3756759109165,None,1583.3756759109165,None,0,1583.3756759109165,None,return,1.575181205284025,1583.3756759109165,None,,,HESHIYU,M,002,2023_Apr_19_0902,untitled,2021.1.4,60.35409442173986,
9,18,18,0,27,27,45,0.6,0.67,0.33,1.0,-0.67,#NAME?,,stimuli/P_09_18_18_00.png,,,,,0,64,64,104,,,,,,,,,,,,,,,,,,,,,,,,,,,,1584.9814872230418,None,1584.9814872230418,None,1585.3773029326767,None,1585.3773029326767,None,23,1585.3773029326767,None,return,3.8455307817202993,1585.3773029326767,None,,,HESHIYU,M,002,2023_Apr_19_0902,untitled,2021.1.4,60.35409442173986,
36,9,9,18,45,45,72,0.88,0.2,0.8,0.33,0.47,0.7,,stimuli/P_36_09_09_18.png,,,,,0,65,65,214,,,,,,,,,,,,,,,,,,,,,,,,,,,,1589.2521030394055,None,1589.2521030394055,None,1589.6436930435739,None,1589.6436930435739,None,48,1589.6436930435739,None,return,5.4079518128492055,1589.6436930435739,None,,,HESHIYU,M,002,2023_Apr_19_0902,untitled,2021.1.4,60.35409442173986,
0,0,36,18,0,36,54,1.0,None,None,0.67,None,None,,stimuli/P_00_00_36_18.png,,,,,0,66,66,14,,,,,,,,,,,,,,,,,,,,,,,,,,,,1595.073215410288,None,1595.073215410288,None,1595.4630264994048,None,1595.4630264994048,None,0,1595.4630264994048,None,return,1.3708301167425816,1595.4630264994048,None,,,HESHIYU,M,002,2023_Apr_19_0902,untitled,2021.1.4,60.35409442173986,
36,0,36,18,36,72,90,1.0,0.0,1.0,0.67,0.33,1.0,,stimuli/P_36_00_36_18.png,,,,,0,67,67,206,,,,,,,,,,,,,,,,,,,,,,,,,,,,1596.8562856231001,None,1596.8562856231001,None,1597.2467759653591,None,1597.2467759653591,None,45,1597.2467759653591,None,return,5.9304971575475065,1597.2467759653591,None,,,HESHIYU,M,002,2023_Apr_19_0902,untitled,2021.1.4,60.35409442173986,
18,9,36,9,27,54,72,0.88,0.33,0.67,0.8,-0.13,-0.67,,stimuli/P_18_09_36_09.png,,,,,0,68,68,157,,,,,,,,,,,,,,,,,,,,,,,,,,,,1603.1965703974201,None,1603.1965703974201,None,1603.5907488453013,None,1603.5907488453013,None,23,1603.5907488453013,None,return,5.916084930533543,1603.5907488453013,None,,,HESHIYU,M,002,2023_Apr_19_0902,untitled,2021.1.4,60.35409442173986,
18,9,18,9,27,36,54,0.83,0.33,0.67,0.67,0.0,0.0,,stimuli/P_18_09_18_09.png,,,,,0,69,69,153,,,,,,,,,,,,,,,,,,,,,,,,,,,,1609.5218029449097,None,1609.5218029449097,None,1609.9152685752124,None,1609.9152685752124,None,25,1609.9152685752124,None,return,6.681294881767826,1609.9152685752124,None,,,HESHIYU,M,002,2023_Apr_19_0902,untitled,2021.1.4,60.35409442173986,
18,36,36,0,54,54,90,0.6,0.67,0.33,1.0,-0.67,#NAME?,,stimuli/P_18_36_36_00.png,,,,,0,70,70,188,,,,,,,,,,,,,,,,,,,,,,,,,,,,1616.6147178340398,None,1616.6147178340398,None,1617.0139172938216,None,1617.0139172938216,None,47,1617.0139172938216,None,return,7.966971458285116,1617.0139172938216,None,,,HESHIYU,M,002,2023_Apr_19_0902,untitled,2021.1.4,60.35409442173986,
18,18,18,0,36,36,54,0.67,0.5,0.5,1.0,-0.5,#NAME?,,stimuli/P_18_18_18_00.png,,,,,0,71,71,168,,,,,,,,,,,,,,,,,,,,,,,,,,,,1625.0056513406162,None,1625.0056513406162,None,1625.3975092913752,None,1625.3975092913752,None,33,1625.3975092913752,None,return,3.289143384419731,1625.3975092913752,None,,,HESHIYU,M,002,2023_Apr_19_0902,untitled,2021.1.4,60.35409442173986,
9,18,18,18,27,27,63,0.71,0.67,0.33,0.5,-0.17,-0.33,,stimuli/P_09_18_18_18.png,,,,,0,72,72,106,,,,,,,,,,,,,,,,,,,,,,,,,,,,1628.706798732288,None,1628.706798732288,None,1629.098057074334,None,1629.098057074334,None,23,1629.098057074334,None,return,5.848751260797144,1629.098057074334,None,,,HESHIYU,M,002,2023_Apr_19_0902,untitled,2021.1.4,60.35409442173986,
0,36,0,18,36,0,54,0.33,1.0,0.0,0.0,0.0,0.0,,stimuli/P_00_36_00_18.png,,,,,0,73,73,50,,,,,,,,,,,,,,,,,,,,,,,,,,,,1634.979366405867,None,1634.979366405867,None,1635.3693970860404,None,1635.3693970860404,None,0,1635.3693970860404,None,return,1.8238259701101924,1635.3693970860404,None,,,HESHIYU,M,002,2023_Apr_19_0902,untitled,2021.1.4,60.35409442173986,
36,9,36,36,45,72,117,0.92,0.2,0.8,0.5,0.3,0.6,,stimuli/P_36_09_36_36.png,,,,,0,74,74,223,,,,,,,,,,,,,,,,,,,,,,,,,,,,1637.2118325441916,None,1637.2118325441916,None,1637.6049409123734,None,1637.6049409123734,None,26,1637.6049409123734,None,return,7.349583260562213,1637.6049409123734,None,,,HESHIYU,M,002,2023_Apr_19_0902,untitled,2021.1.4,60.35409442173986,
0,9,0,18,9,0,27,0.67,1.0,0.0,0.0,0.0,0.0,,stimuli/P_00_09_00_18.png,,,,,0,75,75,18,,,,,,,,,,,,,,,,,,,,,,,,,,,,1644.9720806479454,None,1644.9720806479454,None,1645.3614417460776,None,1645.3614417460776,None,0,1645.3614417460776,None,return,1.6424528661445947,1645.3614417460776,None,,,HESHIYU,M,002,2023_Apr_19_0902,untitled,2021.1.4,60.35409442173986,
9,36,18,36,45,27,99,0.64,0.8,0.2,0.33,-0.13,-0.2,,stimuli/P_09_36_18_36.png,,,,,0,76,76,123,,,,,,,,,,,,,,,,,,,,,,,,,,,,1647.0198024476995,None,1647.0198024476995,None,1647.4098951367414,None,1647.4098951367414,None,10,1647.4098951367414,None,return,4.289907401980599,1647.4098951367414,None,,,HESHIYU,M,002,2023_Apr_19_0902,untitled,2021.1.4,60.35409442173986,
9,18,18,36,27,27,81,0.78,0.67,0.33,0.33,0.0,0.0,,stimuli/P_09_18_18_36.png,,,,,0,77,77,107,,,,,,,,,,,,,,,,,,,,,,,,,,,,1651.7341099422993,None,1651.7341099422993,None,1652.128979021094,None,1652.128979021094,None,4,1652.128979021094,None,None,,1652.128979021094,None,,,HESHIYU,M,002,2023_Apr_19_0902,untitled,2021.1.4,60.35409442173986,
0,18,18,36,18,18,72,0.75,1.0,0.0,0.33,-0.33,-0.5,,stimuli/P_00_18_18_36.png,,,,,0,78,78,43,,,,,,,,,,,,,,,,,,,,,,,,,,,,1660.1292646032307,None,1660.1292646032307,None,1660.5169941284985,None,1660.5169941284985,None,25,1660.5169941284985,None,return,7.003052656909858,1660.5169941284985,None,,,HESHIYU,M,002,2023_Apr_19_0902,untitled,2021.1.4,60.35409442173986,
36,0,36,36,36,72,108,1.0,0.0,1.0,0.5,0.5,1.0,,stimuli/P_36_00_36_36.png,,,,,0,79,79,207,,,,,,,,,,,,,,,,,,,,,,,,,,,,1667.5502980123638,None,1667.5502980123638,None,1667.9490577211545,None,1667.9490577211545,None,33,1667.9490577211545,None,return,2.813889759607264,1667.9490577211545,None,,,HESHIYU,M,002,2023_Apr_19_0902,untitled,2021.1.4,60.35409442173986,
18,0,0,9,18,18,27,1.0,0.0,1.0,0.0,1.0,1.0,,stimuli/P_18_00_00_09.png,,,,,0,80,80,129,,,,,,,,,,,,,,,,,,,,,,,,,,,,1670.7779917431471,None,1670.7779917431471,None,1671.1707877914232,None,1671.1707877914232,None,66,1671.1707877914232,None,return,5.802737833888386,1671.1707877914232,None,,,HESHIYU,M,002,2023_Apr_19_0902,untitled,2021.1.4,60.35409442173986,
36,9,0,0,45,36,45,0.8,0.2,0.8,None,None,None,,stimuli/P_36_09_00_00.png,,,,,0,81,81,208,,,,,,,,,,,,,,,,,,,,,,,,,,,,1677.0071668601813,None,1677.0071668601813,None,1677.3949754609857,None,1677.3949754609857,None,75,1677.3949754609857,None,return,6.2139960280183,1677.3949754609857,None,,,HESHIYU,M,002,2023_Apr_19_0902,untitled,2021.1.4,60.35409442173986,
36,9,18,0,45,54,63,0.86,0.2,0.8,1.0,-0.2,#NAME?,,stimuli/P_36_09_18_00.png,,,,,0,82,82,216,,,,,,,,,,,,,,,,,,,,,,,,,,,,1683.6309561938615,None,1683.6309561938615,None,1684.023314197817,None,1684.023314197817,None,60,1684.023314197817,None,return,7.905803973459115,1684.023314197817,None,,,HESHIYU,M,002,2023_Apr_19_0902,untitled,2021.1.4,60.35409442173986,
0,36,9,9,36,9,54,0.33,1.0,0.0,0.5,-0.5,-1.0,,stimuli/P_00_36_09_09.png,,,,,0,83,83,53,,,,,,,,,,,,,,,,,,,,,,,,,,,,1691.960971957771,None,1691.960971957771,None,1692.3497931805032,None,1692.3497931805032,None,0,1692.3497931805032,None,return,1.9180151699838461,1692.3497931805032,None,,,HESHIYU,M,002,2023_Apr_19_0902,untitled,2021.1.4,60.35409442173986,
9,36,0,9,45,9,54,0.33,0.8,0.2,0.0,0.2,0.2,,stimuli/P_09_36_00_09.png,,,,,0,84,84,113,,,,,,,,,,,,,,,,,,,,,,,,,,,,1694.2822279730535,None,1694.2822279730535,None,1694.6745205548068,None,1694.6745205548068,None,3,1694.6745205548068,None,None,,1694.6745205548068,None,,,HESHIYU,M,002,2023_Apr_19_0902,untitled,2021.1.4,60.35409442173986,
0,36,9,18,36,9,63,0.43,1.0,0.0,0.33,-0.33,-0.5,,stimuli/P_00_36_09_18.png,,,,,0,85,85,54,,,,,,,,,,,,,,,,,,,,,,,,,,,,1702.6788719846736,None,1702.6788719846736,None,1703.0696928512916,None,1703.0696928512916,None,55,1703.0696928512916,None,return,5.385893152459175,1703.0696928512916,None,,,HESHIYU,M,002,2023_Apr_19_0902,untitled,2021.1.4,60.35409442173986,
18,0,0,36,18,18,54,1.0,0.0,1.0,0.0,1.0,1.0,,stimuli/P_18_00_00_36.png,,,,,0,86,86,131,,,,,,,,,,,,,,,,,,,,,,,,,,,,1708.4808617298913,None,1708.4808617298913,None,1708.872062614173,None,1708.872062614173,None,33,1708.872062614173,None,return,2.9800655701110372,1708.872062614173,None,,,HESHIYU,M,002,2023_Apr_19_0902,untitled,2021.1.4,60.35409442173986,
0,18,9,9,18,9,36,0.5,1.0,0.0,0.5,-0.5,-1.0,,stimuli/P_00_18_09_09.png,,,,,0,87,87,37,,,,,,,,,,,,,,,,,,,,,,,,,,,,1711.8647034695969,None,1711.8647034695969,None,1712.2574488867685,None,1712.2574488867685,None,0,1712.2574488867685,None,return,1.715031121057109,1712.2574488867685,None,,,HESHIYU,M,002,2023_Apr_19_0902,untitled,2021.1.4,60.35409442173986,
9,18,9,36,27,18,72,0.75,0.67,0.33,0.2,0.13,0.17,,stimuli/P_09_18_09_36.png,,,,,0,88,88,103,,,,,,,,,,,,,,,,,,,,,,,,,,,,1713.9919798067276,None,1713.9919798067276,None,1714.3887142716558,None,1714.3887142716558,None,12,1714.3887142716558,None,None,,1714.3887142716558,None,,,HESHIYU,M,002,2023_Apr_19_0902,untitled,2021.1.4,60.35409442173986,
18,36,18,0,54,36,72,0.5,0.67,0.33,1.0,-0.67,#NAME?,,stimuli/P_18_36_18_00.png,,,,,0,89,89,184,,,,,,,,,,,,,,,,,,,,,,,,,,,,1722.3999031751373,None,1722.3999031751373,None,1722.7947119517266,None,1722.7947119517266,None,25,1722.7947119517266,None,return,4.992251735537138,1722.7947119517266,None,,,HESHIYU,M,002,2023_Apr_19_0902,untitled,2021.1.4,60.35409442173986,
36,36,36,36,72,72,144,0.75,0.5,0.5,0.5,0.0,0.0,,stimuli/P_36_36_36_36.png,,,,,0,90,90,255,,,,,,,,,,,,,,,,,,,,,,,,,,,,1727.8073299036914,None,1727.8073299036914,None,1728.1969248151,None,1728.1969248151,None,25,1728.1969248151,None,return,2.648222535615787,1728.1969248151,None,,,HESHIYU,M,002,2023_Apr_19_0902,untitled,2021.1.4,60.35409442173986,
36,9,0,36,45,36,81,0.89,0.2,0.8,0.0,0.8,0.8,,stimuli/P_36_09_00_36.png,,,,,0,91,91,211,,,,,,,,,,,,,,,,,,,,,,,,,,,,1730.8640600564468,None,1730.8640600564468,None,1731.255016887466,None,1731.255016887466,None,75,1731.255016887466,None,return,6.42885733579169,1731.255016887466,None,,,HESHIYU,M,002,2023_Apr_19_0902,untitled,2021.1.4,60.35409442173986,
18,18,36,0,36,54,72,0.75,0.5,0.5,1.0,-0.5,#NAME?,,stimuli/P_18_18_36_00.png,,,,,0,92,92,172,,,,,,,,,,,,,,,,,,,,,,,,,,,,1737.7029985555928,None,1737.7029985555928,None,1738.0923522581797,None,1738.0923522581797,None,2,1738.0923522581797,None,None,,1738.0923522581797,None,,,HESHIYU,M,002,2023_Apr_19_0902,untitled,2021.1.4,60.35409442173986,
0,36,9,0,36,9,45,0.2,1.0,0.0,1.0,-1.0,#NAME?,,stimuli/P_00_36_09_00.png,,,,,0,93,93,52,,,,,,,,,,,,,,,,,,,,,,,,,,,,1746.091238942936,None,1746.091238942936,None,1746.484954884283,None,1746.484954884283,None,0,1746.484954884283,None,return,3.197885099267296,1746.484954884283,None,,,HESHIYU,M,002,2023_Apr_19_0902,untitled,2021.1.4,60.35409442173986,
0,0,18,9,0,18,27,1.0,None,None,0.67,None,None,,stimuli/P_00_00_18_09.png,,,,,0,94,94,9,,,,,,,,,,,,,,,,,,,,,,,,,,,,1749.6974974016048,None,1749.6974974016048,None,1750.0862918865678,None,1750.0862918865678,None,0,1750.0862918865678,None,return,1.4367557868827134,1750.0862918865678,None,,,HESHIYU,M,002,2023_Apr_19_0902,untitled,2021.1.4,60.35409442173986,
18,36,36,36,54,54,126,0.71,0.67,0.33,0.5,-0.17,-0.33,,stimuli/P_18_36_36_36.png,,,,,0,95,95,191,,,,,,,,,,,,,,,,,,,,,,,,,,,,1751.5598883385246,None,1751.5598883385246,None,1751.95170589818,None,1751.95170589818,None,13,1751.95170589818,None,return,4.539345197699731,1751.95170589818,None,,,HESHIYU,M,002,2023_Apr_19_0902,untitled,2021.1.4,60.35409442173986,
36,9,9,0,45,45,54,0.83,0.2,0.8,1.0,-0.2,#NAME?,,stimuli/P_36_09_09_00.png,,,,,0,96,96,212,,,,,,,,,,,,,,,,,,,,,,,,,,,,1756.5204757275133,None,1756.5204757275133,None,1756.910656025415,None,1756.910656025415,None,24,1756.910656025415,None,None,,1756.910656025415,None,,,HESHIYU,M,002,2023_Apr_19_0902,untitled,2021.1.4,60.35409442173986,
18,9,18,0,27,36,45,0.8,0.33,0.67,1.0,-0.33,#NAME?,,stimuli/P_18_09_18_00.png,,,,,0,97,97,152,,,,,,,,,,,,,,,,,,,,,,,,,,,,1764.9169138014113,None,1764.9169138014113,None,1765.3130850665038,None,1765.3130850665038,None,,1765.3130850665038,None,None,,1765.3130850665038,None,,,HESHIYU,M,002,2023_Apr_19_0902,untitled,2021.1.4,60.35409442173986,
18,9,0,0,27,18,27,0.67,0.33,0.67,None,None,None,,stimuli/P_18_09_00_00.png,,,,,0,98,98,144,,,,,,,,,,,,,,,,,,,,,,,,,,,,1773.3140817595486,None,1773.3140817595486,None,1773.707103087756,None,1773.707103087756,None,33,1773.707103087756,None,return,3.434806774101162,1773.707103087756,None,,,HESHIYU,M,002,2023_Apr_19_0902,untitled,2021.1.4,60.35409442173986,
36,0,9,36,36,45,81,1.0,0.0,1.0,0.2,0.8,1.0,,stimuli/P_36_00_09_36.png,,,,,0,99,99,199,,,,,,,,,,,,,,,,,,,,,,,,,,,,1777.1753992034428,None,1777.1753992034428,None,1777.5677839451673,None,1777.5677839451673,None,20,1777.5677839451673,None,None,,1777.5677839451673,None,,,HESHIYU,M,002,2023_Apr_19_0902,untitled,2021.1.4,60.35409442173986,
0,18,36,36,18,36,90,0.8,1.0,0.0,0.5,-0.5,-1.0,,stimuli/P_00_18_36_36.png,,,,,0,100,100,47,,,,,,,,,,,,,,,,,,,,,,,,,,,,1785.5667929410047,None,1785.5667929410047,None,1785.957319692141,None,1785.957319692141,None,0,1785.957319692141,None,return,1.8589332312330953,1785.957319692141,None,,,HESHIYU,M,002,2023_Apr_19_0902,untitled,2021.1.4,60.35409442173986,
9,0,0,18,9,9,27,1.0,0.0,1.0,0.0,1.0,1.0,,stimuli/P_09_00_00_18.png,,,,,0,101,101,66,,,,,,,,,,,,,,,,,,,,,,,,,,,,1787.8488343185527,None,1787.8488343185527,None,1788.2365678260467,None,1788.2365678260467,None,33,1788.2365678260467,None,return,4.615778242623492,1788.2365678260467,None,,,HESHIYU,M,002,2023_Apr_19_0902,untitled,2021.1.4,60.35409442173986,
9,0,9,9,9,18,27,1.0,0.0,1.0,0.5,0.5,1.0,,stimuli/P_09_00_09_09.png,,,,,0,102,102,69,,,,,,,,,,,,,,,,,,,,,,,,,,,,1792.8789091900035,None,1792.8789091900035,None,1793.271524331656,None,1793.271524331656,None,33,1793.271524331656,None,return,2.360411488596583,1793.271524331656,None,,,HESHIYU,M,002,2023_Apr_19_0902,untitled,2021.1.4,60.35409442173986,
36,36,18,0,72,54,90,0.6,0.5,0.5,1.0,-0.5,#NAME?,,stimuli/P_36_36_18_00.png,,,,,0,103,103,248,,,,,,,,,,,,,,,,,,,,,,,,,,,,1795.6564054310657,None,1795.6564054310657,None,1796.0468798444417,None,1796.0468798444417,None,40,1796.0468798444417,None,return,6.645280243123125,1796.0468798444417,None,,,HESHIYU,M,002,2023_Apr_19_0902,untitled,2021.1.4,60.35409442173986,
36,18,9,0,54,45,63,0.71,0.33,0.67,1.0,-0.33,#NAME?,,stimuli/P_36_18_09_00.png,,,,,0,104,104,228,,,,,,,,,,,,,,,,,,,,,,,,,,,,1802.7157558852996,None,1802.7157558852996,None,1803.1092226533801,None,1803.1092226533801,None,30,1803.1092226533801,None,None,,1803.1092226533801,None,,,HESHIYU,M,002,2023_Apr_19_0902,untitled,2021.1.4,60.35409442173986,
36,0,9,0,36,45,45,1.0,0.0,1.0,1.0,0.0,None,,stimuli/P_36_00_09_00.png,,,,,0,105,105,196,,,,,,,,,,,,,,,,,,,,,,,,,,,,1811.1208734945103,None,1811.1208734945103,None,1811.513445969511,None,1811.513445969511,None,80,1811.513445969511,None,return,6.918820716426126,1811.513445969511,None,,,HESHIYU,M,002,2023_Apr_19_0902,untitled,2021.1.4,60.35409442173986,
18,18,36,9,36,54,81,0.78,0.5,0.5,0.8,-0.3,-1.5,,stimuli/P_18_18_36_09.png,,,,,0,106,106,173,,,,,,,,,,,,,,,,,,,,,,,,,,,,1818.4539487419897,None,1818.4539487419897,None,1818.8528080063115,None,1818.8528080063115,None,20,1818.8528080063115,None,return,7.718762462216546,1818.8528080063115,None,,,HESHIYU,M,002,2023_Apr_19_0902,untitled,2021.1.4,60.35409442173986,
0,18,9,36,18,9,63,0.71,1.0,0.0,0.2,-0.2,-0.25,,stimuli/P_00_18_09_36.png,,,,,0,107,107,39,,,,,,,,,,,,,,,,,,,,,,,,,,,,1826.5899865344036,None,1826.5899865344036,None,1826.9835676491202,None,1826.9835676491202,None,0,1826.9835676491202,None,return,1.9152930374330026,1826.9835676491202,None,,,HESHIYU,M,002,2023_Apr_19_0902,untitled,2021.1.4,60.35409442173986,
9,9,18,0,18,27,36,0.75,0.5,0.5,1.0,-0.5,#NAME?,,stimuli/P_09_09_18_00.png,,,,,0,108,108,88,,,,,,,,,,,,,,,,,,,,,,,,,,,,1828.9319569260188,None,1828.9319569260188,None,1829.3214613841192,None,1829.3214613841192,None,25,1829.3214613841192,None,return,4.481350974194356,1829.3214613841192,None,,,HESHIYU,M,002,2023_Apr_19_0902,untitled,2021.1.4,60.35409442173986,
0,0,18,0,0,18,18,1.0,None,None,1.0,None,None,,stimuli/P_00_00_18_00.png,,,,,0,109,109,8,,,,,,,,,,,,,,,,,,,,,,,,,,,,1833.836930321937,None,1833.836930321937,None,1834.2273706019914,None,1834.2273706019914,None,0,1834.2273706019914,None,return,1.4945480548849446,1834.2273706019914,None,,,HESHIYU,M,002,2023_Apr_19_0902,untitled,2021.1.4,60.35409442173986,
9,0,18,0,9,27,27,1.0,0.0,1.0,1.0,0.0,None,,stimuli/P_09_00_18_00.png,,,,,0,110,110,72,,,,,,,,,,,,,,,,,,,,,,,,,,,,1835.7356760929615,None,1835.7356760929615,None,1836.1275397326099,None,1836.1275397326099,None,33,1836.1275397326099,None,return,3.173511630644498,1836.1275397326099,None,,,HESHIYU,M,002,2023_Apr_19_0902,untitled,2021.1.4,60.35409442173986,
0,18,9,18,18,9,45,0.6,1.0,0.0,0.33,-0.33,-0.5,,stimuli/P_00_18_09_18.png,,,,,0,111,111,38,,,,,,,,,,,,,,,,,,,,,,,,,,,,1839.3151939370146,None,1839.3151939370146,None,1839.7049811328034,None,1839.7049811328034,None,0,1839.7049811328034,None,return,1.7154657520441106,1839.7049811328034,None,,,HESHIYU,M,002,2023_Apr_19_0902,untitled,2021.1.4,60.35409442173986,
9,36,9,36,45,18,90,0.6,0.8,0.2,0.2,0.0,0.0,,stimuli/P_09_36_09_36.png,,,,,0,112,112,119,,,,,,,,,,,,,,,,,,,,,,,,,,,,1841.4339596987847,None,1841.4339596987847,None,1841.825855196199,None,1841.825855196199,None,,1841.825855196199,None,None,,1841.825855196199,None,,,HESHIYU,M,002,2023_Apr_19_0902,untitled,2021.1.4,60.35409442173986,
0,9,36,9,9,36,54,0.83,1.0,0.0,0.8,-0.8,-4.0,,stimuli/P_00_09_36_09.png,,,,,0,113,113,29,,,,,,,,,,,,,,,,,,,,,,,,,,,,1849.8396530233877,None,1849.8396530233877,None,1850.2305114366536,None,1850.2305114366536,None,0,1850.2305114366536,None,return,2.507114806860045,1850.2305114366536,None,,,HESHIYU,M,002,2023_Apr_19_0902,untitled,2021.1.4,60.35409442173986,
18,36,18,9,54,36,81,0.56,0.67,0.33,0.67,-0.33,-1.0,,stimuli/P_18_36_18_09.png,,,,,0,114,114,185,,,,,,,,,,,,,,,,,,,,,,,,,,,,1852.7631027873867,None,1852.7631027873867,None,1853.1553299469306,None,1853.1553299469306,None,,1853.1553299469306,None,None,,1853.1553299469306,None,,,HESHIYU,M,002,2023_Apr_19_0902,untitled,2021.1.4,60.35409442173986,
9,18,9,18,27,18,54,0.67,0.67,0.33,0.33,0.0,0.0,,stimuli/P_09_18_09_18.png,,,,,0,115,115,102,,,,,,,,,,,,,,,,,,,,,,,,,,,,1861.1690339074776,None,1861.1690339074776,None,1861.566987500948,None,1861.566987500948,None,14,1861.566987500948,None,None,,1861.566987500948,None,,,HESHIYU,M,002,2023_Apr_19_0902,untitled,2021.1.4,60.35409442173986,
18,36,0,9,54,18,63,0.43,0.67,0.33,0.0,0.33,0.33,,stimuli/P_18_36_00_09.png,,,,,0,116,116,177,,,,,,,,,,,,,,,,,,,,,,,,,,,,1869.5659316434685,None,1869.5659316434685,None,1869.9594058071016,None,1869.9594058071016,None,,1869.9594058071016,None,None,,1869.9594058071016,None,,,HESHIYU,M,002,2023_Apr_19_0902,untitled,2021.1.4,60.35409442173986,
9,36,0,0,45,9,45,0.2,0.8,0.2,None,None,None,,stimuli/P_09_36_00_00.png,,,,,0,117,117,112,,,,,,,,,,,,,,,,,,,,,,,,,,,,1877.9629351927651,None,1877.9629351927651,None,1878.3545143880474,None,1878.3545143880474,None,20,1878.3545143880474,None,return,3.965797840843152,1878.3545143880474,None,,,HESHIYU,M,002,2023_Apr_19_0902,untitled,2021.1.4,60.35409442173986,
0,18,18,18,18,18,54,0.67,1.0,0.0,0.5,-0.5,-1.0,,stimuli/P_00_18_18_18.png,,,,,0,118,118,42,,,,,,,,,,,,,,,,,,,,,,,,,,,,1882.3476194566756,None,1882.3476194566756,None,1882.7396327140596,None,1882.7396327140596,None,0,1882.7396327140596,None,return,2.993687041795056,1882.7396327140596,None,,,HESHIYU,M,002,2023_Apr_19_0902,untitled,2021.1.4,60.35409442173986,
18,18,18,36,36,36,90,0.8,0.5,0.5,0.33,0.17,0.25,,stimuli/P_18_18_18_36.png,,,,,0,119,119,171,,,,,,,,,,,,,,,,,,,,,,,,,,,,1885.750661759812,None,1885.750661759812,None,1886.1432564214774,None,1886.1432564214774,None,20,1886.1432564214774,None,return,4.578186075537815,1886.1432564214774,None,,,HESHIYU,M,002,2023_Apr_19_0902,untitled,2021.1.4,60.35409442173986,
18,0,36,36,18,54,90,1.0,0.0,1.0,0.5,0.5,1.0,,stimuli/P_18_00_36_36.png,,,,,0,120,120,143,,,,,,,,,,,,,,,,,,,,,,,,,,,,1890.7432315041515,None,1890.7432315041515,None,1891.1396308936164,None,1891.1396308936164,None,20,1891.1396308936164,None,return,3.660296061068948,1891.1396308936164,None,,,HESHIYU,M,002,2023_Apr_19_0902,untitled,2021.1.4,60.35409442173986,
36,9,36,9,45,72,90,0.9,0.2,0.8,0.8,0.0,0.0,,stimuli/P_36_09_36_09.png,,,,,0,121,121,221,,,,,,,,,,,,,,,,,,,,,,,,,,,,1894.8206418999107,None,1894.8206418999107,None,1895.2105115845698,None,1895.2105115845698,None,30,1895.2105115845698,None,return,6.823198485850298,1895.2105115845698,None,,,HESHIYU,M,002,2023_Apr_19_0902,untitled,2021.1.4,60.35409442173986,
36,36,18,18,72,54,108,0.67,0.5,0.5,0.5,0.0,0.0,,stimuli/P_36_36_18_18.png,,,,,0,122,122,250,,,,,,,,,,,,,,,,,,,,,,,,,,,,1902.049122403805,None,1902.049122403805,None,1902.4432985761305,None,1902.4432985761305,None,30,1902.4432985761305,None,return,2.9583146785225836,1902.4432985761305,None,,,HESHIYU,M,002,2023_Apr_19_0902,untitled,2021.1.4,60.35409442173986,
18,36,18,18,54,36,90,0.6,0.67,0.33,0.5,-0.17,-0.33,,stimuli/P_18_36_18_18.png,,,,,0,123,123,186,,,,,,,,,,,,,,,,,,,,,,,,,,,,1905.4332895478656,None,1905.4332895478656,None,1905.8228338281697,None,1905.8228338281697,None,20,1905.8228338281697,None,return,5.977456646418432,1905.8228338281697,None,,,HESHIYU,M,002,2023_Apr_19_0902,untitled,2021.1.4,60.35409442173986,
36,0,18,18,36,54,72,1.0,0.0,1.0,0.5,0.5,1.0,,stimuli/P_36_00_18_18.png,,,,,0,124,124,202,,,,,,,,,,,,,,,,,,,,,,,,,,,,1911.8227843348504,None,1911.8227843348504,None,1912.2175527203435,None,1912.2175527203435,None,25,1912.2175527203435,None,return,3.344276097632246,1912.2175527203435,None,,,HESHIYU,M,002,2023_Apr_19_0902,untitled,2021.1.4,60.35409442173986,
18,9,9,0,27,27,36,0.75,0.33,0.67,1.0,-0.33,#NAME?,,stimuli/P_18_09_09_00.png,,,,,0,125,125,148,,,,,,,,,,,,,,,,,,,,,,,,,,,,1915.5934482223092,None,1915.5934482223092,None,1915.9782508150747,None,1915.9782508150747,None,25,1915.9782508150747,None,return,4.1523387299967,1915.9782508150747,None,,,HESHIYU,M,002,2023_Apr_19_0902,untitled,2021.1.4,60.35409442173986,
0,9,9,0,9,9,18,0.5,1.0,0.0,1.0,-1.0,#NAME?,,stimuli/P_00_09_09_00.png,,,,,0,126,126,20,,,,,,,,,,,,,,,,,,,,,,,,,,,,1920.1578967728638,None,1920.1578967728638,None,1920.54338999655,None,1920.54338999655,None,0,1920.54338999655,None,return,1.8042397001263453,1920.54338999655,None,,,HESHIYU,M,002,2023_Apr_19_0902,untitled,2021.1.4,60.35409442173986,
0,36,0,9,36,0,45,0.2,1.0,0.0,0.0,0.0,0.0,,stimuli/P_00_36_00_09.png,,,,,0,127,127,49,,,,,,,,,,,,,,,,,,,,,,,,,,,,1922.381099127153,None,1922.381099127153,None,1922.76894470572,None,1922.76894470572,None,0,1922.76894470572,None,return,1.5829505186338793,1922.76894470572,None,,,HESHIYU,M,002,2023_Apr_19_0902,untitled,2021.1.4,60.35409442173986,
9,18,36,18,27,45,81,0.78,0.67,0.33,0.67,-0.33,-1.0,,stimuli/P_09_18_36_18.png,,,,,0,128,128,110,,,,,,,,,,,,,,,,,,,,,,,,,,,,1924.369925583669,None,1924.369925583669,None,1924.7630714985062,None,1924.7630714985062,None,11,1924.7630714985062,None,return,7.6664594015383045,1924.7630714985062,None,,,HESHIYU,M,002,2023_Apr_19_0902,untitled,2021.1.4,60.35409442173986,
36,0,18,0,36,54,54,1.0,0.0,1.0,1.0,0.0,None,,stimuli/P_36_00_18_00.png,,,,,0,129,129,200,,,,,,,,,,,,,,,,,,,,,,,,,,,,1932.4492753210943,None,1932.4492753210943,None,1932.8429918313268,None,1932.8429918313268,None,33,1932.8429918313268,None,return,2.8922348395353765,1932.8429918313268,None,,,HESHIYU,M,002,2023_Apr_19_0902,untitled,2021.1.4,60.35409442173986,
36,18,36,36,54,72,126,0.86,0.33,0.67,0.5,0.17,0.33,,stimuli/P_36_18_36_36.png,,,,,0,130,130,239,,,,,,,,,,,,,,,,,,,,,,,,,,,,1935.7643190714807,None,1935.7643190714807,None,1936.1579161150803,None,1936.1579161150803,None,15,1936.1579161150803,None,None,,1936.1579161150803,None,,,HESHIYU,M,002,2023_Apr_19_0902,untitled,2021.1.4,60.35409442173986,
0,0,0,18,0,0,18,1.0,None,None,0.0,None,None,,stimuli/P_00_00_00_18.png,,,,,0,131,131,2,,,,,,,,,,,,,,,,,,,,,,,,,,,,1944.1716257645166,None,1944.1716257645166,None,1944.5618384890768,None,1944.5618384890768,None,0,1944.5618384890768,None,return,1.4275665272652986,1944.5618384890768,None,,,HESHIYU,M,002,2023_Apr_19_0902,untitled,2021.1.4,60.35409442173986,
0,0,9,9,0,9,18,1.0,None,None,0.5,None,None,,stimuli/P_00_00_09_09.png,,,,,0,132,132,5,,,,,,,,,,,,,,,,,,,,,,,,,,,,1946.0069199624777,None,1946.0069199624777,None,1946.3918807063092,None,1946.3918807063092,None,0,1946.3918807063092,None,return,1.4144763976582908,1946.3918807063092,None,,,HESHIYU,M,002,2023_Apr_19_0902,untitled,2021.1.4,60.35409442173986,
36,18,9,9,54,45,72,0.75,0.33,0.67,0.5,0.17,0.33,,stimuli/P_36_18_09_09.png,,,,,0,133,133,229,,,,,,,,,,,,,,,,,,,,,,,,,,,,1947.839816863343,None,1947.839816863343,None,1948.224133625139,None,1948.224133625139,None,12,1948.224133625139,None,return,6.918433872087917,1948.224133625139,None,,,HESHIYU,M,002,2023_Apr_19_0902,untitled,2021.1.4,60.35409442173986,
9,9,9,9,18,18,36,0.75,0.5,0.5,0.5,0.0,0.0,,stimuli/P_09_09_09_09.png,,,,,0,134,134,85,,,,,,,,,,,,,,,,,,,,,,,,,,,,1955.1750942790823,None,1955.1750942790823,None,1955.5622788089531,None,1955.5622788089531,None,25,1955.5622788089531,None,return,2.3910233909991803,1955.5622788089531,None,,,HESHIYU,M,002,2023_Apr_19_0902,untitled,2021.1.4,60.35409442173986,
36,0,18,36,36,54,90,1.0,0.0,1.0,0.33,0.67,1.0,,stimuli/P_36_00_18_36.png,,,,,0,135,135,203,,,,,,,,,,,,,,,,,,,,,,,,,,,,1957.9770100687601,None,1957.9770100687601,None,1958.3598534087505,None,1958.3598534087505,None,20,1958.3598534087505,None,return,3.6888884084910387,1958.3598534087505,None,,,HESHIYU,M,002,2023_Apr_19_0902,untitled,2021.1.4,60.35409442173986,
0,36,18,0,36,18,54,0.33,1.0,0.0,1.0,-1.0,#NAME?,,stimuli/P_00_36_18_00.png,,,,,0,136,136,56,,,,,,,,,,,,,,,,,,,,,,,,,,,,1962.0838906072531,None,1962.0838906072531,None,1962.465340738745,None,1962.465340738745,None,0,1962.465340738745,None,return,1.588584792581969,1962.465340738745,None,,,HESHIYU,M,002,2023_Apr_19_0902,untitled,2021.1.4,60.35409442173986,
9,9,36,36,18,45,90,0.9,0.5,0.5,0.5,0.0,0.0,,stimuli/P_09_09_36_36.png,,,,,0,137,137,95,,,,,,,,,,,,,,,,,,,,,,,,,,,,1964.0698828601235,None,1964.0698828601235,None,1964.4632386949015,None,1964.4632386949015,None,10,1964.4632386949015,None,return,5.369038686141721,1964.4632386949015,None,,,HESHIYU,M,002,2023_Apr_19_0902,untitled,2021.1.4,60.35409442173986,
18,36,9,18,54,27,81,0.56,0.67,0.33,0.33,0.0,0.0,,stimuli/P_18_36_09_18.png,,,,,0,138,138,182,,,,,,,,,,,,,,,,,,,,,,,,,,,,1969.8636396476795,None,1969.8636396476795,None,1970.2575137400854,None,1970.2575137400854,None,11,1970.2575137400854,None,return,7.046791666689387,1970.2575137400854,None,,,HESHIYU,M,002,2023_Apr_19_0902,untitled,2021.1.4,60.35409442173986,
18,18,0,9,36,18,45,0.6,0.5,0.5,0.0,0.5,0.5,,stimuli/P_18_18_00_09.png,,,,,0,139,139,161,,,,,,,,,,,,,,,,,,,,,,,,,,,,1977.3289422708767,None,1977.3289422708767,None,1977.7133290059865,None,1977.7133290059865,None,40,1977.7133290059865,None,return,5.534885678964201,1977.7133290059865,None,,,HESHIYU,M,002,2023_Apr_19_0902,untitled,2021.1.4,60.35409442173986,
0,9,9,36,9,9,54,0.83,1.0,0.0,0.2,-0.2,-0.25,,stimuli/P_00_09_09_36.png,,,,,0,140,140,23,,,,,,,,,,,,,,,,,,,,,,,,,,,,1983.2694518700227,None,1983.2694518700227,None,1983.6540906228402,None,1983.6540906228402,None,0,1983.6540906228402,None,return,1.602056077637826,1983.6540906228402,None,,,HESHIYU,M,002,2023_Apr_19_0902,untitled,2021.1.4,60.35409442173986,
0,0,36,9,0,36,45,1.0,None,None,0.8,None,None,,stimuli/P_00_00_36_09.png,,,,,0,141,141,13,,,,,,,,,,,,,,,,,,,,,,,,,,,,1985.28279458623,None,1985.28279458623,None,1985.6704456048537,None,1985.6704456048537,None,0,1985.6704456048537,None,return,1.3308309814528911,1985.6704456048537,None,,,HESHIYU,M,002,2023_Apr_19_0902,untitled,2021.1.4,60.35409442173986,
18,9,36,18,27,54,81,0.89,0.33,0.67,0.67,0.0,0.0,,stimuli/P_18_09_36_18.png,,,,,0,142,142,158,,,,,,,,,,,,,,,,,,,,,,,,,,,,1987.036997109477,None,1987.036997109477,None,1987.4299752021398,None,1987.4299752021398,None,22,1987.4299752021398,None,return,4.249508906803385,1987.4299752021398,None,,,HESHIYU,M,002,2023_Apr_19_0902,untitled,2021.1.4,60.35409442173986,
0,0,9,0,0,9,9,1.0,None,None,1.0,None,None,,stimuli/P_00_00_09_00.png,,,,,0,143,143,4,,,,,,,,,,,,,,,,,,,,,,,,,,,,1991.6995641743488,None,1991.6995641743488,None,1992.0818391944995,None,1992.0818391944995,None,0,1992.0818391944995,None,return,1.2650037290659384,1992.0818391944995,None,,,HESHIYU,M,002,2023_Apr_19_0902,untitled,2021.1.4,60.35409442173986,
9,36,0,18,45,9,63,0.43,0.8,0.2,0.0,0.2,0.2,,stimuli/P_09_36_00_18.png,,,,,0,144,144,114,,,,,,,,,,,,,,,,,,,,,,,,,,,,1993.3766663461938,None,1993.3766663461938,None,1993.7670605462627,None,1993.7670605462627,None,15,1993.7670605462627,None,None,,1993.7670605462627,None,,,HESHIYU,M,002,2023_Apr_19_0902,untitled,2021.1.4,60.35409442173986,
36,36,0,18,72,36,90,0.6,0.5,0.5,0.0,0.5,0.5,,stimuli/P_36_36_00_18.png,,,,,0,145,145,242,,,,,,,,,,,,,,,,,,,,,,,,,,,,2001.7775161521713,None,2001.7775161521713,None,2002.167415987933,None,2002.167415987933,None,20,2002.167415987933,None,return,2.7330415692704264,2002.167415987933,None,,,HESHIYU,M,002,2023_Apr_19_0902,untitled,2021.1.4,60.35409442173986,
36,9,18,36,45,54,99,0.91,0.2,0.8,0.33,0.47,0.7,,stimuli/P_36_09_18_36.png,,,,,0,146,146,219,,,,,,,,,,,,,,,,,,,,,,,,,,,,2004.9281430959963,None,2004.9281430959963,None,2005.3133962486318,None,2005.3133962486318,None,44,2005.3133962486318,None,return,7.597401998966234,2005.3133962486318,None,,,HESHIYU,M,002,2023_Apr_19_0902,untitled,2021.1.4,60.35409442173986,
18,18,18,18,36,36,72,0.75,0.5,0.5,0.5,0.0,0.0,,stimuli/P_18_18_18_18.png,,,,,0,147,147,170,,,,,,,,,,,,,,,,,,,,,,,,,,,,2012.9311587751363,None,2012.9311587751363,None,2013.317019500937,None,2013.317019500937,None,25,2013.317019500937,None,return,5.126622683979804,2013.317019500937,None,,,HESHIYU,M,002,2023_Apr_19_0902,untitled,2021.1.4,60.35409442173986,
0,9,0,0,9,0,9,0.0,1.0,0.0,None,None,None,,stimuli/P_00_09_00_00.png,,,,,0,148,148,16,,,,,,,,,,,,,,,,,,,,,,,,,,,,2018.4766172510936,None,2018.4766172510936,None,2018.8626770879491,None,2018.8626770879491,None,0,2018.8626770879491,None,return,1.2770510856425972,2018.8626770879491,None,,,HESHIYU,M,002,2023_Apr_19_0902,untitled,2021.1.4,60.35409442173986,
9,0,0,0,9,9,9,1.0,0.0,1.0,None,None,None,,stimuli/P_09_00_00_00.png,,,,,0,149,149,64,,,,,,,,,,,,,,,,,,,,,,,,,,,,2020.163041802516,None,2020.163041802516,None,2020.554426437855,None,2020.554426437855,None,100,2020.554426437855,None,return,3.0115694900378003,2020.554426437855,None,,,HESHIYU,M,002,2023_Apr_19_0902,untitled,2021.1.4,60.35409442173986,
9,18,9,9,27,18,45,0.6,0.67,0.33,0.5,-0.17,-0.33,,stimuli/P_09_18_09_09.png,,,,,0,150,150,101,,,,,,,,,,,,,,,,,,,,,,,,,,,,2023.5941792443264,None,2023.5941792443264,None,2023.9793066725542,None,2023.9793066725542,None,17,2023.9793066725542,None,return,7.70958685594087,2023.9793066725542,None,,,HESHIYU,M,002,2023_Apr_19_0902,untitled,2021.1.4,60.35409442173986,
9,0,9,18,9,18,36,1.0,0.0,1.0,0.33,0.67,1.0,,stimuli/P_09_00_09_18.png,,,,,0,151,151,70,,,,,,,,,,,,,,,,,,,,,,,,,,,,2031.7200748885152,None,2031.7200748885152,None,2032.1044798280564,None,2032.1044798280564,None,25,2032.1044798280564,None,return,3.768423034758598,2032.1044798280564,None,,,HESHIYU,M,002,2023_Apr_19_0902,untitled,2021.1.4,60.35409442173986,
18,36,9,36,54,27,99,0.64,0.67,0.33,0.2,0.13,0.17,,stimuli/P_18_36_09_36.png,,,,,0,152,152,183,,,,,,,,,,,,,,,,,,,,,,,,,,,,2035.8907039599799,None,2035.8907039599799,None,2036.280734640146,None,2036.280734640146,None,18,2036.280734640146,None,return,6.485508981902967,2036.280734640146,None,,,HESHIYU,M,002,2023_Apr_19_0902,untitled,2021.1.4,60.35409442173986,
18,0,18,0,18,36,36,1.0,0.0,1.0,1.0,0.0,None,,stimuli/P_18_00_18_00.png,,,,,0,153,153,136,,,,,,,,,,,,,,,,,,,,,,,,,,,,2042.7844190479882,None,2042.7844190479882,None,2043.1741385460264,None,2043.1741385460264,None,50,2043.1741385460264,None,return,2.3926612216455396,2043.1741385460264,None,,,HESHIYU,M,002,2023_Apr_19_0902,untitled,2021.1.4,60.35409442173986,
18,9,9,9,27,27,45,0.8,0.33,0.67,0.5,0.17,0.33,,stimuli/P_18_09_09_09.png,,,,,0,154,154,149,,,,,,,,,,,,,,,,,,,,,,,,,,,,2045.5865424820513,None,2045.5865424820513,None,2045.9711533593145,None,2045.9711533593145,None,,2045.9711533593145,None,None,,2045.9711533593145,None,,,HESHIYU,M,002,2023_Apr_19_0902,untitled,2021.1.4,60.35409442173986,
36,18,36,0,54,72,90,0.8,0.33,0.67,1.0,-0.33,#NAME?,,stimuli/P_36_18_36_00.png,,,,,0,155,155,236,,,,,,,,,,,,,,,,,,,,,,,,,,,,2053.9825237383047,None,2053.9825237383047,None,2054.373656355936,None,2054.373656355936,None,40,2054.373656355936,None,return,7.541332326021802,2054.373656355936,None,,,HESHIYU,M,002,2023_Apr_19_0902,untitled,2021.1.4,60.35409442173986,
9,18,36,0,27,45,63,0.71,0.67,0.33,1.0,-0.67,#NAME?,,stimuli/P_09_18_36_00.png,,,,,0,156,156,108,,,,,,,,,,,,,,,,,,,,,,,,,,,,2061.9384103997436,None,2061.9384103997436,None,2062.329397381858,None,2062.329397381858,None,15,2062.329397381858,None,None,,2062.329397381858,None,,,HESHIYU,M,002,2023_Apr_19_0902,untitled,2021.1.4,60.35409442173986,
9,18,36,36,27,45,99,0.82,0.67,0.33,0.5,-0.17,-0.33,,stimuli/P_09_18_36_36.png,,,,,0,157,157,111,,,,,,,,,,,,,,,,,,,,,,,,,,,,2070.335158517999,None,2070.335158517999,None,2070.7261375356757,None,2070.7261375356757,None,9,2070.7261375356757,None,return,6.3841625929489965,2070.7261375356757,None,,,HESHIYU,M,002,2023_Apr_19_0902,untitled,2021.1.4,60.35409442173986,
18,9,0,18,27,18,45,0.8,0.33,0.67,0.0,0.67,0.67,,stimuli/P_18_09_00_18.png,,,,,0,158,158,146,,,,,,,,,,,,,,,,,,,,,,,,,,,,2077.1285637323235,None,2077.1285637323235,None,2077.5131797295835,None,2077.5131797295835,None,40,2077.5131797295835,None,return,4.614961318409769,2077.5131797295835,None,,,HESHIYU,M,002,2023_Apr_19_0902,untitled,2021.1.4,60.35409442173986,
18,0,36,0,18,54,54,1.0,0.0,1.0,1.0,0.0,None,,stimuli/P_18_00_36_00.png,,,,,0,159,159,140,,,,,,,,,,,,,,,,,,,,,,,,,,,,2082.1487706599073,None,2082.1487706599073,None,2082.537463313791,None,2082.537463313791,None,26,2082.537463313791,None,None,,2082.537463313791,None,,,HESHIYU,M,002,2023_Apr_19_0902,untitled,2021.1.4,60.35409442173986,
9,36,18,9,45,27,72,0.5,0.8,0.2,0.67,-0.47,-1.4,,stimuli/P_09_36_18_09.png,,,,,0,160,160,121,,,,,,,,,,,,,,,,,,,,,,,,,,,,2090.548434901779,None,2090.548434901779,None,2090.943058789533,None,2090.943058789533,None,13,2090.943058789533,None,return,5.913044220287702,2090.943058789533,None,,,HESHIYU,M,002,2023_Apr_19_0902,untitled,2021.1.4,60.35409442173986,
0,0,18,18,0,18,36,1.0,None,None,0.5,None,None,,stimuli/P_00_00_18_18.png,,,,,0,161,161,10,,,,,,,,,,,,,,,,,,,,,,,,,,,,2096.876316764072,None,2096.876316764072,None,2097.25807409548,None,2097.25807409548,None,0,2097.25807409548,None,return,1.4985962670689332,2097.25807409548,None,,,HESHIYU,M,002,2023_Apr_19_0902,untitled,2021.1.4,60.35409442173986,
18,0,0,0,18,18,18,1.0,0.0,1.0,None,None,None,,stimuli/P_18_00_00_00.png,,,,,0,162,162,128,,,,,,,,,,,,,,,,,,,,,,,,,,,,2098.7845487546147,None,2098.7845487546147,None,2099.172250973228,None,2099.172250973228,None,100,2099.172250973228,None,return,2.2899079708731733,2099.172250973228,None,,,HESHIYU,M,002,2023_Apr_19_0902,untitled,2021.1.4,60.35409442173986,
0,18,36,9,18,36,63,0.71,1.0,0.0,0.8,-0.8,-4.0,,stimuli/P_00_18_36_09.png,,,,,0,163,163,45,,,,,,,,,,,,,,,,,,,,,,,,,,,,2101.48103410317,None,2101.48103410317,None,2101.8707206056642,None,2101.8707206056642,None,0,2101.8707206056642,None,return,2.298968661627441,2101.8707206056642,None,,,HESHIYU,M,002,2023_Apr_19_0902,untitled,2021.1.4,60.35409442173986,
36,9,9,36,45,45,90,0.9,0.2,0.8,0.2,0.6,0.75,,stimuli/P_36_09_09_36.png,,,,,0,164,164,215,,,,,,,,,,,,,,,,,,,,,,,,,,,,2104.1905265235837,None,2104.1905265235837,None,2104.5760601383663,None,2104.5760601383663,None,40,2104.5760601383663,None,return,5.725677873582754,2104.5760601383663,None,,,HESHIYU,M,002,2023_Apr_19_0902,untitled,2021.1.4,60.35409442173986,
18,18,36,36,36,54,108,0.83,0.5,0.5,0.5,0.0,0.0,,stimuli/P_18_18_36_36.png,,,,,0,165,165,175,,,,,,,,,,,,,,,,,,,,,,,,,,,,2110.319962931215,None,2110.319962931215,None,2110.7048150172996,None,2110.7048150172996,None,16,2110.7048150172996,None,return,5.908191599446582,2110.7048150172996,None,,,HESHIYU,M,002,2023_Apr_19_0902,untitled,2021.1.4,60.35409442173986,
18,18,0,0,36,18,36,0.5,0.5,0.5,None,None,None,,stimuli/P_18_18_00_00.png,,,,,0,166,166,160,,,,,,,,,,,,,,,,,,,,,,,,,,,,2116.650181788391,None,2116.650181788391,None,2117.038128629152,None,2117.038128629152,None,50,2117.038128629152,None,return,2.8503839714467176,2117.038128629152,None,,,HESHIYU,M,002,2023_Apr_19_0902,untitled,2021.1.4,60.35409442173986,
0,0,0,0,0,0,0,None,None,None,None,None,None,,stimuli/P_00_00_00_00.png,,,,,0,167,167,0,,,,,,,,,,,,,,,,,,,,,,,,,,,,2119.9076306751667,None,2119.9076306751667,None,2120.2975703331394,None,2120.2975703331394,None,0,2120.2975703331394,None,return,3.171022742470086,2120.2975703331394,None,,,HESHIYU,M,002,2023_Apr_19_0902,untitled,2021.1.4,60.35409442173986,
36,36,18,9,72,54,99,0.64,0.5,0.5,0.67,-0.17,-0.5,,stimuli/P_36_36_18_09.png,,,,,0,168,168,249,,,,,,,,,,,,,,,,,,,,,,,,,,,,2123.4988972092033,None,2123.4988972092033,None,2123.8831121399126,None,2123.8831121399126,None,,2123.8831121399126,None,None,,2123.8831121399126,None,,,HESHIYU,M,002,2023_Apr_19_0902,untitled,2021.1.4,60.35409442173986,
36,36,9,36,72,45,117,0.69,0.5,0.5,0.2,0.3,0.37,,stimuli/P_36_36_09_36.png,,,,,0,169,169,247,,,,,,,,,,,,,,,,,,,,,,,,,,,,2131.8832515176546,None,2131.8832515176546,None,2132.2701464831625,None,2132.2701464831625,None,40,2132.2701464831625,None,return,7.8034358603617875,2132.2701464831625,None,,,HESHIYU,M,002,2023_Apr_19_0902,untitled,2021.1.4,60.35409442173986,
9,36,36,0,45,45,81,0.56,0.8,0.2,1.0,-0.8,#NAME?,,stimuli/P_09_36_36_00.png,,,,,0,170,170,124,,,,,,,,,,,,,,,,,,,,,,,,,,,,2140.0955818394796,None,2140.0955818394796,None,2140.4789548148765,None,2140.4789548148765,None,10,2140.4789548148765,None,return,5.023236828943482,2140.4789548148765,None,,,HESHIYU,M,002,2023_Apr_19_0902,untitled,2021.1.4,60.35409442173986,
9,18,36,9,27,45,72,0.75,0.67,0.33,0.8,-0.47,-2.33,,stimuli/P_09_18_36_09.png,,,,,0,171,171,109,,,,,,,,,,,,,,,,,,,,,,,,,,,,2145.5248288640505,None,2145.5248288640505,None,2145.908761057064,None,2145.908761057064,None,8,2145.908761057064,None,return,3.5987758652336197,2145.908761057064,None,,,HESHIYU,M,002,2023_Apr_19_0902,untitled,2021.1.4,60.35409442173986,
36,0,0,18,36,36,54,1.0,0.0,1.0,0.0,1.0,1.0,,stimuli/P_36_00_00_18.png,,,,,0,172,172,194,,,,,,,,,,,,,,,,,,,,,,,,,,,,2149.529433449403,None,2149.529433449403,None,2149.911222069699,None,2149.911222069699,None,85,2149.911222069699,None,return,4.688489617496089,2149.911222069699,None,,,HESHIYU,M,002,2023_Apr_19_0902,untitled,2021.1.4,60.35409442173986,
0,0,0,9,0,0,9,1.0,None,None,0.0,None,None,,stimuli/P_00_00_00_09.png,,,,,0,173,173,1,,,,,,,,,,,,,,,,,,,,,,,,,,,,2154.6322708957086,None,2154.6322708957086,None,2155.0201568653792,None,2155.0201568653792,None,0,2155.0201568653792,None,return,1.558838169927185,2155.0201568653792,None,,,HESHIYU,M,002,2023_Apr_19_0902,untitled,2021.1.4,60.35409442173986,
0,18,0,0,18,0,18,0.0,1.0,0.0,None,None,None,,stimuli/P_00_18_00_00.png,,,,,0,174,174,32,,,,,,,,,,,,,,,,,,,,,,,,,,,,2156.6006958646904,None,2156.6006958646904,None,2156.989792998458,None,2156.989792998458,None,0,2156.989792998458,None,return,1.8666649979204522,2156.989792998458,None,,,HESHIYU,M,002,2023_Apr_19_0902,untitled,2021.1.4,60.35409442173986,
18,9,9,36,27,27,72,0.88,0.33,0.67,0.2,0.47,0.58,,stimuli/P_18_09_09_36.png,,,,,0,175,175,151,,,,,,,,,,,,,,,,,,,,,,,,,,,,2158.872934151703,None,2158.872934151703,None,2159.2563708426314,None,2159.2563708426314,None,20,2159.2563708426314,None,return,4.7362978883393225,2159.2563708426314,None,,,HESHIYU,M,002,2023_Apr_19_0902,untitled,2021.1.4,60.35409442173986,
36,18,0,0,54,36,54,0.67,0.33,0.67,None,None,None,,stimuli/P_36_18_00_00.png,,,,,0,176,176,224,,,,,,,,,,,,,,,,,,,,,,,,,,,,2164.0282646675187,None,2164.0282646675187,None,2164.413485962388,None,2164.413485962388,None,75,2164.413485962388,None,return,4.310148462893267,2164.413485962388,None,,,HESHIYU,M,002,2023_Apr_19_0902,untitled,2021.1.4,60.35409442173986,
36,9,18,9,45,54,72,0.88,0.2,0.8,0.67,0.13,0.4,,stimuli/P_36_09_18_09.png,,,,,0,177,177,217,,,,,,,,,,,,,,,,,,,,,,,,,,,,2168.7390848742143,None,2168.7390848742143,None,2169.123056889439,None,2169.123056889439,None,50,2169.123056889439,None,return,5.911267011906602,2169.123056889439,None,,,HESHIYU,M,002,2023_Apr_19_0902,untitled,2021.1.4,60.35409442173986,
18,9,0,9,27,18,36,0.75,0.33,0.67,0.0,0.67,0.67,,stimuli/P_18_09_00_09.png,,,,,0,178,178,145,,,,,,,,,,,,,,,,,,,,,,,,,,,,2175.0536962691694,None,2175.0536962691694,None,2175.438703661879,None,2175.438703661879,None,50,2175.438703661879,None,return,4.283028968384315,2175.438703661879,None,,,HESHIYU,M,002,2023_Apr_19_0902,untitled,2021.1.4,60.35409442173986,
18,0,0,18,18,18,36,1.0,0.0,1.0,0.0,1.0,1.0,,stimuli/P_18_00_00_18.png,,,,,0,179,179,130,,,,,,,,,,,,,,,,,,,,,,,,,,,,2179.739666847381,None,2179.739666847381,None,2180.1258302219867,None,2180.1258302219867,None,50,2180.1258302219867,None,return,1.6163090158079285,2180.1258302219867,None,,,HESHIYU,M,002,2023_Apr_19_0902,untitled,2021.1.4,60.35409442173986,
9,0,0,9,9,9,18,1.0,0.0,1.0,0.0,1.0,1.0,,stimuli/P_09_00_00_09.png,,,,,0,180,180,65,,,,,,,,,,,,,,,,,,,,,,,,,,,,2181.7769688812186,None,2181.7769688812186,None,2182.165311668534,None,2182.165311668534,None,50,2182.165311668534,None,return,1.7821952619560761,2182.165311668534,None,,,HESHIYU,M,002,2023_Apr_19_0902,untitled,2021.1.4,60.35409442173986,
9,0,36,36,9,45,81,1.0,0.0,1.0,0.5,0.5,1.0,,stimuli/P_09_00_36_36.png,,,,,0,181,181,79,,,,,,,,,,,,,,,,,,,,,,,,,,,,2183.9679414135608,None,2183.9679414135608,None,2184.3603102264024,None,2184.3603102264024,None,10,2184.3603102264024,None,return,3.446907037323399,2184.3603102264024,None,,,HESHIYU,M,002,2023_Apr_19_0902,untitled,2021.1.4,60.35409442173986,
9,9,36,0,18,45,54,0.83,0.5,0.5,1.0,-0.5,#NAME?,,stimuli/P_09_09_36_00.png,,,,,0,182,182,92,,,,,,,,,,,,,,,,,,,,,,,,,,,,2187.829005133084,None,2187.829005133084,None,2188.2172762404225,None,2188.2172762404225,None,8,2188.2172762404225,None,return,3.2184822845229064,2188.2172762404225,None,,,HESHIYU,M,002,2023_Apr_19_0902,untitled,2021.1.4,60.35409442173986,
18,36,0,0,54,18,54,0.33,0.67,0.33,None,None,None,,stimuli/P_18_36_00_00.png,,,,,0,183,183,176,,,,,,,,,,,,,,,,,,,,,,,,,,,,2191.4686903555703,None,2191.4686903555703,None,2191.8530560418003,None,2191.8530560418003,None,45,2191.8530560418003,None,return,3.8238390545520815,2191.8530560418003,None,,,HESHIYU,M,002,2023_Apr_19_0902,untitled,2021.1.4,60.35409442173986,
0,36,0,0,36,0,36,0.0,1.0,0.0,None,None,None,,stimuli/P_00_36_00_00.png,,,,,0,184,184,48,,,,,,,,,,,,,,,,,,,,,,,,,,,,2195.710885628905,None,2195.710885628905,None,2196.0923829781677,None,2196.0923829781677,None,0,2196.0923829781677,None,return,2.002573083715106,2196.0923829781677,None,,,HESHIYU,M,002,2023_Apr_19_0902,untitled,2021.1.4,60.35409442173986,
9,9,18,18,18,27,54,0.83,0.5,0.5,0.5,0.0,0.0,,stimuli/P_09_09_18_18.png,,,,,0,185,185,90,,,,,,,,,,,,,,,,,,,,,,,,,,,,2198.129147981046,None,2198.129147981046,None,2198.5132178451313,None,2198.5132178451313,None,20,2198.5132178451313,None,return,3.661866762849968,2198.5132178451313,None,,,HESHIYU,M,002,2023_Apr_19_0902,untitled,2021.1.4,60.35409442173986,
36,36,36,9,72,72,117,0.69,0.5,0.5,0.8,-0.3,-1.5,,stimuli/P_36_36_36_09.png,,,,,0,186,186,253,,,,,,,,,,,,,,,,,,,,,,,,,,,,2202.1938181137593,None,2202.1938181137593,None,2202.579247053014,None,2202.579247053014,None,30,2202.579247053014,None,return,5.770461363063077,2202.579247053014,None,,,HESHIYU,M,002,2023_Apr_19_0902,untitled,2021.1.4,60.35409442173986,
18,18,18,9,36,36,63,0.71,0.5,0.5,0.67,-0.17,-0.5,,stimuli/P_18_18_18_09.png,,,,,0,187,187,169,,,,,,,,,,,,,,,,,,,,,,,,,,,,2208.367685868747,None,2208.367685868747,None,2208.753800887811,None,2208.753800887811,None,28,2208.753800887811,None,return,5.953547959878051,2208.753800887811,None,,,HESHIYU,M,002,2023_Apr_19_0902,untitled,2021.1.4,60.35409442173986,
9,36,18,18,45,27,81,0.56,0.8,0.2,0.5,-0.3,-0.6,,stimuli/P_09_36_18_18.png,,,,,0,188,188,122,,,,,,,,,,,,,,,,,,,,,,,,,,,,2214.7298745657245,None,2214.7298745657245,None,2215.1208581345127,None,2215.1208581345127,None,9,2215.1208581345127,None,return,4.240079007264285,2215.1208581345127,None,,,HESHIYU,M,002,2023_Apr_19_0902,untitled,2021.1.4,60.35409442173986,
18,0,9,18,18,27,45,1.0,0.0,1.0,0.33,0.67,1.0,,stimuli/P_18_00_09_18.png,,,,,0,189,189,134,,,,,,,,,,,,,,,,,,,,,,,,,,,,2219.3834201931604,None,2219.3834201931604,None,2219.774384419732,None,2219.774384419732,None,40,2219.774384419732,None,return,7.341258142929291,2219.774384419732,None,,,HESHIYU,M,002,2023_Apr_19_0902,untitled,2021.1.4,60.35409442173986,
0,36,9,36,36,9,81,0.56,1.0,0.0,0.2,-0.2,-0.25,,stimuli/P_00_36_09_36.png,,,,,0,190,190,55,,,,,,,,,,,,,,,,,,,,,,,,,,,,2227.1436279058107,None,2227.1436279058107,None,2227.5265952635455,None,2227.5265952635455,None,0,2227.5265952635455,None,return,1.6698841116740368,2227.5265952635455,None,,,HESHIYU,M,002,2023_Apr_19_0902,untitled,2021.1.4,60.35409442173986,
0,36,18,9,36,18,63,0.43,1.0,0.0,0.67,-0.67,-2.0,,stimuli/P_00_36_18_09.png,,,,,0,191,191,57,,,,,,,,,,,,,,,,,,,,,,,,,,,,2229.228619312751,None,2229.228619312751,None,2229.612155559211,None,2229.612155559211,None,0,2229.612155559211,None,return,1.4717276524897898,2229.612155559211,None,,,HESHIYU,M,002,2023_Apr_19_0902,untitled,2021.1.4,60.35409442173986,
0,36,36,18,36,36,90,0.6,1.0,0.0,0.67,-0.67,-2.0,,stimuli/P_00_36_36_18.png,,,,,0,192,192,62,,,,,,,,,,,,,,,,,,,,,,,,,,,,2231.112844199015,None,2231.112844199015,None,2231.4971564096995,None,2231.4971564096995,None,0,2231.4971564096995,None,return,1.465766267516301,2231.4971564096995,None,,,HESHIYU,M,002,2023_Apr_19_0902,untitled,2021.1.4,60.35409442173986,
18,36,0,36,54,18,90,0.6,0.67,0.33,0.0,0.33,0.33,,stimuli/P_18_36_00_36.png,,,,,0,193,193,179,,,,,,,,,,,,,,,,,,,,,,,,,,,,2232.99598649003,None,2232.99598649003,None,2233.379622292021,None,2233.379622292021,None,20,2233.379622292021,None,return,3.9189947963750456,2233.379622292021,None,,,HESHIYU,M,002,2023_Apr_19_0902,untitled,2021.1.4,60.35409442173986,
18,0,18,36,18,36,72,1.0,0.0,1.0,0.33,0.67,1.0,,stimuli/P_18_00_18_36.png,,,,,0,194,194,139,,,,,,,,,,,,,,,,,,,,,,,,,,,,2237.317705580739,None,2237.317705580739,None,2237.704617612908,None,2237.704617612908,None,25,2237.704617612908,None,return,4.3104795561303035,2237.704617612908,None,,,HESHIYU,M,002,2023_Apr_19_0902,untitled,2021.1.4,60.35409442173986,
9,0,9,0,9,18,18,1.0,0.0,1.0,1.0,0.0,None,,stimuli/P_09_00_09_00.png,,,,,0,195,195,68,,,,,,,,,,,,,,,,,,,,,,,,,,,,2242.038341962427,None,2242.038341962427,None,2242.42765527391,None,2242.42765527391,None,50,2242.42765527391,None,return,1.9709940704706241,2242.42765527391,None,,,HESHIYU,M,002,2023_Apr_19_0902,untitled,2021.1.4,60.35409442173986,
18,36,18,36,54,36,108,0.67,0.67,0.33,0.33,0.0,0.0,,stimuli/P_18_36_18_36.png,,,,,0,196,196,187,,,,,,,,,,,,,,,,,,,,,,,,,,,,2244.432126170417,None,2244.432126170417,None,2244.8273178091185,None,2244.8273178091185,None,16,2244.8273178091185,None,return,5.863340412208345,2244.8273178091185,None,,,HESHIYU,M,002,2023_Apr_19_0902,untitled,2021.1.4,60.35409442173986,
9,0,36,18,9,45,63,1.0,0.0,1.0,0.67,0.33,1.0,,stimuli/P_09_00_36_18.png,,,,,0,197,197,78,,,,,,,,,,,,,,,,,,,,,,,,,,,,2250.70782500755,None,2250.70782500755,None,2251.0916701605893,None,2251.0916701605893,None,,2251.0916701605893,None,None,,2251.0916701605893,None,,,HESHIYU,M,002,2023_Apr_19_0902,untitled,2021.1.4,60.35409442173986,
9,0,9,36,9,18,54,1.0,0.0,1.0,0.2,0.8,1.0,,stimuli/P_09_00_09_36.png,,,,,0,198,198,71,,,,,,,,,,,,,,,,,,,,,,,,,,,,2259.1053451078114,None,2259.1053451078114,None,2259.494150401668,None,2259.494150401668,None,16,2259.494150401668,None,return,7.175433905649697,2259.494150401668,None,,,HESHIYU,M,002,2023_Apr_19_0902,untitled,2021.1.4,60.35409442173986,
9,18,0,36,27,9,63,0.71,0.67,0.33,0.0,0.33,0.33,,stimuli/P_09_18_00_36.png,,,,,0,199,199,99,,,,,,,,,,,,,,,,,,,,,,,,,,,,2266.689689403822,None,2266.689689403822,None,2267.073940174523,None,2267.073940174523,None,15,2267.073940174523,None,None,,2267.073940174523,None,,,HESHIYU,M,002,2023_Apr_19_0902,untitled,2021.1.4,60.35409442173986,
0,9,9,18,9,9,36,0.75,1.0,0.0,0.33,-0.33,-0.5,,stimuli/P_00_09_09_18.png,,,,,0,200,200,22,,,,,,,,,,,,,,,,,,,,,,,,,,,,2275.0748896498117,None,2275.0748896498117,None,2275.45848790514,None,2275.45848790514,None,0,2275.45848790514,None,return,2.521630571623973,2275.45848790514,None,,,HESHIYU,M,002,2023_Apr_19_0902,untitled,2021.1.4,60.35409442173986,
36,0,36,9,36,72,81,1.0,0.0,1.0,0.8,0.2,1.0,,stimuli/P_36_00_36_09.png,,,,,0,201,201,205,,,,,,,,,,,,,,,,,,,,,,,,,,,,2277.9988633603207,None,2277.9988633603207,None,2278.3828234288885,None,2278.3828234288885,None,11,2278.3828234288885,None,return,6.819257793627912,2278.3828234288885,None,,,HESHIYU,M,002,2023_Apr_19_0902,untitled,2021.1.4,60.35409442173986,
18,36,9,0,54,27,63,0.43,0.67,0.33,1.0,-0.67,#NAME?,,stimuli/P_18_36_09_00.png,,,,,0,202,202,180,,,,,,,,,,,,,,,,,,,,,,,,,,,,2285.221998016852,None,2285.221998016852,None,2285.61038688416,None,2285.61038688416,None,,2285.61038688416,None,None,,2285.61038688416,None,,,HESHIYU,M,002,2023_Apr_19_0902,untitled,2021.1.4,60.35409442173986,
9,0,18,18,9,27,45,1.0,0.0,1.0,0.5,0.5,1.0,,stimuli/P_09_00_18_18.png,,,,,0,203,203,74,,,,,,,,,,,,,,,,,,,,,,,,,,,,2293.6212099921904,None,2293.6212099921904,None,2294.0151574712436,None,2294.0151574712436,None,20,2294.0151574712436,None,return,6.188256657565944,2294.0151574712436,None,,,HESHIYU,M,002,2023_Apr_19_0902,untitled,2021.1.4,60.35409442173986,
18,18,0,18,36,18,54,0.67,0.5,0.5,0.0,0.5,0.5,,stimuli/P_18_18_00_18.png,,,,,0,204,204,162,,,,,,,,,,,,,,,,,,,,,,,,,,,,2300.2373665458144,None,2300.2373665458144,None,2300.6201763213758,None,2300.6201763213758,None,33,2300.6201763213758,None,return,3.3165222921888926,2300.6201763213758,None,,,HESHIYU,M,002,2023_Apr_19_0902,untitled,2021.1.4,60.35409442173986,
0,18,9,0,18,9,27,0.33,1.0,0.0,1.0,-1.0,#NAME?,,stimuli/P_00_18_09_00.png,,,,,0,205,205,36,,,,,,,,,,,,,,,,,,,,,,,,,,,,2303.968591653378,None,2303.968591653378,None,2304.35027161592,None,2304.35027161592,None,0,2304.35027161592,None,return,1.5059468783147167,2304.35027161592,None,,,HESHIYU,M,002,2023_Apr_19_0902,untitled,2021.1.4,60.35409442173986,
9,0,36,0,9,45,45,1.0,0.0,1.0,1.0,0.0,None,,stimuli/P_09_00_36_00.png,,,,,0,206,206,76,,,,,,,,,,,,,,,,,,,,,,,,,,,,2305.883131482129,None,2305.883131482129,None,2306.2676200483256,None,2306.2676200483256,None,20,2306.2676200483256,None,return,4.598831616327516,2306.2676200483256,None,,,HESHIYU,M,002,2023_Apr_19_0902,untitled,2021.1.4,60.35409442173986,
36,0,9,18,36,45,63,1.0,0.0,1.0,0.33,0.67,1.0,,stimuli/P_36_00_09_18.png,,,,,0,207,207,198,,,,,,,,,,,,,,,,,,,,,,,,,,,,2310.9008375748745,None,2310.9008375748745,None,2311.2858153853667,None,2311.2858153853667,None,60,2311.2858153853667,None,return,6.311439840304956,2311.2858153853667,None,,,HESHIYU,M,002,2023_Apr_19_0902,untitled,2021.1.4,60.35409442173986,
9,9,9,36,18,18,63,0.86,0.5,0.5,0.2,0.3,0.37,,stimuli/P_09_09_09_36.png,,,,,0,208,208,87,,,,,,,,,,,,,,,,,,,,,,,,,,,,2317.616392642449,None,2317.616392642449,None,2318.0004772976463,None,2318.0004772976463,None,1,2318.0004772976463,None,None,,2318.0004772976463,None,,,HESHIYU,M,002,2023_Apr_19_0902,untitled,2021.1.4,60.35409442173986,
36,36,9,9,72,45,90,0.6,0.5,0.5,0.5,0.0,0.0,,stimuli/P_36_36_09_09.png,,,,,0,209,209,245,,,,,,,,,,,,,,,,,,,,,,,,,,,,2326.008657348648,None,2326.008657348648,None,2326.3992148197794,None,2326.3992148197794,None,40,2326.3992148197794,None,return,7.0769888492141035,2326.3992148197794,None,,,HESHIYU,M,002,2023_Apr_19_0902,untitled,2021.1.4,60.35409442173986,
36,36,9,18,72,45,99,0.64,0.5,0.5,0.33,0.17,0.25,,stimuli/P_36_36_09_18.png,,,,,0,210,210,246,,,,,,,,,,,,,,,,,,,,,,,,,,,,2333.5084414553785,None,2333.5084414553785,None,2333.9018263034814,None,2333.9018263034814,None,36,2333.9018263034814,None,return,4.5033499012715765,2333.9018263034814,None,,,HESHIYU,M,002,2023_Apr_19_0902,untitled,2021.1.4,60.35409442173986,
36,36,36,0,72,72,108,0.67,0.5,0.5,1.0,-0.5,#NAME?,,stimuli/P_36_36_36_00.png,,,,,0,211,211,252,,,,,,,,,,,,,,,,,,,,,,,,,,,,2338.4396423282815,None,2338.4396423282815,None,2338.8243595877357,None,2338.8243595877357,None,33,2338.8243595877357,None,return,2.3037399313761853,2338.8243595877357,None,,,HESHIYU,M,002,2023_Apr_19_0902,untitled,2021.1.4,60.35409442173986,
36,36,0,9,72,36,81,0.56,0.5,0.5,0.0,0.5,0.5,,stimuli/P_36_36_00_09.png,,,,,0,212,212,241,,,,,,,,,,,,,,,,,,,,,,,,,,,,2341.153052685353,None,2341.153052685353,None,2341.5340368969846,None,2341.5340368969846,None,44,2341.5340368969846,None,return,6.395172865370114,2341.5340368969846,None,,,HESHIYU,M,002,2023_Apr_19_0902,untitled,2021.1.4,60.35409442173986,
0,18,0,36,18,0,54,0.67,1.0,0.0,0.0,0.0,0.0,,stimuli/P_00_18_00_36.png,,,,,0,213,213,35,,,,,,,,,,,,,,,,,,,,,,,,,,,,2347.9535923332005,None,2347.9535923332005,None,2348.334653344813,None,2348.334653344813,None,0,2348.334653344813,None,return,3.605401712236926,2348.334653344813,None,,,HESHIYU,M,002,2023_Apr_19_0902,untitled,2021.1.4,60.35409442173986,
18,18,0,36,36,18,72,0.75,0.5,0.5,0.0,0.5,0.5,,stimuli/P_18_18_00_36.png,,,,,0,214,214,163,,,,,,,,,,,,,,,,,,,,,,,,,,,,2351.961987424147,None,2351.961987424147,None,2352.344717555279,None,2352.344717555279,None,25,2352.344717555279,None,return,3.9609992644254817,2352.344717555279,None,,,HESHIYU,M,002,2023_Apr_19_0902,untitled,2021.1.4,60.35409442173986,
36,0,36,0,36,72,72,1.0,0.0,1.0,1.0,0.0,None,,stimuli/P_36_00_36_00.png,,,,,0,215,215,204,,,,,,,,,,,,,,,,,,,,,,,,,,,,2356.319245562525,None,2356.319245562525,None,2356.7031612577703,None,2356.7031612577703,None,50,2356.7031612577703,None,return,2.0718904684399604,2356.7031612577703,None,,,HESHIYU,M,002,2023_Apr_19_0902,untitled,2021.1.4,60.35409442173986,
0,18,0,9,18,0,27,0.33,1.0,0.0,0.0,0.0,0.0,,stimuli/P_00_18_00_09.png,,,,,0,216,216,33,,,,,,,,,,,,,,,,,,,,,,,,,,,,2358.7939712586012,None,2358.7939712586012,None,2359.1769414607843,None,2359.1769414607843,None,0,2359.1769414607843,None,return,1.2494742045964813,2359.1769414607843,None,,,HESHIYU,M,002,2023_Apr_19_0902,untitled,2021.1.4,60.35409442173986,
0,36,36,36,36,36,108,0.67,1.0,0.0,0.5,-0.5,-1.0,,stimuli/P_00_36_36_36.png,,,,,0,217,217,63,,,,,,,,,,,,,,,,,,,,,,,,,,,,2360.4495995876714,None,2360.4495995876714,None,2360.8319320655864,None,2360.8319320655864,None,0,2360.8319320655864,None,return,1.3455168439395493,2360.8319320655864,None,,,HESHIYU,M,002,2023_Apr_19_0902,untitled,2021.1.4,60.35409442173986,
9,0,18,36,9,27,63,1.0,0.0,1.0,0.33,0.67,1.0,,stimuli/P_09_00_18_36.png,,,,,0,218,218,75,,,,,,,,,,,,,,,,,,,,,,,,,,,,2362.2140051302413,None,2362.2140051302413,None,2362.6018228332614,None,2362.6018228332614,None,15,2362.6018228332614,None,return,4.432486276979034,2362.6018228332614,None,,,HESHIYU,M,002,2023_Apr_19_0902,untitled,2021.1.4,60.35409442173986,
18,9,9,18,27,27,54,0.83,0.33,0.67,0.33,0.33,0.5,,stimuli/P_18_09_09_18.png,,,,,0,219,219,150,,,,,,,,,,,,,,,,,,,,,,,,,,,,2367.068546540504,None,2367.068546540504,None,2367.462392757363,None,2367.462392757363,None,32,2367.462392757363,None,return,6.321242361955228,2367.462392757363,None,,,HESHIYU,M,002,2023_Apr_19_0902,untitled,2021.1.4,60.35409442173986,
0,9,18,18,9,18,45,0.8,1.0,0.0,0.5,-0.5,-1.0,,stimuli/P_00_09_18_18.png,,,,,0,220,220,26,,,,,,,,,,,,,,,,,,,,,,,,,,,,2373.816412212218,None,2373.816412212218,None,2374.201828067038,None,2374.201828067038,None,0,2374.201828067038,None,return,1.64689247377828,2374.201828067038,None,,,HESHIYU,M,002,2023_Apr_19_0902,untitled,2021.1.4,60.35409442173986,
36,18,9,18,54,45,81,0.78,0.33,0.67,0.33,0.33,0.5,,stimuli/P_36_18_09_18.png,,,,,0,221,221,230,,,,,,,,,,,,,,,,,,,,,,,,,,,,2375.8749872711123,None,2375.8749872711123,None,2376.2593996062133,None,2376.2593996062133,None,40,2376.2593996062133,None,return,5.950479374085262,2376.2593996062133,None,,,HESHIYU,M,002,2023_Apr_19_0902,untitled,2021.1.4,60.35409442173986,
18,0,9,0,18,27,27,1.0,0.0,1.0,1.0,0.0,None,,stimuli/P_18_00_09_00.png,,,,,0,222,222,132,,,,,,,,,,,,,,,,,,,,,,,,,,,,2382.235476128575,None,2382.235476128575,None,2382.6192006772035,None,2382.6192006772035,None,33,2382.6192006772035,None,return,3.17122412907338,2382.6192006772035,None,,,HESHIYU,M,002,2023_Apr_19_0902,untitled,2021.1.4,60.35409442173986,
36,36,9,0,72,45,81,0.56,0.5,0.5,1.0,-0.5,#NAME?,,stimuli/P_36_36_09_00.png,,,,,0,223,223,244,,,,,,,,,,,,,,,,,,,,,,,,,,,,2385.80819859678,None,2385.80819859678,None,2386.1934631271943,None,2386.1934631271943,None,45,2386.1934631271943,None,return,5.025919139290636,2386.1934631271943,None,,,HESHIYU,M,002,2023_Apr_19_0902,untitled,2021.1.4,60.35409442173986,
36,18,0,36,54,36,90,0.8,0.33,0.67,0.0,0.67,0.67,,stimuli/P_36_18_00_36.png,,,,,0,224,224,227,,,,,,,,,,,,,,,,,,,,,,,,,,,,2391.242153175568,None,2391.242153175568,None,2391.631788478073,None,2391.631788478073,None,40,2391.631788478073,None,return,4.450736796236015,2391.631788478073,None,,,HESHIYU,M,002,2023_Apr_19_0902,untitled,2021.1.4,60.35409442173986,
18,18,9,9,36,27,54,0.67,0.5,0.5,0.5,0.0,0.0,,stimuli/P_18_18_09_09.png,,,,,0,225,225,165,,,,,,,,,,,,,,,,,,,,,,,,,,,,2396.0967816258053,None,2396.0967816258053,None,2396.4890343853403,None,2396.4890343853403,None,35,2396.4890343853403,None,return,5.453683639840165,2396.4890343853403,None,,,HESHIYU,M,002,2023_Apr_19_0902,untitled,2021.1.4,60.35409442173986,
36,9,36,18,45,72,99,0.91,0.2,0.8,0.67,0.13,0.4,,stimuli/P_36_09_36_18.png,,,,,0,226,226,222,,,,,,,,,,,,,,,,,,,,,,,,,,,,2401.967161467117,None,2401.967161467117,None,2402.3510720423656,None,2402.3510720423656,None,35,2402.3510720423656,None,None,,2402.3510720423656,None,,,HESHIYU,M,002,2023_Apr_19_0902,untitled,2021.1.4,60.35409442173986,
18,9,36,0,27,54,63,0.86,0.33,0.67,1.0,-0.33,#NAME?,,stimuli/P_18_09_36_00.png,,,,,0,227,227,156,,,,,,,,,,,,,,,,,,,,,,,,,,,,2410.348277660938,None,2410.348277660938,None,2410.732181409512,None,2410.732181409512,None,30,2410.732181409512,None,return,6.00685852249444,2410.732181409512,None,,,HESHIYU,M,002,2023_Apr_19_0902,untitled,2021.1.4,60.35409442173986,
18,0,18,18,18,36,54,1.0,0.0,1.0,0.5,0.5,1.0,,stimuli/P_18_00_18_18.png,,,,,0,228,228,138,,,,,,,,,,,,,,,,,,,,,,,,,,,,2416.77462221522,None,2416.77462221522,None,2417.159375883559,None,2417.159375883559,None,33,2417.159375883559,None,return,1.6399423601906165,2417.159375883559,None,,,HESHIYU,M,002,2023_Apr_19_0902,untitled,2021.1.4,60.35409442173986,
18,9,0,36,27,18,63,0.86,0.33,0.67,0.0,0.67,0.67,,stimuli/P_18_09_00_36.png,,,,,0,229,229,147,,,,,,,,,,,,,,,,,,,,,,,,,,,,2418.829424972966,None,2418.829424972966,None,2419.216845022762,None,2419.216845022762,None,30,2419.216845022762,None,return,6.176331612063223,2419.216845022762,None,,,HESHIYU,M,002,2023_Apr_19_0902,untitled,2021.1.4,60.35409442173986,
0,0,9,18,0,9,27,1.0,None,None,0.33,None,None,,stimuli/P_00_00_09_18.png,,,,,0,230,230,6,,,,,,,,,,,,,,,,,,,,,,,,,,,,2425.410136345563,None,2425.410136345563,None,2425.7934342276494,None,2425.7934342276494,None,0,2425.7934342276494,None,return,1.4507168851268943,2425.7934342276494,None,,,HESHIYU,M,002,2023_Apr_19_0902,untitled,2021.1.4,60.35409442173986,
18,9,36,36,27,54,99,0.91,0.33,0.67,0.5,0.17,0.33,,stimuli/P_18_09_36_36.png,,,,,0,231,231,159,,,,,,,,,,,,,,,,,,,,,,,,,,,,2427.279524044934,None,2427.279524044934,None,2427.67360521284,None,2427.67360521284,None,22,2427.67360521284,None,return,7.655583386855142,2427.67360521284,None,,,HESHIYU,M,002,2023_Apr_19_0902,untitled,2021.1.4,60.35409442173986,
0,36,18,36,36,18,90,0.6,1.0,0.0,0.33,-0.33,-0.5,,stimuli/P_00_36_18_36.png,,,,,0,232,232,59,,,,,,,,,,,,,,,,,,,,,,,,,,,,2435.3547180502137,None,2435.3547180502137,None,2435.7456145790275,None,2435.7456145790275,None,0,2435.7456145790275,None,return,1.5988913496476016,2435.7456145790275,None,,,HESHIYU,M,002,2023_Apr_19_0902,untitled,2021.1.4,60.35409442173986,
9,18,0,9,27,9,36,0.5,0.67,0.33,0.0,0.33,0.33,,stimuli/P_09_18_00_09.png,,,,,0,233,233,97,,,,,,,,,,,,,,,,,,,,,,,,,,,,2437.37469571564,None,2437.37469571564,None,2437.759048317428,None,2437.759048317428,None,25,2437.759048317428,None,return,3.8550289479026105,2437.759048317428,None,,,HESHIYU,M,002,2023_Apr_19_0902,untitled,2021.1.4,60.35409442173986,
0,9,18,36,9,18,63,0.86,1.0,0.0,0.33,-0.33,-0.5,,stimuli/P_00_09_18_36.png,,,,,0,234,234,27,,,,,,,,,,,,,,,,,,,,,,,,,,,,2441.631281029324,None,2441.631281029324,None,2442.015584706678,None,2442.015584706678,None,,2442.015584706678,None,return,0.841419991775183,2442.015584706678,None,,,HESHIYU,M,002,2023_Apr_19_0902,untitled,2021.1.4,60.35409442173986,
18,0,36,18,18,54,72,1.0,0.0,1.0,0.67,0.33,1.0,,stimuli/P_18_00_36_18.png,,,,,0,235,235,142,,,,,,,,,,,,,,,,,,,,,,,,,,,,2442.879211838801,None,2442.879211838801,None,2443.262251445405,None,2443.262251445405,None,25,2443.262251445405,None,return,4.927694811682159,2443.262251445405,None,,,HESHIYU,M,002,2023_Apr_19_0902,untitled,2021.1.4,60.35409442173986,
18,0,36,9,18,54,63,1.0,0.0,1.0,0.8,0.2,1.0,,stimuli/P_18_00_36_09.png,,,,,0,236,236,141,,,,,,,,,,,,,,,,,,,,,,,,,,,,2448.208870909475,None,2448.208870909475,None,2448.59560943058,None,2448.59560943058,None,30,2448.59560943058,None,return,4.930122259880591,2448.59560943058,None,,,HESHIYU,M,002,2023_Apr_19_0902,untitled,2021.1.4,60.35409442173986,
36,9,9,9,45,45,63,0.86,0.2,0.8,0.5,0.3,0.6,,stimuli/P_36_09_09_09.png,,,,,0,237,237,213,,,,,,,,,,,,,,,,,,,,,,,,,,,,2453.5591544720664,None,2453.5591544720664,None,2453.942205456442,None,2453.942205456442,None,60,2453.942205456442,None,return,6.160539829885238,2453.942205456442,None,,,HESHIYU,M,002,2023_Apr_19_0902,untitled,2021.1.4,60.35409442173986,
0,9,18,0,9,18,27,0.67,1.0,0.0,1.0,-1.0,#NAME?,,stimuli/P_00_09_18_00.png,,,,,0,238,238,24,,,,,,,,,,,,,,,,,,,,,,,,,,,,2460.115883771483,None,2460.115883771483,None,2460.504965545253,None,2460.504965545253,None,0,2460.504965545253,None,return,1.440863163486938,2460.504965545253,None,,,HESHIYU,M,002,2023_Apr_19_0902,untitled,2021.1.4,60.35409442173986,
0,9,36,36,9,36,81,0.89,1.0,0.0,0.5,-0.5,-1.0,,stimuli/P_00_09_36_36.png,,,,,0,239,239,31,,,,,,,,,,,,,,,,,,,,,,,,,,,,2461.97177629247,None,2461.97177629247,None,2462.362909478994,None,2462.362909478994,None,0,2462.362909478994,None,return,3.5241985353422933,2462.362909478994,None,,,HESHIYU,M,002,2023_Apr_19_0902,untitled,2021.1.4,60.35409442173986,
18,18,9,36,36,27,81,0.78,0.5,0.5,0.2,0.3,0.37,,stimuli/P_18_18_09_36.png,,,,,0,240,240,167,,,,,,,,,,,,,,,,,,,,,,,,,,,,2465.9187575697797,None,2465.9187575697797,None,2466.3038235580243,None,2466.3038235580243,None,22,2466.3038235580243,None,return,7.406261075549992,2466.3038235580243,None,,,HESHIYU,M,002,2023_Apr_19_0902,untitled,2021.1.4,60.35409442173986,
0,36,36,9,36,36,81,0.56,1.0,0.0,0.8,-0.8,-4.0,,stimuli/P_00_36_36_09.png,,,,,0,241,241,61,,,,,,,,,,,,,,,,,,,,,,,,,,,,2473.7442816727416,None,2473.7442816727416,None,2474.1302135096266,None,2474.1302135096266,None,0,2474.1302135096266,None,return,1.3885652228127583,2474.1302135096266,None,,,HESHIYU,M,002,2023_Apr_19_0902,untitled,2021.1.4,60.35409442173986,
36,0,18,9,36,54,63,1.0,0.0,1.0,0.67,0.33,1.0,,stimuli/P_36_00_18_09.png,,,,,0,242,242,201,,,,,,,,,,,,,,,,,,,,,,,,,,,,2475.555665477499,None,2475.555665477499,None,2475.9391840884127,None,2475.9391840884127,None,60,2475.9391840884127,None,return,7.001856283917732,2475.9391840884127,None,,,HESHIYU,M,002,2023_Apr_19_0902,untitled,2021.1.4,60.35409442173986,
0,36,18,18,36,18,72,0.5,1.0,0.0,0.5,-0.5,-1.0,,stimuli/P_00_36_18_18.png,,,,,0,243,243,58,,,,,,,,,,,,,,,,,,,,,,,,,,,,2482.9674823203604,None,2482.9674823203604,None,2483.349674851648,None,2483.349674851648,None,0,2483.349674851648,None,return,1.513715622764721,2483.349674851648,None,,,HESHIYU,M,002,2023_Apr_19_0902,untitled,2021.1.4,60.35409442173986,
36,0,9,9,36,45,54,1.0,0.0,1.0,0.5,0.5,1.0,,stimuli/P_36_00_09_09.png,,,,,0,244,244,197,,,,,,,,,,,,,,,,,,,,,,,,,,,,2484.883632104211,None,2484.883632104211,None,2485.268820972422,None,2485.268820972422,None,65,2485.268820972422,None,return,6.981368894186744,2485.268820972422,None,,,HESHIYU,M,002,2023_Apr_19_0902,untitled,2021.1.4,60.35409442173986,
9,0,36,9,9,45,54,1.0,0.0,1.0,0.8,0.2,1.0,,stimuli/P_09_00_36_09.png,,,,,0,245,245,77,,,,,,,,,,,,,,,,,,,,,,,,,,,,2492.27149930055,None,2492.27149930055,None,2492.661724540667,None,2492.661724540667,None,16,2492.661724540667,None,return,7.286442869633902,2492.661724540667,None,,,HESHIYU,M,002,2023_Apr_19_0902,untitled,2021.1.4,60.35409442173986,
36,18,18,9,54,54,81,0.78,0.33,0.67,0.67,0.0,0.0,,stimuli/P_36_18_18_09.png,,,,,0,246,246,233,,,,,,,,,,,,,,,,,,,,,,,,,,,,2499.9778679529627,None,2499.9778679529627,None,2500.3714337076817,None,2500.3714337076817,None,45,2500.3714337076817,None,return,6.860434528585756,2500.3714337076817,None,,,HESHIYU,M,002,2023_Apr_19_0902,untitled,2021.1.4,60.35409442173986,
0,18,0,18,18,0,36,0.5,1.0,0.0,0.0,0.0,0.0,,stimuli/P_00_18_00_18.png,,,,,0,247,247,34,,,,,,,,,,,,,,,,,,,,,,,,,,,,2507.2545942031356,None,2507.2545942031356,None,2507.635963552435,None,2507.635963552435,None,0,2507.635963552435,None,return,1.311401724757161,2507.635963552435,None,,,HESHIYU,M,002,2023_Apr_19_0902,untitled,2021.1.4,60.35409442173986,
9,0,18,9,9,27,36,1.0,0.0,1.0,0.67,0.33,1.0,,stimuli/P_09_00_18_09.png,,,,,0,248,248,73,,,,,,,,,,,,,,,,,,,,,,,,,,,,2508.985295364182,None,2508.985295364182,None,2509.3713682854795,None,2509.3713682854795,None,25,2509.3713682854795,None,return,3.6957941487489734,2509.3713682854795,None,,,HESHIYU,M,002,2023_Apr_19_0902,untitled,2021.1.4,60.35409442173986,
18,0,9,9,18,27,36,1.0,0.0,1.0,0.5,0.5,1.0,,stimuli/P_18_00_09_09.png,,,,,0,249,249,133,,,,,,,,,,,,,,,,,,,,,,,,,,,,2513.092250427093,None,2513.092250427093,None,2513.4770228687557,None,2513.4770228687557,None,50,2513.4770228687557,None,return,3.284237856925756,2513.4770228687557,None,,,HESHIYU,M,002,2023_Apr_19_0902,untitled,2021.1.4,60.35409442173986,
36,18,18,36,54,54,108,0.83,0.33,0.67,0.33,0.33,0.5,,stimuli/P_36_18_18_36.png,,,,,0,250,250,235,,,,,,,,,,,,,,,,,,,,,,,,,,,,2516.7923197746277,None,2516.7923197746277,None,2517.177147398499,None,2517.177147398499,None,34,2517.177147398499,None,return,5.88440863732103,2517.177147398499,None,,,HESHIYU,M,002,2023_Apr_19_0902,untitled,2021.1.4,60.35409442173986,
18,18,9,0,36,27,45,0.6,0.5,0.5,1.0,-0.5,#NAME?,,stimuli/P_18_18_09_00.png,,,,,0,251,251,164,,,,,,,,,,,,,,,,,,,,,,,,,,,,2523.0893445434776,None,2523.0893445434776,None,2523.4743189406363,None,2523.4743189406363,None,50,2523.4743189406363,None,return,5.1254257421023794,2523.4743189406363,None,,,HESHIYU,M,002,2023_Apr_19_0902,untitled,2021.1.4,60.35409442173986,
9,36,36,9,45,45,90,0.6,0.8,0.2,0.8,-0.6,-3.0,,stimuli/P_09_36_36_09.png,,,,,0,252,252,125,,,,,,,,,,,,,,,,,,,,,,,,,,,,2528.619403201592,None,2528.619403201592,None,2529.003903714445,None,2529.003903714445,None,10,2529.003903714445,None,return,5.130070718558272,2529.003903714445,None,,,HESHIYU,M,002,2023_Apr_19_0902,untitled,2021.1.4,60.35409442173986,
9,9,18,9,18,27,45,0.8,0.5,0.5,0.67,-0.17,-0.5,,stimuli/P_09_09_18_09.png,,,,,0,253,253,89,,,,,,,,,,,,,,,,,,,,,,,,,,,,2534.1663424949074,None,2534.1663424949074,None,2534.5578949524206,None,2534.5578949524206,None,20,2534.5578949524206,None,return,4.676809194148518,2534.5578949524206,None,,,HESHIYU,M,002,2023_Apr_19_0902,untitled,2021.1.4,60.35409442173986,
9,36,9,18,45,18,72,0.5,0.8,0.2,0.33,-0.13,-0.2,,stimuli/P_09_36_09_18.png,,,,,0,254,254,118,,,,,,,,,,,,,,,,,,,,,,,,,,,,2539.251837937256,None,2539.251837937256,None,2539.647328242536,None,2539.647328242536,None,13,2539.647328242536,None,return,6.296607204523752,2539.647328242536,None,,,HESHIYU,M,002,2023_Apr_19_0902,untitled,2021.1.4,60.35409442173986,
9,9,36,18,18,45,72,0.88,0.5,0.5,0.67,-0.17,-0.5,,stimuli/P_09_09_36_18.png,,,,,0,255,255,94,,,,,,,,,,,,,,,,,,,,,,,,,,,,2545.963639477013,None,2545.963639477013,None,2546.35005771376,None,2546.35005771376,None,3,2546.35005771376,None,return,3.2184646489695297,2546.35005771376,None,,,HESHIYU,M,002,2023_Apr_19_0902,untitled,2021.1.4,60.35409442173986,
,,,,,,,,,,,,,,,,,,,,,,,,,,,,,,,,,,,,,,,,,,,,,,,,,,,,,,,,,,,,,,,,,2549.5897549966903,None,,,,,,,,
