A1C1,A1C0,A0C1,A0C0,A1,C1,Total,MI,C0GvA1,C1GvA1,C1GvA0,dltP,dltPp,Image_practice,Image,trials_2.thisRepN,trials_2.thisTrialN,trials_2.thisN,trials_2.thisIndex,trials.thisRepN,trials.thisTrialN,trials.thisN,trials.thisIndex,image.started,image.stopped,key_resp.keys,key_resp.rt,key_resp.started,key_resp.stopped,betweenTrial.started,betweenTrial.stopped,ISI.started,ISI.stopped,image_card.started,image_card.stopped,textbox.text,textbox.started,textbox.stopped,key_resp_3.keys,key_resp_3.rt,key_resp_3.started,key_resp_3.stopped,text_2.started,text_2.stopped,key_resp_2.keys,key_resp_2.rt,key_resp_2.started,key_resp_2.stopped,image_endPractice.started,image_endPractice.stopped,polygon_2.started,polygon_2.stopped,ISI_2.started,ISI_2.stopped,Cards.started,Cards.stopped,TextNote.started,TextNote.stopped,Estimation.text,Estimation.started,Estimation.stopped,key_resp_4.keys,key_resp_4.rt,key_resp_4.started,key_resp_4.stopped,text.started,text.stopped,participant,gender,session,date,expName,psychopyVersion,frameRate,
,,,,,,,,,,,,,,,,,,,,,,,19.241343600675464,None,space,144.77387420088053,19.241343600675464,None,,,,,,,,,,,,,,,,,,,,,,,,,,,,,,,,,,,,,,,HEWEI,M,001,2023_Apr_18_2041,untitled,2021.1.4,48.010516419846844,
0,0,0,9,0,0,9,1.0,None,None,0.0,None,None,practice_stimuli/P_00_00_00_09.png,,0,0,0,0,,,,,,,,,,,None,None,None,None,None,None,0,164.2612415999174,None,return,7.463033800944686,164.2612415999174,None,164.2612415999174,None,,,,,,,,,,,,,,,,,,,,,,,,HEWEI,M,001,2023_Apr_18_2041,untitled,2021.1.4,48.010516419846844,
18,0,36,0,18,54,54,1.0,0.0,1.0,1.0,0.0,None,practice_stimuli/P_18_00_36_00.png,,0,1,1,1,,,,,,,,,,,171.78534760139883,None,171.78534760139883,None,172.2179685998708,None,30,172.2179685998708,None,None,,172.2179685998708,None,172.2179685998708,None,,,,,,,,,,,,,,,,,,,,,,,,HEWEI,M,001,2023_Apr_18_2041,untitled,2021.1.4,48.010516419846844,
9,18,18,0,27,27,45,0.6,0.67,0.33,1.0,-0.67,#NAME?,practice_stimuli/P_09_18_18_00.png,,0,2,2,2,,,,,,,,,,,180.22232660092413,None,180.22232660092413,None,180.65650789998472,None,20,180.65650789998472,None,return,7.955518798902631,180.65650789998472,None,180.65650789998472,None,,,,,,,,,,,,,,,,,,,,,,,,HEWEI,M,001,2023_Apr_18_2041,untitled,2021.1.4,48.010516419846844,
36,18,18,36,54,54,108,0.83,0.33,0.67,0.33,0.33,0.5,practice_stimuli/P_36_18_18_36.png,,0,3,3,3,,,,,,,,,,,188.63800060003996,None,188.63800060003996,None,189.01524320058525,None,,189.01524320058525,None,None,,189.01524320058525,None,189.01524320058525,None,,,,,,,,,,,,,,,,,,,,,,,,HEWEI,M,001,2023_Apr_18_2041,untitled,2021.1.4,48.010516419846844,
,,,,,,,,,,,,,,,,,,,,,,,,,,,,,,,,,,,,,,,,,,,,space,85.13783100061119,197.02626620046794,None,,,,,,,,,,,,,,,,,,,,HEWEI,M,001,2023_Apr_18_2041,untitled,2021.1.4,48.010516419846844,
0,9,0,36,9,0,45,0.8,1.0,0.0,0.0,0.0,0.0,,stimuli/P_00_09_00_36.png,,,,,0,0,0,19,,,,,,,,,,,,,,,,,,,,,,,,,,197.02626620046794,None,289.09827280044556,None,289.09827280044556,None,289.5033759009093,None,289.5033759009093,None,0,289.5033759009093,None,return,4.943952800706029,289.5033759009093,None,,,HEWEI,M,001,2023_Apr_18_2041,untitled,2021.1.4,48.010516419846844,
18,0,36,36,18,54,90,1.0,0.0,1.0,0.5,0.5,1.0,,stimuli/P_18_00_36_36.png,,,,,0,1,1,143,,,,,,,,,,,,,,,,,,,,,,,,,,,,294.47753269970417,None,294.47753269970417,None,294.866319000721,None,294.866319000721,None,30,294.866319000721,None,return,5.873386301100254,294.866319000721,None,,,HEWEI,M,001,2023_Apr_18_2041,untitled,2021.1.4,48.010516419846844,
36,18,0,36,54,36,90,0.8,0.33,0.67,0.0,0.67,0.67,,stimuli/P_36_18_00_36.png,,,,,0,2,2,227,,,,,,,,,,,,,,,,,,,,,,,,,,,,300.7836640011519,None,300.7836640011519,None,301.22964530065656,None,301.22964530065656,None,70,301.22964530065656,None,return,6.663333799690008,301.22964530065656,None,,,HEWEI,M,001,2023_Apr_18_2041,untitled,2021.1.4,48.010516419846844,
18,0,9,0,18,27,27,1.0,0.0,1.0,1.0,0.0,None,,stimuli/P_18_00_09_00.png,,,,,0,3,3,132,,,,,,,,,,,,,,,,,,,,,,,,,,,,307.9087700005621,None,307.9087700005621,None,308.2855109013617,None,308.2855109013617,None,70,308.2855109013617,None,return,6.693514401093125,308.2855109013617,None,,,HEWEI,M,001,2023_Apr_18_2041,untitled,2021.1.4,48.010516419846844,
18,9,18,18,27,36,63,0.86,0.33,0.67,0.5,0.17,0.33,,stimuli/P_18_09_18_18.png,,,,,0,4,4,154,,,,,,,,,,,,,,,,,,,,,,,,,,,,314.9990318007767,None,314.9990318007767,None,315.3905727006495,None,315.3905727006495,None,70,315.3905727006495,None,None,,315.3905727006495,None,,,HEWEI,M,001,2023_Apr_18_2041,untitled,2021.1.4,48.010516419846844,
9,36,0,36,45,9,81,0.56,0.8,0.2,0.0,0.2,0.2,,stimuli/P_09_36_00_36.png,,,,,0,5,5,115,,,,,,,,,,,,,,,,,,,,,,,,,,,,323.39959140121937,None,323.39959140121937,None,323.81272490136325,None,323.81272490136325,None,20,323.81272490136325,None,return,5.6089635994285345,323.81272490136325,None,,,HEWEI,M,001,2023_Apr_18_2041,untitled,2021.1.4,48.010516419846844,
0,0,9,18,0,9,27,1.0,None,None,0.33,None,None,,stimuli/P_00_00_09_18.png,,,,,0,6,6,6,,,,,,,,,,,,,,,,,,,,,,,,,,,,329.45676819980145,None,329.45676819980145,None,329.8354886006564,None,329.8354886006564,None,0,329.8354886006564,None,return,3.2269739992916584,329.8354886006564,None,,,HEWEI,M,001,2023_Apr_18_2041,untitled,2021.1.4,48.010516419846844,
9,18,0,18,27,9,45,0.6,0.67,0.33,0.0,0.33,0.33,,stimuli/P_09_18_00_18.png,,,,,0,7,7,98,,,,,,,,,,,,,,,,,,,,,,,,,,,,333.09035070054233,None,333.09035070054233,None,333.4666167013347,None,333.4666167013347,None,10,333.4666167013347,None,return,5.261344499886036,333.4666167013347,None,,,HEWEI,M,001,2023_Apr_18_2041,untitled,2021.1.4,48.010516419846844,
9,36,18,18,45,27,81,0.56,0.8,0.2,0.5,-0.3,-0.6,,stimuli/P_09_36_18_18.png,,,,,0,8,8,122,,,,,,,,,,,,,,,,,,,,,,,,,,,,338.749634699896,None,338.749634699896,None,339.14222760125995,None,339.14222760125995,None,20,339.14222760125995,None,return,4.895740898326039,339.14222760125995,None,,,HEWEI,M,001,2023_Apr_18_2041,untitled,2021.1.4,48.010516419846844,
36,0,9,18,36,45,63,1.0,0.0,1.0,0.33,0.67,1.0,,stimuli/P_36_00_09_18.png,,,,,0,9,9,198,,,,,,,,,,,,,,,,,,,,,,,,,,,,344.0687483008951,None,344.0687483008951,None,344.4498300999403,None,344.4498300999403,None,100,344.4498300999403,None,return,4.299913600087166,344.4498300999403,None,,,HEWEI,M,001,2023_Apr_18_2041,untitled,2021.1.4,48.010516419846844,
0,18,0,36,18,0,54,0.67,1.0,0.0,0.0,0.0,0.0,,stimuli/P_00_18_00_36.png,,,,,0,10,10,35,,,,,,,,,,,,,,,,,,,,,,,,,,,,348.78229819983244,None,348.78229819983244,None,349.1626865006983,None,349.1626865006983,None,0,349.1626865006983,None,return,2.9027971010655165,349.1626865006983,None,,,HEWEI,M,001,2023_Apr_18_2041,untitled,2021.1.4,48.010516419846844,
36,36,0,9,72,36,81,0.56,0.5,0.5,0.0,0.5,0.5,,stimuli/P_36_36_00_09.png,,,,,0,11,11,241,,,,,,,,,,,,,,,,,,,,,,,,,,,,352.11559529975057,None,352.11559529975057,None,352.4996368009597,None,352.4996368009597,None,50,352.4996368009597,None,return,3.754619998857379,352.4996368009597,None,,,HEWEI,M,001,2023_Apr_18_2041,untitled,2021.1.4,48.010516419846844,
36,18,36,9,54,72,99,0.82,0.33,0.67,0.8,-0.13,-0.67,,stimuli/P_36_18_36_09.png,,,,,0,12,12,237,,,,,,,,,,,,,,,,,,,,,,,,,,,,356.27340670116246,None,356.27340670116246,None,356.66441360116005,None,356.66441360116005,None,70,356.66441360116005,None,return,4.590828800573945,356.66441360116005,None,,,HEWEI,M,001,2023_Apr_18_2041,untitled,2021.1.4,48.010516419846844,
18,9,18,0,27,36,45,0.8,0.33,0.67,1.0,-0.33,#NAME?,,stimuli/P_18_09_18_00.png,,,,,0,13,13,152,,,,,,,,,,,,,,,,,,,,,,,,,,,,361.28329970128834,None,361.28329970128834,None,361.68418600037694,None,361.68418600037694,None,70,361.68418600037694,None,return,4.422049701213837,361.68418600037694,None,,,HEWEI,M,001,2023_Apr_18_2041,untitled,2021.1.4,48.010516419846844,
36,36,18,36,72,54,126,0.71,0.5,0.5,0.33,0.17,0.25,,stimuli/P_36_36_18_36.png,,,,,0,14,14,251,,,,,,,,,,,,,,,,,,,,,,,,,,,,366.1275644004345,None,366.1275644004345,None,366.5116038005799,None,366.5116038005799,None,50,366.5116038005799,None,return,3.6781358998268843,366.5116038005799,None,,,HEWEI,M,001,2023_Apr_18_2041,untitled,2021.1.4,48.010516419846844,
0,36,18,9,36,18,63,0.43,1.0,0.0,0.67,-0.67,-2.0,,stimuli/P_00_36_18_09.png,,,,,0,15,15,57,,,,,,,,,,,,,,,,,,,,,,,,,,,,370.21017879992723,None,370.21017879992723,None,370.5964177008718,None,370.5964177008718,None,0,370.5964177008718,None,return,3.540751399472356,370.5964177008718,None,,,HEWEI,M,001,2023_Apr_18_2041,untitled,2021.1.4,48.010516419846844,
36,36,36,0,72,72,108,0.67,0.5,0.5,1.0,-0.5,#NAME?,,stimuli/P_36_36_36_00.png,,,,,0,16,16,252,,,,,,,,,,,,,,,,,,,,,,,,,,,,374.1707854010165,None,374.1707854010165,None,374.55185650102794,None,374.55185650102794,None,50,374.55185650102794,None,return,3.9871889986097813,374.55185650102794,None,,,HEWEI,M,001,2023_Apr_18_2041,untitled,2021.1.4,48.010516419846844,
36,18,0,9,54,36,63,0.71,0.33,0.67,0.0,0.67,0.67,,stimuli/P_36_18_00_09.png,,,,,0,17,17,225,,,,,,,,,,,,,,,,,,,,,,,,,,,,378.56516740098596,None,378.56516740098596,None,378.9572130013257,None,378.9572130013257,None,80,378.9572130013257,None,return,4.093495100736618,378.9572130013257,None,,,HEWEI,M,001,2023_Apr_18_2041,untitled,2021.1.4,48.010516419846844,
18,9,9,0,27,27,36,0.75,0.33,0.67,1.0,-0.33,#NAME?,,stimuli/P_18_09_09_00.png,,,,,0,18,18,148,,,,,,,,,,,,,,,,,,,,,,,,,,,,383.0836338996887,None,383.0836338996887,None,383.4669001009315,None,383.4669001009315,None,70,383.4669001009315,None,return,5.186201099306345,383.4669001009315,None,,,HEWEI,M,001,2023_Apr_18_2041,untitled,2021.1.4,48.010516419846844,
0,36,18,36,36,18,90,0.6,1.0,0.0,0.33,-0.33,-0.5,,stimuli/P_00_36_18_36.png,,,,,0,19,19,59,,,,,,,,,,,,,,,,,,,,,,,,,,,,388.6826860010624,None,388.6826860010624,None,389.06785899959505,None,389.06785899959505,None,0,389.06785899959505,None,return,2.9228802006691694,389.06785899959505,None,,,HEWEI,M,001,2023_Apr_18_2041,untitled,2021.1.4,48.010516419846844,
36,36,36,18,72,72,126,0.71,0.5,0.5,0.67,-0.17,-0.5,,stimuli/P_36_36_36_18.png,,,,,0,20,20,254,,,,,,,,,,,,,,,,,,,,,,,,,,,,392.0218030009419,None,392.0218030009419,None,392.3896383997053,None,392.3896383997053,None,50,392.3896383997053,None,return,4.080072799697518,392.3896383997053,None,,,HEWEI,M,001,2023_Apr_18_2041,untitled,2021.1.4,48.010516419846844,
0,18,18,18,18,18,54,0.67,1.0,0.0,0.5,-0.5,-1.0,,stimuli/P_00_18_18_18.png,,,,,0,21,21,42,,,,,,,,,,,,,,,,,,,,,,,,,,,,396.5041816011071,None,396.5041816011071,None,396.9295524004847,None,396.9295524004847,None,0,396.9295524004847,None,return,2.8094402011483908,396.9295524004847,None,,,HEWEI,M,001,2023_Apr_18_2041,untitled,2021.1.4,48.010516419846844,
18,18,18,18,36,36,72,0.75,0.5,0.5,0.5,0.0,0.0,,stimuli/P_18_18_18_18.png,,,,,0,22,22,170,,,,,,,,,,,,,,,,,,,,,,,,,,,,399.76834470033646,None,399.76834470033646,None,400.1395003013313,None,400.1395003013313,None,50,400.1395003013313,None,return,4.045023800805211,400.1395003013313,None,,,HEWEI,M,001,2023_Apr_18_2041,untitled,2021.1.4,48.010516419846844,
36,18,18,9,54,54,81,0.78,0.33,0.67,0.67,0.0,0.0,,stimuli/P_36_18_18_09.png,,,,,0,23,23,233,,,,,,,,,,,,,,,,,,,,,,,,,,,,404.2208501007408,None,404.2208501007408,None,404.59821270033717,None,404.59821270033717,None,70,404.59821270033717,None,return,4.099424099549651,404.59821270033717,None,,,HEWEI,M,001,2023_Apr_18_2041,untitled,2021.1.4,48.010516419846844,
0,0,9,9,0,9,18,1.0,None,None,0.5,None,None,,stimuli/P_00_00_09_09.png,,,,,0,24,24,5,,,,,,,,,,,,,,,,,,,,,,,,,,,,408.7211969010532,None,408.7211969010532,None,409.0984247997403,None,409.0984247997403,None,0,409.0984247997403,None,return,2.444616999477148,409.0984247997403,None,,,HEWEI,M,001,2023_Apr_18_2041,untitled,2021.1.4,48.010516419846844,
9,36,18,36,45,27,99,0.64,0.8,0.2,0.33,-0.13,-0.2,,stimuli/P_09_36_18_36.png,,,,,0,25,25,123,,,,,,,,,,,,,,,,,,,,,,,,,,,,411.5621902998537,None,411.5621902998537,None,411.94770620018244,None,411.94770620018244,None,20,411.94770620018244,None,return,4.193600000813603,411.94770620018244,None,,,HEWEI,M,001,2023_Apr_18_2041,untitled,2021.1.4,48.010516419846844,
18,0,36,9,18,54,63,1.0,0.0,1.0,0.8,0.2,1.0,,stimuli/P_18_00_36_09.png,,,,,0,26,26,141,,,,,,,,,,,,,,,,,,,,,,,,,,,,416.1646931003779,None,416.1646931003779,None,416.5447145998478,None,416.5447145998478,None,100,416.5447145998478,None,return,3.4140413999557495,416.5447145998478,None,,,HEWEI,M,001,2023_Apr_18_2041,untitled,2021.1.4,48.010516419846844,
9,0,9,18,9,18,36,1.0,0.0,1.0,0.33,0.67,1.0,,stimuli/P_09_00_09_18.png,,,,,0,27,27,70,,,,,,,,,,,,,,,,,,,,,,,,,,,,419.99147479981184,None,419.99147479981184,None,420.38060920126736,None,420.38060920126736,None,100,420.38060920126736,None,return,3.7103735003620386,420.38060920126736,None,,,HEWEI,M,001,2023_Apr_18_2041,untitled,2021.1.4,48.010516419846844,
18,18,9,36,36,27,81,0.78,0.5,0.5,0.2,0.3,0.37,,stimuli/P_18_18_09_36.png,,,,,0,28,28,167,,,,,,,,,,,,,,,,,,,,,,,,,,,,424.1266521010548,None,424.1266521010548,None,424.5139949005097,None,424.5139949005097,None,50,424.5139949005097,None,return,2.984019400551915,424.5139949005097,None,,,HEWEI,M,001,2023_Apr_18_2041,untitled,2021.1.4,48.010516419846844,
18,36,9,0,54,27,63,0.43,0.67,0.33,1.0,-0.67,#NAME?,,stimuli/P_18_36_09_00.png,,,,,0,29,29,180,,,,,,,,,,,,,,,,,,,,,,,,,,,,427.52705920115113,None,427.52705920115113,None,427.90540430136025,None,427.90540430136025,None,25,427.90540430136025,None,return,5.353788999840617,427.90540430136025,None,,,HEWEI,M,001,2023_Apr_18_2041,untitled,2021.1.4,48.010516419846844,
36,18,36,36,54,72,126,0.86,0.33,0.67,0.5,0.17,0.33,,stimuli/P_36_18_36_36.png,,,,,0,30,30,239,,,,,,,,,,,,,,,,,,,,,,,,,,,,433.29169570095837,None,433.29169570095837,None,433.6780578996986,None,433.6780578996986,None,75,433.6780578996986,None,return,4.674157999455929,433.6780578996986,None,,,HEWEI,M,001,2023_Apr_18_2041,untitled,2021.1.4,48.010516419846844,
9,36,18,0,45,27,63,0.43,0.8,0.2,1.0,-0.8,#NAME?,,stimuli/P_09_36_18_00.png,,,,,0,31,31,120,,,,,,,,,,,,,,,,,,,,,,,,,,,,438.37217460013926,None,438.37217460013926,None,438.7589165009558,None,438.7589165009558,None,25,438.7589165009558,None,return,4.56154209934175,438.7589165009558,None,,,HEWEI,M,001,2023_Apr_18_2041,untitled,2021.1.4,48.010516419846844,
18,0,9,18,18,27,45,1.0,0.0,1.0,0.33,0.67,1.0,,stimuli/P_18_00_09_18.png,,,,,0,32,32,134,,,,,,,,,,,,,,,,,,,,,,,,,,,,443.3545757997781,None,443.3545757997781,None,443.7416409999132,None,443.7416409999132,None,100,443.7416409999132,None,return,2.4251725003123283,443.7416409999132,None,,,HEWEI,M,001,2023_Apr_18_2041,untitled,2021.1.4,48.010516419846844,
36,9,9,9,45,45,63,0.86,0.2,0.8,0.5,0.3,0.6,,stimuli/P_36_09_09_09.png,,,,,0,33,33,213,,,,,,,,,,,,,,,,,,,,,,,,,,,,446.18704430013895,None,446.18704430013895,None,446.5721305012703,None,446.5721305012703,None,75,446.5721305012703,None,return,3.9304229989647865,446.5721305012703,None,,,HEWEI,M,001,2023_Apr_18_2041,untitled,2021.1.4,48.010516419846844,
18,0,0,0,18,18,18,1.0,0.0,1.0,None,None,None,,stimuli/P_18_00_00_00.png,,,,,0,34,34,128,,,,,,,,,,,,,,,,,,,,,,,,,,,,450.5247457008809,None,450.5247457008809,None,450.9078398011625,None,450.9078398011625,None,100,450.9078398011625,None,return,2.2530541997402906,450.9078398011625,None,,,HEWEI,M,001,2023_Apr_18_2041,untitled,2021.1.4,48.010516419846844,
36,9,36,9,45,72,90,0.9,0.2,0.8,0.8,0.0,0.0,,stimuli/P_36_09_36_09.png,,,,,0,35,35,221,,,,,,,,,,,,,,,,,,,,,,,,,,,,453.1918992009014,None,453.1918992009014,None,453.5750201009214,None,453.5750201009214,None,75,453.5750201009214,None,return,4.1816870998591185,453.5750201009214,None,,,HEWEI,M,001,2023_Apr_18_2041,untitled,2021.1.4,48.010516419846844,
18,18,0,18,36,18,54,0.67,0.5,0.5,0.0,0.5,0.5,,stimuli/P_18_18_00_18.png,,,,,0,36,36,162,,,,,,,,,,,,,,,,,,,,,,,,,,,,457.79123849980533,None,457.79123849980533,None,458.167006701231,None,458.167006701231,None,50,458.167006701231,None,return,2.811906799674034,458.167006701231,None,,,HEWEI,M,001,2023_Apr_18_2041,untitled,2021.1.4,48.010516419846844,
9,36,9,18,45,18,72,0.5,0.8,0.2,0.33,-0.13,-0.2,,stimuli/P_09_36_09_18.png,,,,,0,37,37,118,,,,,,,,,,,,,,,,,,,,,,,,,,,,461.0187653005123,None,461.0187653005123,None,461.41444580070674,None,461.41444580070674,None,25,461.41444580070674,None,return,3.839691299945116,461.41444580070674,None,,,HEWEI,M,001,2023_Apr_18_2041,untitled,2021.1.4,48.010516419846844,
36,36,18,18,72,54,108,0.67,0.5,0.5,0.5,0.0,0.0,,stimuli/P_36_36_18_18.png,,,,,0,38,38,250,,,,,,,,,,,,,,,,,,,,,,,,,,,,465.28521250002086,None,465.28521250002086,None,465.67457790113986,None,465.67457790113986,None,50,465.67457790113986,None,return,3.418323799967766,465.67457790113986,None,,,HEWEI,M,001,2023_Apr_18_2041,untitled,2021.1.4,48.010516419846844,
0,36,9,9,36,9,54,0.33,1.0,0.0,0.5,-0.5,-1.0,,stimuli/P_00_36_09_09.png,,,,,0,39,39,53,,,,,,,,,,,,,,,,,,,,,,,,,,,,469.11213940009475,None,469.11213940009475,None,469.4820387996733,None,469.4820387996733,None,0,469.4820387996733,None,return,2.977946199476719,469.4820387996733,None,,,HEWEI,M,001,2023_Apr_18_2041,untitled,2021.1.4,48.010516419846844,
9,9,9,0,18,18,27,0.67,0.5,0.5,1.0,-0.5,#NAME?,,stimuli/P_09_09_09_00.png,,,,,0,40,40,84,,,,,,,,,,,,,,,,,,,,,,,,,,,,472.4768486004323,None,472.4768486004323,None,472.84835230000317,None,472.84835230000317,None,50,472.84835230000317,None,return,2.997171500697732,472.84835230000317,None,,,HEWEI,M,001,2023_Apr_18_2041,untitled,2021.1.4,48.010516419846844,
36,0,18,0,36,54,54,1.0,0.0,1.0,1.0,0.0,None,,stimuli/P_36_00_18_00.png,,,,,0,41,41,200,,,,,,,,,,,,,,,,,,,,,,,,,,,,475.8880588002503,None,475.8880588002503,None,476.27669120021164,None,476.27669120021164,None,100,476.27669120021164,None,return,2.9971916992217302,476.27669120021164,None,,,HEWEI,M,001,2023_Apr_18_2041,untitled,2021.1.4,48.010516419846844,
18,0,0,36,18,18,54,1.0,0.0,1.0,0.0,1.0,1.0,,stimuli/P_18_00_00_36.png,,,,,0,42,42,131,,,,,,,,,,,,,,,,,,,,,,,,,,,,479.3131614997983,None,479.3131614997983,None,479.7083947006613,None,479.7083947006613,None,100,479.7083947006613,None,return,2.6757348999381065,479.7083947006613,None,,,HEWEI,M,001,2023_Apr_18_2041,untitled,2021.1.4,48.010516419846844,
0,18,9,18,18,9,45,0.6,1.0,0.0,0.33,-0.33,-0.5,,stimuli/P_00_18_09_18.png,,,,,0,43,43,38,,,,,,,,,,,,,,,,,,,,,,,,,,,,482.40185620076954,None,482.40185620076954,None,482.7828688006848,None,482.7828688006848,None,0,482.7828688006848,None,return,2.0283911004662514,482.7828688006848,None,,,HEWEI,M,001,2023_Apr_18_2041,untitled,2021.1.4,48.010516419846844,
9,36,18,9,45,27,72,0.5,0.8,0.2,0.67,-0.47,-1.4,,stimuli/P_09_36_18_09.png,,,,,0,44,44,121,,,,,,,,,,,,,,,,,,,,,,,,,,,,484.84712919965386,None,484.84712919965386,None,485.24695309996605,None,485.24695309996605,None,25,485.24695309996605,None,return,2.564002798870206,485.24695309996605,None,,,HEWEI,M,001,2023_Apr_18_2041,untitled,2021.1.4,48.010516419846844,
0,0,36,0,0,36,36,1.0,None,None,1.0,None,None,,stimuli/P_00_00_36_00.png,,,,,0,45,45,12,,,,,,,,,,,,,,,,,,,,,,,,,,,,487.8284236006439,None,487.8284236006439,None,488.21604320034385,None,488.21604320034385,None,0,488.21604320034385,None,return,2.6435575000941753,488.21604320034385,None,,,HEWEI,M,001,2023_Apr_18_2041,untitled,2021.1.4,48.010516419846844,
18,0,18,18,18,36,54,1.0,0.0,1.0,0.5,0.5,1.0,,stimuli/P_18_00_18_18.png,,,,,0,46,46,138,,,,,,,,,,,,,,,,,,,,,,,,,,,,490.8757610004395,None,490.8757610004395,None,491.2584694009274,None,491.2584694009274,None,100,491.2584694009274,None,return,2.1303965989500284,491.2584694009274,None,,,HEWEI,M,001,2023_Apr_18_2041,untitled,2021.1.4,48.010516419846844,
0,0,18,18,0,18,36,1.0,None,None,0.5,None,None,,stimuli/P_00_00_18_18.png,,,,,0,47,47,10,,,,,,,,,,,,,,,,,,,,,,,,,,,,493.4203456006944,None,493.4203456006944,None,493.7920722011477,None,493.7920722011477,None,0,493.7920722011477,None,return,2.815498000010848,493.7920722011477,None,,,HEWEI,M,001,2023_Apr_18_2041,untitled,2021.1.4,48.010516419846844,
0,18,0,9,18,0,27,0.33,1.0,0.0,0.0,0.0,0.0,,stimuli/P_00_18_00_09.png,,,,,0,48,48,33,,,,,,,,,,,,,,,,,,,,,,,,,,,,496.6423318013549,None,496.6423318013549,None,497.02479629963636,None,497.02479629963636,None,0,497.02479629963636,None,return,1.7608905006200075,497.02479629963636,None,,,HEWEI,M,001,2023_Apr_18_2041,untitled,2021.1.4,48.010516419846844,
0,9,9,36,9,9,54,0.83,1.0,0.0,0.2,-0.2,-0.25,,stimuli/P_00_09_09_36.png,,,,,0,49,49,23,,,,,,,,,,,,,,,,,,,,,,,,,,,,498.81426740065217,None,498.81426740065217,None,499.19722150079906,None,499.19722150079906,None,0,499.19722150079906,None,return,2.25633430108428,499.19722150079906,None,,,HEWEI,M,001,2023_Apr_18_2041,untitled,2021.1.4,48.010516419846844,
9,18,0,36,27,9,63,0.71,0.67,0.33,0.0,0.33,0.33,,stimuli/P_09_18_00_36.png,,,,,0,50,50,99,,,,,,,,,,,,,,,,,,,,,,,,,,,,501.4788316003978,None,501.4788316003978,None,501.8649919014424,None,501.8649919014424,None,30,501.8649919014424,None,return,4.7552343010902405,501.8649919014424,None,,,HEWEI,M,001,2023_Apr_18_2041,untitled,2021.1.4,48.010516419846844,
0,18,9,36,18,9,63,0.71,1.0,0.0,0.2,-0.2,-0.25,,stimuli/P_00_18_09_36.png,,,,,0,51,51,39,,,,,,,,,,,,,,,,,,,,,,,,,,,,506.6515202000737,None,506.6515202000737,None,507.0354721006006,None,507.0354721006006,None,0,507.0354721006006,None,return,1.9698783997446299,507.0354721006006,None,,,HEWEI,M,001,2023_Apr_18_2041,untitled,2021.1.4,48.010516419846844,
0,0,9,0,0,9,9,1.0,None,None,1.0,None,None,,stimuli/P_00_00_09_00.png,,,,,0,52,52,4,,,,,,,,,,,,,,,,,,,,,,,,,,,,509.0215962007642,None,509.0215962007642,None,509.42913950048387,None,509.42913950048387,None,0,509.42913950048387,None,return,2.320610200986266,509.42913950048387,None,,,HEWEI,M,001,2023_Apr_18_2041,untitled,2021.1.4,48.010516419846844,
9,18,0,9,27,9,36,0.5,0.67,0.33,0.0,0.33,0.33,,stimuli/P_09_18_00_09.png,,,,,0,53,53,97,,,,,,,,,,,,,,,,,,,,,,,,,,,,511.7750985007733,None,511.7750985007733,None,512.1805074997246,None,512.1805074997246,None,30,512.1805074997246,None,return,4.030447801575065,512.1805074997246,None,,,HEWEI,M,001,2023_Apr_18_2041,untitled,2021.1.4,48.010516419846844,
36,9,0,9,45,36,54,0.83,0.2,0.8,0.0,0.8,0.8,,stimuli/P_36_09_00_09.png,,,,,0,54,54,209,,,,,,,,,,,,,,,,,,,,,,,,,,,,516.2437201011926,None,516.2437201011926,None,516.6233051009476,None,516.6233051009476,None,75,516.6233051009476,None,return,3.705928798764944,516.6233051009476,None,,,HEWEI,M,001,2023_Apr_18_2041,untitled,2021.1.4,48.010516419846844,
9,0,18,36,9,27,63,1.0,0.0,1.0,0.33,0.67,1.0,,stimuli/P_09_00_18_36.png,,,,,0,55,55,75,,,,,,,,,,,,,,,,,,,,,,,,,,,,520.3690227009356,None,520.3690227009356,None,520.7454807013273,None,520.7454807013273,None,100,520.7454807013273,None,return,4.061492100358009,520.7454807013273,None,,,HEWEI,M,001,2023_Apr_18_2041,untitled,2021.1.4,48.010516419846844,
0,9,36,0,9,36,45,0.8,1.0,0.0,1.0,-1.0,#NAME?,,stimuli/P_00_09_36_00.png,,,,,0,56,56,28,,,,,,,,,,,,,,,,,,,,,,,,,,,,524.8471937999129,None,524.8471937999129,None,525.223128600046,None,525.223128600046,None,0,525.223128600046,None,return,2.07979610003531,525.223128600046,None,,,HEWEI,M,001,2023_Apr_18_2041,untitled,2021.1.4,48.010516419846844,
9,0,0,36,9,9,45,1.0,0.0,1.0,0.0,1.0,1.0,,stimuli/P_09_00_00_36.png,,,,,0,57,57,67,,,,,,,,,,,,,,,,,,,,,,,,,,,,527.3385208006948,None,527.3385208006948,None,527.7241904009134,None,527.7241904009134,None,100,527.7241904009134,None,return,2.216015199199319,527.7241904009134,None,,,HEWEI,M,001,2023_Apr_18_2041,untitled,2021.1.4,48.010516419846844,
36,9,9,36,45,45,90,0.9,0.2,0.8,0.2,0.6,0.75,,stimuli/P_36_09_09_36.png,,,,,0,58,58,215,,,,,,,,,,,,,,,,,,,,,,,,,,,,529.9587283004075,None,529.9587283004075,None,530.3562988005579,None,530.3562988005579,None,75,530.3562988005579,None,return,2.949124399572611,530.3562988005579,None,,,HEWEI,M,001,2023_Apr_18_2041,untitled,2021.1.4,48.010516419846844,
36,9,9,18,45,45,72,0.88,0.2,0.8,0.33,0.47,0.7,,stimuli/P_36_09_09_18.png,,,,,0,59,59,214,,,,,,,,,,,,,,,,,,,,,,,,,,,,533.3357458002865,None,533.3357458002865,None,533.7209018003196,None,533.7209018003196,None,75,533.7209018003196,None,return,3.2123616002500057,533.7209018003196,None,,,HEWEI,M,001,2023_Apr_18_2041,untitled,2021.1.4,48.010516419846844,
36,0,0,0,36,36,36,1.0,0.0,1.0,None,None,None,,stimuli/P_36_00_00_00.png,,,,,0,60,60,192,,,,,,,,,,,,,,,,,,,,,,,,,,,,536.9538589008152,None,536.9538589008152,None,537.3679054006934,None,537.3679054006934,None,100,537.3679054006934,None,return,2.1602375004440546,537.3679054006934,None,,,HEWEI,M,001,2023_Apr_18_2041,untitled,2021.1.4,48.010516419846844,
0,36,18,0,36,18,54,0.33,1.0,0.0,1.0,-1.0,#NAME?,,stimuli/P_00_36_18_00.png,,,,,0,61,61,56,,,,,,,,,,,,,,,,,,,,,,,,,,,,539.5428704004735,None,539.5428704004735,None,539.9322915002704,None,539.9322915002704,None,0,539.9322915002704,None,return,1.8778073005378246,539.9322915002704,None,,,HEWEI,M,001,2023_Apr_18_2041,untitled,2021.1.4,48.010516419846844,
9,9,36,0,18,45,54,0.83,0.5,0.5,1.0,-0.5,#NAME?,,stimuli/P_09_09_36_00.png,,,,,0,62,62,92,,,,,,,,,,,,,,,,,,,,,,,,,,,,541.8317399006337,None,541.8317399006337,None,542.2162789013237,None,542.2162789013237,None,50,542.2162789013237,None,return,2.192333299666643,542.2162789013237,None,,,HEWEI,M,001,2023_Apr_18_2041,untitled,2021.1.4,48.010516419846844,
18,18,18,36,36,36,90,0.8,0.5,0.5,0.33,0.17,0.25,,stimuli/P_18_18_18_36.png,,,,,0,63,63,171,,,,,,,,,,,,,,,,,,,,,,,,,,,,544.4249655008316,None,544.4249655008316,None,544.8223397005349,None,544.8223397005349,None,50,544.8223397005349,None,return,2.819546200335026,544.8223397005349,None,,,HEWEI,M,001,2023_Apr_18_2041,untitled,2021.1.4,48.010516419846844,
36,0,36,9,36,72,81,1.0,0.0,1.0,0.8,0.2,1.0,,stimuli/P_36_00_36_09.png,,,,,0,64,64,205,,,,,,,,,,,,,,,,,,,,,,,,,,,,547.6674669999629,None,547.6674669999629,None,548.0543841999024,None,548.0543841999024,None,100,548.0543841999024,None,return,1.8077992014586926,548.0543841999024,None,,,HEWEI,M,001,2023_Apr_18_2041,untitled,2021.1.4,48.010516419846844,
36,36,9,9,72,45,90,0.6,0.5,0.5,0.5,0.0,0.0,,stimuli/P_36_36_09_09.png,,,,,0,65,65,245,,,,,,,,,,,,,,,,,,,,,,,,,,,,549.8834388013929,None,549.8834388013929,None,550.2610263004899,None,550.2610263004899,None,50,550.2610263004899,None,return,2.9471171014010906,550.2610263004899,None,,,HEWEI,M,001,2023_Apr_18_2041,untitled,2021.1.4,48.010516419846844,
9,36,36,18,45,45,99,0.64,0.8,0.2,0.67,-0.47,-1.4,,stimuli/P_09_36_36_18.png,,,,,0,66,66,126,,,,,,,,,,,,,,,,,,,,,,,,,,,,553.224546900019,None,553.224546900019,None,553.6010494995862,None,553.6010494995862,None,25,553.6010494995862,None,return,2.4944612998515368,553.6010494995862,None,,,HEWEI,M,001,2023_Apr_18_2041,untitled,2021.1.4,48.010516419846844,
18,9,9,36,27,27,72,0.88,0.33,0.67,0.2,0.47,0.58,,stimuli/P_18_09_09_36.png,,,,,0,67,67,151,,,,,,,,,,,,,,,,,,,,,,,,,,,,556.1282119005919,None,556.1282119005919,None,556.5141365006566,None,556.5141365006566,None,70,556.5141365006566,None,return,4.768489999696612,556.5141365006566,None,,,HEWEI,M,001,2023_Apr_18_2041,untitled,2021.1.4,48.010516419846844,
36,0,9,0,36,45,45,1.0,0.0,1.0,1.0,0.0,None,,stimuli/P_36_00_09_00.png,,,,,0,68,68,196,,,,,,,,,,,,,,,,,,,,,,,,,,,,561.3006379008293,None,561.3006379008293,None,561.6970325000584,None,561.6970325000584,None,100,561.6970325000584,None,return,1.7943459004163742,561.6970325000584,None,,,HEWEI,M,001,2023_Apr_18_2041,untitled,2021.1.4,48.010516419846844,
0,36,36,18,36,36,90,0.6,1.0,0.0,0.67,-0.67,-2.0,,stimuli/P_00_36_36_18.png,,,,,0,69,69,62,,,,,,,,,,,,,,,,,,,,,,,,,,,,563.5216752011329,None,563.5216752011329,None,563.8903637006879,None,563.8903637006879,None,0,563.8903637006879,None,return,1.5985780991613865,563.8903637006879,None,,,HEWEI,M,001,2023_Apr_18_2041,untitled,2021.1.4,48.010516419846844,
18,0,36,0,18,54,54,1.0,0.0,1.0,1.0,0.0,None,,stimuli/P_18_00_36_00.png,,,,,0,70,70,140,,,,,,,,,,,,,,,,,,,,,,,,,,,,565.5178424008191,None,565.5178424008191,None,565.9055512007326,None,565.9055512007326,None,100,565.9055512007326,None,return,1.9842786993831396,565.9055512007326,None,,,HEWEI,M,001,2023_Apr_18_2041,untitled,2021.1.4,48.010516419846844,
9,9,18,0,18,27,36,0.75,0.5,0.5,1.0,-0.5,#NAME?,,stimuli/P_09_09_18_00.png,,,,,0,71,71,88,,,,,,,,,,,,,,,,,,,,,,,,,,,,567.9294336009771,None,567.9294336009771,None,568.325179900974,None,568.325179900974,None,50,568.325179900974,None,return,2.013942301273346,568.325179900974,None,,,HEWEI,M,001,2023_Apr_18_2041,untitled,2021.1.4,48.010516419846844,
36,36,9,36,72,45,117,0.69,0.5,0.5,0.2,0.3,0.37,,stimuli/P_36_36_09_36.png,,,,,0,72,72,247,,,,,,,,,,,,,,,,,,,,,,,,,,,,570.371644500643,None,570.371644500643,None,570.7559415996075,None,570.7559415996075,None,50,570.7559415996075,None,return,1.6601081006228924,570.7559415996075,None,,,HEWEI,M,001,2023_Apr_18_2041,untitled,2021.1.4,48.010516419846844,
18,9,36,9,27,54,72,0.88,0.33,0.67,0.8,-0.13,-0.67,,stimuli/P_18_09_36_09.png,,,,,0,73,73,157,,,,,,,,,,,,,,,,,,,,,,,,,,,,572.4532751999795,None,572.4532751999795,None,572.8545455001295,None,572.8545455001295,None,70,572.8545455001295,None,return,2.6914850994944572,572.8545455001295,None,,,HEWEI,M,001,2023_Apr_18_2041,untitled,2021.1.4,48.010516419846844,
18,36,0,0,54,18,54,0.33,0.67,0.33,None,None,None,,stimuli/P_18_36_00_00.png,,,,,0,74,74,176,,,,,,,,,,,,,,,,,,,,,,,,,,,,575.5643474012613,None,575.5643474012613,None,575.947807200253,None,575.947807200253,None,25,575.947807200253,None,return,4.05804879963398,575.947807200253,None,,,HEWEI,M,001,2023_Apr_18_2041,untitled,2021.1.4,48.010516419846844,
9,36,36,9,45,45,90,0.6,0.8,0.2,0.8,-0.6,-3.0,,stimuli/P_09_36_36_09.png,,,,,0,75,75,125,,,,,,,,,,,,,,,,,,,,,,,,,,,,580.0197919998318,None,580.0197919998318,None,580.3951329998672,None,580.3951329998672,None,15,580.3951329998672,None,return,5.200592201203108,580.3951329998672,None,,,HEWEI,M,001,2023_Apr_18_2041,untitled,2021.1.4,48.010516419846844,
0,0,0,36,0,0,36,1.0,None,None,0.0,None,None,,stimuli/P_00_00_00_36.png,,,,,0,76,76,3,,,,,,,,,,,,,,,,,,,,,,,,,,,,585.6281128004193,None,585.6281128004193,None,586.0144220013171,None,586.0144220013171,None,0,586.0144220013171,None,return,1.5368562992662191,586.0144220013171,None,,,HEWEI,M,001,2023_Apr_18_2041,untitled,2021.1.4,48.010516419846844,
36,0,9,36,36,45,81,1.0,0.0,1.0,0.2,0.8,1.0,,stimuli/P_36_00_09_36.png,,,,,0,77,77,199,,,,,,,,,,,,,,,,,,,,,,,,,,,,587.568630900234,None,587.568630900234,None,587.9642276000232,None,587.9642276000232,None,100,587.9642276000232,None,return,2.37487250007689,587.9642276000232,None,,,HEWEI,M,001,2023_Apr_18_2041,untitled,2021.1.4,48.010516419846844,
0,9,36,9,9,36,54,0.83,1.0,0.0,0.8,-0.8,-4.0,,stimuli/P_00_09_36_09.png,,,,,0,78,78,29,,,,,,,,,,,,,,,,,,,,,,,,,,,,590.3596628010273,None,590.3596628010273,None,590.7465048003942,None,590.7465048003942,None,0,590.7465048003942,None,return,1.599617499858141,590.7465048003942,None,,,HEWEI,M,001,2023_Apr_18_2041,untitled,2021.1.4,48.010516419846844,
36,0,18,9,36,54,63,1.0,0.0,1.0,0.67,0.33,1.0,,stimuli/P_36_00_18_09.png,,,,,0,79,79,201,,,,,,,,,,,,,,,,,,,,,,,,,,,,592.3778609000146,None,592.3778609000146,None,592.7608567997813,None,592.7608567997813,None,100,592.7608567997813,None,return,1.6504830997437239,592.7608567997813,None,,,HEWEI,M,001,2023_Apr_18_2041,untitled,2021.1.4,48.010516419846844,
0,0,9,36,0,9,45,1.0,None,None,0.2,None,None,,stimuli/P_00_00_09_36.png,,,,,0,80,80,7,,,,,,,,,,,,,,,,,,,,,,,,,,,,594.4501286000013,None,594.4501286000013,None,594.8363544996828,None,594.8363544996828,None,0,594.8363544996828,None,return,1.3633252996951342,594.8363544996828,None,,,HEWEI,M,001,2023_Apr_18_2041,untitled,2021.1.4,48.010516419846844,
18,36,9,9,54,27,72,0.5,0.67,0.33,0.5,-0.17,-0.33,,stimuli/P_18_36_09_09.png,,,,,0,81,81,181,,,,,,,,,,,,,,,,,,,,,,,,,,,,596.2163600996137,None,596.2163600996137,None,596.5852362010628,None,596.5852362010628,None,25,596.5852362010628,None,return,4.676369599997997,596.5852362010628,None,,,HEWEI,M,001,2023_Apr_18_2041,untitled,2021.1.4,48.010516419846844,
9,9,36,9,18,45,63,0.86,0.5,0.5,0.8,-0.3,-1.5,,stimuli/P_09_09_36_09.png,,,,,0,82,82,93,,,,,,,,,,,,,,,,,,,,,,,,,,,,601.2790553998202,None,601.2790553998202,None,601.6585939005017,None,601.6585939005017,None,50,601.6585939005017,None,return,2.2432091012597084,601.6585939005017,None,,,HEWEI,M,001,2023_Apr_18_2041,untitled,2021.1.4,48.010516419846844,
36,0,0,36,36,36,72,1.0,0.0,1.0,0.0,1.0,1.0,,stimuli/P_36_00_00_36.png,,,,,0,83,83,195,,,,,,,,,,,,,,,,,,,,,,,,,,,,603.9185672998428,None,603.9185672998428,None,604.2936062011868,None,604.2936062011868,None,100,604.2936062011868,None,return,1.789420099928975,604.2936062011868,None,,,HEWEI,M,001,2023_Apr_18_2041,untitled,2021.1.4,48.010516419846844,
36,18,9,36,54,45,99,0.82,0.33,0.67,0.2,0.47,0.58,,stimuli/P_36_18_09_36.png,,,,,0,84,84,231,,,,,,,,,,,,,,,,,,,,,,,,,,,,606.106870200485,None,606.106870200485,None,606.4870300013572,None,606.4870300013572,None,75,606.4870300013572,None,return,4.411842800676823,606.4870300013572,None,,,HEWEI,M,001,2023_Apr_18_2041,untitled,2021.1.4,48.010516419846844,
0,36,0,9,36,0,45,0.2,1.0,0.0,0.0,0.0,0.0,,stimuli/P_00_36_00_09.png,,,,,0,85,85,49,,,,,,,,,,,,,,,,,,,,,,,,,,,,610.9213017001748,None,610.9213017001748,None,611.3010189011693,None,611.3010189011693,None,0,611.3010189011693,None,return,1.7770998999476433,611.3010189011693,None,,,HEWEI,M,001,2023_Apr_18_2041,untitled,2021.1.4,48.010516419846844,
0,36,9,0,36,9,45,0.2,1.0,0.0,1.0,-1.0,#NAME?,,stimuli/P_00_36_09_00.png,,,,,0,86,86,52,,,,,,,,,,,,,,,,,,,,,,,,,,,,613.0996998008341,None,613.0996998008341,None,613.4679690003395,None,613.4679690003395,None,0,613.4679690003395,None,return,1.562057700008154,613.4679690003395,None,,,HEWEI,M,001,2023_Apr_18_2041,untitled,2021.1.4,48.010516419846844,
0,18,18,36,18,18,72,0.75,1.0,0.0,0.33,-0.33,-0.5,,stimuli/P_00_18_18_36.png,,,,,0,87,87,43,,,,,,,,,,,,,,,,,,,,,,,,,,,,615.0454060006887,None,615.0454060006887,None,615.4296035002917,None,615.4296035002917,None,0,615.4296035002917,None,return,1.6866210997104645,615.4296035002917,None,,,HEWEI,M,001,2023_Apr_18_2041,untitled,2021.1.4,48.010516419846844,
36,0,18,18,36,54,72,1.0,0.0,1.0,0.5,0.5,1.0,,stimuli/P_36_00_18_18.png,,,,,0,88,88,202,,,,,,,,,,,,,,,,,,,,,,,,,,,,617.1592281013727,None,617.1592281013727,None,617.5345646999776,None,617.5345646999776,None,100,617.5345646999776,None,return,3.054323799908161,617.5345646999776,None,,,HEWEI,M,001,2023_Apr_18_2041,untitled,2021.1.4,48.010516419846844,
9,36,0,9,45,9,54,0.33,0.8,0.2,0.0,0.2,0.2,,stimuli/P_09_36_00_09.png,,,,,0,89,89,113,,,,,,,,,,,,,,,,,,,,,,,,,,,,620.6243973001838,None,620.6243973001838,None,620.997426500544,None,620.997426500544,None,20,620.997426500544,None,return,4.146449200809002,620.997426500544,None,,,HEWEI,M,001,2023_Apr_18_2041,untitled,2021.1.4,48.010516419846844,
9,18,9,0,27,18,36,0.5,0.67,0.33,1.0,-0.67,#NAME?,,stimuli/P_09_18_09_00.png,,,,,0,90,90,100,,,,,,,,,,,,,,,,,,,,,,,,,,,,625.1978620998561,None,625.1978620998561,None,625.5523304007947,None,625.5523304007947,None,25,625.5523304007947,None,return,4.413555700331926,625.5523304007947,None,,,HEWEI,M,001,2023_Apr_18_2041,untitled,2021.1.4,48.010516419846844,
9,9,9,36,18,18,63,0.86,0.5,0.5,0.2,0.3,0.37,,stimuli/P_09_09_09_36.png,,,,,0,91,91,87,,,,,,,,,,,,,,,,,,,,,,,,,,,,629.9996592998505,None,629.9996592998505,None,630.394878000021,None,630.394878000021,None,50,630.394878000021,None,return,1.9415818005800247,630.394878000021,None,,,HEWEI,M,001,2023_Apr_18_2041,untitled,2021.1.4,48.010516419846844,
9,9,0,18,18,9,36,0.75,0.5,0.5,0.0,0.5,0.5,,stimuli/P_09_09_00_18.png,,,,,0,92,92,82,,,,,,,,,,,,,,,,,,,,,,,,,,,,632.3748649004847,None,632.3748649004847,None,632.7559818010777,None,632.7559818010777,None,50,632.7559818010777,None,return,2.296703999862075,632.7559818010777,None,,,HEWEI,M,001,2023_Apr_18_2041,untitled,2021.1.4,48.010516419846844,
0,0,0,9,0,0,9,1.0,None,None,0.0,None,None,,stimuli/P_00_00_00_09.png,,,,,0,93,93,1,,,,,,,,,,,,,,,,,,,,,,,,,,,,635.0767473001033,None,635.0767473001033,None,635.4740424007177,None,635.4740424007177,None,0,635.4740424007177,None,return,1.625169400125742,635.4740424007177,None,,,HEWEI,M,001,2023_Apr_18_2041,untitled,2021.1.4,48.010516419846844,
0,0,0,0,0,0,0,None,None,None,None,None,None,,stimuli/P_00_00_00_00.png,,,,,0,94,94,0,,,,,,,,,,,,,,,,,,,,,,,,,,,,637.1305458005518,None,637.1305458005518,None,637.4927408006042,None,637.4927408006042,None,0,637.4927408006042,None,return,3.3991970010101795,637.4927408006042,None,,,HEWEI,M,001,2023_Apr_18_2041,untitled,2021.1.4,48.010516419846844,
0,9,18,0,9,18,27,0.67,1.0,0.0,1.0,-1.0,#NAME?,,stimuli/P_00_09_18_00.png,,,,,0,95,95,24,,,,,,,,,,,,,,,,,,,,,,,,,,,,640.9098175000399,None,640.9098175000399,None,641.26755400002,None,641.26755400002,None,0,641.26755400002,None,return,3.7835234999656677,641.26755400002,None,,,HEWEI,M,001,2023_Apr_18_2041,untitled,2021.1.4,48.010516419846844,
18,0,36,18,18,54,72,1.0,0.0,1.0,0.67,0.33,1.0,,stimuli/P_18_00_36_18.png,,,,,0,96,96,142,,,,,,,,,,,,,,,,,,,,,,,,,,,,645.0766815003008,None,645.0766815003008,None,645.4842576012015,None,645.4842576012015,None,100,645.4842576012015,None,return,2.122708098962903,645.4842576012015,None,,,HEWEI,M,001,2023_Apr_18_2041,untitled,2021.1.4,48.010516419846844,
36,9,36,18,45,72,99,0.91,0.2,0.8,0.67,0.13,0.4,,stimuli/P_36_09_36_18.png,,,,,0,97,97,222,,,,,,,,,,,,,,,,,,,,,,,,,,,,647.6301536001265,None,647.6301536001265,None,648.0108634009957,None,648.0108634009957,None,75,648.0108634009957,None,return,2.9470063988119364,648.0108634009957,None,,,HEWEI,M,001,2023_Apr_18_2041,untitled,2021.1.4,48.010516419846844,
18,18,36,9,36,54,81,0.78,0.5,0.5,0.8,-0.3,-1.5,,stimuli/P_18_18_36_09.png,,,,,0,98,98,173,,,,,,,,,,,,,,,,,,,,,,,,,,,,650.9848632011563,None,650.9848632011563,None,651.3670588005334,None,651.3670588005334,None,50,651.3670588005334,None,return,1.8279659990221262,651.3670588005334,None,,,HEWEI,M,001,2023_Apr_18_2041,untitled,2021.1.4,48.010516419846844,
9,9,0,36,18,9,54,0.83,0.5,0.5,0.0,0.5,0.5,,stimuli/P_09_09_00_36.png,,,,,0,99,99,83,,,,,,,,,,,,,,,,,,,,,,,,,,,,653.2303098011762,None,653.2303098011762,None,653.5966027006507,None,653.5966027006507,None,50,653.5966027006507,None,return,1.9534756988286972,653.5966027006507,None,,,HEWEI,M,001,2023_Apr_18_2041,untitled,2021.1.4,48.010516419846844,
18,9,0,18,27,18,45,0.8,0.33,0.67,0.0,0.67,0.67,,stimuli/P_18_09_00_18.png,,,,,0,100,100,146,,,,,,,,,,,,,,,,,,,,,,,,,,,,655.5882460996509,None,655.5882460996509,None,655.9647730011493,None,655.9647730011493,None,75,655.9647730011493,None,return,4.2250296007841825,655.9647730011493,None,,,HEWEI,M,001,2023_Apr_18_2041,untitled,2021.1.4,48.010516419846844,
0,9,0,18,9,0,27,0.67,1.0,0.0,0.0,0.0,0.0,,stimuli/P_00_09_00_18.png,,,,,0,101,101,18,,,,,,,,,,,,,,,,,,,,,,,,,,,,660.206873100251,None,660.206873100251,None,660.5969719011337,None,660.5969719011337,None,0,660.5969719011337,None,return,1.5442327000200748,660.5969719011337,None,,,HEWEI,M,001,2023_Apr_18_2041,untitled,2021.1.4,48.010516419846844,
36,36,9,18,72,45,99,0.64,0.5,0.5,0.33,0.17,0.25,,stimuli/P_36_36_09_18.png,,,,,0,102,102,246,,,,,,,,,,,,,,,,,,,,,,,,,,,,662.1750550996512,None,662.1750550996512,None,662.5470467004925,None,662.5470467004925,None,50,662.5470467004925,None,return,2.590411899611354,662.5470467004925,None,,,HEWEI,M,001,2023_Apr_18_2041,untitled,2021.1.4,48.010516419846844,
36,18,18,0,54,54,72,0.75,0.33,0.67,1.0,-0.33,#NAME?,,stimuli/P_36_18_18_00.png,,,,,0,103,103,232,,,,,,,,,,,,,,,,,,,,,,,,,,,,665.1692492011935,None,665.1692492011935,None,665.5584009997547,None,665.5584009997547,None,75,665.5584009997547,None,return,2.7455032989382744,665.5584009997547,None,,,HEWEI,M,001,2023_Apr_18_2041,untitled,2021.1.4,48.010516419846844,
9,18,36,36,27,45,99,0.82,0.67,0.33,0.5,-0.17,-0.33,,stimuli/P_09_18_36_36.png,,,,,0,104,104,111,,,,,,,,,,,,,,,,,,,,,,,,,,,,668.3439204003662,None,668.3439204003662,None,668.7140509001911,None,668.7140509001911,None,30,668.7140509001911,None,return,4.01091929897666,668.7140509001911,None,,,HEWEI,M,001,2023_Apr_18_2041,untitled,2021.1.4,48.010516419846844,
0,9,0,9,9,0,18,0.5,1.0,0.0,0.0,0.0,0.0,,stimuli/P_00_09_00_09.png,,,,,0,105,105,17,,,,,,,,,,,,,,,,,,,,,,,,,,,,672.7439852003008,None,672.7439852003008,None,673.1311443001032,None,673.1311443001032,None,0,673.1311443001032,None,return,1.7085339985787868,673.1311443001032,None,,,HEWEI,M,001,2023_Apr_18_2041,untitled,2021.1.4,48.010516419846844,
18,9,0,9,27,18,36,0.75,0.33,0.67,0.0,0.67,0.67,,stimuli/P_18_09_00_09.png,,,,,0,106,106,145,,,,,,,,,,,,,,,,,,,,,,,,,,,,674.8575854003429,None,674.8575854003429,None,675.2338447999209,None,675.2338447999209,None,75,675.2338447999209,None,return,2.912337200716138,675.2338447999209,None,,,HEWEI,M,001,2023_Apr_18_2041,untitled,2021.1.4,48.010516419846844,
36,0,0,18,36,36,54,1.0,0.0,1.0,0.0,1.0,1.0,,stimuli/P_36_00_00_18.png,,,,,0,107,107,194,,,,,,,,,,,,,,,,,,,,,,,,,,,,678.1736358013004,None,678.1736358013004,None,678.5449788998812,None,678.5449788998812,None,100,678.5449788998812,None,return,2.401097100228071,678.5449788998812,None,,,HEWEI,M,001,2023_Apr_18_2041,untitled,2021.1.4,48.010516419846844,
36,9,18,36,45,54,99,0.91,0.2,0.8,0.33,0.47,0.7,,stimuli/P_36_09_18_36.png,,,,,0,108,108,219,,,,,,,,,,,,,,,,,,,,,,,,,,,,680.9927910007536,None,680.9927910007536,None,681.3904678002,None,681.3904678002,None,80,681.3904678002,None,return,4.925100998952985,681.3904678002,None,,,HEWEI,M,001,2023_Apr_18_2041,untitled,2021.1.4,48.010516419846844,
18,18,9,0,36,27,45,0.6,0.5,0.5,1.0,-0.5,#NAME?,,stimuli/P_18_18_09_00.png,,,,,0,109,109,164,,,,,,,,,,,,,,,,,,,,,,,,,,,,686.3342618010938,None,686.3342618010938,None,686.734172699973,None,686.734172699973,None,50,686.734172699973,None,return,2.2894168999046087,686.734172699973,None,,,HEWEI,M,001,2023_Apr_18_2041,untitled,2021.1.4,48.010516419846844,
9,18,18,0,27,27,45,0.6,0.67,0.33,1.0,-0.67,#NAME?,,stimuli/P_09_18_18_00.png,,,,,0,110,110,104,,,,,,,,,,,,,,,,,,,,,,,,,,,,689.0589378010482,None,689.0589378010482,None,689.4370885007083,None,689.4370885007083,None,25,689.4370885007083,None,return,3.4331058003008366,689.4370885007083,None,,,HEWEI,M,001,2023_Apr_18_2041,untitled,2021.1.4,48.010516419846844,
18,0,9,9,18,27,36,1.0,0.0,1.0,0.5,0.5,1.0,,stimuli/P_18_00_09_09.png,,,,,0,111,111,133,,,,,,,,,,,,,,,,,,,,,,,,,,,,692.909003900364,None,692.909003900364,None,693.2853526007384,None,693.2853526007384,None,100,693.2853526007384,None,return,1.7566261999309063,693.2853526007384,None,,,HEWEI,M,001,2023_Apr_18_2041,untitled,2021.1.4,48.010516419846844,
36,36,36,36,72,72,144,0.75,0.5,0.5,0.5,0.0,0.0,,stimuli/P_36_36_36_36.png,,,,,0,112,112,255,,,,,,,,,,,,,,,,,,,,,,,,,,,,695.0582306012511,None,695.0582306012511,None,695.4342678003013,None,695.4342678003013,None,50,695.4342678003013,None,return,1.848973099142313,695.4342678003013,None,,,HEWEI,M,001,2023_Apr_18_2041,untitled,2021.1.4,48.010516419846844,
36,18,9,9,54,45,72,0.75,0.33,0.67,0.5,0.17,0.33,,stimuli/P_36_18_09_09.png,,,,,0,113,113,229,,,,,,,,,,,,,,,,,,,,,,,,,,,,697.3060657996684,None,697.3060657996684,None,697.6900406014174,None,697.6900406014174,None,75,697.6900406014174,None,return,3.914198700338602,697.6900406014174,None,,,HEWEI,M,001,2023_Apr_18_2041,untitled,2021.1.4,48.010516419846844,
0,9,18,9,9,18,36,0.75,1.0,0.0,0.67,-0.67,-2.0,,stimuli/P_00_09_18_09.png,,,,,0,114,114,25,,,,,,,,,,,,,,,,,,,,,,,,,,,,701.6295031998307,None,701.6295031998307,None,702.0182218998671,None,702.0182218998671,None,0,702.0182218998671,None,return,1.6313997991383076,702.0182218998671,None,,,HEWEI,M,001,2023_Apr_18_2041,untitled,2021.1.4,48.010516419846844,
9,0,9,36,9,18,54,1.0,0.0,1.0,0.2,0.8,1.0,,stimuli/P_09_00_09_36.png,,,,,0,115,115,71,,,,,,,,,,,,,,,,,,,,,,,,,,,,703.6674710009247,None,703.6674710009247,None,704.044771200046,None,704.044771200046,None,100,704.044771200046,None,return,1.960461299866438,704.044771200046,None,,,HEWEI,M,001,2023_Apr_18_2041,untitled,2021.1.4,48.010516419846844,
9,0,9,9,9,18,27,1.0,0.0,1.0,0.5,0.5,1.0,,stimuli/P_09_00_09_09.png,,,,,0,116,116,69,,,,,,,,,,,,,,,,,,,,,,,,,,,,706.0405721999705,None,706.0405721999705,None,706.4120306000113,None,706.4120306000113,None,100,706.4120306000113,None,return,1.5393495988100767,706.4120306000113,None,,,HEWEI,M,001,2023_Apr_18_2041,untitled,2021.1.4,48.010516419846844,
9,0,18,0,9,27,27,1.0,0.0,1.0,1.0,0.0,None,,stimuli/P_09_00_18_00.png,,,,,0,117,117,72,,,,,,,,,,,,,,,,,,,,,,,,,,,,707.976137900725,None,707.976137900725,None,708.3773347996175,None,708.3773347996175,None,100,708.3773347996175,None,return,2.3236893992871046,708.3773347996175,None,,,HEWEI,M,001,2023_Apr_18_2041,untitled,2021.1.4,48.010516419846844,
0,0,36,9,0,36,45,1.0,None,None,0.8,None,None,,stimuli/P_00_00_36_09.png,,,,,0,118,118,13,,,,,,,,,,,,,,,,,,,,,,,,,,,,710.7425327003002,None,710.7425327003002,None,711.1219616997987,None,711.1219616997987,None,0,711.1219616997987,None,return,1.5576891005039215,711.1219616997987,None,,,HEWEI,M,001,2023_Apr_18_2041,untitled,2021.1.4,48.010516419846844,
0,0,18,9,0,18,27,1.0,None,None,0.67,None,None,,stimuli/P_00_00_18_09.png,,,,,0,119,119,9,,,,,,,,,,,,,,,,,,,,,,,,,,,,712.7002784013748,None,712.7002784013748,None,713.0880589000881,None,713.0880589000881,None,0,713.0880589000881,None,return,1.3675961010158062,713.0880589000881,None,,,HEWEI,M,001,2023_Apr_18_2041,untitled,2021.1.4,48.010516419846844,
0,0,36,36,0,36,72,1.0,None,None,0.5,None,None,,stimuli/P_00_00_36_36.png,,,,,0,120,120,15,,,,,,,,,,,,,,,,,,,,,,,,,,,,714.4949284009635,None,714.4949284009635,None,714.899458700791,None,714.899458700791,None,0,714.899458700791,None,return,1.764198100194335,714.899458700791,None,,,HEWEI,M,001,2023_Apr_18_2041,untitled,2021.1.4,48.010516419846844,
0,36,9,18,36,9,63,0.43,1.0,0.0,0.33,-0.33,-0.5,,stimuli/P_00_36_09_18.png,,,,,0,121,121,54,,,,,,,,,,,,,,,,,,,,,,,,,,,,716.7026618998498,None,716.7026618998498,None,717.0783109012991,None,717.0783109012991,None,0,717.0783109012991,None,return,1.84785239957273,717.0783109012991,None,,,HEWEI,M,001,2023_Apr_18_2041,untitled,2021.1.4,48.010516419846844,
0,36,0,0,36,0,36,0.0,1.0,0.0,None,None,None,,stimuli/P_00_36_00_00.png,,,,,0,122,122,48,,,,,,,,,,,,,,,,,,,,,,,,,,,,718.943092500791,None,718.943092500791,None,719.3452471997589,None,719.3452471997589,None,0,719.3452471997589,None,return,2.296236401423812,719.3452471997589,None,,,HEWEI,M,001,2023_Apr_18_2041,untitled,2021.1.4,48.010516419846844,
0,9,9,18,9,9,36,0.75,1.0,0.0,0.33,-0.33,-0.5,,stimuli/P_00_09_09_18.png,,,,,0,123,123,22,,,,,,,,,,,,,,,,,,,,,,,,,,,,721.6818356011063,None,721.6818356011063,None,722.0677155014127,None,722.0677155014127,None,0,722.0677155014127,None,return,2.0652978010475636,722.0677155014127,None,,,HEWEI,M,001,2023_Apr_18_2041,untitled,2021.1.4,48.010516419846844,
36,18,0,18,54,36,72,0.75,0.33,0.67,0.0,0.67,0.67,,stimuli/P_36_18_00_18.png,,,,,0,124,124,226,,,,,,,,,,,,,,,,,,,,,,,,,,,,724.1552453003824,None,724.1552453003824,None,724.5330082010478,None,724.5330082010478,None,75,724.5330082010478,None,return,2.8083098996430635,724.5330082010478,None,,,HEWEI,M,001,2023_Apr_18_2041,untitled,2021.1.4,48.010516419846844,
36,36,0,0,72,36,72,0.5,0.5,0.5,None,None,None,,stimuli/P_36_36_00_00.png,,,,,0,125,125,240,,,,,,,,,,,,,,,,,,,,,,,,,,,,727.3592393007129,None,727.3592393007129,None,727.7298518009484,None,727.7298518009484,None,50,727.7298518009484,None,return,1.7866700999438763,727.7298518009484,None,,,HEWEI,M,001,2023_Apr_18_2041,untitled,2021.1.4,48.010516419846844,
9,18,9,18,27,18,54,0.67,0.67,0.33,0.33,0.0,0.0,,stimuli/P_09_18_09_18.png,,,,,0,126,126,102,,,,,,,,,,,,,,,,,,,,,,,,,,,,729.537123600021,None,729.537123600021,None,729.9089166000485,None,729.9089166000485,None,25,729.9089166000485,None,return,2.8136174008250237,729.9089166000485,None,,,HEWEI,M,001,2023_Apr_18_2041,untitled,2021.1.4,48.010516419846844,
36,0,9,9,36,45,54,1.0,0.0,1.0,0.5,0.5,1.0,,stimuli/P_36_00_09_09.png,,,,,0,127,127,197,,,,,,,,,,,,,,,,,,,,,,,,,,,,732.7445689998567,None,732.7445689998567,None,733.1301902998239,None,733.1301902998239,None,100,733.1301902998239,None,return,1.9782126005738974,733.1301902998239,None,,,HEWEI,M,001,2023_Apr_18_2041,untitled,2021.1.4,48.010516419846844,
36,18,0,0,54,36,54,0.67,0.33,0.67,None,None,None,,stimuli/P_36_18_00_00.png,,,,,0,128,128,224,,,,,,,,,,,,,,,,,,,,,,,,,,,,735.1315151005983,None,735.1315151005983,None,735.5061069000512,None,735.5061069000512,None,74,735.5061069000512,None,return,2.696986399590969,735.5061069000512,None,,,HEWEI,M,001,2023_Apr_18_2041,untitled,2021.1.4,48.010516419846844,
9,0,36,36,9,45,81,1.0,0.0,1.0,0.5,0.5,1.0,,stimuli/P_09_00_36_36.png,,,,,0,129,129,79,,,,,,,,,,,,,,,,,,,,,,,,,,,,738.2228040006012,None,738.2228040006012,None,738.6149610001594,None,738.6149610001594,None,100,738.6149610001594,None,return,2.109357999637723,738.6149610001594,None,,,HEWEI,M,001,2023_Apr_18_2041,untitled,2021.1.4,48.010516419846844,
18,36,0,18,54,18,72,0.5,0.67,0.33,0.0,0.33,0.33,,stimuli/P_18_36_00_18.png,,,,,0,130,130,178,,,,,,,,,,,,,,,,,,,,,,,,,,,,740.7543865013868,None,740.7543865013868,None,741.1246841009706,None,741.1246841009706,None,25,741.1246841009706,None,return,2.4001843985170126,741.1246841009706,None,,,HEWEI,M,001,2023_Apr_18_2041,untitled,2021.1.4,48.010516419846844,
9,18,18,18,27,27,63,0.71,0.67,0.33,0.5,-0.17,-0.33,,stimuli/P_09_18_18_18.png,,,,,0,131,131,106,,,,,,,,,,,,,,,,,,,,,,,,,,,,743.5415330007672,None,743.5415330007672,None,743.9128981996328,None,743.9128981996328,None,25,743.9128981996328,None,return,2.9601933993399143,743.9128981996328,None,,,HEWEI,M,001,2023_Apr_18_2041,untitled,2021.1.4,48.010516419846844,
9,36,9,0,45,18,54,0.33,0.8,0.2,1.0,-0.8,#NAME?,,stimuli/P_09_36_09_00.png,,,,,0,132,132,116,,,,,,,,,,,,,,,,,,,,,,,,,,,,746.9128563012928,None,746.9128563012928,None,747.3023207001388,None,747.3023207001388,None,20,747.3023207001388,None,return,5.615948799997568,747.3023207001388,None,,,HEWEI,M,001,2023_Apr_18_2041,untitled,2021.1.4,48.010516419846844,
9,0,18,9,9,27,36,1.0,0.0,1.0,0.67,0.33,1.0,,stimuli/P_09_00_18_09.png,,,,,0,133,133,73,,,,,,,,,,,,,,,,,,,,,,,,,,,,752.9442739002407,None,752.9442739002407,None,753.3197376001626,None,753.3197376001626,None,100,753.3197376001626,None,return,1.8008376993238926,753.3197376001626,None,,,HEWEI,M,001,2023_Apr_18_2041,untitled,2021.1.4,48.010516419846844,
18,18,9,18,36,27,63,0.71,0.5,0.5,0.33,0.17,0.25,,stimuli/P_18_18_09_18.png,,,,,0,134,134,166,,,,,,,,,,,,,,,,,,,,,,,,,,,,755.1405736003071,None,755.1405736003071,None,755.5354422014207,None,755.5354422014207,None,50,755.5354422014207,None,return,1.6171688996255398,755.5354422014207,None,,,HEWEI,M,001,2023_Apr_18_2041,untitled,2021.1.4,48.010516419846844,
0,18,0,0,18,0,18,0.0,1.0,0.0,None,None,None,,stimuli/P_00_18_00_00.png,,,,,0,135,135,32,,,,,,,,,,,,,,,,,,,,,,,,,,,,757.1855699997395,None,757.1855699997395,None,757.5598295014352,None,757.5598295014352,None,0,757.5598295014352,None,return,1.4479152001440525,757.5598295014352,None,,,HEWEI,M,001,2023_Apr_18_2041,untitled,2021.1.4,48.010516419846844,
9,0,36,18,9,45,63,1.0,0.0,1.0,0.67,0.33,1.0,,stimuli/P_09_00_36_18.png,,,,,0,136,136,78,,,,,,,,,,,,,,,,,,,,,,,,,,,,759.0340251009911,None,759.0340251009911,None,759.4242349006236,None,759.4242349006236,None,100,759.4242349006236,None,return,1.5836230013519526,759.4242349006236,None,,,HEWEI,M,001,2023_Apr_18_2041,untitled,2021.1.4,48.010516419846844,
0,0,18,0,0,18,18,1.0,None,None,1.0,None,None,,stimuli/P_00_00_18_00.png,,,,,0,137,137,8,,,,,,,,,,,,,,,,,,,,,,,,,,,,761.0417116004974,None,761.0417116004974,None,761.4016980007291,None,761.4016980007291,None,0,761.4016980007291,None,return,1.1077243015170097,761.4016980007291,None,,,HEWEI,M,001,2023_Apr_18_2041,untitled,2021.1.4,48.010516419846844,
0,36,0,18,36,0,54,0.33,1.0,0.0,0.0,0.0,0.0,,stimuli/P_00_36_00_18.png,,,,,0,138,138,50,,,,,,,,,,,,,,,,,,,,,,,,,,,,762.5346889011562,None,762.5346889011562,None,762.9181129001081,None,762.9181129001081,None,0,762.9181129001081,None,return,1.0406109988689423,762.9181129001081,None,,,HEWEI,M,001,2023_Apr_18_2041,untitled,2021.1.4,48.010516419846844,
9,9,18,18,18,27,54,0.83,0.5,0.5,0.5,0.0,0.0,,stimuli/P_09_09_18_18.png,,,,,0,139,139,90,,,,,,,,,,,,,,,,,,,,,,,,,,,,763.9864344000816,None,763.9864344000816,None,764.3685373011976,None,764.3685373011976,None,50,764.3685373011976,None,return,1.6564927995204926,764.3685373011976,None,,,HEWEI,M,001,2023_Apr_18_2041,untitled,2021.1.4,48.010516419846844,
36,18,36,0,54,72,90,0.8,0.33,0.67,1.0,-0.33,#NAME?,,stimuli/P_36_18_36_00.png,,,,,0,140,140,236,,,,,,,,,,,,,,,,,,,,,,,,,,,,766.0550513006747,None,766.0550513006747,None,766.4807635005563,None,766.4807635005563,None,75,766.4807635005563,None,return,2.163017699494958,766.4807635005563,None,,,HEWEI,M,001,2023_Apr_18_2041,untitled,2021.1.4,48.010516419846844,
0,9,36,18,9,36,63,0.86,1.0,0.0,0.67,-0.67,-2.0,,stimuli/P_00_09_36_18.png,,,,,0,141,141,30,,,,,,,,,,,,,,,,,,,,,,,,,,,,768.6620335001498,None,768.6620335001498,None,769.0474252998829,None,769.0474252998829,None,0,769.0474252998829,None,return,1.306105000898242,769.0474252998829,None,,,HEWEI,M,001,2023_Apr_18_2041,untitled,2021.1.4,48.010516419846844,
9,9,36,18,18,45,72,0.88,0.5,0.5,0.67,-0.17,-0.5,,stimuli/P_09_09_36_18.png,,,,,0,142,142,94,,,,,,,,,,,,,,,,,,,,,,,,,,,,770.3921792004257,None,770.3921792004257,None,770.7612740006298,None,770.7612740006298,None,50,770.7612740006298,None,return,1.533941799774766,770.7612740006298,None,,,HEWEI,M,001,2023_Apr_18_2041,untitled,2021.1.4,48.010516419846844,
9,0,0,0,9,9,9,1.0,0.0,1.0,None,None,None,,stimuli/P_09_00_00_00.png,,,,,0,143,143,64,,,,,,,,,,,,,,,,,,,,,,,,,,,,772.313330899924,None,772.313330899924,None,772.6798187997192,None,772.6798187997192,None,100,772.6798187997192,None,return,1.8255984000861645,772.6798187997192,None,,,HEWEI,M,001,2023_Apr_18_2041,untitled,2021.1.4,48.010516419846844,
18,36,18,9,54,36,81,0.56,0.67,0.33,0.67,-0.33,-1.0,,stimuli/P_18_36_18_09.png,,,,,0,144,144,185,,,,,,,,,,,,,,,,,,,,,,,,,,,,774.542729601264,None,774.542729601264,None,774.921255800873,None,774.921255800873,None,25,774.921255800873,None,return,1.9763003010302782,774.921255800873,None,,,HEWEI,M,001,2023_Apr_18_2041,untitled,2021.1.4,48.010516419846844,
0,9,18,18,9,18,45,0.8,1.0,0.0,0.5,-0.5,-1.0,,stimuli/P_00_09_18_18.png,,,,,0,145,145,26,,,,,,,,,,,,,,,,,,,,,,,,,,,,776.9142876006663,None,776.9142876006663,None,777.293109100312,None,777.293109100312,None,0,777.293109100312,None,return,1.3310310002416372,777.293109100312,None,,,HEWEI,M,001,2023_Apr_18_2041,untitled,2021.1.4,48.010516419846844,
36,18,18,18,54,54,90,0.8,0.33,0.67,0.5,0.17,0.33,,stimuli/P_36_18_18_18.png,,,,,0,146,146,234,,,,,,,,,,,,,,,,,,,,,,,,,,,,778.6616532001644,None,778.6616532001644,None,779.0371003001928,None,779.0371003001928,None,75,779.0371003001928,None,return,2.139810498803854,779.0371003001928,None,,,HEWEI,M,001,2023_Apr_18_2041,untitled,2021.1.4,48.010516419846844,
36,36,36,9,72,72,117,0.69,0.5,0.5,0.8,-0.3,-1.5,,stimuli/P_36_36_36_09.png,,,,,0,147,147,253,,,,,,,,,,,,,,,,,,,,,,,,,,,,781.2165722995996,None,781.2165722995996,None,781.5972729008645,None,781.5972729008645,None,50,781.5972729008645,None,return,1.5314310006797314,781.5972729008645,None,,,HEWEI,M,001,2023_Apr_18_2041,untitled,2021.1.4,48.010516419846844,
0,18,36,36,18,36,90,0.8,1.0,0.0,0.5,-0.5,-1.0,,stimuli/P_00_18_36_36.png,,,,,0,148,148,47,,,,,,,,,,,,,,,,,,,,,,,,,,,,783.1645475998521,None,783.1645475998521,None,783.525611801073,None,783.525611801073,None,0,783.525611801073,None,return,1.7496143989264965,783.525611801073,None,,,HEWEI,M,001,2023_Apr_18_2041,untitled,2021.1.4,48.010516419846844,
18,18,0,36,36,18,72,0.75,0.5,0.5,0.0,0.5,0.5,,stimuli/P_18_18_00_36.png,,,,,0,149,149,163,,,,,,,,,,,,,,,,,,,,,,,,,,,,785.3105890005827,None,785.3105890005827,None,785.6889197006822,None,785.6889197006822,None,50,785.6889197006822,None,return,1.4549642987549305,785.6889197006822,None,,,HEWEI,M,001,2023_Apr_18_2041,untitled,2021.1.4,48.010516419846844,
9,0,36,0,9,45,45,1.0,0.0,1.0,1.0,0.0,None,,stimuli/P_09_00_36_00.png,,,,,0,150,150,76,,,,,,,,,,,,,,,,,,,,,,,,,,,,787.1702276002616,None,787.1702276002616,None,787.5602101013064,None,787.5602101013064,None,100,787.5602101013064,None,return,1.6020151991397142,787.5602101013064,None,,,HEWEI,M,001,2023_Apr_18_2041,untitled,2021.1.4,48.010516419846844,
0,18,36,9,18,36,63,0.71,1.0,0.0,0.8,-0.8,-4.0,,stimuli/P_00_18_36_09.png,,,,,0,151,151,45,,,,,,,,,,,,,,,,,,,,,,,,,,,,789.1816982012242,None,789.1816982012242,None,789.5606639012694,None,789.5606639012694,None,0,789.5606639012694,None,return,1.2096343990415335,789.5606639012694,None,,,HEWEI,M,001,2023_Apr_18_2041,untitled,2021.1.4,48.010516419846844,
9,9,18,9,18,27,45,0.8,0.5,0.5,0.67,-0.17,-0.5,,stimuli/P_09_09_18_09.png,,,,,0,152,152,89,,,,,,,,,,,,,,,,,,,,,,,,,,,,790.7888893000782,None,790.7888893000782,None,791.1699393000454,None,791.1699393000454,None,50,791.1699393000454,None,return,1.376128800213337,791.1699393000454,None,,,HEWEI,M,001,2023_Apr_18_2041,untitled,2021.1.4,48.010516419846844,
9,9,36,36,18,45,90,0.9,0.5,0.5,0.5,0.0,0.0,,stimuli/P_09_09_36_36.png,,,,,0,153,153,95,,,,,,,,,,,,,,,,,,,,,,,,,,,,792.5664588008076,None,792.5664588008076,None,792.9469485003501,None,792.9469485003501,None,50,792.9469485003501,None,return,1.465854899957776,792.9469485003501,None,,,HEWEI,M,001,2023_Apr_18_2041,untitled,2021.1.4,48.010516419846844,
18,9,18,36,27,36,81,0.89,0.33,0.67,0.33,0.33,0.5,,stimuli/P_18_09_18_36.png,,,,,0,154,154,155,,,,,,,,,,,,,,,,,,,,,,,,,,,,794.444025401026,None,794.444025401026,None,794.8256512004882,None,794.8256512004882,None,75,794.8256512004882,None,return,1.9700006004422903,794.8256512004882,None,,,HEWEI,M,001,2023_Apr_18_2041,untitled,2021.1.4,48.010516419846844,
36,9,9,0,45,45,54,0.83,0.2,0.8,1.0,-0.2,#NAME?,,stimuli/P_36_09_09_00.png,,,,,0,155,155,212,,,,,,,,,,,,,,,,,,,,,,,,,,,,796.8303455002606,None,796.8303455002606,None,797.2011259011924,None,797.2011259011924,None,90,797.2011259011924,None,return,4.0917761996388435,797.2011259011924,None,,,HEWEI,M,001,2023_Apr_18_2041,untitled,2021.1.4,48.010516419846844,
36,0,0,9,36,36,45,1.0,0.0,1.0,0.0,1.0,1.0,,stimuli/P_36_00_00_09.png,,,,,0,156,156,193,,,,,,,,,,,,,,,,,,,,,,,,,,,,801.3168922010809,None,801.3168922010809,None,801.7005380000919,None,801.7005380000919,None,100,801.7005380000919,None,return,1.6760251000523567,801.7005380000919,None,,,HEWEI,M,001,2023_Apr_18_2041,untitled,2021.1.4,48.010516419846844,
9,18,18,9,27,27,54,0.67,0.67,0.33,0.67,-0.33,-1.0,,stimuli/P_09_18_18_09.png,,,,,0,157,157,105,,,,,,,,,,,,,,,,,,,,,,,,,,,,803.3968337010592,None,803.3968337010592,None,803.7749394010752,None,803.7749394010752,None,25,803.7749394010752,None,return,3.652658499777317,803.7749394010752,None,,,HEWEI,M,001,2023_Apr_18_2041,untitled,2021.1.4,48.010516419846844,
36,9,0,0,45,36,45,0.8,0.2,0.8,None,None,None,,stimuli/P_36_09_00_00.png,,,,,0,158,158,208,,,,,,,,,,,,,,,,,,,,,,,,,,,,807.4627980012447,None,807.4627980012447,None,807.8536932002753,None,807.8536932002753,None,75,807.8536932002753,None,return,2.577752899378538,807.8536932002753,None,,,HEWEI,M,001,2023_Apr_18_2041,untitled,2021.1.4,48.010516419846844,
18,36,18,0,54,36,72,0.5,0.67,0.33,1.0,-0.67,#NAME?,,stimuli/P_18_36_18_00.png,,,,,0,159,159,184,,,,,,,,,,,,,,,,,,,,,,,,,,,,810.455900400877,None,810.455900400877,None,810.8469395004213,None,810.8469395004213,None,25,810.8469395004213,None,return,3.9445623010396957,810.8469395004213,None,,,HEWEI,M,001,2023_Apr_18_2041,untitled,2021.1.4,48.010516419846844,
36,18,18,36,54,54,108,0.83,0.33,0.67,0.33,0.33,0.5,,stimuli/P_36_18_18_36.png,,,,,0,160,160,235,,,,,,,,,,,,,,,,,,,,,,,,,,,,814.8163510002196,None,814.8163510002196,None,815.1849231012166,None,815.1849231012166,None,75,815.1849231012166,None,return,2.6571804992854595,815.1849231012166,None,,,HEWEI,M,001,2023_Apr_18_2041,untitled,2021.1.4,48.010516419846844,
18,9,9,18,27,27,54,0.83,0.33,0.67,0.33,0.33,0.5,,stimuli/P_18_09_09_18.png,,,,,0,161,161,150,,,,,,,,,,,,,,,,,,,,,,,,,,,,817.8674376010895,None,817.8674376010895,None,818.2783407010138,None,818.2783407010138,None,75,818.2783407010138,None,return,2.0913098007440567,818.2783407010138,None,,,HEWEI,M,001,2023_Apr_18_2041,untitled,2021.1.4,48.010516419846844,
36,9,0,18,45,36,63,0.86,0.2,0.8,0.0,0.8,0.8,,stimuli/P_36_09_00_18.png,,,,,0,162,162,210,,,,,,,,,,,,,,,,,,,,,,,,,,,,820.4063466005027,None,820.4063466005027,None,820.7751837000251,None,820.7751837000251,None,85,820.7751837000251,None,return,4.194268399849534,820.7751837000251,None,,,HEWEI,M,001,2023_Apr_18_2041,untitled,2021.1.4,48.010516419846844,
36,18,9,0,54,45,63,0.71,0.33,0.67,1.0,-0.33,#NAME?,,stimuli/P_36_18_09_00.png,,,,,0,163,163,228,,,,,,,,,,,,,,,,,,,,,,,,,,,,825.0023053009063,None,825.0023053009063,None,825.3875489998609,None,825.3875489998609,None,75,825.3875489998609,None,return,2.7989160008728504,825.3875489998609,None,,,HEWEI,M,001,2023_Apr_18_2041,untitled,2021.1.4,48.010516419846844,
9,18,9,9,27,18,45,0.6,0.67,0.33,0.5,-0.17,-0.33,,stimuli/P_09_18_09_09.png,,,,,0,164,164,101,,,,,,,,,,,,,,,,,,,,,,,,,,,,828.2263328004628,None,828.2263328004628,None,828.5994479004294,None,828.5994479004294,None,25,828.5994479004294,None,return,2.8446229994297028,828.5994479004294,None,,,HEWEI,M,001,2023_Apr_18_2041,untitled,2021.1.4,48.010516419846844,
18,0,9,36,18,27,63,1.0,0.0,1.0,0.2,0.8,1.0,,stimuli/P_18_00_09_36.png,,,,,0,165,165,135,,,,,,,,,,,,,,,,,,,,,,,,,,,,831.4613090008497,None,831.4613090008497,None,831.8426109999418,None,831.8426109999418,None,100,831.8426109999418,None,return,1.8162631001323462,831.8426109999418,None,,,HEWEI,M,001,2023_Apr_18_2041,untitled,2021.1.4,48.010516419846844,
9,18,18,36,27,27,81,0.78,0.67,0.33,0.33,0.0,0.0,,stimuli/P_09_18_18_36.png,,,,,0,166,166,107,,,,,,,,,,,,,,,,,,,,,,,,,,,,833.7012528013438,None,833.7012528013438,None,834.0773759000003,None,834.0773759000003,None,25,834.0773759000003,None,return,2.5981877986341715,834.0773759000003,None,,,HEWEI,M,001,2023_Apr_18_2041,untitled,2021.1.4,48.010516419846844,
36,36,18,0,72,54,90,0.6,0.5,0.5,1.0,-0.5,#NAME?,,stimuli/P_36_36_18_00.png,,,,,0,167,167,248,,,,,,,,,,,,,,,,,,,,,,,,,,,,836.7088978998363,None,836.7088978998363,None,837.0951234996319,None,837.0951234996319,None,50,837.0951234996319,None,return,1.8877870999276638,837.0951234996319,None,,,HEWEI,M,001,2023_Apr_18_2041,untitled,2021.1.4,48.010516419846844,
0,18,18,0,18,18,36,0.5,1.0,0.0,1.0,-1.0,#NAME?,,stimuli/P_00_18_18_00.png,,,,,0,168,168,40,,,,,,,,,,,,,,,,,,,,,,,,,,,,839.0053890012205,None,839.0053890012205,None,839.3706628996879,None,839.3706628996879,None,0,839.3706628996879,None,return,1.406674100086093,839.3706628996879,None,,,HEWEI,M,001,2023_Apr_18_2041,untitled,2021.1.4,48.010516419846844,
18,9,18,9,27,36,54,0.83,0.33,0.67,0.67,0.0,0.0,,stimuli/P_18_09_18_09.png,,,,,0,169,169,153,,,,,,,,,,,,,,,,,,,,,,,,,,,,840.8127916008234,None,840.8127916008234,None,841.1892406009138,None,841.1892406009138,None,75,841.1892406009138,None,return,2.1759910993278027,841.1892406009138,None,,,HEWEI,M,001,2023_Apr_18_2041,untitled,2021.1.4,48.010516419846844,
18,18,36,18,36,54,90,0.8,0.5,0.5,0.67,-0.17,-0.5,,stimuli/P_18_18_36_18.png,,,,,0,170,170,174,,,,,,,,,,,,,,,,,,,,,,,,,,,,843.3994830008596,None,843.3994830008596,None,843.7849367000163,None,843.7849367000163,None,50,843.7849367000163,None,return,2.1823401004076004,843.7849367000163,None,,,HEWEI,M,001,2023_Apr_18_2041,untitled,2021.1.4,48.010516419846844,
9,9,0,9,18,9,27,0.67,0.5,0.5,0.0,0.5,0.5,,stimuli/P_09_09_00_09.png,,,,,0,171,171,81,,,,,,,,,,,,,,,,,,,,,,,,,,,,845.994027800858,None,845.994027800858,None,846.4077999014407,None,846.4077999014407,None,50,846.4077999014407,None,return,1.7153073996305466,846.4077999014407,None,,,HEWEI,M,001,2023_Apr_18_2041,untitled,2021.1.4,48.010516419846844,
36,18,9,18,54,45,81,0.78,0.33,0.67,0.33,0.33,0.5,,stimuli/P_36_18_09_18.png,,,,,0,172,172,230,,,,,,,,,,,,,,,,,,,,,,,,,,,,848.1616757009178,None,848.1616757009178,None,848.5488644000143,None,848.5488644000143,None,75,848.5488644000143,None,return,2.1848540995270014,848.5488644000143,None,,,HEWEI,M,001,2023_Apr_18_2041,untitled,2021.1.4,48.010516419846844,
18,18,18,0,36,36,54,0.67,0.5,0.5,1.0,-0.5,#NAME?,,stimuli/P_18_18_18_00.png,,,,,0,173,173,168,,,,,,,,,,,,,,,,,,,,,,,,,,,,850.7682182006538,None,850.7682182006538,None,851.1967920996249,None,851.1967920996249,None,50,851.1967920996249,None,return,1.615233700722456,851.1967920996249,None,,,HEWEI,M,001,2023_Apr_18_2041,untitled,2021.1.4,48.010516419846844,
18,9,36,18,27,54,81,0.89,0.33,0.67,0.67,0.0,0.0,,stimuli/P_18_09_36_18.png,,,,,0,174,174,158,,,,,,,,,,,,,,,,,,,,,,,,,,,,852.839930800721,None,852.839930800721,None,853.2068249005824,None,853.2068249005824,None,75,853.2068249005824,None,return,1.91475860029459,853.2068249005824,None,,,HEWEI,M,001,2023_Apr_18_2041,untitled,2021.1.4,48.010516419846844,
0,18,36,0,18,36,54,0.67,1.0,0.0,1.0,-1.0,#NAME?,,stimuli/P_00_18_36_00.png,,,,,0,175,175,44,,,,,,,,,,,,,,,,,,,,,,,,,,,,855.1506070010364,None,855.1506070010364,None,855.5028358008713,None,855.5028358008713,None,0,855.5028358008713,None,return,2.259342299774289,855.5028358008713,None,,,HEWEI,M,001,2023_Apr_18_2041,untitled,2021.1.4,48.010516419846844,
0,18,18,9,18,18,45,0.6,1.0,0.0,0.67,-0.67,-2.0,,stimuli/P_00_18_18_09.png,,,,,0,176,176,41,,,,,,,,,,,,,,,,,,,,,,,,,,,,857.7847009003162,None,857.7847009003162,None,858.1809964012355,None,858.1809964012355,None,0,858.1809964012355,None,return,1.6296992003917694,858.1809964012355,None,,,HEWEI,M,001,2023_Apr_18_2041,untitled,2021.1.4,48.010516419846844,
9,0,9,0,9,18,18,1.0,0.0,1.0,1.0,0.0,None,,stimuli/P_09_00_09_00.png,,,,,0,177,177,68,,,,,,,,,,,,,,,,,,,,,,,,,,,,859.8419800009578,None,859.8419800009578,None,860.2236867006868,None,860.2236867006868,None,100,860.2236867006868,None,return,2.193470099940896,860.2236867006868,None,,,HEWEI,M,001,2023_Apr_18_2041,untitled,2021.1.4,48.010516419846844,
18,36,36,36,54,54,126,0.71,0.67,0.33,0.5,-0.17,-0.33,,stimuli/P_18_36_36_36.png,,,,,0,178,178,191,,,,,,,,,,,,,,,,,,,,,,,,,,,,862.442227801308,None,862.442227801308,None,862.8050510007888,None,862.8050510007888,None,25,862.8050510007888,None,return,2.3256064001470804,862.8050510007888,None,,,HEWEI,M,001,2023_Apr_18_2041,untitled,2021.1.4,48.010516419846844,
18,36,36,0,54,54,90,0.6,0.67,0.33,1.0,-0.67,#NAME?,,stimuli/P_18_36_36_00.png,,,,,0,179,179,188,,,,,,,,,,,,,,,,,,,,,,,,,,,,865.1491227000952,None,865.1491227000952,None,865.5338917002082,None,865.5338917002082,None,25,865.5338917002082,None,return,1.35326929949224,865.5338917002082,None,,,HEWEI,M,001,2023_Apr_18_2041,untitled,2021.1.4,48.010516419846844,
9,9,9,9,18,18,36,0.75,0.5,0.5,0.5,0.0,0.0,,stimuli/P_09_09_09_09.png,,,,,0,180,180,85,,,,,,,,,,,,,,,,,,,,,,,,,,,,866.9144231006503,None,866.9144231006503,None,867.2827470004559,None,867.2827470004559,None,50,867.2827470004559,None,return,1.8143947999924421,867.2827470004559,None,,,HEWEI,M,001,2023_Apr_18_2041,untitled,2021.1.4,48.010516419846844,
9,9,9,18,18,18,45,0.8,0.5,0.5,0.33,0.17,0.25,,stimuli/P_09_09_09_18.png,,,,,0,181,181,86,,,,,,,,,,,,,,,,,,,,,,,,,,,,869.1303332000971,None,869.1303332000971,None,869.5103073008358,None,869.5103073008358,None,50,869.5103073008358,None,return,1.4609759002923965,869.5103073008358,None,,,HEWEI,M,001,2023_Apr_18_2041,untitled,2021.1.4,48.010516419846844,
9,9,0,0,18,9,18,0.5,0.5,0.5,None,None,None,,stimuli/P_09_09_00_00.png,,,,,0,182,182,80,,,,,,,,,,,,,,,,,,,,,,,,,,,,871.000616600737,None,871.000616600737,None,871.3801972996444,None,871.3801972996444,None,50,871.3801972996444,None,return,2.6525333002209663,871.3801972996444,None,,,HEWEI,M,001,2023_Apr_18_2041,untitled,2021.1.4,48.010516419846844,
18,36,9,36,54,27,99,0.64,0.67,0.33,0.2,0.13,0.17,,stimuli/P_18_36_09_36.png,,,,,0,183,183,183,,,,,,,,,,,,,,,,,,,,,,,,,,,,874.0649242009968,None,874.0649242009968,None,874.4571231007576,None,874.4571231007576,None,25,874.4571231007576,None,return,2.905299598351121,874.4571231007576,None,,,HEWEI,M,001,2023_Apr_18_2041,untitled,2021.1.4,48.010516419846844,
0,18,9,0,18,9,27,0.33,1.0,0.0,1.0,-1.0,#NAME?,,stimuli/P_00_18_09_00.png,,,,,0,184,184,36,,,,,,,,,,,,,,,,,,,,,,,,,,,,877.3942285012454,None,877.3942285012454,None,877.7697477005422,None,877.7697477005422,None,0,877.7697477005422,None,return,1.546714499592781,877.7697477005422,None,,,HEWEI,M,001,2023_Apr_18_2041,untitled,2021.1.4,48.010516419846844,
18,36,36,18,54,54,108,0.67,0.67,0.33,0.67,-0.33,-1.0,,stimuli/P_18_36_36_18.png,,,,,0,185,185,190,,,,,,,,,,,,,,,,,,,,,,,,,,,,879.3528436999768,None,879.3528436999768,None,879.7339746002108,None,879.7339746002108,None,25,879.7339746002108,None,return,1.9983178991824389,879.7339746002108,None,,,HEWEI,M,001,2023_Apr_18_2041,untitled,2021.1.4,48.010516419846844,
0,36,0,36,36,0,72,0.5,1.0,0.0,0.0,0.0,0.0,,stimuli/P_00_36_00_36.png,,,,,0,186,186,51,,,,,,,,,,,,,,,,,,,,,,,,,,,,881.7682664003223,None,881.7682664003223,None,882.1346971001476,None,882.1346971001476,None,0,882.1346971001476,None,return,1.3140351008623838,882.1346971001476,None,,,HEWEI,M,001,2023_Apr_18_2041,untitled,2021.1.4,48.010516419846844,
36,9,18,9,45,54,72,0.88,0.2,0.8,0.67,0.13,0.4,,stimuli/P_36_09_18_09.png,,,,,0,187,187,217,,,,,,,,,,,,,,,,,,,,,,,,,,,,883.4736585002393,None,883.4736585002393,None,883.8418209012598,None,883.8418209012598,None,85,883.8418209012598,None,return,3.2705896999686956,883.8418209012598,None,,,HEWEI,M,001,2023_Apr_18_2041,untitled,2021.1.4,48.010516419846844,
9,18,0,0,27,9,27,0.33,0.67,0.33,None,None,None,,stimuli/P_09_18_00_00.png,,,,,0,188,188,96,,,,,,,,,,,,,,,,,,,,,,,,,,,,887.1398339997977,None,887.1398339997977,None,887.5158478002995,None,887.5158478002995,None,25,887.5158478002995,None,return,2.4261247999966145,887.5158478002995,None,,,HEWEI,M,001,2023_Apr_18_2041,untitled,2021.1.4,48.010516419846844,
18,36,36,9,54,54,99,0.64,0.67,0.33,0.8,-0.47,-2.33,,stimuli/P_18_36_36_09.png,,,,,0,189,189,189,,,,,,,,,,,,,,,,,,,,,,,,,,,,889.9735263008624,None,889.9735263008624,None,890.3402816001326,None,890.3402816001326,None,25,890.3402816001326,None,return,2.4502413999289274,890.3402816001326,None,,,HEWEI,M,001,2023_Apr_18_2041,untitled,2021.1.4,48.010516419846844,
18,36,18,18,54,36,90,0.6,0.67,0.33,0.5,-0.17,-0.33,,stimuli/P_18_36_18_18.png,,,,,0,190,190,186,,,,,,,,,,,,,,,,,,,,,,,,,,,,892.8260647002608,None,892.8260647002608,None,893.2005508001894,None,893.2005508001894,None,25,893.2005508001894,None,return,1.4395530987530947,893.2005508001894,None,,,HEWEI,M,001,2023_Apr_18_2041,untitled,2021.1.4,48.010516419846844,
18,36,0,36,54,18,90,0.6,0.67,0.33,0.0,0.33,0.33,,stimuli/P_18_36_00_36.png,,,,,0,191,191,179,,,,,,,,,,,,,,,,,,,,,,,,,,,,894.6629688013345,None,894.6629688013345,None,895.0354601014405,None,895.0354601014405,None,25,895.0354601014405,None,return,1.40083990059793,895.0354601014405,None,,,HEWEI,M,001,2023_Apr_18_2041,untitled,2021.1.4,48.010516419846844,
18,18,9,9,36,27,54,0.67,0.5,0.5,0.5,0.0,0.0,,stimuli/P_18_18_09_09.png,,,,,0,192,192,165,,,,,,,,,,,,,,,,,,,,,,,,,,,,896.4739052001387,None,896.4739052001387,None,896.8591085001826,None,896.8591085001826,None,50,896.8591085001826,None,return,1.979670599102974,896.8591085001826,None,,,HEWEI,M,001,2023_Apr_18_2041,untitled,2021.1.4,48.010516419846844,
0,36,36,9,36,36,81,0.56,1.0,0.0,0.8,-0.8,-4.0,,stimuli/P_00_36_36_09.png,,,,,0,193,193,61,,,,,,,,,,,,,,,,,,,,,,,,,,,,898.8680470008403,None,898.8680470008403,None,899.2610641010106,None,899.2610641010106,None,0,899.2610641010106,None,return,1.3802277985960245,899.2610641010106,None,,,HEWEI,M,001,2023_Apr_18_2041,untitled,2021.1.4,48.010516419846844,
0,0,0,18,0,0,18,1.0,None,None,0.0,None,None,,stimuli/P_00_00_00_18.png,,,,,0,194,194,2,,,,,,,,,,,,,,,,,,,,,,,,,,,,900.6701980996877,None,900.6701980996877,None,901.0490703005344,None,901.0490703005344,None,0,901.0490703005344,None,return,1.2419042997062206,901.0490703005344,None,,,HEWEI,M,001,2023_Apr_18_2041,untitled,2021.1.4,48.010516419846844,
9,36,36,0,45,45,81,0.56,0.8,0.2,1.0,-0.8,#NAME?,,stimuli/P_09_36_36_00.png,,,,,0,195,195,124,,,,,,,,,,,,,,,,,,,,,,,,,,,,902.3285374008119,None,902.3285374008119,None,902.7075081001967,None,902.7075081001967,None,15,902.7075081001967,None,return,3.148421401157975,902.7075081001967,None,,,HEWEI,M,001,2023_Apr_18_2041,untitled,2021.1.4,48.010516419846844,
18,18,36,36,36,54,108,0.83,0.5,0.5,0.5,0.0,0.0,,stimuli/P_18_18_36_36.png,,,,,0,196,196,175,,,,,,,,,,,,,,,,,,,,,,,,,,,,905.8930936995894,None,905.8930936995894,None,906.2639097999781,None,906.2639097999781,None,50,906.2639097999781,None,return,1.773632999509573,906.2639097999781,None,,,HEWEI,M,001,2023_Apr_18_2041,untitled,2021.1.4,48.010516419846844,
18,9,0,0,27,18,27,0.67,0.33,0.67,None,None,None,,stimuli/P_18_09_00_00.png,,,,,0,197,197,144,,,,,,,,,,,,,,,,,,,,,,,,,,,,908.0570000000298,None,908.0570000000298,None,908.4391236007214,None,908.4391236007214,None,75,908.4391236007214,None,return,2.3019642997533083,908.4391236007214,None,,,HEWEI,M,001,2023_Apr_18_2041,untitled,2021.1.4,48.010516419846844,
18,18,18,9,36,36,63,0.71,0.5,0.5,0.67,-0.17,-0.5,,stimuli/P_18_18_18_09.png,,,,,0,198,198,169,,,,,,,,,,,,,,,,,,,,,,,,,,,,910.7752072010189,None,910.7752072010189,None,911.1544336006045,None,911.1544336006045,None,50,911.1544336006045,None,return,1.8744133990257978,911.1544336006045,None,,,HEWEI,M,001,2023_Apr_18_2041,untitled,2021.1.4,48.010516419846844,
36,36,9,0,72,45,81,0.56,0.5,0.5,1.0,-0.5,#NAME?,,stimuli/P_36_36_09_00.png,,,,,0,199,199,244,,,,,,,,,,,,,,,,,,,,,,,,,,,,913.0549715999514,None,913.0549715999514,None,913.4512571003288,None,913.4512571003288,None,50,913.4512571003288,None,return,1.8060165997594595,913.4512571003288,None,,,HEWEI,M,001,2023_Apr_18_2041,untitled,2021.1.4,48.010516419846844,
9,18,9,36,27,18,72,0.75,0.67,0.33,0.2,0.13,0.17,,stimuli/P_09_18_09_36.png,,,,,0,200,200,103,,,,,,,,,,,,,,,,,,,,,,,,,,,,915.2909575011581,None,915.2909575011581,None,915.670327199623,None,915.670327199623,None,25,915.670327199623,None,return,2.8036283999681473,915.670327199623,None,,,HEWEI,M,001,2023_Apr_18_2041,untitled,2021.1.4,48.010516419846844,
9,36,0,18,45,9,63,0.43,0.8,0.2,0.0,0.2,0.2,,stimuli/P_09_36_00_18.png,,,,,0,201,201,114,,,,,,,,,,,,,,,,,,,,,,,,,,,,918.4984392002225,None,918.4984392002225,None,918.8752493001521,None,918.8752493001521,None,15,918.8752493001521,None,return,3.114234199747443,918.8752493001521,None,,,HEWEI,M,001,2023_Apr_18_2041,untitled,2021.1.4,48.010516419846844,
18,18,36,0,36,54,72,0.75,0.5,0.5,1.0,-0.5,#NAME?,,stimuli/P_18_18_36_00.png,,,,,0,202,202,172,,,,,,,,,,,,,,,,,,,,,,,,,,,,922.022252401337,None,922.022252401337,None,922.3900514002889,None,922.3900514002889,None,50,922.3900514002889,None,return,1.6541025005280972,922.3900514002889,None,,,HEWEI,M,001,2023_Apr_18_2041,untitled,2021.1.4,48.010516419846844,
0,9,9,0,9,9,18,0.5,1.0,0.0,1.0,-1.0,#NAME?,,stimuli/P_00_09_09_00.png,,,,,0,203,203,20,,,,,,,,,,,,,,,,,,,,,,,,,,,,924.0783077012748,None,924.0783077012748,None,924.4638247005641,None,924.4638247005641,None,0,924.4638247005641,None,return,1.2648666985332966,924.4638247005641,None,,,HEWEI,M,001,2023_Apr_18_2041,untitled,2021.1.4,48.010516419846844,
36,0,36,18,36,72,90,1.0,0.0,1.0,0.67,0.33,1.0,,stimuli/P_36_00_36_18.png,,,,,0,204,204,206,,,,,,,,,,,,,,,,,,,,,,,,,,,,925.7438818998635,None,925.7438818998635,None,926.0967302005738,None,926.0967302005738,None,100,926.0967302005738,None,return,1.9377590995281935,926.0967302005738,None,,,HEWEI,M,001,2023_Apr_18_2041,untitled,2021.1.4,48.010516419846844,
0,18,36,18,18,36,72,0.75,1.0,0.0,0.67,-0.67,-2.0,,stimuli/P_00_18_36_18.png,,,,,0,205,205,46,,,,,,,,,,,,,,,,,,,,,,,,,,,,928.057366700843,None,928.057366700843,None,928.4357270002365,None,928.4357270002365,None,0,928.4357270002365,None,return,1.348946001380682,928.4357270002365,None,,,HEWEI,M,001,2023_Apr_18_2041,untitled,2021.1.4,48.010516419846844,
18,18,0,9,36,18,45,0.6,0.5,0.5,0.0,0.5,0.5,,stimuli/P_18_18_00_09.png,,,,,0,206,206,161,,,,,,,,,,,,,,,,,,,,,,,,,,,,929.8159383013844,None,929.8159383013844,None,930.1969480011612,None,930.1969480011612,None,50,930.1969480011612,None,return,1.7615724988281727,930.1969480011612,None,,,HEWEI,M,001,2023_Apr_18_2041,untitled,2021.1.4,48.010516419846844,
36,18,36,18,54,72,108,0.83,0.33,0.67,0.67,0.0,0.0,,stimuli/P_36_18_36_18.png,,,,,0,207,207,238,,,,,,,,,,,,,,,,,,,,,,,,,,,,931.9947591014206,None,931.9947591014206,None,932.3706982005388,None,932.3706982005388,None,75,932.3706982005388,None,return,2.679365400224924,932.3706982005388,None,,,HEWEI,M,001,2023_Apr_18_2041,untitled,2021.1.4,48.010516419846844,
9,0,18,18,9,27,45,1.0,0.0,1.0,0.5,0.5,1.0,,stimuli/P_09_00_18_18.png,,,,,0,208,208,74,,,,,,,,,,,,,,,,,,,,,,,,,,,,935.0723583009094,None,935.0723583009094,None,935.4625828005373,None,935.4625828005373,None,100,935.4625828005373,None,return,2.557880099862814,935.4625828005373,None,,,HEWEI,M,001,2023_Apr_18_2041,untitled,2021.1.4,48.010516419846844,
0,18,0,18,18,0,36,0.5,1.0,0.0,0.0,0.0,0.0,,stimuli/P_00_18_00_18.png,,,,,0,209,209,34,,,,,,,,,,,,,,,,,,,,,,,,,,,,938.0434900000691,None,938.0434900000691,None,938.4261792004108,None,938.4261792004108,None,0,938.4261792004108,None,return,1.1957252994179726,938.4261792004108,None,,,HEWEI,M,001,2023_Apr_18_2041,untitled,2021.1.4,48.010516419846844,
18,36,9,18,54,27,81,0.56,0.67,0.33,0.33,0.0,0.0,,stimuli/P_18_36_09_18.png,,,,,0,210,210,182,,,,,,,,,,,,,,,,,,,,,,,,,,,,939.6428185012192,None,939.6428185012192,None,940.0205304007977,None,940.0205304007977,None,25,940.0205304007977,None,return,2.1922868993133307,940.0205304007977,None,,,HEWEI,M,001,2023_Apr_18_2041,untitled,2021.1.4,48.010516419846844,
36,0,36,0,36,72,72,1.0,0.0,1.0,1.0,0.0,None,,stimuli/P_36_00_36_00.png,,,,,0,211,211,204,,,,,,,,,,,,,,,,,,,,,,,,,,,,942.2374451011419,None,942.2374451011419,None,942.6102814003825,None,942.6102814003825,None,100,942.6102814003825,None,return,1.4413270000368357,942.6102814003825,None,,,HEWEI,M,001,2023_Apr_18_2041,untitled,2021.1.4,48.010516419846844,
9,18,36,0,27,45,63,0.71,0.67,0.33,1.0,-0.67,#NAME?,,stimuli/P_09_18_36_00.png,,,,,0,212,212,108,,,,,,,,,,,,,,,,,,,,,,,,,,,,944.067627100274,None,944.067627100274,None,944.4518226012588,None,944.4518226012588,None,25,944.4518226012588,None,return,2.1969494000077248,944.4518226012588,None,,,HEWEI,M,001,2023_Apr_18_2041,untitled,2021.1.4,48.010516419846844,
9,36,9,36,45,18,90,0.6,0.8,0.2,0.2,0.0,0.0,,stimuli/P_09_36_09_36.png,,,,,0,213,213,119,,,,,,,,,,,,,,,,,,,,,,,,,,,,946.6835401002318,None,946.6835401002318,None,947.0460017006844,None,947.0460017006844,None,15,947.0460017006844,None,return,2.8591491989791393,947.0460017006844,None,,,HEWEI,M,001,2023_Apr_18_2041,untitled,2021.1.4,48.010516419846844,
36,9,18,18,45,54,81,0.89,0.2,0.8,0.5,0.3,0.6,,stimuli/P_36_09_18_18.png,,,,,0,214,214,218,,,,,,,,,,,,,,,,,,,,,,,,,,,,949.921422701329,None,949.921422701329,None,950.2904874011874,None,950.2904874011874,None,85,950.2904874011874,None,return,2.9307422004640102,950.2904874011874,None,,,HEWEI,M,001,2023_Apr_18_2041,untitled,2021.1.4,48.010516419846844,
0,36,9,36,36,9,81,0.56,1.0,0.0,0.2,-0.2,-0.25,,stimuli/P_00_36_09_36.png,,,,,0,215,215,55,,,,,,,,,,,,,,,,,,,,,,,,,,,,953.2523044012487,None,953.2523044012487,None,953.6326035000384,None,953.6326035000384,None,0,953.6326035000384,None,return,1.7639113999903202,953.6326035000384,None,,,HEWEI,M,001,2023_Apr_18_2041,untitled,2021.1.4,48.010516419846844,
0,36,18,18,36,18,72,0.5,1.0,0.0,0.5,-0.5,-1.0,,stimuli/P_00_36_18_18.png,,,,,0,216,216,58,,,,,,,,,,,,,,,,,,,,,,,,,,,,955.4323405008763,None,955.4323405008763,None,955.8048475012183,None,955.8048475012183,None,0,955.8048475012183,None,return,2.51307899877429,955.8048475012183,None,,,HEWEI,M,001,2023_Apr_18_2041,untitled,2021.1.4,48.010516419846844,
0,36,36,36,36,36,108,0.67,1.0,0.0,0.5,-0.5,-1.0,,stimuli/P_00_36_36_36.png,,,,,0,217,217,63,,,,,,,,,,,,,,,,,,,,,,,,,,,,958.3514262009412,None,958.3514262009412,None,958.7437495999038,None,958.7437495999038,None,0,958.7437495999038,None,return,2.129889400675893,958.7437495999038,None,,,HEWEI,M,001,2023_Apr_18_2041,untitled,2021.1.4,48.010516419846844,
18,36,0,9,54,18,63,0.43,0.67,0.33,0.0,0.33,0.33,,stimuli/P_18_36_00_09.png,,,,,0,218,218,177,,,,,,,,,,,,,,,,,,,,,,,,,,,,960.9054256007075,None,960.9054256007075,None,961.2874507009983,None,961.2874507009983,None,25,961.2874507009983,None,return,2.0591985005885363,961.2874507009983,None,,,HEWEI,M,001,2023_Apr_18_2041,untitled,2021.1.4,48.010516419846844,
36,9,36,36,45,72,117,0.92,0.2,0.8,0.5,0.3,0.6,,stimuli/P_36_09_36_36.png,,,,,0,219,219,223,,,,,,,,,,,,,,,,,,,,,,,,,,,,963.3635560013354,None,963.3635560013354,None,963.7519041001797,None,963.7519041001797,None,85,963.7519041001797,None,return,2.97049249894917,963.7519041001797,None,,,HEWEI,M,001,2023_Apr_18_2041,untitled,2021.1.4,48.010516419846844,
36,36,18,9,72,54,99,0.64,0.5,0.5,0.67,-0.17,-0.5,,stimuli/P_36_36_18_09.png,,,,,0,220,220,249,,,,,,,,,,,,,,,,,,,,,,,,,,,,966.7553950008005,None,966.7553950008005,None,967.1361500006169,None,967.1361500006169,None,50,967.1361500006169,None,return,2.2313710004091263,967.1361500006169,None,,,HEWEI,M,001,2023_Apr_18_2041,untitled,2021.1.4,48.010516419846844,
9,18,36,9,27,45,72,0.75,0.67,0.33,0.8,-0.47,-2.33,,stimuli/P_09_18_36_09.png,,,,,0,221,221,109,,,,,,,,,,,,,,,,,,,,,,,,,,,,969.4098554998636,None,969.4098554998636,None,969.7997559010983,None,969.7997559010983,None,25,969.7997559010983,None,return,2.7016945984214544,969.7997559010983,None,,,HEWEI,M,001,2023_Apr_18_2041,untitled,2021.1.4,48.010516419846844,
0,18,9,9,18,9,36,0.5,1.0,0.0,0.5,-0.5,-1.0,,stimuli/P_00_18_09_09.png,,,,,0,222,222,37,,,,,,,,,,,,,,,,,,,,,,,,,,,,972.5373446997255,None,972.5373446997255,None,972.9050195999444,None,972.9050195999444,None,0,972.9050195999444,None,return,1.657481200993061,972.9050195999444,None,,,HEWEI,M,001,2023_Apr_18_2041,untitled,2021.1.4,48.010516419846844,
0,36,36,0,36,36,72,0.5,1.0,0.0,1.0,-1.0,#NAME?,,stimuli/P_00_36_36_00.png,,,,,0,223,223,60,,,,,,,,,,,,,,,,,,,,,,,,,,,,974.5876960996538,None,974.5876960996538,None,974.9650459997356,None,974.9650459997356,None,0,974.9650459997356,None,return,1.5926385000348091,974.9650459997356,None,,,HEWEI,M,001,2023_Apr_18_2041,untitled,2021.1.4,48.010516419846844,
0,9,36,36,9,36,81,0.89,1.0,0.0,0.5,-0.5,-1.0,,stimuli/P_00_09_36_36.png,,,,,0,224,224,31,,,,,,,,,,,,,,,,,,,,,,,,,,,,976.599030200392,None,976.599030200392,None,976.9780168011785,None,976.9780168011785,None,0,976.9780168011785,None,return,1.3455954007804394,976.9780168011785,None,,,HEWEI,M,001,2023_Apr_18_2041,untitled,2021.1.4,48.010516419846844,
18,0,18,0,18,36,36,1.0,0.0,1.0,1.0,0.0,None,,stimuli/P_18_00_18_00.png,,,,,0,225,225,136,,,,,,,,,,,,,,,,,,,,,,,,,,,,978.3682479001582,None,978.3682479001582,None,978.7762903999537,None,978.7762903999537,None,100,978.7762903999537,None,return,2.553710799664259,978.7762903999537,None,,,HEWEI,M,001,2023_Apr_18_2041,untitled,2021.1.4,48.010516419846844,
18,9,36,0,27,54,63,0.86,0.33,0.67,1.0,-0.33,#NAME?,,stimuli/P_18_09_36_00.png,,,,,0,226,226,156,,,,,,,,,,,,,,,,,,,,,,,,,,,,981.359600899741,None,981.359600899741,None,981.7455136012286,None,981.7455136012286,None,75,981.7455136012286,None,return,2.5134709998965263,981.7455136012286,None,,,HEWEI,M,001,2023_Apr_18_2041,untitled,2021.1.4,48.010516419846844,
9,9,18,36,18,27,72,0.88,0.5,0.5,0.33,0.17,0.25,,stimuli/P_09_09_18_36.png,,,,,0,227,227,91,,,,,,,,,,,,,,,,,,,,,,,,,,,,984.2925132010132,None,984.2925132010132,None,984.6506686005741,None,984.6506686005741,None,50,984.6506686005741,None,return,2.033595299348235,984.6506686005741,None,,,HEWEI,M,001,2023_Apr_18_2041,untitled,2021.1.4,48.010516419846844,
9,0,0,18,9,9,27,1.0,0.0,1.0,0.0,1.0,1.0,,stimuli/P_09_00_00_18.png,,,,,0,228,228,66,,,,,,,,,,,,,,,,,,,,,,,,,,,,986.7074204012752,None,986.7074204012752,None,987.0847100000829,None,987.0847100000829,None,100,987.0847100000829,None,return,1.9306063000112772,987.0847100000829,None,,,HEWEI,M,001,2023_Apr_18_2041,untitled,2021.1.4,48.010516419846844,
0,9,0,0,9,0,9,0.0,1.0,0.0,None,None,None,,stimuli/P_00_09_00_00.png,,,,,0,229,229,16,,,,,,,,,,,,,,,,,,,,,,,,,,,,989.0510312002152,None,989.0510312002152,None,989.4274173006415,None,989.4274173006415,None,0,989.4274173006415,None,return,1.744676599279046,989.4274173006415,None,,,HEWEI,M,001,2023_Apr_18_2041,untitled,2021.1.4,48.010516419846844,
18,0,18,36,18,36,72,1.0,0.0,1.0,0.33,0.67,1.0,,stimuli/P_18_00_18_36.png,,,,,0,230,230,139,,,,,,,,,,,,,,,,,,,,,,,,,,,,991.190452400595,None,991.190452400595,None,991.5668545998633,None,991.5668545998633,None,100,991.5668545998633,None,return,2.479118200019002,991.5668545998633,None,,,HEWEI,M,001,2023_Apr_18_2041,untitled,2021.1.4,48.010516419846844,
36,9,18,0,45,54,63,0.86,0.2,0.8,1.0,-0.2,#NAME?,,stimuli/P_36_09_18_00.png,,,,,0,231,231,216,,,,,,,,,,,,,,,,,,,,,,,,,,,,994.0807789005339,None,994.0807789005339,None,994.4580265004188,None,994.4580265004188,None,85,994.4580265004188,None,return,2.6406645998358727,994.4580265004188,None,,,HEWEI,M,001,2023_Apr_18_2041,untitled,2021.1.4,48.010516419846844,
9,36,36,36,45,45,117,0.69,0.8,0.2,0.5,-0.3,-0.6,,stimuli/P_09_36_36_36.png,,,,,0,232,232,127,,,,,,,,,,,,,,,,,,,,,,,,,,,,997.1305302996188,None,997.1305302996188,None,997.5178040005267,None,997.5178040005267,None,15,997.5178040005267,None,return,2.5275180004537106,997.5178040005267,None,,,HEWEI,M,001,2023_Apr_18_2041,untitled,2021.1.4,48.010516419846844,
0,9,9,9,9,9,27,0.67,1.0,0.0,0.5,-0.5,-1.0,,stimuli/P_00_09_09_09.png,,,,,0,233,233,21,,,,,,,,,,,,,,,,,,,,,,,,,,,,1000.0798509996384,None,1000.0798509996384,None,1000.4646011013538,None,1000.4646011013538,None,0,1000.4646011013538,None,return,1.676690399646759,1000.4646011013538,None,,,HEWEI,M,001,2023_Apr_18_2041,untitled,2021.1.4,48.010516419846844,
36,9,0,36,45,36,81,0.89,0.2,0.8,0.0,0.8,0.8,,stimuli/P_36_09_00_36.png,,,,,0,234,234,211,,,,,,,,,,,,,,,,,,,,,,,,,,,,1002.163596700877,None,1002.163596700877,None,1002.5425723996013,None,1002.5425723996013,None,85,1002.5425723996013,None,return,3.047726798802614,1002.5425723996013,None,,,HEWEI,M,001,2023_Apr_18_2041,untitled,2021.1.4,48.010516419846844,
18,0,0,18,18,18,36,1.0,0.0,1.0,0.0,1.0,1.0,,stimuli/P_18_00_00_18.png,,,,,0,235,235,130,,,,,,,,,,,,,,,,,,,,,,,,,,,,1005.6097002010792,None,1005.6097002010792,None,1005.985390201211,None,1005.985390201211,None,100,1005.985390201211,None,return,1.8800469003617764,1005.985390201211,None,,,HEWEI,M,001,2023_Apr_18_2041,untitled,2021.1.4,48.010516419846844,
18,9,9,9,27,27,45,0.8,0.33,0.67,0.5,0.17,0.33,,stimuli/P_18_09_09_09.png,,,,,0,236,236,149,,,,,,,,,,,,,,,,,,,,,,,,,,,,1007.8970504999161,None,1007.8970504999161,None,1008.2583888005465,None,1008.2583888005465,None,75,1008.2583888005465,None,return,2.16938759945333,1008.2583888005465,None,,,HEWEI,M,001,2023_Apr_18_2041,untitled,2021.1.4,48.010516419846844,
18,36,18,36,54,36,108,0.67,0.67,0.33,0.33,0.0,0.0,,stimuli/P_18_36_18_36.png,,,,,0,237,237,187,,,,,,,,,,,,,,,,,,,,,,,,,,,,1010.4530290011317,None,1010.4530290011317,None,1010.8355231005698,None,1010.8355231005698,None,25,1010.8355231005698,None,return,2.2864265013486147,1010.8355231005698,None,,,HEWEI,M,001,2023_Apr_18_2041,untitled,2021.1.4,48.010516419846844,
18,0,18,9,18,36,45,1.0,0.0,1.0,0.67,0.33,1.0,,stimuli/P_18_00_18_09.png,,,,,0,238,238,137,,,,,,,,,,,,,,,,,,,,,,,,,,,,1013.152853300795,None,1013.152853300795,None,1013.529876800254,None,1013.529876800254,None,100,1013.529876800254,None,return,1.9089481998234987,1013.529876800254,None,,,HEWEI,M,001,2023_Apr_18_2041,untitled,2021.1.4,48.010516419846844,
9,36,0,0,45,9,45,0.2,0.8,0.2,None,None,None,,stimuli/P_09_36_00_00.png,,,,,0,239,239,112,,,,,,,,,,,,,,,,,,,,,,,,,,,,1015.4564511999488,None,1015.4564511999488,None,1015.8247907999903,None,1015.8247907999903,None,15,1015.8247907999903,None,return,1.9497608989477158,1015.8247907999903,None,,,HEWEI,M,001,2023_Apr_18_2041,untitled,2021.1.4,48.010516419846844,
9,0,0,9,9,9,18,1.0,0.0,1.0,0.0,1.0,1.0,,stimuli/P_09_00_00_09.png,,,,,0,240,240,65,,,,,,,,,,,,,,,,,,,,,,,,,,,,1017.7901955004781,None,1017.7901955004781,None,1018.1618098001927,None,1018.1618098001927,None,100,1018.1618098001927,None,return,1.7526190001517534,1018.1618098001927,None,,,HEWEI,M,001,2023_Apr_18_2041,untitled,2021.1.4,48.010516419846844,
0,9,18,36,9,18,63,0.86,1.0,0.0,0.33,-0.33,-0.5,,stimuli/P_00_09_18_36.png,,,,,0,241,241,27,,,,,,,,,,,,,,,,,,,,,,,,,,,,1019.940065599978,None,1019.940065599978,None,1020.3216329999268,None,1020.3216329999268,None,0,1020.3216329999268,None,return,1.3479493986815214,1020.3216329999268,None,,,HEWEI,M,001,2023_Apr_18_2041,untitled,2021.1.4,48.010516419846844,
36,9,36,0,45,72,81,0.89,0.2,0.8,1.0,-0.2,#NAME?,,stimuli/P_36_09_36_00.png,,,,,0,242,242,220,,,,,,,,,,,,,,,,,,,,,,,,,,,,1021.7051338013262,None,1021.7051338013262,None,1022.0854120999575,None,1022.0854120999575,None,85,1022.0854120999575,None,return,2.7503495011478662,1022.0854120999575,None,,,HEWEI,M,001,2023_Apr_18_2041,untitled,2021.1.4,48.010516419846844,
18,18,0,0,36,18,36,0.5,0.5,0.5,None,None,None,,stimuli/P_18_18_00_00.png,,,,,0,243,243,160,,,,,,,,,,,,,,,,,,,,,,,,,,,,1024.869970601052,None,1024.869970601052,None,1025.254306299612,None,1025.254306299612,None,50,1025.254306299612,None,return,2.088885400444269,1025.254306299612,None,,,HEWEI,M,001,2023_Apr_18_2041,untitled,2021.1.4,48.010516419846844,
0,0,18,36,0,18,54,1.0,None,None,0.33,None,None,,stimuli/P_00_00_18_36.png,,,,,0,244,244,11,,,,,,,,,,,,,,,,,,,,,,,,,,,,1027.3767748996615,None,1027.3767748996615,None,1027.7708538006991,None,1027.7708538006991,None,0,1027.7708538006991,None,return,1.2908605989068747,1027.7708538006991,None,,,HEWEI,M,001,2023_Apr_18_2041,untitled,2021.1.4,48.010516419846844,
18,0,0,9,18,18,27,1.0,0.0,1.0,0.0,1.0,1.0,,stimuli/P_18_00_00_09.png,,,,,0,245,245,129,,,,,,,,,,,,,,,,,,,,,,,,,,,,1029.0917710997164,None,1029.0917710997164,None,1029.456096900627,None,1029.456096900627,None,100,1029.456096900627,None,return,1.4681786000728607,1029.456096900627,None,,,HEWEI,M,001,2023_Apr_18_2041,untitled,2021.1.4,48.010516419846844,
9,18,36,18,27,45,81,0.78,0.67,0.33,0.67,-0.33,-1.0,,stimuli/P_09_18_36_18.png,,,,,0,246,246,110,,,,,,,,,,,,,,,,,,,,,,,,,,,,1030.9596301000565,None,1030.9596301000565,None,1031.3350117001683,None,1031.3350117001683,None,25,1031.3350117001683,None,return,2.6307268012315035,1031.3350117001683,None,,,HEWEI,M,001,2023_Apr_18_2041,untitled,2021.1.4,48.010516419846844,
36,36,0,36,72,36,108,0.67,0.5,0.5,0.0,0.5,0.5,,stimuli/P_36_36_00_36.png,,,,,0,247,247,243,,,,,,,,,,,,,,,,,,,,,,,,,,,,1034.0030239000916,None,1034.0030239000916,None,1034.3722386006266,None,1034.3722386006266,None,50,1034.3722386006266,None,return,1.7676781006157398,1034.3722386006266,None,,,HEWEI,M,001,2023_Apr_18_2041,untitled,2021.1.4,48.010516419846844,
36,36,0,18,72,36,90,0.6,0.5,0.5,0.0,0.5,0.5,,stimuli/P_36_36_00_18.png,,,,,0,248,248,242,,,,,,,,,,,,,,,,,,,,,,,,,,,,1036.1809398010373,None,1036.1809398010373,None,1036.5621408000588,None,1036.5621408000588,None,50,1036.5621408000588,None,return,1.7454675994813442,1036.5621408000588,None,,,HEWEI,M,001,2023_Apr_18_2041,untitled,2021.1.4,48.010516419846844,
18,9,36,36,27,54,99,0.91,0.33,0.67,0.5,0.17,0.33,,stimuli/P_18_09_36_36.png,,,,,0,249,249,159,,,,,,,,,,,,,,,,,,,,,,,,,,,,1038.3298538010567,None,1038.3298538010567,None,1038.7036399003118,None,1038.7036399003118,None,75,1038.7036399003118,None,return,2.502810198813677,1038.7036399003118,None,,,HEWEI,M,001,2023_Apr_18_2041,untitled,2021.1.4,48.010516419846844,
18,9,0,36,27,18,63,0.86,0.33,0.67,0.0,0.67,0.67,,stimuli/P_18_09_00_36.png,,,,,0,250,250,147,,,,,,,,,,,,,,,,,,,,,,,,,,,,1041.2364693004638,None,1041.2364693004638,None,1041.616786699742,None,1041.616786699742,None,75,1041.616786699742,None,return,1.9223015010356903,1041.616786699742,None,,,HEWEI,M,001,2023_Apr_18_2041,untitled,2021.1.4,48.010516419846844,
9,36,9,9,45,18,63,0.43,0.8,0.2,0.5,-0.3,-0.6,,stimuli/P_09_36_09_09.png,,,,,0,251,251,117,,,,,,,,,,,,,,,,,,,,,,,,,,,,1043.5561555996537,None,1043.5561555996537,None,1043.949447600171,None,1043.949447600171,None,15,1043.949447600171,None,return,2.8102770000696182,1043.949447600171,None,,,HEWEI,M,001,2023_Apr_18_2041,untitled,2021.1.4,48.010516419846844,
36,0,36,36,36,72,108,1.0,0.0,1.0,0.5,0.5,1.0,,stimuli/P_36_00_36_36.png,,,,,0,252,252,207,,,,,,,,,,,,,,,,,,,,,,,,,,,,1046.7946953009814,None,1046.7946953009814,None,1047.1780798006803,None,1047.1780798006803,None,100,1047.1780798006803,None,return,1.8139423001557589,1047.1780798006803,None,,,HEWEI,M,001,2023_Apr_18_2041,untitled,2021.1.4,48.010516419846844,
0,0,36,18,0,36,54,1.0,None,None,0.67,None,None,,stimuli/P_00_00_36_18.png,,,,,0,253,253,14,,,,,,,,,,,,,,,,,,,,,,,,,,,,1049.024847401306,None,1049.024847401306,None,1049.4018588997424,None,1049.4018588997424,None,0,1049.4018588997424,None,return,2.6539538986980915,1049.4018588997424,None,,,HEWEI,M,001,2023_Apr_18_2041,untitled,2021.1.4,48.010516419846844,
9,0,36,9,9,45,54,1.0,0.0,1.0,0.8,0.2,1.0,,stimuli/P_09_00_36_09.png,,,,,0,254,254,77,,,,,,,,,,,,,,,,,,,,,,,,,,,,1052.0889437999576,None,1052.0889437999576,None,1052.4602857008576,None,1052.4602857008576,None,100,1052.4602857008576,None,return,3.0125906001776457,1052.4602857008576,None,,,HEWEI,M,001,2023_Apr_18_2041,untitled,2021.1.4,48.010516419846844,
36,0,18,36,36,54,90,1.0,0.0,1.0,0.33,0.67,1.0,,stimuli/P_36_00_18_36.png,,,,,0,255,255,203,,,,,,,,,,,,,,,,,,,,,,,,,,,,1055.5034338012338,None,1055.5034338012338,None,1055.8890803009272,None,1055.8890803009272,None,100,1055.8890803009272,None,return,1.8289077002555132,1055.8890803009272,None,,,HEWEI,M,001,2023_Apr_18_2041,untitled,2021.1.4,48.010516419846844,
,,,,,,,,,,,,,,,,,,,,,,,,,,,,,,,,,,,,,,,,,,,,,,,,,,,,,,,,,,,,,,,,,1057.755561299622,None,,,,,,,,
