A1C1,A1C0,A0C1,A0C0,A1,C1,Total,MI,C0GvA1,C1GvA1,C1GvA0,dltP,dltPp,Image_practice,Image,trials_2.thisRepN,trials_2.thisTrialN,trials_2.thisN,trials_2.thisIndex,trials.thisRepN,trials.thisTrialN,trials.thisN,trials.thisIndex,image.started,image.stopped,key_resp.keys,key_resp.rt,key_resp.started,key_resp.stopped,betweenTrial.started,betweenTrial.stopped,ISI.started,ISI.stopped,image_card.started,image_card.stopped,textbox.text,textbox.started,textbox.stopped,key_resp_3.keys,key_resp_3.rt,key_resp_3.started,key_resp_3.stopped,text_2.started,text_2.stopped,key_resp_2.keys,key_resp_2.rt,key_resp_2.started,key_resp_2.stopped,image_endPractice.started,image_endPractice.stopped,polygon_2.started,polygon_2.stopped,ISI_2.started,ISI_2.stopped,Cards.started,Cards.stopped,TextNote.started,TextNote.stopped,Estimation.text,Estimation.started,Estimation.stopped,key_resp_4.keys,key_resp_4.rt,key_resp_4.started,key_resp_4.stopped,text.started,text.stopped,participant,gender,session,date,expName,psychopyVersion,frameRate,
,,,,,,,,,,,,,,,,,,,,,,,756.2764553017914,None,space,26.69985504820943,756.2764553017914,None,,,,,,,,,,,,,,,,,,,,,,,,,,,,,,,,,,,,,,,JIRUJING,F,002,2023_Apr_17_2041,untitled,2021.1.4,60.025610824148764,
0,0,0,9,0,0,9,1.0,None,None,0.0,None,None,practice_stimuli/P_00_00_00_09.png,,0,0,0,0,,,,,,,,,,,783.0915085449815,None,783.0915085449815,None,783.569422589615,None,0,783.569422589615,None,return,7.314505401998758,783.569422589615,None,783.569422589615,None,,,,,,,,,,,,,,,,,,,,,,,,JIRUJING,F,002,2023_Apr_17_2041,untitled,2021.1.4,60.025610824148764,
18,0,36,0,18,54,54,1.0,0.0,1.0,1.0,0.0,None,practice_stimuli/P_18_00_36_00.png,,0,1,1,1,,,,,,,,,,,790.9552387222648,None,790.9552387222648,None,791.3528615646064,None,,791.3528615646064,None,None,,791.3528615646064,None,791.3528615646064,None,,,,,,,,,,,,,,,,,,,,,,,,JIRUJING,F,002,2023_Apr_17_2041,untitled,2021.1.4,60.025610824148764,
9,18,18,0,27,27,45,0.6,0.67,0.33,1.0,-0.67,#NAME?,practice_stimuli/P_09_18_18_00.png,,0,2,2,2,,,,,,,,,,,799.37738577649,None,799.37738577649,None,799.7761219330132,None,20,799.7761219330132,None,return,7.460562380030751,799.7761219330132,None,799.7761219330132,None,,,,,,,,,,,,,,,,,,,,,,,,JIRUJING,F,002,2023_Apr_17_2041,untitled,2021.1.4,60.025610824148764,
36,18,18,36,54,54,108,0.83,0.33,0.67,0.33,0.33,0.5,practice_stimuli/P_36_18_18_36.png,,0,3,3,3,,,,,,,,,,,807.2701167464256,None,807.2701167464256,None,807.6538877263665,None,45,807.6538877263665,None,return,5.797333505004644,807.6538877263665,None,807.6538877263665,None,,,,,,,,,,,,,,,,,,,,,,,,JIRUJING,F,002,2023_Apr_17_2041,untitled,2021.1.4,60.025610824148764,
,,,,,,,,,,,,,,,,,,,,,,,,,,,,,,,,,,,,,,,,,,,,space,16.59156429581344,813.4827951081097,None,,,,,,,,,,,,,,,,,,,,JIRUJING,F,002,2023_Apr_17_2041,untitled,2021.1.4,60.025610824148764,
0,18,18,9,18,18,45,0.6,1.0,0.0,0.67,-0.67,-2.0,,stimuli/P_00_18_18_09.png,,,,,0,0,0,41,,,,,,,,,,,,,,,,,,,,,,,,,,813.4827951081097,None,836.7388517782092,None,836.7388517782092,None,837.2776158340275,None,837.2776158340275,None,0,837.2776158340275,None,return,5.081714561209083,837.2776158340275,None,,,JIRUJING,F,002,2023_Apr_17_2041,untitled,2021.1.4,60.025610824148764,
36,36,9,18,72,45,99,0.64,0.5,0.5,0.33,0.17,0.25,,stimuli/P_36_36_09_18.png,,,,,0,1,1,246,,,,,,,,,,,,,,,,,,,,,,,,,,,,842.3940980099142,None,842.3940980099142,None,842.7937222030014,None,842.7937222030014,None,45,842.7937222030014,None,return,6.076905747875571,842.7937222030014,None,,,JIRUJING,F,002,2023_Apr_17_2041,untitled,2021.1.4,60.025610824148764,
18,9,18,9,27,36,54,0.83,0.33,0.67,0.67,0.0,0.0,,stimuli/P_18_09_18_09.png,,,,,0,2,2,153,,,,,,,,,,,,,,,,,,,,,,,,,,,,848.9038362428546,None,848.9038362428546,None,849.2867965549231,None,849.2867965549231,None,35,849.2867965549231,None,return,6.46670182235539,849.2867965549231,None,,,JIRUJING,F,002,2023_Apr_17_2041,untitled,2021.1.4,60.025610824148764,
0,36,0,18,36,0,54,0.33,1.0,0.0,0.0,0.0,0.0,,stimuli/P_00_36_00_18.png,,,,,0,3,3,50,,,,,,,,,,,,,,,,,,,,,,,,,,,,855.7767135780305,None,855.7767135780305,None,856.1649207472801,None,856.1649207472801,None,0,856.1649207472801,None,return,2.9042282048612833,856.1649207472801,None,,,JIRUJING,F,002,2023_Apr_17_2041,untitled,2021.1.4,60.025610824148764,
9,18,9,9,27,18,45,0.6,0.67,0.33,0.5,-0.17,-0.33,,stimuli/P_09_18_09_09.png,,,,,0,4,4,101,,,,,,,,,,,,,,,,,,,,,,,,,,,,859.0856785755605,None,859.0856785755605,None,859.4735188130289,None,859.4735188130289,None,15,859.4735188130289,None,return,4.726792482659221,859.4735188130289,None,,,JIRUJING,F,002,2023_Apr_17_2041,untitled,2021.1.4,60.025610824148764,
18,9,36,9,27,54,72,0.88,0.33,0.67,0.8,-0.13,-0.67,,stimuli/P_18_09_36_09.png,,,,,0,5,5,157,,,,,,,,,,,,,,,,,,,,,,,,,,,,864.2227283436805,None,864.2227283436805,None,864.6058433949947,None,864.6058433949947,None,40,864.6058433949947,None,return,4.650935765355825,864.6058433949947,None,,,JIRUJING,F,002,2023_Apr_17_2041,untitled,2021.1.4,60.025610824148764,
36,9,18,18,45,54,81,0.89,0.2,0.8,0.5,0.3,0.6,,stimuli/P_36_09_18_18.png,,,,,0,6,6,218,,,,,,,,,,,,,,,,,,,,,,,,,,,,869.2938729580492,None,869.2938729580492,None,869.6821927689016,None,869.6821927689016,None,50,869.6821927689016,None,return,7.83735878765583,869.6821927689016,None,,,JIRUJING,F,002,2023_Apr_17_2041,untitled,2021.1.4,60.025610824148764,
18,0,36,18,18,54,72,1.0,0.0,1.0,0.67,0.33,1.0,,stimuli/P_18_00_36_18.png,,,,,0,7,7,142,,,,,,,,,,,,,,,,,,,,,,,,,,,,877.5432207267731,None,877.5432207267731,None,877.9312430098653,None,877.9312430098653,None,30,877.9312430098653,None,return,6.623853832483292,877.9312430098653,None,,,JIRUJING,F,002,2023_Apr_17_2041,untitled,2021.1.4,60.025610824148764,
36,0,9,9,36,45,54,1.0,0.0,1.0,0.5,0.5,1.0,,stimuli/P_36_00_09_09.png,,,,,0,8,8,197,,,,,,,,,,,,,,,,,,,,,,,,,,,,884.5769029036164,None,884.5769029036164,None,884.9668332375586,None,884.9668332375586,None,55,884.9668332375586,None,return,4.641462065279484,884.9668332375586,None,,,JIRUJING,F,002,2023_Apr_17_2041,untitled,2021.1.4,60.025610824148764,
9,36,0,0,45,9,45,0.2,0.8,0.2,None,None,None,,stimuli/P_09_36_00_00.png,,,,,0,9,9,112,,,,,,,,,,,,,,,,,,,,,,,,,,,,889.626284122467,None,889.626284122467,None,890.0092029068619,None,890.0092029068619,None,30,890.0092029068619,None,return,5.11070909537375,890.0092029068619,None,,,JIRUJING,F,002,2023_Apr_17_2041,untitled,2021.1.4,60.025610824148764,
18,18,0,18,36,18,54,0.67,0.5,0.5,0.0,0.5,0.5,,stimuli/P_18_18_00_18.png,,,,,0,10,10,162,,,,,,,,,,,,,,,,,,,,,,,,,,,,895.1416577640921,None,895.1416577640921,None,895.5269357282668,None,895.5269357282668,None,,895.5269357282668,None,None,,895.5269357282668,None,,,JIRUJING,F,002,2023_Apr_17_2041,untitled,2021.1.4,60.025610824148764,
0,0,36,0,0,36,36,1.0,None,None,1.0,None,None,,stimuli/P_00_00_36_00.png,,,,,0,11,11,12,,,,,,,,,,,,,,,,,,,,,,,,,,,,903.5422075372189,None,903.5422075372189,None,903.9350904021412,None,903.9350904021412,None,500,903.9350904021412,None,return,3.1786576975136995,903.9350904021412,None,,,JIRUJING,F,002,2023_Apr_17_2041,untitled,2021.1.4,60.025610824148764,
0,36,0,9,36,0,45,0.2,1.0,0.0,0.0,0.0,0.0,,stimuli/P_00_36_00_09.png,,,,,0,12,12,49,,,,,,,,,,,,,,,,,,,,,,,,,,,,907.1335767041892,None,907.1335767041892,None,907.5202416181564,None,907.5202416181564,None,0,907.5202416181564,None,return,3.4169462751597166,907.5202416181564,None,,,JIRUJING,F,002,2023_Apr_17_2041,untitled,2021.1.4,60.025610824148764,
18,36,9,0,54,27,63,0.43,0.67,0.33,1.0,-0.67,#NAME?,,stimuli/P_18_36_09_00.png,,,,,0,13,13,180,,,,,,,,,,,,,,,,,,,,,,,,,,,,910.9521445389837,None,910.9521445389837,None,911.3363103270531,None,911.3363103270531,None,35,911.3363103270531,None,return,4.289977211505175,911.3363103270531,None,,,JIRUJING,F,002,2023_Apr_17_2041,untitled,2021.1.4,60.025610824148764,
18,36,0,0,54,18,54,0.33,0.67,0.33,None,None,None,,stimuli/P_18_36_00_00.png,,,,,0,14,14,176,,,,,,,,,,,,,,,,,,,,,,,,,,,,915.6558714397252,None,915.6558714397252,None,916.0356272049248,None,916.0356272049248,None,45,916.0356272049248,None,return,4.161216717213392,916.0356272049248,None,,,JIRUJING,F,002,2023_Apr_17_2041,untitled,2021.1.4,60.025610824148764,
9,36,36,18,45,45,99,0.64,0.8,0.2,0.67,-0.47,-1.4,,stimuli/P_09_36_36_18.png,,,,,0,15,15,126,,,,,,,,,,,,,,,,,,,,,,,,,,,,920.2228387072682,None,920.2228387072682,None,920.6049570664763,None,920.6049570664763,None,25,920.6049570664763,None,return,3.2489182576537132,920.6049570664763,None,,,JIRUJING,F,002,2023_Apr_17_2041,untitled,2021.1.4,60.025610824148764,
9,36,9,36,45,18,90,0.6,0.8,0.2,0.2,0.0,0.0,,stimuli/P_09_36_09_36.png,,,,,0,16,16,119,,,,,,,,,,,,,,,,,,,,,,,,,,,,923.8878106549382,None,923.8878106549382,None,924.2717824522406,None,924.2717824522406,None,15,924.2717824522406,None,return,5.781058179214597,924.2717824522406,None,,,JIRUJING,F,002,2023_Apr_17_2041,untitled,2021.1.4,60.025610824148764,
0,9,18,9,9,18,36,0.75,1.0,0.0,0.67,-0.67,-2.0,,stimuli/P_00_09_18_09.png,,,,,0,17,17,25,,,,,,,,,,,,,,,,,,,,,,,,,,,,930.0763499438763,None,930.0763499438763,None,930.4632060043514,None,930.4632060043514,None,0,930.4632060043514,None,return,2.3376671262085438,930.4632060043514,None,,,JIRUJING,F,002,2023_Apr_17_2041,untitled,2021.1.4,60.025610824148764,
36,18,0,18,54,36,72,0.75,0.33,0.67,0.0,0.67,0.67,,stimuli/P_36_18_00_18.png,,,,,0,18,18,226,,,,,,,,,,,,,,,,,,,,,,,,,,,,932.8263752590865,None,932.8263752590865,None,933.2127050980926,None,933.2127050980926,None,30,933.2127050980926,None,return,3.306482370942831,933.2127050980926,None,,,JIRUJING,F,002,2023_Apr_17_2041,untitled,2021.1.4,60.025610824148764,
9,9,9,36,18,18,63,0.86,0.5,0.5,0.2,0.3,0.37,,stimuli/P_09_09_09_36.png,,,,,0,19,19,87,,,,,,,,,,,,,,,,,,,,,,,,,,,,936.5408467557281,None,936.5408467557281,None,936.9283041320741,None,936.9283041320741,None,10,936.9283041320741,None,return,4.125843804329634,936.9283041320741,None,,,JIRUJING,F,002,2023_Apr_17_2041,untitled,2021.1.4,60.025610824148764,
0,0,0,18,0,0,18,1.0,None,None,0.0,None,None,,stimuli/P_00_00_00_18.png,,,,,0,20,20,2,,,,,,,,,,,,,,,,,,,,,,,,,,,,941.0735800266266,None,941.0735800266266,None,941.4585900437087,None,941.4585900437087,None,0,941.4585900437087,None,return,1.5367860309779644,941.4585900437087,None,,,JIRUJING,F,002,2023_Apr_17_2041,untitled,2021.1.4,60.025610824148764,
18,9,36,36,27,54,99,0.91,0.33,0.67,0.5,0.17,0.33,,stimuli/P_18_09_36_36.png,,,,,0,21,21,159,,,,,,,,,,,,,,,,,,,,,,,,,,,,943.0261580571532,None,943.0261580571532,None,943.4095973744988,None,943.4095973744988,None,30,943.4095973744988,None,return,3.919212156906724,943.4095973744988,None,,,JIRUJING,F,002,2023_Apr_17_2041,untitled,2021.1.4,60.025610824148764,
0,9,36,0,9,36,45,0.8,1.0,0.0,1.0,-1.0,#NAME?,,stimuli/P_00_09_36_00.png,,,,,0,22,22,28,,,,,,,,,,,,,,,,,,,,,,,,,,,,947.3510980121791,None,947.3510980121791,None,947.7330013308674,None,947.7330013308674,None,0,947.7330013308674,None,return,1.690887089818716,947.7330013308674,None,,,JIRUJING,F,002,2023_Apr_17_2041,untitled,2021.1.4,60.025610824148764,
18,18,9,18,36,27,63,0.71,0.5,0.5,0.33,0.17,0.25,,stimuli/P_18_18_09_18.png,,,,,0,23,23,166,,,,,,,,,,,,,,,,,,,,,,,,,,,,949.4464306235313,None,949.4464306235313,None,949.8301959130913,None,949.8301959130913,None,30,949.8301959130913,None,return,3.0546144247055054,949.8301959130913,None,,,JIRUJING,F,002,2023_Apr_17_2041,untitled,2021.1.4,60.025610824148764,
18,9,0,18,27,18,45,0.8,0.33,0.67,0.0,0.67,0.67,,stimuli/P_18_09_00_18.png,,,,,0,24,24,146,,,,,,,,,,,,,,,,,,,,,,,,,,,,952.9179753940552,None,952.9179753940552,None,953.3024330213666,None,953.3024330213666,None,45,953.3024330213666,None,return,3.4686030484735966,953.3024330213666,None,,,JIRUJING,F,002,2023_Apr_17_2041,untitled,2021.1.4,60.025610824148764,
9,9,18,18,18,27,54,0.83,0.5,0.5,0.5,0.0,0.0,,stimuli/P_09_09_18_18.png,,,,,0,25,25,90,,,,,,,,,,,,,,,,,,,,,,,,,,,,956.7932414915413,None,956.7932414915413,None,957.1804650556296,None,957.1804650556296,None,20,957.1804650556296,None,return,4.125142931938171,957.1804650556296,None,,,JIRUJING,F,002,2023_Apr_17_2041,untitled,2021.1.4,60.025610824148764,
36,36,0,9,72,36,81,0.56,0.5,0.5,0.0,0.5,0.5,,stimuli/P_36_36_00_09.png,,,,,0,26,26,241,,,,,,,,,,,,,,,,,,,,,,,,,,,,961.3392201904207,None,961.3392201904207,None,961.7203173935413,None,961.7203173935413,None,50,961.7203173935413,None,return,3.823877839371562,961.7203173935413,None,,,JIRUJING,F,002,2023_Apr_17_2041,untitled,2021.1.4,60.025610824148764,
0,18,18,36,18,18,72,0.75,1.0,0.0,0.33,-0.33,-0.5,,stimuli/P_00_18_18_36.png,,,,,0,27,27,43,,,,,,,,,,,,,,,,,,,,,,,,,,,,965.5744037758559,None,965.5744037758559,None,965.9568031653762,None,965.9568031653762,None,0,965.9568031653762,None,return,3.3843984622508287,965.9568031653762,None,,,JIRUJING,F,002,2023_Apr_17_2041,untitled,2021.1.4,60.025610824148764,
0,18,36,9,18,36,63,0.71,1.0,0.0,0.8,-0.8,-4.0,,stimuli/P_00_18_36_09.png,,,,,0,28,28,45,,,,,,,,,,,,,,,,,,,,,,,,,,,,969.3789149485528,None,969.3789149485528,None,969.7614986561239,None,969.7614986561239,None,0,969.7614986561239,None,return,1.2682428285479546,969.7614986561239,None,,,JIRUJING,F,002,2023_Apr_17_2041,untitled,2021.1.4,60.025610824148764,
36,36,36,18,72,72,126,0.71,0.5,0.5,0.67,-0.17,-0.5,,stimuli/P_36_36_36_18.png,,,,,0,29,29,254,,,,,,,,,,,,,,,,,,,,,,,,,,,,971.0664586815983,None,971.0664586815983,None,971.4513589031994,None,971.4513589031994,None,40,971.4513589031994,None,return,3.462304884567857,971.4513589031994,None,,,JIRUJING,F,002,2023_Apr_17_2041,untitled,2021.1.4,60.025610824148764,
36,36,9,0,72,45,81,0.56,0.5,0.5,1.0,-0.5,#NAME?,,stimuli/P_36_36_09_00.png,,,,,0,30,30,244,,,,,,,,,,,,,,,,,,,,,,,,,,,,974.9420621301979,None,974.9420621301979,None,975.3260498549789,None,975.3260498549789,None,50,975.3260498549789,None,return,4.43045168556273,975.3260498549789,None,,,JIRUJING,F,002,2023_Apr_17_2041,untitled,2021.1.4,60.025610824148764,
36,18,18,9,54,54,81,0.78,0.33,0.67,0.67,0.0,0.0,,stimuli/P_36_18_18_09.png,,,,,0,31,31,233,,,,,,,,,,,,,,,,,,,,,,,,,,,,979.7846905309707,None,979.7846905309707,None,980.165140338242,None,980.165140338242,None,50,980.165140338242,None,return,3.015276927500963,980.165140338242,None,,,JIRUJING,F,002,2023_Apr_17_2041,untitled,2021.1.4,60.025610824148764,
9,18,18,9,27,27,54,0.67,0.67,0.33,0.67,-0.33,-1.0,,stimuli/P_09_18_18_09.png,,,,,0,32,32,105,,,,,,,,,,,,,,,,,,,,,,,,,,,,983.2153248302639,None,983.2153248302639,None,983.5930092725903,None,983.5930092725903,None,30,983.5930092725903,None,return,4.912249531596899,983.5930092725903,None,,,JIRUJING,F,002,2023_Apr_17_2041,untitled,2021.1.4,60.025610824148764,
36,36,0,0,72,36,72,0.5,0.5,0.5,None,None,None,,stimuli/P_36_36_00_00.png,,,,,0,33,33,240,,,,,,,,,,,,,,,,,,,,,,,,,,,,988.5433549843729,None,988.5433549843729,None,988.9211594630033,None,988.9211594630033,None,50,988.9211594630033,None,return,2.3767611365765333,988.9211594630033,None,,,JIRUJING,F,002,2023_Apr_17_2041,untitled,2021.1.4,60.025610824148764,
0,36,36,18,36,36,90,0.6,1.0,0.0,0.67,-0.67,-2.0,,stimuli/P_00_36_36_18.png,,,,,0,34,34,62,,,,,,,,,,,,,,,,,,,,,,,,,,,,991.3316118773073,None,991.3316118773073,None,991.7107492592186,None,991.7107492592186,None,0,991.7107492592186,None,return,2.381400989368558,991.7107492592186,None,,,JIRUJING,F,002,2023_Apr_17_2041,untitled,2021.1.4,60.025610824148764,
36,0,9,18,36,45,63,1.0,0.0,1.0,0.33,0.67,1.0,,stimuli/P_36_00_09_18.png,,,,,0,35,35,198,,,,,,,,,,,,,,,,,,,,,,,,,,,,994.1158279553056,None,994.1158279553056,None,994.4958311859518,None,994.4958311859518,None,60,994.4958311859518,None,return,3.0899389814585447,994.4958311859518,None,,,JIRUJING,F,002,2023_Apr_17_2041,untitled,2021.1.4,60.025610824148764,
36,36,36,0,72,72,108,0.67,0.5,0.5,1.0,-0.5,#NAME?,,stimuli/P_36_36_36_00.png,,,,,0,36,36,252,,,,,,,,,,,,,,,,,,,,,,,,,,,,997.6064282115549,None,997.6064282115549,None,997.9963244125247,None,997.9963244125247,None,30,997.9963244125247,None,return,5.009522054344416,997.9963244125247,None,,,JIRUJING,F,002,2023_Apr_17_2041,untitled,2021.1.4,60.025610824148764,
0,36,0,36,36,0,72,0.5,1.0,0.0,0.0,0.0,0.0,,stimuli/P_00_36_00_36.png,,,,,0,37,37,51,,,,,,,,,,,,,,,,,,,,,,,,,,,,1003.0433367807418,None,1003.0433367807418,None,1003.4224343411624,None,1003.4224343411624,None,0,1003.4224343411624,None,return,2.1773873697966337,1003.4224343411624,None,,,JIRUJING,F,002,2023_Apr_17_2041,untitled,2021.1.4,60.025610824148764,
18,36,18,0,54,36,72,0.5,0.67,0.33,1.0,-0.67,#NAME?,,stimuli/P_18_36_18_00.png,,,,,0,38,38,184,,,,,,,,,,,,,,,,,,,,,,,,,,,,1005.6320771146566,None,1005.6320771146566,None,1006.0165318977088,None,1006.0165318977088,None,25,1006.0165318977088,None,return,5.950829269364476,1006.0165318977088,None,,,JIRUJING,F,002,2023_Apr_17_2041,untitled,2021.1.4,60.025610824148764,
9,0,9,0,9,18,18,1.0,0.0,1.0,1.0,0.0,None,,stimuli/P_09_00_09_00.png,,,,,0,39,39,68,,,,,,,,,,,,,,,,,,,,,,,,,,,,1012.0063351411372,None,1012.0063351411372,None,1012.3858639188111,None,1012.3858639188111,None,50,1012.3858639188111,None,return,2.441481864079833,1012.3858639188111,None,,,JIRUJING,F,002,2023_Apr_17_2041,untitled,2021.1.4,60.025610824148764,
18,36,18,18,54,36,90,0.6,0.67,0.33,0.5,-0.17,-0.33,,stimuli/P_18_36_18_18.png,,,,,0,40,40,186,,,,,,,,,,,,,,,,,,,,,,,,,,,,1014.8497144747525,None,1014.8497144747525,None,1015.2308844961226,None,1015.2308844961226,None,25,1015.2308844961226,None,return,5.79197059571743,1015.2308844961226,None,,,JIRUJING,F,002,2023_Apr_17_2041,untitled,2021.1.4,60.025610824148764,
9,18,36,36,27,45,99,0.82,0.67,0.33,0.5,-0.17,-0.33,,stimuli/P_09_18_36_36.png,,,,,0,41,41,111,,,,,,,,,,,,,,,,,,,,,,,,,,,,1021.0557999871671,None,1021.0557999871671,None,1021.430567169562,None,1021.430567169562,None,10,1021.430567169562,None,return,3.8856016620993614,1021.430567169562,None,,,JIRUJING,F,002,2023_Apr_17_2041,untitled,2021.1.4,60.025610824148764,
0,36,9,36,36,9,81,0.56,1.0,0.0,0.2,-0.2,-0.25,,stimuli/P_00_36_09_36.png,,,,,0,42,42,55,,,,,,,,,,,,,,,,,,,,,,,,,,,,1025.3303990066051,None,1025.3303990066051,None,1025.709219519049,None,1025.709219519049,None,0,1025.709219519049,None,return,1.4218193721026182,1025.709219519049,None,,,JIRUJING,F,002,2023_Apr_17_2041,untitled,2021.1.4,60.025610824148764,
18,18,0,36,36,18,72,0.75,0.5,0.5,0.0,0.5,0.5,,stimuli/P_18_18_00_36.png,,,,,0,43,43,163,,,,,,,,,,,,,,,,,,,,,,,,,,,,1027.1616570353508,None,1027.1616570353508,None,1027.5397630240768,None,1027.5397630240768,None,30,1027.5397630240768,None,return,3.380555620416999,1027.5397630240768,None,,,JIRUJING,F,002,2023_Apr_17_2041,untitled,2021.1.4,60.025610824148764,
36,36,18,36,72,54,126,0.71,0.5,0.5,0.33,0.17,0.25,,stimuli/P_36_36_18_36.png,,,,,0,44,44,251,,,,,,,,,,,,,,,,,,,,,,,,,,,,1030.9423642084002,None,1030.9423642084002,None,1031.3232822138816,None,1031.3232822138816,None,10,1031.3232822138816,None,return,3.512768130749464,1031.3232822138816,None,,,JIRUJING,F,002,2023_Apr_17_2041,untitled,2021.1.4,60.025610824148764,
0,36,9,18,36,9,63,0.43,1.0,0.0,0.33,-0.33,-0.5,,stimuli/P_00_36_09_18.png,,,,,0,45,45,54,,,,,,,,,,,,,,,,,,,,,,,,,,,,1034.8611337710172,None,1034.8611337710172,None,1035.239962818101,None,1035.239962818101,None,0,1035.239962818101,None,return,1.7898116633296013,1035.239962818101,None,,,JIRUJING,F,002,2023_Apr_17_2041,untitled,2021.1.4,60.025610824148764,
9,18,0,9,27,9,36,0.5,0.67,0.33,0.0,0.33,0.33,,stimuli/P_09_18_00_09.png,,,,,0,46,46,97,,,,,,,,,,,,,,,,,,,,,,,,,,,,1037.0667670182884,None,1037.0667670182884,None,1037.4449054338038,None,1037.4449054338038,None,30,1037.4449054338038,None,return,3.825070798397064,1037.4449054338038,None,,,JIRUJING,F,002,2023_Apr_17_2041,untitled,2021.1.4,60.025610824148764,
9,0,36,36,9,45,81,1.0,0.0,1.0,0.5,0.5,1.0,,stimuli/P_09_00_36_36.png,,,,,0,47,47,79,,,,,,,,,,,,,,,,,,,,,,,,,,,,1041.2913852091879,None,1041.2913852091879,None,1041.6709521021694,None,1041.6709521021694,None,15,1041.6709521021694,None,return,5.158689713105559,1041.6709521021694,None,,,JIRUJING,F,002,2023_Apr_17_2041,untitled,2021.1.4,60.025610824148764,
36,9,18,9,45,54,72,0.88,0.2,0.8,0.67,0.13,0.4,,stimuli/P_36_09_18_09.png,,,,,0,48,48,217,,,,,,,,,,,,,,,,,,,,,,,,,,,,1046.8637956008315,None,1046.8637956008315,None,1047.2442829553038,None,1047.2442829553038,None,50,1047.2442829553038,None,return,4.561165742576122,1047.2442829553038,None,,,JIRUJING,F,002,2023_Apr_17_2041,untitled,2021.1.4,60.025610824148764,
0,18,0,0,18,0,18,0.0,1.0,0.0,None,None,None,,stimuli/P_00_18_00_00.png,,,,,0,49,49,32,,,,,,,,,,,,,,,,,,,,,,,,,,,,1051.8414940368384,None,1051.8414940368384,None,1052.2186710312963,None,1052.2186710312963,None,,1052.2186710312963,None,return,2.6780859623104334,1052.2186710312963,None,,,JIRUJING,F,002,2023_Apr_17_2041,untitled,2021.1.4,60.025610824148764,
18,0,0,9,18,18,27,1.0,0.0,1.0,0.0,1.0,1.0,,stimuli/P_18_00_00_09.png,,,,,0,50,50,129,,,,,,,,,,,,,,,,,,,,,,,,,,,,1054.9169348981231,None,1054.9169348981231,None,1055.2903065960854,None,1055.2903065960854,None,0,1055.2903065960854,None,None,,1055.2903065960854,None,,,JIRUJING,F,002,2023_Apr_17_2041,untitled,2021.1.4,60.025610824148764,
18,36,18,36,54,36,108,0.67,0.67,0.33,0.33,0.0,0.0,,stimuli/P_18_36_18_36.png,,,,,0,51,51,187,,,,,,,,,,,,,,,,,,,,,,,,,,,,1063.2977516390383,None,1063.2977516390383,None,1063.6750970240682,None,1063.6750970240682,None,25,1063.6750970240682,None,return,5.359543161466718,1063.6750970240682,None,,,JIRUJING,F,002,2023_Apr_17_2041,untitled,2021.1.4,60.025610824148764,
18,9,18,36,27,36,81,0.89,0.33,0.67,0.33,0.33,0.5,,stimuli/P_18_09_18_36.png,,,,,0,52,52,155,,,,,,,,,,,,,,,,,,,,,,,,,,,,1069.0722175389528,None,1069.0722175389528,None,1069.456662081182,None,1069.456662081182,None,20,1069.456662081182,None,return,3.3760329578071833,1069.456662081182,None,,,JIRUJING,F,002,2023_Apr_17_2041,untitled,2021.1.4,60.025610824148764,
9,18,36,0,27,45,63,0.71,0.67,0.33,1.0,-0.67,#NAME?,,stimuli/P_09_18_36_00.png,,,,,0,53,53,108,,,,,,,,,,,,,,,,,,,,,,,,,,,,1072.8654812164605,None,1072.8654812164605,None,1073.243467738852,None,1073.243467738852,None,10,1073.243467738852,None,return,4.281921751797199,1073.243467738852,None,,,JIRUJING,F,002,2023_Apr_17_2041,untitled,2021.1.4,60.025610824148764,
36,18,18,36,54,54,108,0.83,0.33,0.67,0.33,0.33,0.5,,stimuli/P_36_18_18_36.png,,,,,0,54,54,235,,,,,,,,,,,,,,,,,,,,,,,,,,,,1077.5457733292133,None,1077.5457733292133,None,1077.9245159048587,None,1077.9245159048587,None,40,1077.9245159048587,None,return,6.261075405403972,1077.9245159048587,None,,,JIRUJING,F,002,2023_Apr_17_2041,untitled,2021.1.4,60.025610824148764,
18,9,9,18,27,27,54,0.83,0.33,0.67,0.33,0.33,0.5,,stimuli/P_18_09_09_18.png,,,,,0,55,55,150,,,,,,,,,,,,,,,,,,,,,,,,,,,,1084.211803978309,None,1084.211803978309,None,1084.5902188736945,None,1084.5902188736945,None,40,1084.5902188736945,None,return,2.8444789946079254,1084.5902188736945,None,,,JIRUJING,F,002,2023_Apr_17_2041,untitled,2021.1.4,60.025610824148764,
9,36,9,0,45,18,54,0.33,0.8,0.2,1.0,-0.8,#NAME?,,stimuli/P_09_36_09_00.png,,,,,0,56,56,116,,,,,,,,,,,,,,,,,,,,,,,,,,,,1087.4721443802118,None,1087.4721443802118,None,1087.8544533159584,None,1087.8544533159584,None,10,1087.8544533159584,None,return,6.371968250721693,1087.8544533159584,None,,,JIRUJING,F,002,2023_Apr_17_2041,untitled,2021.1.4,60.025610824148764,
36,18,9,36,54,45,99,0.82,0.33,0.67,0.2,0.47,0.58,,stimuli/P_36_18_09_36.png,,,,,0,57,57,231,,,,,,,,,,,,,,,,,,,,,,,,,,,,1094.246300233528,None,1094.246300233528,None,1094.62996596843,None,1094.62996596843,None,30,1094.62996596843,None,return,4.6325504295527935,1094.62996596843,None,,,JIRUJING,F,002,2023_Apr_17_2041,untitled,2021.1.4,60.025610824148764,
18,0,18,9,18,36,45,1.0,0.0,1.0,0.67,0.33,1.0,,stimuli/P_18_00_18_09.png,,,,,0,58,58,137,,,,,,,,,,,,,,,,,,,,,,,,,,,,1099.2972220033407,None,1099.2972220033407,None,1099.6786406300962,None,1099.6786406300962,None,25,1099.6786406300962,None,return,4.537466989830136,1099.6786406300962,None,,,JIRUJING,F,002,2023_Apr_17_2041,untitled,2021.1.4,60.025610824148764,
18,18,9,9,36,27,54,0.67,0.5,0.5,0.5,0.0,0.0,,stimuli/P_18_18_09_09.png,,,,,0,59,59,165,,,,,,,,,,,,,,,,,,,,,,,,,,,,1104.2517570126802,None,1104.2517570126802,None,1104.6315508913249,None,1104.6315508913249,None,35,1104.6315508913249,None,return,6.222146939486265,1104.6315508913249,None,,,JIRUJING,F,002,2023_Apr_17_2041,untitled,2021.1.4,60.025610824148764,
9,18,9,18,27,18,54,0.67,0.67,0.33,0.33,0.0,0.0,,stimuli/P_09_18_09_18.png,,,,,0,60,60,102,,,,,,,,,,,,,,,,,,,,,,,,,,,,1110.8806938622147,None,1110.8806938622147,None,1111.2673417087644,None,1111.2673417087644,None,35,1111.2673417087644,None,return,4.867724912241101,1111.2673417087644,None,,,JIRUJING,F,002,2023_Apr_17_2041,untitled,2021.1.4,60.025610824148764,
0,18,0,36,18,0,54,0.67,1.0,0.0,0.0,0.0,0.0,,stimuli/P_00_18_00_36.png,,,,,0,61,61,35,,,,,,,,,,,,,,,,,,,,,,,,,,,,1116.1736446525902,None,1116.1736446525902,None,1116.5550263002515,None,1116.5550263002515,None,,1116.5550263002515,None,return,1.424472101032734,1116.5550263002515,None,,,JIRUJING,F,002,2023_Apr_17_2041,untitled,2021.1.4,60.025610824148764,
0,0,36,36,0,36,72,1.0,None,None,0.5,None,None,,stimuli/P_00_00_36_36.png,,,,,0,62,62,15,,,,,,,,,,,,,,,,,,,,,,,,,,,,1118.019225584343,None,1118.019225584343,None,1118.3992117475718,None,1118.3992117475718,None,00,1118.3992117475718,None,return,2.826059527695179,1118.3992117475718,None,,,JIRUJING,F,002,2023_Apr_17_2041,untitled,2021.1.4,60.025610824148764,
0,9,36,9,9,36,54,0.83,1.0,0.0,0.8,-0.8,-4.0,,stimuli/P_00_09_36_09.png,,,,,0,63,63,29,,,,,,,,,,,,,,,,,,,,,,,,,,,,1121.252754272893,None,1121.252754272893,None,1121.6355865858495,None,1121.6355865858495,None,0,1121.6355865858495,None,return,1.8208888992667198,1121.6355865858495,None,,,JIRUJING,F,002,2023_Apr_17_2041,untitled,2021.1.4,60.025610824148764,
9,36,9,9,45,18,63,0.43,0.8,0.2,0.5,-0.3,-0.6,,stimuli/P_09_36_09_09.png,,,,,0,64,64,117,,,,,,,,,,,,,,,,,,,,,,,,,,,,1123.4754439312965,None,1123.4754439312965,None,1123.8544504716992,None,1123.8544504716992,None,20,1123.8544504716992,None,return,6.5748452339321375,1123.8544504716992,None,,,JIRUJING,F,002,2023_Apr_17_2041,untitled,2021.1.4,60.025610824148764,
9,9,9,9,18,18,36,0.75,0.5,0.5,0.5,0.0,0.0,,stimuli/P_09_09_09_09.png,,,,,0,65,65,85,,,,,,,,,,,,,,,,,,,,,,,,,,,,1130.4508690908551,None,1130.4508690908551,None,1130.833321955055,None,1130.833321955055,None,25,1130.833321955055,None,return,4.901527123525739,1130.833321955055,None,,,JIRUJING,F,002,2023_Apr_17_2041,untitled,2021.1.4,60.025610824148764,
18,18,0,0,36,18,36,0.5,0.5,0.5,None,None,None,,stimuli/P_18_18_00_00.png,,,,,0,66,66,160,,,,,,,,,,,,,,,,,,,,,,,,,,,,1135.7640068866313,None,1135.7640068866313,None,1136.1440783832222,None,1136.1440783832222,None,50,1136.1440783832222,None,return,2.326800787821412,1136.1440783832222,None,,,JIRUJING,F,002,2023_Apr_17_2041,untitled,2021.1.4,60.025610824148764,
0,9,0,36,9,0,45,0.8,1.0,0.0,0.0,0.0,0.0,,stimuli/P_00_09_00_36.png,,,,,0,67,67,19,,,,,,,,,,,,,,,,,,,,,,,,,,,,1138.5110523644835,None,1138.5110523644835,None,1138.8920921105891,None,1138.8920921105891,None,0,1138.8920921105891,None,return,2.1979435812681913,1138.8920921105891,None,,,JIRUJING,F,002,2023_Apr_17_2041,untitled,2021.1.4,60.025610824148764,
9,36,18,18,45,27,81,0.56,0.8,0.2,0.5,-0.3,-0.6,,stimuli/P_09_36_18_18.png,,,,,0,68,68,122,,,,,,,,,,,,,,,,,,,,,,,,,,,,1141.1232308987528,None,1141.1232308987528,None,1141.5045050270855,None,1141.5045050270855,None,15,1141.5045050270855,None,return,4.195461520925164,1141.5045050270855,None,,,JIRUJING,F,002,2023_Apr_17_2041,untitled,2021.1.4,60.025610824148764,
0,0,0,36,0,0,36,1.0,None,None,0.0,None,None,,stimuli/P_00_00_00_36.png,,,,,0,69,69,3,,,,,,,,,,,,,,,,,,,,,,,,,,,,1145.7331566363573,None,1145.7331566363573,None,1146.1139756534249,None,1146.1139756534249,None,0,1146.1139756534249,None,return,1.1371146198362112,1146.1139756534249,None,,,JIRUJING,F,002,2023_Apr_17_2041,untitled,2021.1.4,60.025610824148764,
36,0,9,36,36,45,81,1.0,0.0,1.0,0.2,0.8,1.0,,stimuli/P_36_00_09_36.png,,,,,0,70,70,199,,,,,,,,,,,,,,,,,,,,,,,,,,,,1147.2891204636544,None,1147.2891204636544,None,1147.6691407617182,None,1147.6691407617182,None,4,1147.6691407617182,None,None,,1147.6691407617182,None,,,JIRUJING,F,002,2023_Apr_17_2041,untitled,2021.1.4,60.025610824148764,
36,18,0,0,54,36,54,0.67,0.33,0.67,None,None,None,,stimuli/P_36_18_00_00.png,,,,,0,71,71,224,,,,,,,,,,,,,,,,,,,,,,,,,,,,1155.673663424328,None,1155.673663424328,None,1156.0721441525966,None,1156.0721441525966,None,560,1156.0721441525966,None,return,6.3547286577522755,1156.0721441525966,None,,,JIRUJING,F,002,2023_Apr_17_2041,untitled,2021.1.4,60.025610824148764,
9,0,18,9,9,27,36,1.0,0.0,1.0,0.67,0.33,1.0,,stimuli/P_09_00_18_09.png,,,,,0,72,72,73,,,,,,,,,,,,,,,,,,,,,,,,,,,,1162.4608815275133,None,1162.4608815275133,None,1162.8443157244474,None,1162.8443157244474,None,50,1162.8443157244474,None,return,3.8402117639780045,1162.8443157244474,None,,,JIRUJING,F,002,2023_Apr_17_2041,untitled,2021.1.4,60.025610824148764,
18,9,9,36,27,27,72,0.88,0.33,0.67,0.2,0.47,0.58,,stimuli/P_18_09_09_36.png,,,,,0,73,73,151,,,,,,,,,,,,,,,,,,,,,,,,,,,,1166.7086620088667,None,1166.7086620088667,None,1167.0876480676234,None,1167.0876480676234,None,50,1167.0876480676234,None,return,4.623176285997033,1167.0876480676234,None,,,JIRUJING,F,002,2023_Apr_17_2041,untitled,2021.1.4,60.025610824148764,
9,9,18,9,18,27,45,0.8,0.5,0.5,0.67,-0.17,-0.5,,stimuli/P_09_09_18_09.png,,,,,0,74,74,89,,,,,,,,,,,,,,,,,,,,,,,,,,,,1171.7403354384005,None,1171.7403354384005,None,1172.1222017798573,None,1172.1222017798573,None,45,1172.1222017798573,None,return,5.015370797365904,1172.1222017798573,None,,,JIRUJING,F,002,2023_Apr_17_2041,untitled,2021.1.4,60.025610824148764,
36,0,0,0,36,36,36,1.0,0.0,1.0,None,None,None,,stimuli/P_36_00_00_00.png,,,,,0,75,75,192,,,,,,,,,,,,,,,,,,,,,,,,,,,,1177.1508868392557,None,1177.1508868392557,None,1177.531506177038,None,1177.531506177038,None,100,1177.531506177038,None,return,3.5101341772824526,1177.531506177038,None,,,JIRUJING,F,002,2023_Apr_17_2041,untitled,2021.1.4,60.025610824148764,
0,0,9,0,0,9,9,1.0,None,None,1.0,None,None,,stimuli/P_00_00_09_00.png,,,,,0,76,76,4,,,,,,,,,,,,,,,,,,,,,,,,,,,,1181.0697258077562,None,1181.0697258077562,None,1181.4463128633797,None,1181.4463128633797,None,0,1181.4463128633797,None,return,1.2424044869840145,1181.4463128633797,None,,,JIRUJING,F,002,2023_Apr_17_2041,untitled,2021.1.4,60.025610824148764,
18,36,0,9,54,18,63,0.43,0.67,0.33,0.0,0.33,0.33,,stimuli/P_18_36_00_09.png,,,,,0,77,77,177,,,,,,,,,,,,,,,,,,,,,,,,,,,,1182.7183717954904,None,1182.7183717954904,None,1183.0948928613216,None,1183.0948928613216,None,45,1183.0948928613216,None,return,3.5160671155899763,1183.0948928613216,None,,,JIRUJING,F,002,2023_Apr_17_2041,untitled,2021.1.4,60.025610824148764,
9,0,0,0,9,9,9,1.0,0.0,1.0,None,None,None,,stimuli/P_09_00_00_00.png,,,,,0,78,78,64,,,,,,,,,,,,,,,,,,,,,,,,,,,,1186.636895030737,None,1186.636895030737,None,1187.018747717142,None,1187.018747717142,None,100,1187.018747717142,None,return,2.683194013312459,1187.018747717142,None,,,JIRUJING,F,002,2023_Apr_17_2041,untitled,2021.1.4,60.025610824148764,
18,18,18,0,36,36,54,0.67,0.5,0.5,1.0,-0.5,#NAME?,,stimuli/P_18_18_18_00.png,,,,,0,79,79,168,,,,,,,,,,,,,,,,,,,,,,,,,,,,1189.7295379377902,None,1189.7295379377902,None,1190.1152858044952,None,1190.1152858044952,None,3,1190.1152858044952,None,return,2.450807649642229,1190.1152858044952,None,,,JIRUJING,F,002,2023_Apr_17_2041,untitled,2021.1.4,60.025610824148764,
9,18,9,0,27,18,36,0.5,0.67,0.33,1.0,-0.67,#NAME?,,stimuli/P_09_18_09_00.png,,,,,0,80,80,100,,,,,,,,,,,,,,,,,,,,,,,,,,,,1192.5844230391085,None,1192.5844230391085,None,1192.9643574357033,None,1192.9643574357033,None,25,1192.9643574357033,None,return,5.396433865651488,1192.9643574357033,None,,,JIRUJING,F,002,2023_Apr_17_2041,untitled,2021.1.4,60.025610824148764,
0,0,9,36,0,9,45,1.0,None,None,0.2,None,None,,stimuli/P_00_00_09_36.png,,,,,0,81,81,7,,,,,,,,,,,,,,,,,,,,,,,,,,,,1198.3978117145598,None,1198.3978117145598,None,1198.7799716014415,None,1198.7799716014415,None,0,1198.7799716014415,None,return,1.3453812524676323,1198.7799716014415,None,,,JIRUJING,F,002,2023_Apr_17_2041,untitled,2021.1.4,60.025610824148764,
18,18,0,9,36,18,45,0.6,0.5,0.5,0.0,0.5,0.5,,stimuli/P_18_18_00_09.png,,,,,0,82,82,161,,,,,,,,,,,,,,,,,,,,,,,,,,,,1200.1585070993751,None,1200.1585070993751,None,1200.5367536041886,None,1200.5367536041886,None,65,1200.5367536041886,None,return,5.597934139892459,1200.5367536041886,None,,,JIRUJING,F,002,2023_Apr_17_2041,untitled,2021.1.4,60.025610824148764,
36,18,9,0,54,45,63,0.71,0.33,0.67,1.0,-0.33,#NAME?,,stimuli/P_36_18_09_00.png,,,,,0,83,83,228,,,,,,,,,,,,,,,,,,,,,,,,,,,,1206.1598701570183,None,1206.1598701570183,None,1206.5447846017778,None,1206.5447846017778,None,67,1206.5447846017778,None,return,6.084066344425082,1206.5447846017778,None,,,JIRUJING,F,002,2023_Apr_17_2041,untitled,2021.1.4,60.025610824148764,
18,0,18,18,18,36,54,1.0,0.0,1.0,0.5,0.5,1.0,,stimuli/P_18_00_18_18.png,,,,,0,84,84,138,,,,,,,,,,,,,,,,,,,,,,,,,,,,1212.6468744706362,None,1212.6468744706362,None,1213.0300794057548,None,1213.0300794057548,None,33,1213.0300794057548,None,return,2.5619769766926765,1213.0300794057548,None,,,JIRUJING,F,002,2023_Apr_17_2041,untitled,2021.1.4,60.025610824148764,
9,9,18,36,18,27,72,0.88,0.5,0.5,0.33,0.17,0.25,,stimuli/P_09_09_18_36.png,,,,,0,85,85,91,,,,,,,,,,,,,,,,,,,,,,,,,,,,1215.6090724039823,None,1215.6090724039823,None,1215.9932609479874,None,1215.9932609479874,None,10,1215.9932609479874,None,return,4.1786440424621105,1215.9932609479874,None,,,JIRUJING,F,002,2023_Apr_17_2041,untitled,2021.1.4,60.025610824148764,
18,18,36,18,36,54,90,0.8,0.5,0.5,0.67,-0.17,-0.5,,stimuli/P_18_18_36_18.png,,,,,0,86,86,174,,,,,,,,,,,,,,,,,,,,,,,,,,,,1220.190710734576,None,1220.190710734576,None,1220.5737040434033,None,1220.5737040434033,None,3,1220.5737040434033,None,return,3.8040168080478907,1220.5737040434033,None,,,JIRUJING,F,002,2023_Apr_17_2041,untitled,2021.1.4,60.025610824148764,
18,36,0,18,54,18,72,0.5,0.67,0.33,0.0,0.33,0.33,,stimuli/P_18_36_00_18.png,,,,,0,87,87,178,,,,,,,,,,,,,,,,,,,,,,,,,,,,1224.4047072101384,None,1224.4047072101384,None,1224.7878017816693,None,1224.7878017816693,None,25,1224.7878017816693,None,return,5.188523929566145,1224.7878017816693,None,,,JIRUJING,F,002,2023_Apr_17_2041,untitled,2021.1.4,60.025610824148764,
9,18,9,36,27,18,72,0.75,0.67,0.33,0.2,0.13,0.17,,stimuli/P_09_18_09_36.png,,,,,0,88,88,103,,,,,,,,,,,,,,,,,,,,,,,,,,,,1230.0130520071834,None,1230.0130520071834,None,1230.3961630742997,None,1230.3961630742997,None,10,1230.3961630742997,None,return,4.240324629470706,1230.3961630742997,None,,,JIRUJING,F,002,2023_Apr_17_2041,untitled,2021.1.4,60.025610824148764,
9,36,9,18,45,18,72,0.5,0.8,0.2,0.33,-0.13,-0.2,,stimuli/P_09_36_09_18.png,,,,,0,89,89,118,,,,,,,,,,,,,,,,,,,,,,,,,,,,1234.6617253012955,None,1234.6617253012955,None,1235.0430904515088,None,1235.0430904515088,None,10,1235.0430904515088,None,return,5.400812599807978,1235.0430904515088,None,,,JIRUJING,F,002,2023_Apr_17_2041,untitled,2021.1.4,60.025610824148764,
36,0,0,9,36,36,45,1.0,0.0,1.0,0.0,1.0,1.0,,stimuli/P_36_00_00_09.png,,,,,0,90,90,193,,,,,,,,,,,,,,,,,,,,,,,,,,,,1240.4749296568334,None,1240.4749296568334,None,1240.8570719081908,None,1240.8570719081908,None,75,1240.8570719081908,None,return,4.176472596824169,1240.8570719081908,None,,,JIRUJING,F,002,2023_Apr_17_2041,untitled,2021.1.4,60.025610824148764,
0,9,36,18,9,36,63,0.86,1.0,0.0,0.67,-0.67,-2.0,,stimuli/P_00_09_36_18.png,,,,,0,91,91,30,,,,,,,,,,,,,,,,,,,,,,,,,,,,1245.062488976866,None,1245.062488976866,None,1245.43999478966,None,1245.43999478966,None,0,1245.43999478966,None,return,2.513314263895154,1245.43999478966,None,,,JIRUJING,F,002,2023_Apr_17_2041,untitled,2021.1.4,60.025610824148764,
9,36,18,0,45,27,63,0.43,0.8,0.2,1.0,-0.8,#NAME?,,stimuli/P_09_36_18_00.png,,,,,0,92,92,120,,,,,,,,,,,,,,,,,,,,,,,,,,,,1247.99512860924,None,1247.99512860924,None,1248.3769272509962,None,1248.3769272509962,None,15,1248.3769272509962,None,return,3.595655171200633,1248.3769272509962,None,,,JIRUJING,F,002,2023_Apr_17_2041,untitled,2021.1.4,60.025610824148764,
9,0,9,18,9,18,36,1.0,0.0,1.0,0.33,0.67,1.0,,stimuli/P_09_00_09_18.png,,,,,0,93,93,70,,,,,,,,,,,,,,,,,,,,,,,,,,,,1251.9939089119434,None,1251.9939089119434,None,1252.3740850854665,None,1252.3740850854665,None,55,1252.3740850854665,None,return,4.229880977421999,1252.3740850854665,None,,,JIRUJING,F,002,2023_Apr_17_2041,untitled,2021.1.4,60.025610824148764,
0,18,18,0,18,18,36,0.5,1.0,0.0,1.0,-1.0,#NAME?,,stimuli/P_00_18_18_00.png,,,,,0,94,94,40,,,,,,,,,,,,,,,,,,,,,,,,,,,,1256.64036183618,None,1256.64036183618,None,1257.0173425637186,None,1257.0173425637186,None,0,1257.0173425637186,None,return,1.3302089981734753,1257.0173425637186,None,,,JIRUJING,F,002,2023_Apr_17_2041,untitled,2021.1.4,60.025610824148764,
0,18,9,36,18,9,63,0.71,1.0,0.0,0.2,-0.2,-0.25,,stimuli/P_00_18_09_36.png,,,,,0,95,95,39,,,,,,,,,,,,,,,,,,,,,,,,,,,,1258.3812809549272,None,1258.3812809549272,None,1258.7570869270712,None,1258.7570869270712,None,0,1258.7570869270712,None,return,1.3276251070201397,1258.7570869270712,None,,,JIRUJING,F,002,2023_Apr_17_2041,untitled,2021.1.4,60.025610824148764,
0,18,9,18,18,9,45,0.6,1.0,0.0,0.33,-0.33,-0.5,,stimuli/P_00_18_09_18.png,,,,,0,96,96,38,,,,,,,,,,,,,,,,,,,,,,,,,,,,1260.1185677219182,None,1260.1185677219182,None,1260.5043912492692,None,1260.5043912492692,None,0,1260.5043912492692,None,return,1.34805104508996,1260.5043912492692,None,,,JIRUJING,F,002,2023_Apr_17_2041,untitled,2021.1.4,60.025610824148764,
18,0,0,36,18,18,54,1.0,0.0,1.0,0.0,1.0,1.0,,stimuli/P_18_00_00_36.png,,,,,0,97,97,131,,,,,,,,,,,,,,,,,,,,,,,,,,,,1261.8755892254412,None,1261.8755892254412,None,1262.2554508037865,None,1262.2554508037865,None,35,1262.2554508037865,None,return,6.3277883771806955,1262.2554508037865,None,,,JIRUJING,F,002,2023_Apr_17_2041,untitled,2021.1.4,60.025610824148764,
18,18,18,18,36,36,72,0.75,0.5,0.5,0.5,0.0,0.0,,stimuli/P_18_18_18_18.png,,,,,0,98,98,170,,,,,,,,,,,,,,,,,,,,,,,,,,,,1268.6156265679747,None,1268.6156265679747,None,1268.9977984018624,None,1268.9977984018624,None,25,1268.9977984018624,None,return,2.800819654017687,1268.9977984018624,None,,,JIRUJING,F,002,2023_Apr_17_2041,untitled,2021.1.4,60.025610824148764,
0,36,18,36,36,18,90,0.6,1.0,0.0,0.33,-0.33,-0.5,,stimuli/P_00_36_18_36.png,,,,,0,99,99,59,,,,,,,,,,,,,,,,,,,,,,,,,,,,1271.8271148148924,None,1271.8271148148924,None,1272.205302722752,None,1272.205302722752,None,0,1272.205302722752,None,return,2.820343904197216,1272.205302722752,None,,,JIRUJING,F,002,2023_Apr_17_2041,untitled,2021.1.4,60.025610824148764,
9,9,36,9,18,45,63,0.86,0.5,0.5,0.8,-0.3,-1.5,,stimuli/P_09_09_36_09.png,,,,,0,100,100,93,,,,,,,,,,,,,,,,,,,,,,,,,,,,1275.0634083021432,None,1275.0634083021432,None,1275.4440640471876,None,1275.4440640471876,None,20,1275.4440640471876,None,return,5.915229938924313,1275.4440640471876,None,,,JIRUJING,F,002,2023_Apr_17_2041,untitled,2021.1.4,60.025610824148764,
18,0,18,36,18,36,72,1.0,0.0,1.0,0.33,0.67,1.0,,stimuli/P_18_00_18_36.png,,,,,0,101,101,139,,,,,,,,,,,,,,,,,,,,,,,,,,,,1281.3903871513903,None,1281.3903871513903,None,1281.7672080211341,None,1281.7672080211341,None,15,1281.7672080211341,None,return,5.058351451531053,1281.7672080211341,None,,,JIRUJING,F,002,2023_Apr_17_2041,untitled,2021.1.4,60.025610824148764,
0,36,36,9,36,36,81,0.56,1.0,0.0,0.8,-0.8,-4.0,,stimuli/P_00_36_36_09.png,,,,,0,102,102,61,,,,,,,,,,,,,,,,,,,,,,,,,,,,1286.859113080427,None,1286.859113080427,None,1287.2402603458613,None,1287.2402603458613,None,0,1287.2402603458613,None,return,1.5513137336820364,1287.2402603458613,None,,,JIRUJING,F,002,2023_Apr_17_2041,untitled,2021.1.4,60.025610824148764,
9,36,0,18,45,9,63,0.43,0.8,0.2,0.0,0.2,0.2,,stimuli/P_09_36_00_18.png,,,,,0,103,103,114,,,,,,,,,,,,,,,,,,,,,,,,,,,,1288.8281422257423,None,1288.8281422257423,None,1289.2074992004782,None,1289.2074992004782,None,15,1289.2074992004782,None,return,4.424593273550272,1289.2074992004782,None,,,JIRUJING,F,002,2023_Apr_17_2041,untitled,2021.1.4,60.025610824148764,
36,9,36,9,45,72,90,0.9,0.2,0.8,0.8,0.0,0.0,,stimuli/P_36_09_36_09.png,,,,,0,104,104,221,,,,,,,,,,,,,,,,,,,,,,,,,,,,1293.656996132806,None,1293.656996132806,None,1294.036787737161,None,1294.036787737161,None,45,1294.036787737161,None,return,4.630358502268791,1294.036787737161,None,,,JIRUJING,F,002,2023_Apr_17_2041,untitled,2021.1.4,60.025610824148764,
0,18,0,9,18,0,27,0.33,1.0,0.0,0.0,0.0,0.0,,stimuli/P_00_18_00_09.png,,,,,0,105,105,33,,,,,,,,,,,,,,,,,,,,,,,,,,,,1298.692778075114,None,1298.692778075114,None,1299.074194425717,None,1299.074194425717,None,0,1299.074194425717,None,return,1.084603376686573,1299.074194425717,None,,,JIRUJING,F,002,2023_Apr_17_2041,untitled,2021.1.4,60.025610824148764,
18,36,0,36,54,18,90,0.6,0.67,0.33,0.0,0.33,0.33,,stimuli/P_18_36_00_36.png,,,,,0,106,106,179,,,,,,,,,,,,,,,,,,,,,,,,,,,,1300.184161690995,None,1300.184161690995,None,1300.5695181619376,None,1300.5695181619376,None,30,1300.5695181619376,None,return,7.582584390416741,1300.5695181619376,None,,,JIRUJING,F,002,2023_Apr_17_2041,untitled,2021.1.4,60.025610824148764,
36,9,18,0,45,54,63,0.86,0.2,0.8,1.0,-0.2,#NAME?,,stimuli/P_36_09_18_00.png,,,,,0,107,107,216,,,,,,,,,,,,,,,,,,,,,,,,,,,,1308.1878970135003,None,1308.1878970135003,None,1308.5691540744156,None,1308.5691540744156,None,55,1308.5691540744156,None,return,3.661172343418002,1308.5691540744156,None,,,JIRUJING,F,002,2023_Apr_17_2041,untitled,2021.1.4,60.025610824148764,
9,18,18,36,27,27,81,0.78,0.67,0.33,0.33,0.0,0.0,,stimuli/P_09_18_18_36.png,,,,,0,108,108,107,,,,,,,,,,,,,,,,,,,,,,,,,,,,1312.2691428102553,None,1312.2691428102553,None,1312.6524660736322,None,1312.6524660736322,None,10,1312.6524660736322,None,return,4.094261396676302,1312.6524660736322,None,,,JIRUJING,F,002,2023_Apr_17_2041,untitled,2021.1.4,60.025610824148764,
36,36,9,36,72,45,117,0.69,0.5,0.5,0.2,0.3,0.37,,stimuli/P_36_36_09_36.png,,,,,0,109,109,247,,,,,,,,,,,,,,,,,,,,,,,,,,,,1316.7691843397915,None,1316.7691843397915,None,1317.1501410268247,None,1317.1501410268247,None,55,1317.1501410268247,None,return,3.620020093396306,1317.1501410268247,None,,,JIRUJING,F,002,2023_Apr_17_2041,untitled,2021.1.4,60.025610824148764,
36,0,0,36,36,36,72,1.0,0.0,1.0,0.0,1.0,1.0,,stimuli/P_36_00_00_36.png,,,,,0,110,110,195,,,,,,,,,,,,,,,,,,,,,,,,,,,,1320.7951586451381,None,1320.7951586451381,None,1321.1774328798056,None,1321.1774328798056,None,50,1321.1774328798056,None,return,3.7810285966843367,1321.1774328798056,None,,,JIRUJING,F,002,2023_Apr_17_2041,untitled,2021.1.4,60.025610824148764,
18,0,9,18,18,27,45,1.0,0.0,1.0,0.33,0.67,1.0,,stimuli/P_18_00_09_18.png,,,,,0,111,111,134,,,,,,,,,,,,,,,,,,,,,,,,,,,,1324.981157278642,None,1324.981157278642,None,1325.358841150999,None,1325.358841150999,None,75,1325.358841150999,None,return,5.107585899531841,1325.358841150999,None,,,JIRUJING,F,002,2023_Apr_17_2041,untitled,2021.1.4,60.025610824148764,
18,0,9,9,18,27,36,1.0,0.0,1.0,0.5,0.5,1.0,,stimuli/P_18_00_09_09.png,,,,,0,112,112,133,,,,,,,,,,,,,,,,,,,,,,,,,,,,1330.4876238331199,None,1330.4876238331199,None,1330.8702001459897,None,1330.8702001459897,None,45,1330.8702001459897,None,return,4.543428370729089,1330.8702001459897,None,,,JIRUJING,F,002,2023_Apr_17_2041,untitled,2021.1.4,60.025610824148764,
36,36,9,9,72,45,90,0.6,0.5,0.5,0.5,0.0,0.0,,stimuli/P_36_36_09_09.png,,,,,0,113,113,245,,,,,,,,,,,,,,,,,,,,,,,,,,,,1335.4390675015748,None,1335.4390675015748,None,1335.8190127052367,None,1335.8190127052367,None,65,1335.8190127052367,None,None,,1335.8190127052367,None,,,JIRUJING,F,002,2023_Apr_17_2041,untitled,2021.1.4,60.025610824148764,
36,0,0,18,36,36,54,1.0,0.0,1.0,0.0,1.0,1.0,,stimuli/P_36_00_00_18.png,,,,,0,114,114,194,,,,,,,,,,,,,,,,,,,,,,,,,,,,1343.8352686911821,None,1343.8352686911821,None,1344.2402068711817,None,1344.2402068711817,None,65,1344.2402068711817,None,return,4.618806084617972,1344.2402068711817,None,,,JIRUJING,F,002,2023_Apr_17_2041,untitled,2021.1.4,60.025610824148764,
9,0,36,0,9,45,45,1.0,0.0,1.0,1.0,0.0,None,,stimuli/P_09_00_36_00.png,,,,,0,115,115,76,,,,,,,,,,,,,,,,,,,,,,,,,,,,1348.8845605961978,None,1348.8845605961978,None,1349.2662943862379,None,1349.2662943862379,None,20,1349.2662943862379,None,return,4.117738852277398,1349.2662943862379,None,,,JIRUJING,F,002,2023_Apr_17_2041,untitled,2021.1.4,60.025610824148764,
18,36,36,18,54,54,108,0.67,0.67,0.33,0.67,-0.33,-1.0,,stimuli/P_18_36_36_18.png,,,,,0,116,116,190,,,,,,,,,,,,,,,,,,,,,,,,,,,,1353.406922461465,None,1353.406922461465,None,1353.7865672931075,None,1353.7865672931075,None,15,1353.7865672931075,None,return,6.314562290906906,1353.7865672931075,None,,,JIRUJING,F,002,2023_Apr_17_2041,untitled,2021.1.4,60.025610824148764,
9,9,36,36,18,45,90,0.9,0.5,0.5,0.5,0.0,0.0,,stimuli/P_09_09_36_36.png,,,,,0,117,117,95,,,,,,,,,,,,,,,,,,,,,,,,,,,,1360.126252265647,None,1360.126252265647,None,1360.5061462707818,None,1360.5061462707818,None,10,1360.5061462707818,None,return,5.257330980151892,1360.5061462707818,None,,,JIRUJING,F,002,2023_Apr_17_2041,untitled,2021.1.4,60.025610824148764,
36,0,36,9,36,72,81,1.0,0.0,1.0,0.8,0.2,1.0,,stimuli/P_36_00_36_09.png,,,,,0,118,118,205,,,,,,,,,,,,,,,,,,,,,,,,,,,,1365.7842536233366,None,1365.7842536233366,None,1366.162599682808,None,1366.162599682808,None,45,1366.162599682808,None,return,5.189278842881322,1366.162599682808,None,,,JIRUJING,F,002,2023_Apr_17_2041,untitled,2021.1.4,60.025610824148764,
36,9,9,18,45,45,72,0.88,0.2,0.8,0.33,0.47,0.7,,stimuli/P_36_09_09_18.png,,,,,0,119,119,214,,,,,,,,,,,,,,,,,,,,,,,,,,,,1371.3689753301442,None,1371.3689753301442,None,1371.7510749138892,None,1371.7510749138892,None,50,1371.7510749138892,None,return,5.151684420183301,1371.7510749138892,None,,,JIRUJING,F,002,2023_Apr_17_2041,untitled,2021.1.4,60.025610824148764,
0,9,9,9,9,9,27,0.67,1.0,0.0,0.5,-0.5,-1.0,,stimuli/P_00_09_09_09.png,,,,,0,120,120,21,,,,,,,,,,,,,,,,,,,,,,,,,,,,1376.918016353622,None,1376.918016353622,None,1377.2934064697474,None,1377.2934064697474,None,0,1377.2934064697474,None,return,1.771593013778329,1377.2934064697474,None,,,JIRUJING,F,002,2023_Apr_17_2041,untitled,2021.1.4,60.025610824148764,
0,18,36,18,18,36,72,0.75,1.0,0.0,0.67,-0.67,-2.0,,stimuli/P_00_18_36_18.png,,,,,0,121,121,46,,,,,,,,,,,,,,,,,,,,,,,,,,,,1379.098565036431,None,1379.098565036431,None,1379.476974811405,None,1379.476974811405,None,0,1379.476974811405,None,return,1.1372921131551266,1379.476974811405,None,,,JIRUJING,F,002,2023_Apr_17_2041,untitled,2021.1.4,60.025610824148764,
36,18,36,0,54,72,90,0.8,0.33,0.67,1.0,-0.33,#NAME?,,stimuli/P_36_18_36_00.png,,,,,0,122,122,236,,,,,,,,,,,,,,,,,,,,,,,,,,,,1380.6525297891349,None,1380.6525297891349,None,1381.0324374474585,None,1381.0324374474585,None,40,1381.0324374474585,None,return,5.551719920709729,1381.0324374474585,None,,,JIRUJING,F,002,2023_Apr_17_2041,untitled,2021.1.4,60.025610824148764,
0,0,36,9,0,36,45,1.0,None,None,0.8,None,None,,stimuli/P_00_00_36_09.png,,,,,0,123,123,13,,,,,,,,,,,,,,,,,,,,,,,,,,,,1386.6246024891734,None,1386.6246024891734,None,1387.0107724703848,None,1387.0107724703848,None,0,1387.0107724703848,None,return,0.9604451898485422,1387.0107724703848,None,,,JIRUJING,F,002,2023_Apr_17_2041,untitled,2021.1.4,60.025610824148764,
9,0,18,18,9,27,45,1.0,0.0,1.0,0.5,0.5,1.0,,stimuli/P_09_00_18_18.png,,,,,0,124,124,74,,,,,,,,,,,,,,,,,,,,,,,,,,,,1388.0046779699624,None,1388.0046779699624,None,1388.3900992944837,None,1388.3900992944837,None,20,1388.3900992944837,None,return,3.8850617855787277,1388.3900992944837,None,,,JIRUJING,F,002,2023_Apr_17_2041,untitled,2021.1.4,60.025610824148764,
9,0,9,36,9,18,54,1.0,0.0,1.0,0.2,0.8,1.0,,stimuli/P_09_00_09_36.png,,,,,0,125,125,71,,,,,,,,,,,,,,,,,,,,,,,,,,,,1392.3000937532634,None,1392.3000937532634,None,1392.6800554543734,None,1392.6800554543734,None,15,1392.6800554543734,None,return,4.112445913255215,1392.6800554543734,None,,,JIRUJING,F,002,2023_Apr_17_2041,untitled,2021.1.4,60.025610824148764,
0,9,0,9,9,0,18,0.5,1.0,0.0,0.0,0.0,0.0,,stimuli/P_00_09_00_09.png,,,,,0,126,126,17,,,,,,,,,,,,,,,,,,,,,,,,,,,,1396.8095378689468,None,1396.8095378689468,None,1397.1860902234912,None,1397.1860902234912,None,0,1397.1860902234912,None,return,1.1331944111734629,1397.1860902234912,None,,,JIRUJING,F,002,2023_Apr_17_2041,untitled,2021.1.4,60.025610824148764,
0,18,36,36,18,36,90,0.8,1.0,0.0,0.5,-0.5,-1.0,,stimuli/P_00_18_36_36.png,,,,,0,127,127,47,,,,,,,,,,,,,,,,,,,,,,,,,,,,1398.3382616136223,None,1398.3382616136223,None,1398.7174422312528,None,1398.7174422312528,None,0,1398.7174422312528,None,return,1.9876636546105146,1398.7174422312528,None,,,JIRUJING,F,002,2023_Apr_17_2041,untitled,2021.1.4,60.025610824148764,
0,36,0,0,36,0,36,0.0,1.0,0.0,None,None,None,,stimuli/P_00_36_00_00.png,,,,,0,128,128,48,,,,,,,,,,,,,,,,,,,,,,,,,,,,1400.7253668475896,None,1400.7253668475896,None,1401.10076322034,None,1401.10076322034,None,0,1401.10076322034,None,return,0.8659209664911032,1401.10076322034,None,,,JIRUJING,F,002,2023_Apr_17_2041,untitled,2021.1.4,60.025610824148764,
9,36,0,36,45,9,81,0.56,0.8,0.2,0.0,0.2,0.2,,stimuli/P_09_36_00_36.png,,,,,0,129,129,115,,,,,,,,,,,,,,,,,,,,,,,,,,,,1401.9949215333909,None,1401.9949215333909,None,1402.3725485168397,None,1402.3725485168397,None,5,1402.3725485168397,None,return,4.929453857243061,1402.3725485168397,None,,,JIRUJING,F,002,2023_Apr_17_2041,untitled,2021.1.4,60.025610824148764,
9,9,0,18,18,9,36,0.75,0.5,0.5,0.0,0.5,0.5,,stimuli/P_09_09_00_18.png,,,,,0,130,130,82,,,,,,,,,,,,,,,,,,,,,,,,,,,,1407.3295502252877,None,1407.3295502252877,None,1407.7119712326676,None,1407.7119712326676,None,40,1407.7119712326676,None,return,4.1923872493207455,1407.7119712326676,None,,,JIRUJING,F,002,2023_Apr_17_2041,untitled,2021.1.4,60.025610824148764,
18,9,18,18,27,36,63,0.86,0.33,0.67,0.5,0.17,0.33,,stimuli/P_18_09_18_18.png,,,,,0,131,131,154,,,,,,,,,,,,,,,,,,,,,,,,,,,,1411.921885933727,None,1411.921885933727,None,1412.298987833783,None,1412.298987833783,None,40,1412.298987833783,None,return,3.877147411927581,1412.298987833783,None,,,JIRUJING,F,002,2023_Apr_17_2041,untitled,2021.1.4,60.025610824148764,
36,9,9,9,45,45,63,0.86,0.2,0.8,0.5,0.3,0.6,,stimuli/P_36_09_09_09.png,,,,,0,132,132,213,,,,,,,,,,,,,,,,,,,,,,,,,,,,1416.2103914301842,None,1416.2103914301842,None,1416.6020705252886,None,1416.6020705252886,None,50,1416.6020705252886,None,return,4.798693718388677,1416.6020705252886,None,,,JIRUJING,F,002,2023_Apr_17_2041,untitled,2021.1.4,60.025610824148764,
9,9,0,0,18,9,18,0.5,0.5,0.5,None,None,None,,stimuli/P_09_09_00_00.png,,,,,0,133,133,80,,,,,,,,,,,,,,,,,,,,,,,,,,,,1421.4331669900566,None,1421.4331669900566,None,1421.8126280717552,None,1421.8126280717552,None,5,1421.8126280717552,None,return,1.5224602837115526,1421.8126280717552,None,,,JIRUJING,F,002,2023_Apr_17_2041,untitled,2021.1.4,60.025610824148764,
0,0,18,18,0,18,36,1.0,None,None,0.5,None,None,,stimuli/P_00_00_18_18.png,,,,,0,134,134,10,,,,,,,,,,,,,,,,,,,,,,,,,,,,1423.3542763907462,None,1423.3542763907462,None,1423.7345532570034,None,1423.7345532570034,None,0,1423.7345532570034,None,return,1.1390949208289385,1423.7345532570034,None,,,JIRUJING,F,002,2023_Apr_17_2041,untitled,2021.1.4,60.025610824148764,
9,9,0,36,18,9,54,0.83,0.5,0.5,0.0,0.5,0.5,,stimuli/P_09_09_00_36.png,,,,,0,135,135,83,,,,,,,,,,,,,,,,,,,,,,,,,,,,1424.9004422537982,None,1424.9004422537982,None,1425.278837237507,None,1425.278837237507,None,20,1425.278837237507,None,return,2.927090125158429,1425.278837237507,None,,,JIRUJING,F,002,2023_Apr_17_2041,untitled,2021.1.4,60.025610824148764,
36,18,18,0,54,54,72,0.75,0.33,0.67,1.0,-0.33,#NAME?,,stimuli/P_36_18_18_00.png,,,,,0,136,136,232,,,,,,,,,,,,,,,,,,,,,,,,,,,,1428.2391515821218,None,1428.2391515821218,None,1428.6180881485343,None,1428.6180881485343,None,40,1428.6180881485343,None,return,3.9261986762285233,1428.6180881485343,None,,,JIRUJING,F,002,2023_Apr_17_2041,untitled,2021.1.4,60.025610824148764,
0,18,0,18,18,0,36,0.5,1.0,0.0,0.0,0.0,0.0,,stimuli/P_00_18_00_18.png,,,,,0,137,137,34,,,,,,,,,,,,,,,,,,,,,,,,,,,,1432.5699630342424,None,1432.5699630342424,None,1432.94941842556,None,1432.94941842556,None,0,1432.94941842556,None,return,0.9322778172791004,1432.94941842556,None,,,JIRUJING,F,002,2023_Apr_17_2041,untitled,2021.1.4,60.025610824148764,
36,9,0,36,45,36,81,0.89,0.2,0.8,0.0,0.8,0.8,,stimuli/P_36_09_00_36.png,,,,,0,138,138,211,,,,,,,,,,,,,,,,,,,,,,,,,,,,1433.9011755511165,None,1433.9011755511165,None,1434.2822653595358,None,1434.2822653595358,None,45,1434.2822653595358,None,return,4.651971140876412,1434.2822653595358,None,,,JIRUJING,F,002,2023_Apr_17_2041,untitled,2021.1.4,60.025610824148764,
0,36,18,18,36,18,72,0.5,1.0,0.0,0.5,-0.5,-1.0,,stimuli/P_00_36_18_18.png,,,,,0,139,139,58,,,,,,,,,,,,,,,,,,,,,,,,,,,,1438.973147328943,None,1438.973147328943,None,1439.3541603386402,None,1439.3541603386402,None,0,1439.3541603386402,None,return,1.0771071333438158,1439.3541603386402,None,,,JIRUJING,F,002,2023_Apr_17_2041,untitled,2021.1.4,60.025610824148764,
36,18,0,9,54,36,63,0.71,0.33,0.67,0.0,0.67,0.67,,stimuli/P_36_18_00_09.png,,,,,0,140,140,225,,,,,,,,,,,,,,,,,,,,,,,,,,,,1440.4504452683032,None,1440.4504452683032,None,1440.8321153428406,None,1440.8321153428406,None,75,1440.8321153428406,None,return,6.186059504747391,1440.8321153428406,None,,,JIRUJING,F,002,2023_Apr_17_2041,untitled,2021.1.4,60.025610824148764,
0,0,9,18,0,9,27,1.0,None,None,0.33,None,None,,stimuli/P_00_00_09_18.png,,,,,0,141,141,6,,,,,,,,,,,,,,,,,,,,,,,,,,,,1447.051711956039,None,1447.051711956039,None,1447.4335657805204,None,1447.4335657805204,None,0,1447.4335657805204,None,return,1.1384987253695726,1447.4335657805204,None,,,JIRUJING,F,002,2023_Apr_17_2041,untitled,2021.1.4,60.025610824148764,
18,0,0,0,18,18,18,1.0,0.0,1.0,None,None,None,,stimuli/P_18_00_00_00.png,,,,,0,142,142,128,,,,,,,,,,,,,,,,,,,,,,,,,,,,1448.594581110403,None,1448.594581110403,None,1448.9677548371255,None,1448.9677548371255,None,100,1448.9677548371255,None,return,2.360567159950733,1448.9677548371255,None,,,JIRUJING,F,002,2023_Apr_17_2041,untitled,2021.1.4,60.025610824148764,
9,36,0,9,45,9,54,0.33,0.8,0.2,0.0,0.2,0.2,,stimuli/P_09_36_00_09.png,,,,,0,143,143,113,,,,,,,,,,,,,,,,,,,,,,,,,,,,1451.3513198774308,None,1451.3513198774308,None,1451.7345014885068,None,1451.7345014885068,None,20,1451.7345014885068,None,return,3.88502936065197,1451.7345014885068,None,,,JIRUJING,F,002,2023_Apr_17_2041,untitled,2021.1.4,60.025610824148764,
18,36,36,36,54,54,126,0.71,0.67,0.33,0.5,-0.17,-0.33,,stimuli/P_18_36_36_36.png,,,,,0,144,144,191,,,,,,,,,,,,,,,,,,,,,,,,,,,,1455.6553912982345,None,1455.6553912982345,None,1456.0406220462173,None,1456.0406220462173,None,15,1456.0406220462173,None,return,4.496857460588217,1456.0406220462173,None,,,JIRUJING,F,002,2023_Apr_17_2041,untitled,2021.1.4,60.025610824148764,
36,9,0,18,45,36,63,0.86,0.2,0.8,0.0,0.8,0.8,,stimuli/P_36_09_00_18.png,,,,,0,145,145,210,,,,,,,,,,,,,,,,,,,,,,,,,,,,1460.5654477663338,None,1460.5654477663338,None,1460.9414511434734,None,1460.9414511434734,None,65,1460.9414511434734,None,return,6.6301110368222,1460.9414511434734,None,,,JIRUJING,F,002,2023_Apr_17_2041,untitled,2021.1.4,60.025610824148764,
36,18,9,9,54,45,72,0.75,0.33,0.67,0.5,0.17,0.33,,stimuli/P_36_18_09_09.png,,,,,0,146,146,229,,,,,,,,,,,,,,,,,,,,,,,,,,,,1467.5891925990582,None,1467.5891925990582,None,1467.9734198264778,None,1467.9734198264778,None,65,1467.9734198264778,None,return,4.301168384030461,1467.9734198264778,None,,,JIRUJING,F,002,2023_Apr_17_2041,untitled,2021.1.4,60.025610824148764,
18,18,18,36,36,36,90,0.8,0.5,0.5,0.33,0.17,0.25,,stimuli/P_18_18_18_36.png,,,,,0,147,147,171,,,,,,,,,,,,,,,,,,,,,,,,,,,,1472.3023482579738,None,1472.3023482579738,None,1472.682761657983,None,1472.682761657983,None,25,1472.682761657983,None,return,5.446997804567218,1472.682761657983,None,,,JIRUJING,F,002,2023_Apr_17_2041,untitled,2021.1.4,60.025610824148764,
9,0,0,18,9,9,27,1.0,0.0,1.0,0.0,1.0,1.0,,stimuli/P_09_00_00_18.png,,,,,0,148,148,66,,,,,,,,,,,,,,,,,,,,,,,,,,,,1478.1641664020717,None,1478.1641664020717,None,1478.5428099893034,None,1478.5428099893034,None,25,1478.5428099893034,None,return,5.28406304679811,1478.5428099893034,None,,,JIRUJING,F,002,2023_Apr_17_2041,untitled,2021.1.4,60.025610824148764,
9,0,18,0,9,27,27,1.0,0.0,1.0,1.0,0.0,None,,stimuli/P_09_00_18_00.png,,,,,0,149,149,72,,,,,,,,,,,,,,,,,,,,,,,,,,,,1483.8711735140532,None,1483.8711735140532,None,1484.2948611173779,None,1484.2948611173779,None,25,1484.2948611173779,None,return,4.1776046846061945,1484.2948611173779,None,,,JIRUJING,F,002,2023_Apr_17_2041,untitled,2021.1.4,60.025610824148764,
18,18,36,0,36,54,72,0.75,0.5,0.5,1.0,-0.5,#NAME?,,stimuli/P_18_18_36_00.png,,,,,0,150,150,172,,,,,,,,,,,,,,,,,,,,,,,,,,,,1488.5077585000545,None,1488.5077585000545,None,1488.8889558278024,None,1488.8889558278024,None,15,1488.8889558278024,None,return,6.029284667223692,1488.8889558278024,None,,,JIRUJING,F,002,2023_Apr_17_2041,untitled,2021.1.4,60.025610824148764,
0,36,18,9,36,18,63,0.43,1.0,0.0,0.67,-0.67,-2.0,,stimuli/P_00_36_18_09.png,,,,,0,151,151,57,,,,,,,,,,,,,,,,,,,,,,,,,,,,1494.9459038320929,None,1494.9459038320929,None,1495.320090180263,None,1495.320090180263,None,0,1495.320090180263,None,return,2.144174525514245,1495.320090180263,None,,,JIRUJING,F,002,2023_Apr_17_2041,untitled,2021.1.4,60.025610824148764,
18,18,9,0,36,27,45,0.6,0.5,0.5,1.0,-0.5,#NAME?,,stimuli/P_18_18_09_00.png,,,,,0,152,152,164,,,,,,,,,,,,,,,,,,,,,,,,,,,,1497.499104000628,None,1497.499104000628,None,1497.8767873048782,None,1497.8767873048782,None,5,1497.8767873048782,None,return,3.984024476259947,1497.8767873048782,None,,,JIRUJING,F,002,2023_Apr_17_2041,untitled,2021.1.4,60.025610824148764,
36,0,18,18,36,54,72,1.0,0.0,1.0,0.5,0.5,1.0,,stimuli/P_36_00_18_18.png,,,,,0,153,153,202,,,,,,,,,,,,,,,,,,,,,,,,,,,,1501.8902107961476,None,1501.8902107961476,None,1502.273688228801,None,1502.273688228801,None,050,1502.273688228801,None,return,3.0930809509009123,1502.273688228801,None,,,JIRUJING,F,002,2023_Apr_17_2041,untitled,2021.1.4,60.025610824148764,
0,9,0,0,9,0,9,0.0,1.0,0.0,None,None,None,,stimuli/P_00_09_00_00.png,,,,,0,154,154,16,,,,,,,,,,,,,,,,,,,,,,,,,,,,1505.4003114085644,None,1505.4003114085644,None,1505.7753801029176,None,1505.7753801029176,None,0,1505.7753801029176,None,return,1.1854894775897264,1505.7753801029176,None,,,JIRUJING,F,002,2023_Apr_17_2041,untitled,2021.1.4,60.025610824148764,
36,36,18,18,72,54,108,0.67,0.5,0.5,0.5,0.0,0.0,,stimuli/P_36_36_18_18.png,,,,,0,155,155,250,,,,,,,,,,,,,,,,,,,,,,,,,,,,1506.9920099619776,None,1506.9920099619776,None,1507.3777106106281,None,1507.3777106106281,None,30,1507.3777106106281,None,return,4.708289386704564,1507.3777106106281,None,,,JIRUJING,F,002,2023_Apr_17_2041,untitled,2021.1.4,60.025610824148764,
9,9,9,18,18,18,45,0.8,0.5,0.5,0.33,0.17,0.25,,stimuli/P_09_09_09_18.png,,,,,0,156,156,86,,,,,,,,,,,,,,,,,,,,,,,,,,,,1512.1047664880753,None,1512.1047664880753,None,1512.4845717456192,None,1512.4845717456192,None,20,1512.4845717456192,None,return,4.5883483700454235,1512.4845717456192,None,,,JIRUJING,F,002,2023_Apr_17_2041,untitled,2021.1.4,60.025610824148764,
36,0,36,36,36,72,108,1.0,0.0,1.0,0.5,0.5,1.0,,stimuli/P_36_00_36_36.png,,,,,0,157,157,207,,,,,,,,,,,,,,,,,,,,,,,,,,,,1517.1039871107787,None,1517.1039871107787,None,1517.4887667298317,None,1517.4887667298317,None,30,1517.4887667298317,None,return,4.981180032715201,1517.4887667298317,None,,,JIRUJING,F,002,2023_Apr_17_2041,untitled,2021.1.4,60.025610824148764,
36,36,36,36,72,72,144,0.75,0.5,0.5,0.5,0.0,0.0,,stimuli/P_36_36_36_36.png,,,,,0,158,158,255,,,,,,,,,,,,,,,,,,,,,,,,,,,,1522.4997229520231,None,1522.4997229520231,None,1522.8786771520972,None,1522.8786771520972,None,25,1522.8786771520972,None,return,3.26040468364954,1522.8786771520972,None,,,JIRUJING,F,002,2023_Apr_17_2041,untitled,2021.1.4,60.025610824148764,
9,18,18,18,27,27,63,0.71,0.67,0.33,0.5,-0.17,-0.33,,stimuli/P_09_18_18_18.png,,,,,0,159,159,106,,,,,,,,,,,,,,,,,,,,,,,,,,,,1526.1714493110776,None,1526.1714493110776,None,1526.5536905489862,None,1526.5536905489862,None,20,1526.5536905489862,None,return,5.126533295959234,1526.5536905489862,None,,,JIRUJING,F,002,2023_Apr_17_2041,untitled,2021.1.4,60.025610824148764,
36,0,9,0,36,45,45,1.0,0.0,1.0,1.0,0.0,None,,stimuli/P_36_00_09_00.png,,,,,0,160,160,196,,,,,,,,,,,,,,,,,,,,,,,,,,,,1531.704361781478,None,1531.704361781478,None,1532.0773910097778,None,1532.0773910097778,None,75,1532.0773910097778,None,return,6.703331524506211,1532.0773910097778,None,,,JIRUJING,F,002,2023_Apr_17_2041,untitled,2021.1.4,60.025610824148764,
0,0,18,9,0,18,27,1.0,None,None,0.67,None,None,,stimuli/P_00_00_18_09.png,,,,,0,161,161,9,,,,,,,,,,,,,,,,,,,,,,,,,,,,1538.8009846322238,None,1538.8009846322238,None,1539.182105159387,None,1539.182105159387,None,0,1539.182105159387,None,return,1.2610981594771147,1539.182105159387,None,,,JIRUJING,F,002,2023_Apr_17_2041,untitled,2021.1.4,60.025610824148764,
9,36,36,9,45,45,90,0.6,0.8,0.2,0.8,-0.6,-3.0,,stimuli/P_09_36_36_09.png,,,,,0,162,162,125,,,,,,,,,,,,,,,,,,,,,,,,,,,,1540.4608229305595,None,1540.4608229305595,None,1540.847954902798,None,1540.847954902798,None,10,1540.847954902798,None,return,4.922358110547066,1540.847954902798,None,,,JIRUJING,F,002,2023_Apr_17_2041,untitled,2021.1.4,60.025610824148764,
9,18,0,18,27,9,45,0.6,0.67,0.33,0.0,0.33,0.33,,stimuli/P_09_18_00_18.png,,,,,0,163,163,98,,,,,,,,,,,,,,,,,,,,,,,,,,,,1545.792781829834,None,1545.792781829834,None,1546.1711068414152,None,1546.1711068414152,None,20,1546.1711068414152,None,return,3.4461882766336203,1546.1711068414152,None,,,JIRUJING,F,002,2023_Apr_17_2041,untitled,2021.1.4,60.025610824148764,
36,36,18,9,72,54,99,0.64,0.5,0.5,0.67,-0.17,-0.5,,stimuli/P_36_36_18_09.png,,,,,0,164,164,249,,,,,,,,,,,,,,,,,,,,,,,,,,,,1549.6416150964797,None,1549.6416150964797,None,1550.0265272669494,None,1550.0265272669494,None,10,1550.0265272669494,None,return,4.7898935824632645,1550.0265272669494,None,,,JIRUJING,F,002,2023_Apr_17_2041,untitled,2021.1.4,60.025610824148764,
9,18,0,36,27,9,63,0.71,0.67,0.33,0.0,0.33,0.33,,stimuli/P_09_18_00_36.png,,,,,0,165,165,99,,,,,,,,,,,,,,,,,,,,,,,,,,,,1554.849279275164,None,1554.849279275164,None,1555.2280127480626,None,1555.2280127480626,None,10,1555.2280127480626,None,return,2.4786638412624598,1555.2280127480626,None,,,JIRUJING,F,002,2023_Apr_17_2041,untitled,2021.1.4,60.025610824148764,
18,36,36,0,54,54,90,0.6,0.67,0.33,1.0,-0.67,#NAME?,,stimuli/P_18_36_36_00.png,,,,,0,166,166,188,,,,,,,,,,,,,,,,,,,,,,,,,,,,1557.7347717098892,None,1557.7347717098892,None,1558.1158273853362,None,1558.1158273853362,None,10,1558.1158273853362,None,return,4.567315995693207,1558.1158273853362,None,,,JIRUJING,F,002,2023_Apr_17_2041,untitled,2021.1.4,60.025610824148764,
9,36,18,9,45,27,72,0.5,0.8,0.2,0.67,-0.47,-1.4,,stimuli/P_09_36_18_09.png,,,,,0,167,167,121,,,,,,,,,,,,,,,,,,,,,,,,,,,,1562.7031568754464,None,1562.7031568754464,None,1563.085192175582,None,1563.085192175582,None,10,1563.085192175582,None,return,3.645543271675706,1563.085192175582,None,,,JIRUJING,F,002,2023_Apr_17_2041,untitled,2021.1.4,60.025610824148764,
18,9,9,0,27,27,36,0.75,0.33,0.67,1.0,-0.33,#NAME?,,stimuli/P_18_09_09_00.png,,,,,0,168,168,148,,,,,,,,,,,,,,,,,,,,,,,,,,,,1566.7588061075658,None,1566.7588061075658,None,1567.1398196853697,None,1567.1398196853697,None,45,1567.1398196853697,None,return,5.825417250394821,1567.1398196853697,None,,,JIRUJING,F,002,2023_Apr_17_2041,untitled,2021.1.4,60.025610824148764,
18,0,18,0,18,36,36,1.0,0.0,1.0,1.0,0.0,None,,stimuli/P_18_00_18_00.png,,,,,0,169,169,136,,,,,,,,,,,,,,,,,,,,,,,,,,,,1573.0003601070493,None,1573.0003601070493,None,1573.3783779162914,None,1573.3783779162914,None,50,1573.3783779162914,None,return,1.921404654160142,1573.3783779162914,None,,,JIRUJING,F,002,2023_Apr_17_2041,untitled,2021.1.4,60.025610824148764,
0,9,18,0,9,18,27,0.67,1.0,0.0,1.0,-1.0,#NAME?,,stimuli/P_00_09_18_00.png,,,,,0,170,170,24,,,,,,,,,,,,,,,,,,,,,,,,,,,,1575.3214225172997,None,1575.3214225172997,None,1575.7025766093284,None,1575.7025766093284,None,0,1575.7025766093284,None,return,1.3684126995503902,1575.7025766093284,None,,,JIRUJING,F,002,2023_Apr_17_2041,untitled,2021.1.4,60.025610824148764,
9,0,0,36,9,9,45,1.0,0.0,1.0,0.0,1.0,1.0,,stimuli/P_09_00_00_36.png,,,,,0,171,171,67,,,,,,,,,,,,,,,,,,,,,,,,,,,,1577.0918396376073,None,1577.0918396376073,None,1577.4705031365156,None,1577.4705031365156,None,20,1577.4705031365156,None,return,2.2908134758472443,1577.4705031365156,None,,,JIRUJING,F,002,2023_Apr_17_2041,untitled,2021.1.4,60.025610824148764,
18,36,18,9,54,36,81,0.56,0.67,0.33,0.67,-0.33,-1.0,,stimuli/P_18_36_18_09.png,,,,,0,172,172,185,,,,,,,,,,,,,,,,,,,,,,,,,,,,1579.7927556615323,None,1579.7927556615323,None,1580.174532117322,None,1580.174532117322,None,30,1580.174532117322,None,return,4.653073647990823,1580.174532117322,None,,,JIRUJING,F,002,2023_Apr_17_2041,untitled,2021.1.4,60.025610824148764,
18,0,9,0,18,27,27,1.0,0.0,1.0,1.0,0.0,None,,stimuli/P_18_00_09_00.png,,,,,0,173,173,132,,,,,,,,,,,,,,,,,,,,,,,,,,,,1584.863264258951,None,1584.863264258951,None,1585.2480854056776,None,1585.2480854056776,None,70,1585.2480854056776,None,return,5.013271030038595,1585.2480854056776,None,,,JIRUJING,F,002,2023_Apr_17_2041,untitled,2021.1.4,60.025610824148764,
18,0,36,36,18,54,90,1.0,0.0,1.0,0.5,0.5,1.0,,stimuli/P_18_00_36_36.png,,,,,0,174,174,143,,,,,,,,,,,,,,,,,,,,,,,,,,,,1590.281555954367,None,1590.281555954367,None,1590.6600140854716,None,1590.6600140854716,None,25,1590.6600140854716,None,return,4.757743993774056,1590.6600140854716,None,,,JIRUJING,F,002,2023_Apr_17_2041,untitled,2021.1.4,60.025610824148764,
0,36,9,0,36,9,45,0.2,1.0,0.0,1.0,-1.0,#NAME?,,stimuli/P_00_36_09_00.png,,,,,0,175,175,52,,,,,,,,,,,,,,,,,,,,,,,,,,,,1595.438560621813,None,1595.438560621813,None,1595.819185078144,None,1595.819185078144,None,0,1595.819185078144,None,return,1.6932166889309883,1595.819185078144,None,,,JIRUJING,F,002,2023_Apr_17_2041,untitled,2021.1.4,60.025610824148764,
9,18,18,0,27,27,45,0.6,0.67,0.33,1.0,-0.67,#NAME?,,stimuli/P_09_18_18_00.png,,,,,0,176,176,104,,,,,,,,,,,,,,,,,,,,,,,,,,,,1597.5416158940643,None,1597.5416158940643,None,1597.922329666093,None,1597.922329666093,None,2,1597.922329666093,None,return,2.899725455790758,1597.922329666093,None,,,JIRUJING,F,002,2023_Apr_17_2041,untitled,2021.1.4,60.025610824148764,
9,18,36,18,27,45,81,0.78,0.67,0.33,0.67,-0.33,-1.0,,stimuli/P_09_18_36_18.png,,,,,0,177,177,110,,,,,,,,,,,,,,,,,,,,,,,,,,,,1600.8440853245556,None,1600.8440853245556,None,1601.2264295313507,None,1601.2264295313507,None,015,1601.2264295313507,None,return,3.8436757251620293,1601.2264295313507,None,,,JIRUJING,F,002,2023_Apr_17_2041,untitled,2021.1.4,60.025610824148764,
0,36,18,0,36,18,54,0.33,1.0,0.0,1.0,-1.0,#NAME?,,stimuli/P_00_36_18_00.png,,,,,0,178,178,56,,,,,,,,,,,,,,,,,,,,,,,,,,,,1605.087509257719,None,1605.087509257719,None,1605.4667524546385,None,1605.4667524546385,None,0,1605.4667524546385,None,return,3.5309549253433943,1605.4667524546385,None,,,JIRUJING,F,002,2023_Apr_17_2041,untitled,2021.1.4,60.025610824148764,
9,18,36,9,27,45,72,0.75,0.67,0.33,0.8,-0.47,-2.33,,stimuli/P_09_18_36_09.png,,,,,0,179,179,109,,,,,,,,,,,,,,,,,,,,,,,,,,,,1609.0180616378784,None,1609.0180616378784,None,1609.4002602100372,None,1609.4002602100372,None,20,1609.4002602100372,None,return,5.49951303191483,1609.4002602100372,None,,,JIRUJING,F,002,2023_Apr_17_2041,untitled,2021.1.4,60.025610824148764,
9,9,9,0,18,18,27,0.67,0.5,0.5,1.0,-0.5,#NAME?,,stimuli/P_09_09_09_00.png,,,,,0,180,180,84,,,,,,,,,,,,,,,,,,,,,,,,,,,,1614.9299368411303,None,1614.9299368411303,None,1615.318464865908,None,1615.318464865908,None,30,1615.318464865908,None,return,2.7532526198774576,1615.318464865908,None,,,JIRUJING,F,002,2023_Apr_17_2041,untitled,2021.1.4,60.025610824148764,
18,18,36,9,36,54,81,0.78,0.5,0.5,0.8,-0.3,-1.5,,stimuli/P_18_18_36_09.png,,,,,0,181,181,173,,,,,,,,,,,,,,,,,,,,,,,,,,,,1618.104294879362,None,1618.104294879362,None,1618.4807852245867,None,1618.4807852245867,None,30,1618.4807852245867,None,return,5.618428912013769,1618.4807852245867,None,,,JIRUJING,F,002,2023_Apr_17_2041,untitled,2021.1.4,60.025610824148764,
9,18,0,0,27,9,27,0.33,0.67,0.33,None,None,None,,stimuli/P_09_18_00_00.png,,,,,0,182,182,96,,,,,,,,,,,,,,,,,,,,,,,,,,,,1624.130165649578,None,1624.130165649578,None,1624.5128386728466,None,1624.5128386728466,None,45,1624.5128386728466,None,return,2.966147158294916,1624.5128386728466,None,,,JIRUJING,F,002,2023_Apr_17_2041,untitled,2021.1.4,60.025610824148764,
18,9,36,18,27,54,81,0.89,0.33,0.67,0.67,0.0,0.0,,stimuli/P_18_09_36_18.png,,,,,0,183,183,158,,,,,,,,,,,,,,,,,,,,,,,,,,,,1627.5070337355137,None,1627.5070337355137,None,1627.8823242951185,None,1627.8823242951185,None,25,1627.8823242951185,None,return,4.506742466241121,1627.8823242951185,None,,,JIRUJING,F,002,2023_Apr_17_2041,untitled,2021.1.4,60.025610824148764,
36,18,36,18,54,72,108,0.83,0.33,0.67,0.67,0.0,0.0,,stimuli/P_36_18_36_18.png,,,,,0,184,184,238,,,,,,,,,,,,,,,,,,,,,,,,,,,,1632.4093652684242,None,1632.4093652684242,None,1632.79326595366,None,1632.79326595366,None,45,1632.79326595366,None,return,6.605136265978217,1632.79326595366,None,,,JIRUJING,F,002,2023_Apr_17_2041,untitled,2021.1.4,60.025610824148764,
36,36,0,18,72,36,90,0.6,0.5,0.5,0.0,0.5,0.5,,stimuli/P_36_36_00_18.png,,,,,0,185,185,242,,,,,,,,,,,,,,,,,,,,,,,,,,,,1639.4294902645051,None,1639.4294902645051,None,1639.8095099944621,None,1639.8095099944621,None,675,1639.8095099944621,None,return,5.228953689336777,1639.8095099944621,None,,,JIRUJING,F,002,2023_Apr_17_2041,untitled,2021.1.4,60.025610824148764,
0,9,9,0,9,9,18,0.5,1.0,0.0,1.0,-1.0,#NAME?,,stimuli/P_00_09_09_00.png,,,,,0,186,186,20,,,,,,,,,,,,,,,,,,,,,,,,,,,,1645.0607555750757,None,1645.0607555750757,None,1645.4407792855054,None,1645.4407792855054,None,0,1645.4407792855054,None,return,1.7667870428413153,1645.4407792855054,None,,,JIRUJING,F,002,2023_Apr_17_2041,untitled,2021.1.4,60.025610824148764,
9,0,9,9,9,18,27,1.0,0.0,1.0,0.5,0.5,1.0,,stimuli/P_09_00_09_09.png,,,,,0,187,187,69,,,,,,,,,,,,,,,,,,,,,,,,,,,,1647.237898889929,None,1647.237898889929,None,1647.6217062789947,None,1647.6217062789947,None,3,1647.6217062789947,None,return,6.631275551393628,1647.6217062789947,None,,,JIRUJING,F,002,2023_Apr_17_2041,untitled,2021.1.4,60.025610824148764,
18,0,9,36,18,27,63,1.0,0.0,1.0,0.2,0.8,1.0,,stimuli/P_18_00_09_36.png,,,,,0,188,188,135,,,,,,,,,,,,,,,,,,,,,,,,,,,,1654.279608650133,None,1654.279608650133,None,1654.6659197155386,None,1654.6659197155386,None,040,1654.6659197155386,None,return,3.613521112129092,1654.6659197155386,None,,,JIRUJING,F,002,2023_Apr_17_2041,untitled,2021.1.4,60.025610824148764,
36,36,0,36,72,36,108,0.67,0.5,0.5,0.0,0.5,0.5,,stimuli/P_36_36_00_36.png,,,,,0,189,189,243,,,,,,,,,,,,,,,,,,,,,,,,,,,,1658.3142380248755,None,1658.3142380248755,None,1658.6938885450363,None,1658.6938885450363,None,30,1658.6938885450363,None,return,2.721764076501131,1658.6938885450363,None,,,JIRUJING,F,002,2023_Apr_17_2041,untitled,2021.1.4,60.025610824148764,
36,9,0,0,45,36,45,0.8,0.2,0.8,None,None,None,,stimuli/P_36_09_00_00.png,,,,,0,190,190,208,,,,,,,,,,,,,,,,,,,,,,,,,,,,1661.4432255066931,None,1661.4432255066931,None,1661.8191321715713,None,1661.8191321715713,None,80,1661.8191321715713,None,return,5.809311451390386,1661.8191321715713,None,,,JIRUJING,F,002,2023_Apr_17_2041,untitled,2021.1.4,60.025610824148764,
18,9,0,0,27,18,27,0.67,0.33,0.67,None,None,None,,stimuli/P_18_09_00_00.png,,,,,0,191,191,144,,,,,,,,,,,,,,,,,,,,,,,,,,,,1667.6615711338818,None,1667.6615711338818,None,1668.04863313213,None,1668.04863313213,None,70,1668.04863313213,None,return,3.6464580446481705,1668.04863313213,None,,,JIRUJING,F,002,2023_Apr_17_2041,untitled,2021.1.4,60.025610824148764,
36,18,9,18,54,45,81,0.78,0.33,0.67,0.33,0.33,0.5,,stimuli/P_36_18_09_18.png,,,,,0,192,192,230,,,,,,,,,,,,,,,,,,,,,,,,,,,,1671.716378979385,None,1671.716378979385,None,1672.0947995632887,None,1672.0947995632887,None,60,1672.0947995632887,None,return,5.570486411452293,1672.0947995632887,None,,,JIRUJING,F,002,2023_Apr_17_2041,untitled,2021.1.4,60.025610824148764,
0,9,9,36,9,9,54,0.83,1.0,0.0,0.2,-0.2,-0.25,,stimuli/P_00_09_09_36.png,,,,,0,193,193,23,,,,,,,,,,,,,,,,,,,,,,,,,,,,1677.6852841079235,None,1677.6852841079235,None,1678.0668057035655,None,1678.0668057035655,None,0,1678.0668057035655,None,return,1.8384009916335344,1678.0668057035655,None,,,JIRUJING,F,002,2023_Apr_17_2041,untitled,2021.1.4,60.025610824148764,
0,18,18,18,18,18,54,0.67,1.0,0.0,0.5,-0.5,-1.0,,stimuli/P_00_18_18_18.png,,,,,0,194,194,42,,,,,,,,,,,,,,,,,,,,,,,,,,,,1679.9368238057941,None,1679.9368238057941,None,1680.3119903467596,None,1680.3119903467596,None,0,1680.3119903467596,None,return,1.1366555280983448,1680.3119903467596,None,,,JIRUJING,F,002,2023_Apr_17_2041,untitled,2021.1.4,60.025610824148764,
36,18,0,36,54,36,90,0.8,0.33,0.67,0.0,0.67,0.67,,stimuli/P_36_18_00_36.png,,,,,0,195,195,227,,,,,,,,,,,,,,,,,,,,,,,,,,,,1681.4710458554327,None,1681.4710458554327,None,1681.8496029730886,None,1681.8496029730886,None,30,1681.8496029730886,None,return,5.581468801945448,1681.8496029730886,None,,,JIRUJING,F,002,2023_Apr_17_2041,untitled,2021.1.4,60.025610824148764,
9,0,0,9,9,9,18,1.0,0.0,1.0,0.0,1.0,1.0,,stimuli/P_09_00_00_09.png,,,,,0,196,196,65,,,,,,,,,,,,,,,,,,,,,,,,,,,,1687.455140305683,None,1687.455140305683,None,1687.8354365136474,None,1687.8354365136474,None,50,1687.8354365136474,None,return,2.0100158490240574,1687.8354365136474,None,,,JIRUJING,F,002,2023_Apr_17_2041,untitled,2021.1.4,60.025610824148764,
0,18,9,9,18,9,36,0.5,1.0,0.0,0.5,-0.5,-1.0,,stimuli/P_00_18_09_09.png,,,,,0,197,197,37,,,,,,,,,,,,,,,,,,,,,,,,,,,,1689.8678364157677,None,1689.8678364157677,None,1690.2546230722219,None,1690.2546230722219,None,0,1690.2546230722219,None,return,1.167715696617961,1690.2546230722219,None,,,JIRUJING,F,002,2023_Apr_17_2041,untitled,2021.1.4,60.025610824148764,
36,9,36,36,45,72,117,0.92,0.2,0.8,0.5,0.3,0.6,,stimuli/P_36_09_36_36.png,,,,,0,198,198,223,,,,,,,,,,,,,,,,,,,,,,,,,,,,1691.4358703475446,None,1691.4358703475446,None,1691.8190758526325,None,1691.8190758526325,None,20,1691.8190758526325,None,return,3.817340172827244,1691.8190758526325,None,,,JIRUJING,F,002,2023_Apr_17_2041,untitled,2021.1.4,60.025610824148764,
36,36,36,9,72,72,117,0.69,0.5,0.5,0.8,-0.3,-1.5,,stimuli/P_36_36_36_09.png,,,,,0,199,199,253,,,,,,,,,,,,,,,,,,,,,,,,,,,,1695.6631168033928,None,1695.6631168033928,None,1696.0393062066287,None,1696.0393062066287,None,20,1696.0393062066287,None,return,4.974063239991665,1696.0393062066287,None,,,JIRUJING,F,002,2023_Apr_17_2041,untitled,2021.1.4,60.025610824148764,
0,18,9,0,18,9,27,0.33,1.0,0.0,1.0,-1.0,#NAME?,,stimuli/P_00_18_09_00.png,,,,,0,200,200,36,,,,,,,,,,,,,,,,,,,,,,,,,,,,1701.0477246176451,None,1701.0477246176451,None,1701.4305296242237,None,1701.4305296242237,None,0,1701.4305296242237,None,return,1.3460952062159777,1701.4305296242237,None,,,JIRUJING,F,002,2023_Apr_17_2041,untitled,2021.1.4,60.025610824148764,
9,36,18,36,45,27,99,0.64,0.8,0.2,0.33,-0.13,-0.2,,stimuli/P_09_36_18_36.png,,,,,0,201,201,123,,,,,,,,,,,,,,,,,,,,,,,,,,,,1702.805443579331,None,1702.805443579331,None,1703.1844882331789,None,1703.1844882331789,None,15,1703.1844882331789,None,return,7.014085676521063,1703.1844882331789,None,,,JIRUJING,F,002,2023_Apr_17_2041,untitled,2021.1.4,60.025610824148764,
9,0,18,36,9,27,63,1.0,0.0,1.0,0.33,0.67,1.0,,stimuli/P_09_00_18_36.png,,,,,0,202,202,75,,,,,,,,,,,,,,,,,,,,,,,,,,,,1710.220774780959,None,1710.220774780959,None,1710.6015334948897,None,1710.6015334948897,None,10,1710.6015334948897,None,return,4.85266131721437,1710.6015334948897,None,,,JIRUJING,F,002,2023_Apr_17_2041,untitled,2021.1.4,60.025610824148764,
18,0,36,9,18,54,63,1.0,0.0,1.0,0.8,0.2,1.0,,stimuli/P_18_00_36_09.png,,,,,0,203,203,141,,,,,,,,,,,,,,,,,,,,,,,,,,,,1715.4832422547042,None,1715.4832422547042,None,1715.8613550700247,None,1715.8613550700247,None,45,1715.8613550700247,None,return,4.1668885331600904,1715.8613550700247,None,,,JIRUJING,F,002,2023_Apr_17_2041,untitled,2021.1.4,60.025610824148764,
0,9,18,36,9,18,63,0.86,1.0,0.0,0.33,-0.33,-0.5,,stimuli/P_00_09_18_36.png,,,,,0,204,204,27,,,,,,,,,,,,,,,,,,,,,,,,,,,,1720.0619348809123,None,1720.0619348809123,None,1720.441683249548,None,1720.441683249548,None,0,1720.441683249548,None,return,2.391196109354496,1720.441683249548,None,,,JIRUJING,F,002,2023_Apr_17_2041,untitled,2021.1.4,60.025610824148764,
18,9,0,36,27,18,63,0.86,0.33,0.67,0.0,0.67,0.67,,stimuli/P_18_09_00_36.png,,,,,0,205,205,147,,,,,,,,,,,,,,,,,,,,,,,,,,,,1722.869184680283,None,1722.869184680283,None,1723.24756430462,None,1723.24756430462,None,35,1723.24756430462,None,return,4.07033508643508,1723.24756430462,None,,,JIRUJING,F,002,2023_Apr_17_2041,untitled,2021.1.4,60.025610824148764,
9,36,36,0,45,45,81,0.56,0.8,0.2,1.0,-0.8,#NAME?,,stimuli/P_09_36_36_00.png,,,,,0,206,206,124,,,,,,,,,,,,,,,,,,,,,,,,,,,,1727.350187221542,None,1727.350187221542,None,1727.7347597647458,None,1727.7347597647458,None,20,1727.7347597647458,None,return,4.729667643085122,1727.7347597647458,None,,,JIRUJING,F,002,2023_Apr_17_2041,untitled,2021.1.4,60.025610824148764,
0,36,9,9,36,9,54,0.33,1.0,0.0,0.5,-0.5,-1.0,,stimuli/P_00_36_09_09.png,,,,,0,207,207,53,,,,,,,,,,,,,,,,,,,,,,,,,,,,1732.498277405277,None,1732.498277405277,None,1732.8764180969447,None,1732.8764180969447,None,0,1732.8764180969447,None,return,1.5261040143668652,1732.8764180969447,None,,,JIRUJING,F,002,2023_Apr_17_2041,untitled,2021.1.4,60.025610824148764,
0,36,36,36,36,36,108,0.67,1.0,0.0,0.5,-0.5,-1.0,,stimuli/P_00_36_36_36.png,,,,,0,208,208,63,,,,,,,,,,,,,,,,,,,,,,,,,,,,1734.4278689324856,None,1734.4278689324856,None,1734.8073357027024,None,1734.8073357027024,None,0,1734.8073357027024,None,return,1.2815314922481775,1734.8073357027024,None,,,JIRUJING,F,002,2023_Apr_17_2041,untitled,2021.1.4,60.025610824148764,
36,9,36,0,45,72,81,0.89,0.2,0.8,1.0,-0.2,#NAME?,,stimuli/P_36_09_36_00.png,,,,,0,209,209,220,,,,,,,,,,,,,,,,,,,,,,,,,,,,1736.1187685392797,None,1736.1187685392797,None,1736.5004039108753,None,1736.5004039108753,None,,1736.5004039108753,None,None,,1736.5004039108753,None,,,JIRUJING,F,002,2023_Apr_17_2041,untitled,2021.1.4,60.025610824148764,
0,0,18,36,0,18,54,1.0,None,None,0.33,None,None,,stimuli/P_00_00_18_36.png,,,,,0,210,210,11,,,,,,,,,,,,,,,,,,,,,,,,,,,,1744.5145237203687,None,1744.5145237203687,None,1744.9141154866666,None,1744.9141154866666,None,400,1744.9141154866666,None,return,1.6727981474250555,1744.9141154866666,None,,,JIRUJING,F,002,2023_Apr_17_2041,untitled,2021.1.4,60.025610824148764,
18,18,9,36,36,27,81,0.78,0.5,0.5,0.2,0.3,0.37,,stimuli/P_18_18_09_36.png,,,,,0,211,211,167,,,,,,,,,,,,,,,,,,,,,,,,,,,,1746.6077042277902,None,1746.6077042277902,None,1746.9916959367692,None,1746.9916959367692,None,40,1746.9916959367692,None,return,5.0497913882136345,1746.9916959367692,None,,,JIRUJING,F,002,2023_Apr_17_2041,untitled,2021.1.4,60.025610824148764,
0,36,36,0,36,36,72,0.5,1.0,0.0,1.0,-1.0,#NAME?,,stimuli/P_00_36_36_00.png,,,,,0,212,212,60,,,,,,,,,,,,,,,,,,,,,,,,,,,,1752.0595694426447,None,1752.0595694426447,None,1752.4351700469851,None,1752.4351700469851,None,0,1752.4351700469851,None,return,1.254876796156168,1752.4351700469851,None,,,JIRUJING,F,002,2023_Apr_17_2041,untitled,2021.1.4,60.025610824148764,
18,36,9,18,54,27,81,0.56,0.67,0.33,0.33,0.0,0.0,,stimuli/P_18_36_09_18.png,,,,,0,213,213,182,,,,,,,,,,,,,,,,,,,,,,,,,,,,1753.711691338569,None,1753.711691338569,None,1754.0922486670315,None,1754.0922486670315,None,40,1754.0922486670315,None,return,4.2427873481065035,1754.0922486670315,None,,,JIRUJING,F,002,2023_Apr_17_2041,untitled,2021.1.4,60.025610824148764,
0,9,18,18,9,18,45,0.8,1.0,0.0,0.5,-0.5,-1.0,,stimuli/P_00_09_18_18.png,,,,,0,214,214,26,,,,,,,,,,,,,,,,,,,,,,,,,,,,1758.3722686246037,None,1758.3722686246037,None,1758.750243768096,None,1758.750243768096,None,0,1758.750243768096,None,return,1.4246666599065065,1758.750243768096,None,,,JIRUJING,F,002,2023_Apr_17_2041,untitled,2021.1.4,60.025610824148764,
36,0,36,18,36,72,90,1.0,0.0,1.0,0.67,0.33,1.0,,stimuli/P_36_00_36_18.png,,,,,0,215,215,206,,,,,,,,,,,,,,,,,,,,,,,,,,,,1760.1994369141757,None,1760.1994369141757,None,1760.5844611544162,None,1760.5844611544162,None,30,1760.5844611544162,None,return,3.5660462379455566,1760.5844611544162,None,,,JIRUJING,F,002,2023_Apr_17_2041,untitled,2021.1.4,60.025610824148764,
36,9,9,36,45,45,90,0.9,0.2,0.8,0.2,0.6,0.75,,stimuli/P_36_09_09_36.png,,,,,0,216,216,215,,,,,,,,,,,,,,,,,,,,,,,,,,,,1764.1853233613074,None,1764.1853233613074,None,1764.5678871590644,None,1764.5678871590644,None,40,1764.5678871590644,None,return,4.780677022412419,1764.5678871590644,None,,,JIRUJING,F,002,2023_Apr_17_2041,untitled,2021.1.4,60.025610824148764,
18,36,9,9,54,27,72,0.5,0.67,0.33,0.5,-0.17,-0.33,,stimuli/P_18_36_09_09.png,,,,,0,217,217,181,,,,,,,,,,,,,,,,,,,,,,,,,,,,1769.3655904438347,None,1769.3655904438347,None,1769.7439797390252,None,1769.7439797390252,None,3,1769.7439797390252,None,return,4.396359911188483,1769.7439797390252,None,,,JIRUJING,F,002,2023_Apr_17_2041,untitled,2021.1.4,60.025610824148764,
36,9,18,36,45,54,99,0.91,0.2,0.8,0.33,0.47,0.7,,stimuli/P_36_09_18_36.png,,,,,0,218,218,219,,,,,,,,,,,,,,,,,,,,,,,,,,,,1774.1715306621045,None,1774.1715306621045,None,1774.5559899974614,None,1774.5559899974614,None,040,1774.5559899974614,None,return,7.8495836313813925,1774.5559899974614,None,,,JIRUJING,F,002,2023_Apr_17_2041,untitled,2021.1.4,60.025610824148764,
0,0,9,9,0,9,18,1.0,None,None,0.5,None,None,,stimuli/P_00_00_09_09.png,,,,,0,219,219,5,,,,,,,,,,,,,,,,,,,,,,,,,,,,1782.425787370652,None,1782.425787370652,None,1782.8062104415148,None,1782.8062104415148,None,0,1782.8062104415148,None,return,4.005861826241016,1782.8062104415148,None,,,JIRUJING,F,002,2023_Apr_17_2041,untitled,2021.1.4,60.025610824148764,
0,9,36,36,9,36,81,0.89,1.0,0.0,0.5,-0.5,-1.0,,stimuli/P_00_09_36_36.png,,,,,0,220,220,31,,,,,,,,,,,,,,,,,,,,,,,,,,,,1786.8422210775316,None,1786.8422210775316,None,1787.2276412639767,None,1787.2276412639767,None,0,1787.2276412639767,None,return,1.0583560038357973,1787.2276412639767,None,,,JIRUJING,F,002,2023_Apr_17_2041,untitled,2021.1.4,60.025610824148764,
36,18,36,36,54,72,126,0.86,0.33,0.67,0.5,0.17,0.33,,stimuli/P_36_18_36_36.png,,,,,0,221,221,239,,,,,,,,,,,,,,,,,,,,,,,,,,,,1788.3082043938339,None,1788.3082043938339,None,1788.6848528906703,None,1788.6848528906703,None,23,1788.6848528906703,None,return,4.628706449642777,1788.6848528906703,None,,,JIRUJING,F,002,2023_Apr_17_2041,untitled,2021.1.4,60.025610824148764,
9,9,18,0,18,27,36,0.75,0.5,0.5,1.0,-0.5,#NAME?,,stimuli/P_09_09_18_00.png,,,,,0,222,222,88,,,,,,,,,,,,,,,,,,,,,,,,,,,,1793.337874200195,None,1793.337874200195,None,1793.7227681651711,None,1793.7227681651711,None,35,1793.7227681651711,None,return,6.563000977039337,1793.7227681651711,None,,,JIRUJING,F,002,2023_Apr_17_2041,untitled,2021.1.4,60.025610824148764,
18,36,36,9,54,54,99,0.64,0.67,0.33,0.8,-0.47,-2.33,,stimuli/P_18_36_36_09.png,,,,,0,223,223,189,,,,,,,,,,,,,,,,,,,,,,,,,,,,1800.327212093398,None,1800.327212093398,None,1800.7110063973814,None,1800.7110063973814,None,20,1800.7110063973814,None,return,5.296745844185352,1800.7110063973814,None,,,JIRUJING,F,002,2023_Apr_17_2041,untitled,2021.1.4,60.025610824148764,
36,0,18,9,36,54,63,1.0,0.0,1.0,0.67,0.33,1.0,,stimuli/P_36_00_18_09.png,,,,,0,224,224,201,,,,,,,,,,,,,,,,,,,,,,,,,,,,1806.0330734644085,None,1806.0330734644085,None,1806.4164729602635,None,1806.4164729602635,None,70,1806.4164729602635,None,return,5.086277615278959,1806.4164729602635,None,,,JIRUJING,F,002,2023_Apr_17_2041,untitled,2021.1.4,60.025610824148764,
9,9,0,9,18,9,27,0.67,0.5,0.5,0.0,0.5,0.5,,stimuli/P_09_09_00_09.png,,,,,0,225,225,81,,,,,,,,,,,,,,,,,,,,,,,,,,,,1811.536300200969,None,1811.536300200969,None,1811.9217869471759,None,1811.9217869471759,None,30,1811.9217869471759,None,return,1.9286648072302341,1811.9217869471759,None,,,JIRUJING,F,002,2023_Apr_17_2041,untitled,2021.1.4,60.025610824148764,
0,9,9,18,9,9,36,0.75,1.0,0.0,0.33,-0.33,-0.5,,stimuli/P_00_09_09_18.png,,,,,0,226,226,22,,,,,,,,,,,,,,,,,,,,,,,,,,,,1813.8857410401106,None,1813.8857410401106,None,1814.2616761494428,None,1814.2616761494428,None,0,1814.2616761494428,None,return,1.3010637070983648,1814.2616761494428,None,,,JIRUJING,F,002,2023_Apr_17_2041,untitled,2021.1.4,60.025610824148764,
36,0,18,36,36,54,90,1.0,0.0,1.0,0.33,0.67,1.0,,stimuli/P_36_00_18_36.png,,,,,0,227,227,203,,,,,,,,,,,,,,,,,,,,,,,,,,,,1815.580319646746,None,1815.580319646746,None,1815.9613446015865,None,1815.9613446015865,None,50,1815.9613446015865,None,return,5.264646315947175,1815.9613446015865,None,,,JIRUJING,F,002,2023_Apr_17_2041,untitled,2021.1.4,60.025610824148764,
18,0,36,0,18,54,54,1.0,0.0,1.0,1.0,0.0,None,,stimuli/P_18_00_36_00.png,,,,,0,228,228,140,,,,,,,,,,,,,,,,,,,,,,,,,,,,1821.2559599597007,None,1821.2559599597007,None,1821.6362629942596,None,1821.6362629942596,None,50,1821.6362629942596,None,return,4.764417622238398,1821.6362629942596,None,,,JIRUJING,F,002,2023_Apr_17_2041,untitled,2021.1.4,60.025610824148764,
9,9,36,0,18,45,54,0.83,0.5,0.5,1.0,-0.5,#NAME?,,stimuli/P_09_09_36_00.png,,,,,0,229,229,92,,,,,,,,,,,,,,,,,,,,,,,,,,,,1826.433582847938,None,1826.433582847938,None,1826.8155641034245,None,1826.8155641034245,None,20,1826.8155641034245,None,return,4.235853735357523,1826.8155641034245,None,,,JIRUJING,F,002,2023_Apr_17_2041,untitled,2021.1.4,60.025610824148764,
36,0,18,0,36,54,54,1.0,0.0,1.0,1.0,0.0,None,,stimuli/P_36_00_18_00.png,,,,,0,230,230,200,,,,,,,,,,,,,,,,,,,,,,,,,,,,1831.066501347348,None,1831.066501347348,None,1831.4453582689166,None,1831.4453582689166,None,60,1831.4453582689166,None,return,7.169341580942273,1831.4453582689166,None,,,JIRUJING,F,002,2023_Apr_17_2041,untitled,2021.1.4,60.025610824148764,
18,9,36,0,27,54,63,0.86,0.33,0.67,1.0,-0.33,#NAME?,,stimuli/P_18_09_36_00.png,,,,,0,231,231,156,,,,,,,,,,,,,,,,,,,,,,,,,,,,1838.640498938039,None,1838.640498938039,None,1839.0258315149695,None,1839.0258315149695,None,40,1839.0258315149695,None,return,4.500114347785711,1839.0258315149695,None,,,JIRUJING,F,002,2023_Apr_17_2041,untitled,2021.1.4,60.025610824148764,
0,0,0,0,0,0,0,None,None,None,None,None,None,,stimuli/P_00_00_00_00.png,,,,,0,232,232,0,,,,,,,,,,,,,,,,,,,,,,,,,,,,1843.5460845120251,None,1843.5460845120251,None,1843.9199773129076,None,1843.9199773129076,None,0,1843.9199773129076,None,return,5.237159334123135,1843.9199773129076,None,,,JIRUJING,F,002,2023_Apr_17_2041,untitled,2021.1.4,60.025610824148764,
18,9,9,9,27,27,45,0.8,0.33,0.67,0.5,0.17,0.33,,stimuli/P_18_09_09_09.png,,,,,0,233,233,149,,,,,,,,,,,,,,,,,,,,,,,,,,,,1849.171812262386,None,1849.171812262386,None,1849.5561174284667,None,1849.5561174284667,None,55,1849.5561174284667,None,return,7.492236379534006,1849.5561174284667,None,,,JIRUJING,F,002,2023_Apr_17_2041,untitled,2021.1.4,60.025610824148764,
9,36,36,36,45,45,117,0.69,0.8,0.2,0.5,-0.3,-0.6,,stimuli/P_09_36_36_36.png,,,,,0,234,234,127,,,,,,,,,,,,,,,,,,,,,,,,,,,,1857.066218610853,None,1857.066218610853,None,1857.4471872448921,None,1857.4471872448921,None,5,1857.4471872448921,None,return,5.919308299198747,1857.4471872448921,None,,,JIRUJING,F,002,2023_Apr_17_2041,untitled,2021.1.4,60.025610824148764,
36,9,36,18,45,72,99,0.91,0.2,0.8,0.67,0.13,0.4,,stimuli/P_36_09_36_18.png,,,,,0,235,235,222,,,,,,,,,,,,,,,,,,,,,,,,,,,,1863.403496047482,None,1863.403496047482,None,1863.7840761300176,None,1863.7840761300176,None,60,1863.7840761300176,None,return,6.915071219205856,1863.7840761300176,None,,,JIRUJING,F,002,2023_Apr_17_2041,untitled,2021.1.4,60.025610824148764,
18,36,9,36,54,27,99,0.64,0.67,0.33,0.2,0.13,0.17,,stimuli/P_18_36_09_36.png,,,,,0,236,236,183,,,,,,,,,,,,,,,,,,,,,,,,,,,,1870.7175708003342,None,1870.7175708003342,None,1871.0973032414913,None,1871.0973032414913,None,30,1871.0973032414913,None,return,4.758373752236366,1871.0973032414913,None,,,JIRUJING,F,002,2023_Apr_17_2041,untitled,2021.1.4,60.025610824148764,
9,0,36,9,9,45,54,1.0,0.0,1.0,0.8,0.2,1.0,,stimuli/P_09_00_36_09.png,,,,,0,237,237,77,,,,,,,,,,,,,,,,,,,,,,,,,,,,1875.8790042623878,None,1875.8790042623878,None,1876.2570095583797,None,1876.2570095583797,None,20,1876.2570095583797,None,return,2.666833920404315,1876.2570095583797,None,,,JIRUJING,F,002,2023_Apr_17_2041,untitled,2021.1.4,60.025610824148764,
0,0,0,9,0,0,9,1.0,None,None,0.0,None,None,,stimuli/P_00_00_00_09.png,,,,,0,238,238,1,,,,,,,,,,,,,,,,,,,,,,,,,,,,1878.9636838715523,None,1878.9636838715523,None,1879.3426773250103,None,1879.3426773250103,None,0,1879.3426773250103,None,return,1.1413664929568768,1879.3426773250103,None,,,JIRUJING,F,002,2023_Apr_17_2041,untitled,2021.1.4,60.025610824148764,
18,18,18,9,36,36,63,0.71,0.5,0.5,0.67,-0.17,-0.5,,stimuli/P_18_18_18_09.png,,,,,0,239,239,169,,,,,,,,,,,,,,,,,,,,,,,,,,,,1880.5207740981132,None,1880.5207740981132,None,1880.8970960527658,None,1880.8970960527658,None,40,1880.8970960527658,None,return,4.811083538457751,1880.8970960527658,None,,,JIRUJING,F,002,2023_Apr_17_2041,untitled,2021.1.4,60.025610824148764,
36,36,18,0,72,54,90,0.6,0.5,0.5,1.0,-0.5,#NAME?,,stimuli/P_36_36_18_00.png,,,,,0,240,240,248,,,,,,,,,,,,,,,,,,,,,,,,,,,,1885.748202027753,None,1885.748202027753,None,1886.1338429432362,None,1886.1338429432362,None,30,1886.1338429432362,None,return,4.08962950669229,1886.1338429432362,None,,,JIRUJING,F,002,2023_Apr_17_2041,untitled,2021.1.4,60.025610824148764,
36,9,0,9,45,36,54,0.83,0.2,0.8,0.0,0.8,0.8,,stimuli/P_36_09_00_09.png,,,,,0,241,241,209,,,,,,,,,,,,,,,,,,,,,,,,,,,,1890.24312469922,None,1890.24312469922,None,1890.6201640218496,None,1890.6201640218496,None,60,1890.6201640218496,None,return,7.6686680149286985,1890.6201640218496,None,,,JIRUJING,F,002,2023_Apr_17_2041,untitled,2021.1.4,60.025610824148764,
9,0,36,18,9,45,63,1.0,0.0,1.0,0.67,0.33,1.0,,stimuli/P_09_00_36_18.png,,,,,0,242,242,78,,,,,,,,,,,,,,,,,,,,,,,,,,,,1898.3060397747904,None,1898.3060397747904,None,1898.691012814641,None,1898.691012814641,None,20,1898.691012814641,None,return,3.5609649252146482,1898.691012814641,None,,,JIRUJING,F,002,2023_Apr_17_2041,untitled,2021.1.4,60.025610824148764,
36,0,36,0,36,72,72,1.0,0.0,1.0,1.0,0.0,None,,stimuli/P_36_00_36_00.png,,,,,0,243,243,204,,,,,,,,,,,,,,,,,,,,,,,,,,,,1902.2809665873647,None,1902.2809665873647,None,1902.661382831633,None,1902.661382831633,None,50,1902.661382831633,None,return,2.500772550702095,1902.661382831633,None,,,JIRUJING,F,002,2023_Apr_17_2041,untitled,2021.1.4,60.025610824148764,
0,18,36,0,18,36,54,0.67,1.0,0.0,1.0,-1.0,#NAME?,,stimuli/P_00_18_36_00.png,,,,,0,244,244,44,,,,,,,,,,,,,,,,,,,,,,,,,,,,1905.1850383486599,None,1905.1850383486599,None,1905.5684833545238,None,1905.5684833545238,None,0,1905.5684833545238,None,return,1.4785620085895061,1905.5684833545238,None,,,JIRUJING,F,002,2023_Apr_17_2041,untitled,2021.1.4,60.025610824148764,
18,18,36,36,36,54,108,0.83,0.5,0.5,0.5,0.0,0.0,,stimuli/P_18_18_36_36.png,,,,,0,245,245,175,,,,,,,,,,,,,,,,,,,,,,,,,,,,1907.0827795211226,None,1907.0827795211226,None,1907.4666659832,None,1907.4666659832,None,30,1907.4666659832,None,return,4.819853521883488,1907.4666659832,None,,,JIRUJING,F,002,2023_Apr_17_2041,untitled,2021.1.4,60.025610824148764,
18,9,0,9,27,18,36,0.75,0.33,0.67,0.0,0.67,0.67,,stimuli/P_18_09_00_09.png,,,,,0,246,246,145,,,,,,,,,,,,,,,,,,,,,,,,,,,,1912.304132860154,None,1912.304132860154,None,1912.6838601808995,None,1912.6838601808995,None,60,1912.6838601808995,None,return,4.11125010997057,1912.6838601808995,None,,,JIRUJING,F,002,2023_Apr_17_2041,untitled,2021.1.4,60.025610824148764,
9,9,36,18,18,45,72,0.88,0.5,0.5,0.67,-0.17,-0.5,,stimuli/P_09_09_36_18.png,,,,,0,247,247,94,,,,,,,,,,,,,,,,,,,,,,,,,,,,1916.8181599415839,None,1916.8181599415839,None,1917.2000433485955,None,1917.2000433485955,None,15,1917.2000433485955,None,return,6.137454815208912,1917.2000433485955,None,,,JIRUJING,F,002,2023_Apr_17_2041,untitled,2021.1.4,60.025610824148764,
0,0,18,0,0,18,18,1.0,None,None,1.0,None,None,,stimuli/P_00_00_18_00.png,,,,,0,248,248,8,,,,,,,,,,,,,,,,,,,,,,,,,,,,1923.3549852259457,None,1923.3549852259457,None,1923.7293479293585,None,1923.7293479293585,None,0,1923.7293479293585,None,return,0.9384388793259859,1923.7293479293585,None,,,JIRUJING,F,002,2023_Apr_17_2041,untitled,2021.1.4,60.025610824148764,
0,9,0,18,9,0,27,0.67,1.0,0.0,0.0,0.0,0.0,,stimuli/P_00_09_00_18.png,,,,,0,249,249,18,,,,,,,,,,,,,,,,,,,,,,,,,,,,1924.689593438059,None,1924.689593438059,None,1925.0631420612335,None,1925.0631420612335,None,0,1925.0631420612335,None,return,0.927231777459383,1925.0631420612335,None,,,JIRUJING,F,002,2023_Apr_17_2041,untitled,2021.1.4,60.025610824148764,
36,18,36,9,54,72,99,0.82,0.33,0.67,0.8,-0.13,-0.67,,stimuli/P_36_18_36_09.png,,,,,0,250,250,237,,,,,,,,,,,,,,,,,,,,,,,,,,,,1926.0201722141355,None,1926.0201722141355,None,1926.398518273607,None,1926.398518273607,None,55,1926.398518273607,None,return,6.846309676766396,1926.398518273607,None,,,JIRUJING,F,002,2023_Apr_17_2041,untitled,2021.1.4,60.025610824148764,
18,0,0,18,18,18,36,1.0,0.0,1.0,0.0,1.0,1.0,,stimuli/P_18_00_00_18.png,,,,,0,251,251,130,,,,,,,,,,,,,,,,,,,,,,,,,,,,1933.2631888240576,None,1933.2631888240576,None,1933.6462185420096,None,1933.6462185420096,None,50,1933.6462185420096,None,return,2.2720117140561342,1933.6462185420096,None,,,JIRUJING,F,002,2023_Apr_17_2041,untitled,2021.1.4,60.025610824148764,
36,18,18,18,54,54,90,0.8,0.33,0.67,0.5,0.17,0.33,,stimuli/P_36_18_18_18.png,,,,,0,252,252,234,,,,,,,,,,,,,,,,,,,,,,,,,,,,1935.9544354528189,None,1935.9544354528189,None,1936.3283356484026,None,1936.3283356484026,None,60,1936.3283356484026,None,return,5.842797929421067,1936.3283356484026,None,,,JIRUJING,F,002,2023_Apr_17_2041,untitled,2021.1.4,60.025610824148764,
18,9,18,0,27,36,45,0.8,0.33,0.67,1.0,-0.33,#NAME?,,stimuli/P_18_09_18_00.png,,,,,0,253,253,152,,,,,,,,,,,,,,,,,,,,,,,,,,,,1942.2032262794673,None,1942.2032262794673,None,1942.5837250128388,None,1942.5837250128388,None,65,1942.5837250128388,None,return,5.0930064264684916,1942.5837250128388,None,,,JIRUJING,F,002,2023_Apr_17_2041,untitled,2021.1.4,60.025610824148764,
0,0,36,18,0,36,54,1.0,None,None,0.67,None,None,,stimuli/P_00_00_36_18.png,,,,,0,254,254,14,,,,,,,,,,,,,,,,,,,,,,,,,,,,1947.7071703840047,None,1947.7071703840047,None,1948.0890759769827,None,1948.0890759769827,None,0,1948.0890759769827,None,return,1.0637649949640036,1948.0890759769827,None,,,JIRUJING,F,002,2023_Apr_17_2041,untitled,2021.1.4,60.025610824148764,
36,9,9,0,45,45,54,0.83,0.2,0.8,1.0,-0.2,#NAME?,,stimuli/P_36_09_09_00.png,,,,,0,255,255,212,,,,,,,,,,,,,,,,,,,,,,,,,,,,1949.1788954921067,None,1949.1788954921067,None,1949.5593498516828,None,1949.5593498516828,None,70,1949.5593498516828,None,return,4.43160311691463,1949.5593498516828,None,,,JIRUJING,F,002,2023_Apr_17_2041,untitled,2021.1.4,60.025610824148764,
,,,,,,,,,,,,,,,,,,,,,,,,,,,,,,,,,,,,,,,,,,,,,,,,,,,,,,,,,,,,,,,,,1954.0123824253678,None,,,,,,,,
