A1C1,A1C0,A0C1,A0C0,A1,C1,Total,MI,C0GvA1,C1GvA1,C1GvA0,dltP,dltPp,Image_practice,Image,trials_2.thisRepN,trials_2.thisTrialN,trials_2.thisN,trials_2.thisIndex,trials.thisRepN,trials.thisTrialN,trials.thisN,trials.thisIndex,image.started,image.stopped,key_resp.keys,key_resp.rt,key_resp.started,key_resp.stopped,betweenTrial.started,betweenTrial.stopped,ISI.started,ISI.stopped,image_card.started,image_card.stopped,textbox.text,textbox.started,textbox.stopped,key_resp_3.keys,key_resp_3.rt,key_resp_3.started,key_resp_3.stopped,text_2.started,text_2.stopped,key_resp_2.keys,key_resp_2.rt,key_resp_2.started,key_resp_2.stopped,image_endPractice.started,image_endPractice.stopped,polygon_2.started,polygon_2.stopped,ISI_2.started,ISI_2.stopped,Cards.started,Cards.stopped,TextNote.started,TextNote.stopped,Estimation.text,Estimation.started,Estimation.stopped,key_resp_4.keys,key_resp_4.rt,key_resp_4.started,key_resp_4.stopped,text.started,text.stopped,participant,gender,session,date,expName,psychopyVersion,frameRate,
,,,,,,,,,,,,,,,,,,,,,,,1325.5404812004417,None,space,202.17094939947128,1325.5404812004417,None,,,,,,,,,,,,,,,,,,,,,,,,,,,,,,,,,,,,,,,LIULIN,F,001,2023_Apr_18_1512,untitled,2021.1.4,47.51431210567246,
0,0,0,9,0,0,9,1.0,None,None,0.0,None,None,practice_stimuli/P_00_00_00_09.png,,0,0,0,0,,,,,,,,,,,1527.8757489994168,None,1527.8757489994168,None,None,None,0,1527.9096255004406,None,return,2.6129027996212244,1527.9096255004406,None,1527.9096255004406,None,,,,,,,,,,,,,,,,,,,,,,,,LIULIN,F,001,2023_Apr_18_1512,untitled,2021.1.4,47.51431210567246,
18,0,36,0,18,54,54,1.0,0.0,1.0,1.0,0.0,None,practice_stimuli/P_18_00_36_00.png,,0,1,1,1,,,,,,,,,,,1530.5534170009196,None,1530.5534170009196,None,1530.99634790048,None,,1530.99634790048,None,None,,1530.99634790048,None,1530.99634790048,None,,,,,,,,,,,,,,,,,,,,,,,,LIULIN,F,001,2023_Apr_18_1512,untitled,2021.1.4,47.51431210567246,
9,18,18,0,27,27,45,0.6,0.67,0.33,1.0,-0.67,#NAME?,practice_stimuli/P_09_18_18_00.png,,0,2,2,2,,,,,,,,,,,1539.0076556000859,None,1539.0076556000859,None,1539.4508565999568,None,50,1539.4508565999568,None,return,7.284118499606848,1539.4508565999568,None,1539.4508565999568,None,,,,,,,,,,,,,,,,,,,,,,,,LIULIN,F,001,2023_Apr_18_1512,untitled,2021.1.4,47.51431210567246,
36,18,18,36,54,54,108,0.83,0.33,0.67,0.33,0.33,0.5,practice_stimuli/P_36_18_18_36.png,,0,3,3,3,,,,,,,,,,,1546.7713108994067,None,1546.7713108994067,None,1547.15417920053,None,70,1547.15417920053,None,return,6.0212511997669935,1547.15417920053,None,1547.15417920053,None,,,,,,,,,,,,,,,,,,,,,,,,LIULIN,F,001,2023_Apr_18_1512,untitled,2021.1.4,47.51431210567246,
,,,,,,,,,,,,,,,,,,,,,,,,,,,,,,,,,,,,,,,,,,,,space,54.758254401385784,1553.2120172996074,None,,,,,,,,,,,,,,,,,,,,LIULIN,F,001,2023_Apr_18_1512,untitled,2021.1.4,47.51431210567246,
0,36,0,9,36,0,45,0.2,1.0,0.0,0.0,0.0,0.0,,stimuli/P_00_36_00_09.png,,,,,0,0,0,49,,,,,,,,,,,,,,,,,,,,,,,,,,1553.2120172996074,None,1614.8472831994295,None,1614.8472831994295,None,1615.2971494998783,None,1615.2971494998783,None,0,1615.2971494998783,None,return,3.709655599668622,1615.2971494998783,None,,,LIULIN,F,001,2023_Apr_18_1512,untitled,2021.1.4,47.51431210567246,
0,36,9,18,36,9,63,0.43,1.0,0.0,0.33,-0.33,-0.5,,stimuli/P_00_36_09_18.png,,,,,0,1,1,54,,,,,,,,,,,,,,,,,,,,,,,,,,,,1619.0424722004682,None,1619.0424722004682,None,1619.4270936008543,None,1619.4270936008543,None,0,1619.4270936008543,None,return,4.106405200436711,1619.4270936008543,None,,,LIULIN,F,001,2023_Apr_18_1512,untitled,2021.1.4,47.51431210567246,
0,18,0,0,18,0,18,0.0,1.0,0.0,None,None,None,,stimuli/P_00_18_00_00.png,,,,,0,2,2,32,,,,,,,,,,,,,,,,,,,,,,,,,,,,1623.5744186993688,None,1623.5744186993688,None,1623.9525346998125,None,1623.9525346998125,None,0,1623.9525346998125,None,return,1.9919934011995792,1623.9525346998125,None,,,LIULIN,F,001,2023_Apr_18_1512,untitled,2021.1.4,47.51431210567246,
36,0,18,36,36,54,90,1.0,0.0,1.0,0.33,0.67,1.0,,stimuli/P_36_00_18_36.png,,,,,0,3,3,203,,,,,,,,,,,,,,,,,,,,,,,,,,,,1625.9721416998655,None,1625.9721416998655,None,1626.3600038010627,None,1626.3600038010627,None,100,1626.3600038010627,None,return,4.475619800388813,1626.3600038010627,None,,,LIULIN,F,001,2023_Apr_18_1512,untitled,2021.1.4,47.51431210567246,
36,36,9,36,72,45,117,0.69,0.5,0.5,0.2,0.3,0.37,,stimuli/P_36_36_09_36.png,,,,,0,4,4,247,,,,,,,,,,,,,,,,,,,,,,,,,,,,1630.8553934004158,None,1630.8553934004158,None,1631.237482700497,None,1631.237482700497,None,50,1631.237482700497,None,return,2.8027985990047455,1631.237482700497,None,,,LIULIN,F,001,2023_Apr_18_1512,untitled,2021.1.4,47.51431210567246,
0,9,9,9,9,9,27,0.67,1.0,0.0,0.5,-0.5,-1.0,,stimuli/P_00_09_09_09.png,,,,,0,5,5,21,,,,,,,,,,,,,,,,,,,,,,,,,,,,1634.0653789993376,None,1634.0653789993376,None,1634.4416096005589,None,1634.4416096005589,None,0,1634.4416096005589,None,return,3.555706700310111,1634.4416096005589,None,,,LIULIN,F,001,2023_Apr_18_1512,untitled,2021.1.4,47.51431210567246,
0,18,36,9,18,36,63,0.71,1.0,0.0,0.8,-0.8,-4.0,,stimuli/P_00_18_36_09.png,,,,,0,6,6,45,,,,,,,,,,,,,,,,,,,,,,,,,,,,1638.0183106008917,None,1638.0183106008917,None,1638.424911500886,None,1638.424911500886,None,0,1638.424911500886,None,return,2.253411401063204,1638.424911500886,None,,,LIULIN,F,001,2023_Apr_18_1512,untitled,2021.1.4,47.51431210567246,
36,0,0,18,36,36,54,1.0,0.0,1.0,0.0,1.0,1.0,,stimuli/P_36_00_00_18.png,,,,,0,7,7,194,,,,,,,,,,,,,,,,,,,,,,,,,,,,1640.7077696993947,None,1640.7077696993947,None,1641.0916929002851,None,1641.0916929002851,None,100,1641.0916929002851,None,return,2.5148320998996496,1641.0916929002851,None,,,LIULIN,F,001,2023_Apr_18_1512,untitled,2021.1.4,47.51431210567246,
18,0,9,9,18,27,36,1.0,0.0,1.0,0.5,0.5,1.0,,stimuli/P_18_00_09_09.png,,,,,0,8,8,133,,,,,,,,,,,,,,,,,,,,,,,,,,,,1643.6385197993368,None,1643.6385197993368,None,1644.0246089994907,None,1644.0246089994907,None,100,1644.0246089994907,None,return,3.0346677005290985,1644.0246089994907,None,,,LIULIN,F,001,2023_Apr_18_1512,untitled,2021.1.4,47.51431210567246,
36,18,9,9,54,45,72,0.75,0.33,0.67,0.5,0.17,0.33,,stimuli/P_36_18_09_09.png,,,,,0,9,9,229,,,,,,,,,,,,,,,,,,,,,,,,,,,,1647.0770353004336,None,1647.0770353004336,None,1647.4557524006814,None,1647.4557524006814,None,70,1647.4557524006814,None,return,4.769479598850012,1647.4557524006814,None,,,LIULIN,F,001,2023_Apr_18_1512,untitled,2021.1.4,47.51431210567246,
9,0,18,9,9,27,36,1.0,0.0,1.0,0.67,0.33,1.0,,stimuli/P_09_00_18_09.png,,,,,0,10,10,73,,,,,,,,,,,,,,,,,,,,,,,,,,,,1652.254769500345,None,1652.254769500345,None,1652.6363949999213,None,1652.6363949999213,None,100,1652.6363949999213,None,return,3.6332762986421585,1652.6363949999213,None,,,LIULIN,F,001,2023_Apr_18_1512,untitled,2021.1.4,47.51431210567246,
18,9,36,9,27,54,72,0.88,0.33,0.67,0.8,-0.13,-0.67,,stimuli/P_18_09_36_09.png,,,,,0,11,11,157,,,,,,,,,,,,,,,,,,,,,,,,,,,,1656.2984315995127,None,1656.2984315995127,None,1656.67064139992,None,1656.67064139992,None,60,1656.67064139992,None,return,3.267307300120592,1656.67064139992,None,,,LIULIN,F,001,2023_Apr_18_1512,untitled,2021.1.4,47.51431210567246,
0,18,9,18,18,9,45,0.6,1.0,0.0,0.33,-0.33,-0.5,,stimuli/P_00_18_09_18.png,,,,,0,12,12,38,,,,,,,,,,,,,,,,,,,,,,,,,,,,1659.9747212007642,None,1659.9747212007642,None,1660.3506396003067,None,1660.3506396003067,None,0,1660.3506396003067,None,return,2.5587239991873503,1660.3506396003067,None,,,LIULIN,F,001,2023_Apr_18_1512,untitled,2021.1.4,47.51431210567246,
36,18,9,0,54,45,63,0.71,0.33,0.67,1.0,-0.33,#NAME?,,stimuli/P_36_18_09_00.png,,,,,0,13,13,228,,,,,,,,,,,,,,,,,,,,,,,,,,,,1662.941817900166,None,1662.941817900166,None,1663.3281334992498,None,1663.3281334992498,None,70,1663.3281334992498,None,return,3.832166900858283,1663.3281334992498,None,,,LIULIN,F,001,2023_Apr_18_1512,untitled,2021.1.4,47.51431210567246,
36,0,18,9,36,54,63,1.0,0.0,1.0,0.67,0.33,1.0,,stimuli/P_36_00_18_09.png,,,,,0,14,14,201,,,,,,,,,,,,,,,,,,,,,,,,,,,,1667.1839731000364,None,1667.1839731000364,None,1667.5539743993431,None,1667.5539743993431,None,100,1667.5539743993431,None,return,3.0100007988512516,1667.5539743993431,None,,,LIULIN,F,001,2023_Apr_18_1512,untitled,2021.1.4,47.51431210567246,
18,0,18,18,18,36,54,1.0,0.0,1.0,0.5,0.5,1.0,,stimuli/P_18_00_18_18.png,,,,,0,15,15,138,,,,,,,,,,,,,,,,,,,,,,,,,,,,1670.5980906002223,None,1670.5980906002223,None,1670.9710638001561,None,1670.9710638001561,None,100,1670.9710638001561,None,return,2.669351600110531,1670.9710638001561,None,,,LIULIN,F,001,2023_Apr_18_1512,untitled,2021.1.4,47.51431210567246,
0,18,18,9,18,18,45,0.6,1.0,0.0,0.67,-0.67,-2.0,,stimuli/P_00_18_18_09.png,,,,,0,16,16,41,,,,,,,,,,,,,,,,,,,,,,,,,,,,1673.6695544999093,None,1673.6695544999093,None,1674.0749654006213,None,1674.0749654006213,None,0,1674.0749654006213,None,return,4.352010298520327,1674.0749654006213,None,,,LIULIN,F,001,2023_Apr_18_1512,untitled,2021.1.4,47.51431210567246,
9,18,18,0,27,27,45,0.6,0.67,0.33,1.0,-0.67,#NAME?,,stimuli/P_09_18_18_00.png,,,,,0,17,17,104,,,,,,,,,,,,,,,,,,,,,,,,,,,,1678.4501041006297,None,1678.4501041006297,None,1678.8291507996619,None,1678.8291507996619,None,40,1678.8291507996619,None,return,4.282072199508548,1678.8291507996619,None,,,LIULIN,F,001,2023_Apr_18_1512,untitled,2021.1.4,47.51431210567246,
36,36,36,18,72,72,126,0.71,0.5,0.5,0.67,-0.17,-0.5,,stimuli/P_36_36_36_18.png,,,,,0,18,18,254,,,,,,,,,,,,,,,,,,,,,,,,,,,,1683.1401288006455,None,1683.1401288006455,None,1683.5252637006342,None,1683.5252637006342,None,50,1683.5252637006342,None,return,3.058456100523472,1683.5252637006342,None,,,LIULIN,F,001,2023_Apr_18_1512,untitled,2021.1.4,47.51431210567246,
9,18,0,18,27,9,45,0.6,0.67,0.33,0.0,0.33,0.33,,stimuli/P_09_18_00_18.png,,,,,0,19,19,98,,,,,,,,,,,,,,,,,,,,,,,,,,,,1686.6196593008935,None,1686.6196593008935,None,1686.9880318008363,None,1686.9880318008363,None,40,1686.9880318008363,None,return,3.4523127004504204,1686.9880318008363,None,,,LIULIN,F,001,2023_Apr_18_1512,untitled,2021.1.4,47.51431210567246,
9,0,36,36,9,45,81,1.0,0.0,1.0,0.5,0.5,1.0,,stimuli/P_09_00_36_36.png,,,,,0,20,20,79,,,,,,,,,,,,,,,,,,,,,,,,,,,,1690.4738766998053,None,1690.4738766998053,None,1690.8441401999444,None,1690.8441401999444,None,100,1690.8441401999444,None,return,2.401020700111985,1690.8441401999444,None,,,LIULIN,F,001,2023_Apr_18_1512,untitled,2021.1.4,47.51431210567246,
0,36,9,0,36,9,45,0.2,1.0,0.0,1.0,-1.0,#NAME?,,stimuli/P_00_36_09_00.png,,,,,0,21,21,52,,,,,,,,,,,,,,,,,,,,,,,,,,,,1693.2850069999695,None,1693.2850069999695,None,1694.8894350007176,None,1694.8894350007176,None,0,1694.8894350007176,None,return,2.0802686996757984,1694.8894350007176,None,,,LIULIN,F,001,2023_Apr_18_1512,untitled,2021.1.4,47.51431210567246,
18,18,0,18,36,18,54,0.67,0.5,0.5,0.0,0.5,0.5,,stimuli/P_18_18_00_18.png,,,,,0,22,22,162,,,,,,,,,,,,,,,,,,,,,,,,,,,,1696.9923276994377,None,1696.9923276994377,None,1697.3684842009097,None,1697.3684842009097,None,50,1697.3684842009097,None,return,2.3930649012327194,1697.3684842009097,None,,,LIULIN,F,001,2023_Apr_18_1512,untitled,2021.1.4,47.51431210567246,
18,9,36,36,27,54,99,0.91,0.33,0.67,0.5,0.17,0.33,,stimuli/P_18_09_36_36.png,,,,,0,23,23,159,,,,,,,,,,,,,,,,,,,,,,,,,,,,1699.8029268998653,None,1699.8029268998653,None,1700.181708700955,None,1700.181708700955,None,60,1700.181708700955,None,return,3.3635392989963293,1700.181708700955,None,,,LIULIN,F,001,2023_Apr_18_1512,untitled,2021.1.4,47.51431210567246,
18,36,0,9,54,18,63,0.43,0.67,0.33,0.0,0.33,0.33,,stimuli/P_18_36_00_09.png,,,,,0,24,24,177,,,,,,,,,,,,,,,,,,,,,,,,,,,,1703.5820592995733,None,1703.5820592995733,None,1703.9525438006967,None,1703.9525438006967,None,30,1703.9525438006967,None,return,2.900142900645733,1703.9525438006967,None,,,LIULIN,F,001,2023_Apr_18_1512,untitled,2021.1.4,47.51431210567246,
36,36,9,0,72,45,81,0.56,0.5,0.5,1.0,-0.5,#NAME?,,stimuli/P_36_36_09_00.png,,,,,0,25,25,244,,,,,,,,,,,,,,,,,,,,,,,,,,,,1706.8869292009622,None,1706.8869292009622,None,1707.2606148999184,None,1707.2606148999184,None,50,1707.2606148999184,None,return,2.418529899790883,1707.2606148999184,None,,,LIULIN,F,001,2023_Apr_18_1512,untitled,2021.1.4,47.51431210567246,
36,18,0,18,54,36,72,0.75,0.33,0.67,0.0,0.67,0.67,,stimuli/P_36_18_00_18.png,,,,,0,26,26,226,,,,,,,,,,,,,,,,,,,,,,,,,,,,1709.7021634001285,None,1709.7021634001285,None,1710.081717999652,None,1710.081717999652,None,70,1710.081717999652,None,return,3.181129200384021,1710.081717999652,None,,,LIULIN,F,001,2023_Apr_18_1512,untitled,2021.1.4,47.51431210567246,
9,9,9,9,18,18,36,0.75,0.5,0.5,0.5,0.0,0.0,,stimuli/P_09_09_09_09.png,,,,,0,27,27,85,,,,,,,,,,,,,,,,,,,,,,,,,,,,1713.294826099649,None,1713.294826099649,None,1713.6753870993853,None,1713.6753870993853,None,50,1713.6753870993853,None,return,3.2999629992991686,1713.6753870993853,None,,,LIULIN,F,001,2023_Apr_18_1512,untitled,2021.1.4,47.51431210567246,
0,9,18,0,9,18,27,0.67,1.0,0.0,1.0,-1.0,#NAME?,,stimuli/P_00_09_18_00.png,,,,,0,28,28,24,,,,,,,,,,,,,,,,,,,,,,,,,,,,1716.999520400539,None,1716.999520400539,None,1717.377516400069,None,1717.377516400069,None,0,1717.377516400069,None,return,2.8855422008782625,1717.377516400069,None,,,LIULIN,F,001,2023_Apr_18_1512,untitled,2021.1.4,47.51431210567246,
9,9,9,0,18,18,27,0.67,0.5,0.5,1.0,-0.5,#NAME?,,stimuli/P_09_09_09_00.png,,,,,0,29,29,84,,,,,,,,,,,,,,,,,,,,,,,,,,,,1720.2880718000233,None,1720.2880718000233,None,1720.6625411994755,None,1720.6625411994755,None,50,1720.6625411994755,None,return,2.995998300611973,1720.6625411994755,None,,,LIULIN,F,001,2023_Apr_18_1512,untitled,2021.1.4,47.51431210567246,
9,9,0,36,18,9,54,0.83,0.5,0.5,0.0,0.5,0.5,,stimuli/P_09_09_00_36.png,,,,,0,30,30,83,,,,,,,,,,,,,,,,,,,,,,,,,,,,1723.6821075994521,None,1723.6821075994521,None,1724.0562738999724,None,1724.0562738999724,None,50,1724.0562738999724,None,return,3.6336327996104956,1724.0562738999724,None,,,LIULIN,F,001,2023_Apr_18_1512,untitled,2021.1.4,47.51431210567246,
0,18,36,18,18,36,72,0.75,1.0,0.0,0.67,-0.67,-2.0,,stimuli/P_00_18_36_18.png,,,,,0,31,31,46,,,,,,,,,,,,,,,,,,,,,,,,,,,,1727.7067558001727,None,1727.7067558001727,None,1728.0766078010201,None,1728.0766078010201,None,0,1728.0766078010201,None,return,2.849438801407814,1728.0766078010201,None,,,LIULIN,F,001,2023_Apr_18_1512,untitled,2021.1.4,47.51431210567246,
18,9,9,36,27,27,72,0.88,0.33,0.67,0.2,0.47,0.58,,stimuli/P_18_09_09_36.png,,,,,0,32,32,151,,,,,,,,,,,,,,,,,,,,,,,,,,,,1730.9427317008376,None,1730.9427317008376,None,1731.305665601045,None,1731.305665601045,None,60,1731.305665601045,None,return,2.7686247006058693,1731.305665601045,None,,,LIULIN,F,001,2023_Apr_18_1512,untitled,2021.1.4,47.51431210567246,
36,36,0,18,72,36,90,0.6,0.5,0.5,0.0,0.5,0.5,,stimuli/P_36_36_00_18.png,,,,,0,33,33,242,,,,,,,,,,,,,,,,,,,,,,,,,,,,1734.0956627000123,None,1734.0956627000123,None,1734.475140299648,None,1734.475140299648,None,,1734.475140299648,None,return,2.062260100618005,1734.475140299648,None,,,LIULIN,F,001,2023_Apr_18_1512,untitled,2021.1.4,47.51431210567246,
36,18,18,9,54,54,81,0.78,0.33,0.67,0.67,0.0,0.0,,stimuli/P_36_18_18_09.png,,,,,0,34,34,233,,,,,,,,,,,,,,,,,,,,,,,,,,,,1737.1994199994951,None,1737.1994199994951,None,1737.5937984008342,None,1737.5937984008342,None,70,1737.5937984008342,None,return,6.633228700608015,1737.5937984008342,None,,,LIULIN,F,001,2023_Apr_18_1512,untitled,2021.1.4,47.51431210567246,
18,36,36,0,54,54,90,0.6,0.67,0.33,1.0,-0.67,#NAME?,,stimuli/P_18_36_36_00.png,,,,,0,35,35,188,,,,,,,,,,,,,,,,,,,,,,,,,,,,1744.2531546000391,None,1744.2531546000391,None,1744.636747399345,None,1744.636747399345,None,30,1744.636747399345,None,return,4.269791699945927,1744.636747399345,None,,,LIULIN,F,001,2023_Apr_18_1512,untitled,2021.1.4,47.51431210567246,
9,18,36,18,27,45,81,0.78,0.67,0.33,0.67,-0.33,-1.0,,stimuli/P_09_18_36_18.png,,,,,0,36,36,110,,,,,,,,,,,,,,,,,,,,,,,,,,,,1748.9279935993254,None,1748.9279935993254,None,1749.303995899856,None,1749.303995899856,None,40,1749.303995899856,None,return,4.176292400807142,1749.303995899856,None,,,LIULIN,F,001,2023_Apr_18_1512,untitled,2021.1.4,47.51431210567246,
0,0,9,36,0,9,45,1.0,None,None,0.2,None,None,,stimuli/P_00_00_09_36.png,,,,,0,37,37,7,,,,,,,,,,,,,,,,,,,,,,,,,,,,1753.5156992003322,None,1753.5156992003322,None,1753.8962779007852,None,1753.8962779007852,None,0,1753.8962779007852,None,return,2.3386073987931013,1753.8962779007852,None,,,LIULIN,F,001,2023_Apr_18_1512,untitled,2021.1.4,47.51431210567246,
18,18,36,9,36,54,81,0.78,0.5,0.5,0.8,-0.3,-1.5,,stimuli/P_18_18_36_09.png,,,,,0,38,38,173,,,,,,,,,,,,,,,,,,,,,,,,,,,,1756.252341100946,None,1756.252341100946,None,1756.63846960105,None,1756.63846960105,None,50,1756.63846960105,None,return,2.881503500044346,1756.63846960105,None,,,LIULIN,F,001,2023_Apr_18_1512,untitled,2021.1.4,47.51431210567246,
0,18,9,0,18,9,27,0.33,1.0,0.0,1.0,-1.0,#NAME?,,stimuli/P_00_18_09_00.png,,,,,0,39,39,36,,,,,,,,,,,,,,,,,,,,,,,,,,,,1759.5572657007724,None,1759.5572657007724,None,1759.9282607007772,None,1759.9282607007772,None,0,1759.9282607007772,None,return,2.3915465995669365,1759.9282607007772,None,,,LIULIN,F,001,2023_Apr_18_1512,untitled,2021.1.4,47.51431210567246,
18,0,0,18,18,18,36,1.0,0.0,1.0,0.0,1.0,1.0,,stimuli/P_18_00_00_18.png,,,,,0,40,40,130,,,,,,,,,,,,,,,,,,,,,,,,,,,,1762.3480655997992,None,1762.3480655997992,None,1762.716917000711,None,1762.716917000711,None,100,1762.716917000711,None,return,6.595243899151683,1762.716917000711,None,,,LIULIN,F,001,2023_Apr_18_1512,untitled,2021.1.4,47.51431210567246,
9,9,36,9,18,45,63,0.86,0.5,0.5,0.8,-0.3,-1.5,,stimuli/P_09_09_36_09.png,,,,,0,41,41,93,,,,,,,,,,,,,,,,,,,,,,,,,,,,1769.351574100554,None,1769.351574100554,None,1769.7371565010399,None,1769.7371565010399,None,50,1769.7371565010399,None,return,3.198989698663354,1769.7371565010399,None,,,LIULIN,F,001,2023_Apr_18_1512,untitled,2021.1.4,47.51431210567246,
18,18,9,9,36,27,54,0.67,0.5,0.5,0.5,0.0,0.0,,stimuli/P_18_18_09_09.png,,,,,0,42,42,165,,,,,,,,,,,,,,,,,,,,,,,,,,,,1772.9624870996922,None,1772.9624870996922,None,1773.3443327993155,None,1773.3443327993155,None,50,1773.3443327993155,None,return,2.4989163000136614,1773.3443327993155,None,,,LIULIN,F,001,2023_Apr_18_1512,untitled,2021.1.4,47.51431210567246,
18,9,18,9,27,36,54,0.83,0.33,0.67,0.67,0.0,0.0,,stimuli/P_18_09_18_09.png,,,,,0,43,43,153,,,,,,,,,,,,,,,,,,,,,,,,,,,,1775.8579930998385,None,1775.8579930998385,None,1776.2341284006834,None,1776.2341284006834,None,60,1776.2341284006834,None,return,3.50884860008955,1776.2341284006834,None,,,LIULIN,F,001,2023_Apr_18_1512,untitled,2021.1.4,47.51431210567246,
18,0,0,0,18,18,18,1.0,0.0,1.0,None,None,None,,stimuli/P_18_00_00_00.png,,,,,0,44,44,128,,,,,,,,,,,,,,,,,,,,,,,,,,,,1779.7735760007054,None,1779.7735760007054,None,1780.1507099997252,None,1780.1507099997252,None,100,1780.1507099997252,None,return,2.758602200075984,1780.1507099997252,None,,,LIULIN,F,001,2023_Apr_18_1512,untitled,2021.1.4,47.51431210567246,
9,0,9,0,9,18,18,1.0,0.0,1.0,1.0,0.0,None,,stimuli/P_09_00_09_00.png,,,,,0,45,45,68,,,,,,,,,,,,,,,,,,,,,,,,,,,,1782.939386099577,None,1782.939386099577,None,1783.3165924996138,None,1783.3165924996138,None,100,1783.3165924996138,None,return,2.3975520003587008,1783.3165924996138,None,,,LIULIN,F,001,2023_Apr_18_1512,untitled,2021.1.4,47.51431210567246,
36,36,0,36,72,36,108,0.67,0.5,0.5,0.0,0.5,0.5,,stimuli/P_36_36_00_36.png,,,,,0,46,46,243,,,,,,,,,,,,,,,,,,,,,,,,,,,,1785.7311287000775,None,1785.7311287000775,None,1786.0964617002755,None,1786.0964617002755,None,50,1786.0964617002755,None,return,2.514845099300146,1786.0964617002755,None,,,LIULIN,F,001,2023_Apr_18_1512,untitled,2021.1.4,47.51431210567246,
36,36,36,0,72,72,108,0.67,0.5,0.5,1.0,-0.5,#NAME?,,stimuli/P_36_36_36_00.png,,,,,0,47,47,252,,,,,,,,,,,,,,,,,,,,,,,,,,,,1788.6451440993696,None,1788.6451440993696,None,1789.0233325995505,None,1789.0233325995505,None,50,1789.0233325995505,None,return,2.128337800502777,1789.0233325995505,None,,,LIULIN,F,001,2023_Apr_18_1512,untitled,2021.1.4,47.51431210567246,
9,18,9,0,27,18,36,0.5,0.67,0.33,1.0,-0.67,#NAME?,,stimuli/P_09_18_09_00.png,,,,,0,48,48,100,,,,,,,,,,,,,,,,,,,,,,,,,,,,1791.172474000603,None,1791.172474000603,None,1791.557759899646,None,1791.557759899646,None,30,1791.557759899646,None,return,3.9668792001903057,1791.557759899646,None,,,LIULIN,F,001,2023_Apr_18_1512,untitled,2021.1.4,47.51431210567246,
36,9,36,18,45,72,99,0.91,0.2,0.8,0.67,0.13,0.4,,stimuli/P_36_09_36_18.png,,,,,0,49,49,222,,,,,,,,,,,,,,,,,,,,,,,,,,,,1795.5611151997,None,1795.5611151997,None,1795.9432465005666,None,1795.9432465005666,None,70,1795.9432465005666,None,return,5.035700000822544,1795.9432465005666,None,,,LIULIN,F,001,2023_Apr_18_1512,untitled,2021.1.4,47.51431210567246,
9,9,18,18,18,27,54,0.83,0.5,0.5,0.5,0.0,0.0,,stimuli/P_09_09_18_18.png,,,,,0,50,50,90,,,,,,,,,,,,,,,,,,,,,,,,,,,,1801.0048642996699,None,1801.0048642996699,None,1801.3817493002862,None,1801.3817493002862,None,50,1801.3817493002862,None,return,2.488926500082016,1801.3817493002862,None,,,LIULIN,F,001,2023_Apr_18_1512,untitled,2021.1.4,47.51431210567246,
18,36,0,18,54,18,72,0.5,0.67,0.33,0.0,0.33,0.33,,stimuli/P_18_36_00_18.png,,,,,0,51,51,178,,,,,,,,,,,,,,,,,,,,,,,,,,,,1803.8974192999303,None,1803.8974192999303,None,1804.2924930993468,None,1804.2924930993468,None,30,1804.2924930993468,None,return,4.853966999799013,1804.2924930993468,None,,,LIULIN,F,001,2023_Apr_18_1512,untitled,2021.1.4,47.51431210567246,
0,18,18,36,18,18,72,0.75,1.0,0.0,0.33,-0.33,-0.5,,stimuli/P_00_18_18_36.png,,,,,0,52,52,43,,,,,,,,,,,,,,,,,,,,,,,,,,,,1809.1806634999812,None,1809.1806634999812,None,1809.574105400592,None,1809.574105400592,None,0,1809.574105400592,None,return,2.165828900411725,1809.574105400592,None,,,LIULIN,F,001,2023_Apr_18_1512,untitled,2021.1.4,47.51431210567246,
0,0,18,36,0,18,54,1.0,None,None,0.33,None,None,,stimuli/P_00_00_18_36.png,,,,,0,53,53,11,,,,,,,,,,,,,,,,,,,,,,,,,,,,1811.763185499236,None,1811.763185499236,None,1812.151313200593,None,1812.151313200593,None,0,1812.151313200593,None,return,1.5809284001588821,1812.151313200593,None,,,LIULIN,F,001,2023_Apr_18_1512,untitled,2021.1.4,47.51431210567246,
0,36,0,0,36,0,36,0.0,1.0,0.0,None,None,None,,stimuli/P_00_36_00_00.png,,,,,0,54,54,48,,,,,,,,,,,,,,,,,,,,,,,,,,,,1813.7702194992453,None,1813.7702194992453,None,1814.1401176005602,None,1814.1401176005602,None,0,1814.1401176005602,None,return,2.633950399234891,1814.1401176005602,None,,,LIULIN,F,001,2023_Apr_18_1512,untitled,2021.1.4,47.51431210567246,
18,36,36,18,54,54,108,0.67,0.67,0.33,0.67,-0.33,-1.0,,stimuli/P_18_36_36_18.png,,,,,0,55,55,190,,,,,,,,,,,,,,,,,,,,,,,,,,,,1816.8097092993557,None,1816.8097092993557,None,1817.220710100606,None,1817.220710100606,None,30,1817.220710100606,None,return,4.182386700063944,1817.220710100606,None,,,LIULIN,F,001,2023_Apr_18_1512,untitled,2021.1.4,47.51431210567246,
36,36,36,36,72,72,144,0.75,0.5,0.5,0.5,0.0,0.0,,stimuli/P_36_36_36_36.png,,,,,0,56,56,255,,,,,,,,,,,,,,,,,,,,,,,,,,,,1821.4379511997104,None,1821.4379511997104,None,1821.8206827007234,None,1821.8206827007234,None,50,1821.8206827007234,None,return,2.633279599249363,1821.8206827007234,None,,,LIULIN,F,001,2023_Apr_18_1512,untitled,2021.1.4,47.51431210567246,
9,0,9,18,9,18,36,1.0,0.0,1.0,0.33,0.67,1.0,,stimuli/P_09_00_09_18.png,,,,,0,57,57,70,,,,,,,,,,,,,,,,,,,,,,,,,,,,1824.4942100998014,None,1824.4942100998014,None,1824.8728700000793,None,1824.8728700000793,None,100,1824.8728700000793,None,return,7.308256698772311,1824.8728700000793,None,,,LIULIN,F,001,2023_Apr_18_1512,untitled,2021.1.4,47.51431210567246,
36,9,36,0,45,72,81,0.89,0.2,0.8,1.0,-0.2,#NAME?,,stimuli/P_36_09_36_00.png,,,,,0,58,58,220,,,,,,,,,,,,,,,,,,,,,,,,,,,,1832.2108519002795,None,1832.2108519002795,None,1832.5945811010897,None,1832.5945811010897,None,80,1832.5945811010897,None,return,4.9963783994317055,1832.5945811010897,None,,,LIULIN,F,001,2023_Apr_18_1512,untitled,2021.1.4,47.51431210567246,
0,9,36,0,9,36,45,0.8,1.0,0.0,1.0,-1.0,#NAME?,,stimuli/P_00_09_36_00.png,,,,,0,59,59,28,,,,,,,,,,,,,,,,,,,,,,,,,,,,1837.6075963005424,None,1837.6075963005424,None,1837.9916655998677,None,1837.9916655998677,None,0,1837.9916655998677,None,return,1.8420919999480247,1837.9916655998677,None,,,LIULIN,F,001,2023_Apr_18_1512,untitled,2021.1.4,47.51431210567246,
36,36,18,18,72,54,108,0.67,0.5,0.5,0.5,0.0,0.0,,stimuli/P_36_36_18_18.png,,,,,0,60,60,250,,,,,,,,,,,,,,,,,,,,,,,,,,,,1839.8484883010387,None,1839.8484883010387,None,1840.2381711006165,None,1840.2381711006165,None,50,1840.2381711006165,None,return,3.3144073002040386,1840.2381711006165,None,,,LIULIN,F,001,2023_Apr_18_1512,untitled,2021.1.4,47.51431210567246,
9,18,18,36,27,27,81,0.78,0.67,0.33,0.33,0.0,0.0,,stimuli/P_09_18_18_36.png,,,,,0,61,61,107,,,,,,,,,,,,,,,,,,,,,,,,,,,,1843.584643099457,None,1843.584643099457,None,1843.9662969000638,None,1843.9662969000638,None,30,1843.9662969000638,None,return,4.3530789986252785,1843.9662969000638,None,,,LIULIN,F,001,2023_Apr_18_1512,untitled,2021.1.4,47.51431210567246,
0,0,18,18,0,18,36,1.0,None,None,0.5,None,None,,stimuli/P_00_00_18_18.png,,,,,0,62,62,10,,,,,,,,,,,,,,,,,,,,,,,,,,,,1848.3373109996319,None,1848.3373109996319,None,1848.716376600787,None,1848.716376600787,None,0,1848.716376600787,None,return,1.7265667989850044,1848.716376600787,None,,,LIULIN,F,001,2023_Apr_18_1512,untitled,2021.1.4,47.51431210567246,
18,18,0,0,36,18,36,0.5,0.5,0.5,None,None,None,,stimuli/P_18_18_00_00.png,,,,,0,63,63,160,,,,,,,,,,,,,,,,,,,,,,,,,,,,1850.4736978001893,None,1850.4736978001893,None,1850.8663404993713,None,1850.8663404993713,None,50,1850.8663404993713,None,return,2.478032600134611,1850.8663404993713,None,,,LIULIN,F,001,2023_Apr_18_1512,untitled,2021.1.4,47.51431210567246,
18,9,9,9,27,27,45,0.8,0.33,0.67,0.5,0.17,0.33,,stimuli/P_18_09_09_09.png,,,,,0,64,64,149,,,,,,,,,,,,,,,,,,,,,,,,,,,,1853.3713632002473,None,1853.3713632002473,None,1853.7468193992972,None,1853.7468193992972,None,60,1853.7468193992972,None,return,4.289343800395727,1853.7468193992972,None,,,LIULIN,F,001,2023_Apr_18_1512,untitled,2021.1.4,47.51431210567246,
36,9,0,18,45,36,63,0.86,0.2,0.8,0.0,0.8,0.8,,stimuli/P_36_09_00_18.png,,,,,0,65,65,210,,,,,,,,,,,,,,,,,,,,,,,,,,,,1858.0571727007627,None,1858.0571727007627,None,1858.433199999854,None,1858.433199999854,None,80,1858.433199999854,None,return,3.591813201084733,1858.433199999854,None,,,LIULIN,F,001,2023_Apr_18_1512,untitled,2021.1.4,47.51431210567246,
36,36,0,0,72,36,72,0.5,0.5,0.5,None,None,None,,stimuli/P_36_36_00_00.png,,,,,0,66,66,240,,,,,,,,,,,,,,,,,,,,,,,,,,,,1862.044721700251,None,1862.044721700251,None,1862.428200500086,None,1862.428200500086,None,50,1862.428200500086,None,return,2.969694100320339,1862.428200500086,None,,,LIULIN,F,001,2023_Apr_18_1512,untitled,2021.1.4,47.51431210567246,
9,36,0,18,45,9,63,0.43,0.8,0.2,0.0,0.2,0.2,,stimuli/P_09_36_00_18.png,,,,,0,67,67,114,,,,,,,,,,,,,,,,,,,,,,,,,,,,1865.4230268001556,None,1865.4230268001556,None,1865.8073267992586,None,1865.8073267992586,None,30,1865.8073267992586,None,return,3.77717449888587,1865.8073267992586,None,,,LIULIN,F,001,2023_Apr_18_1512,untitled,2021.1.4,47.51431210567246,
0,0,18,0,0,18,18,1.0,None,None,1.0,None,None,,stimuli/P_00_00_18_00.png,,,,,0,68,68,8,,,,,,,,,,,,,,,,,,,,,,,,,,,,1869.609650399536,None,1869.609650399536,None,1869.9861660003662,None,1869.9861660003662,None,0,1869.9861660003662,None,return,1.4940671008080244,1869.9861660003662,None,,,LIULIN,F,001,2023_Apr_18_1512,untitled,2021.1.4,47.51431210567246,
18,0,36,9,18,54,63,1.0,0.0,1.0,0.8,0.2,1.0,,stimuli/P_18_00_36_09.png,,,,,0,69,69,141,,,,,,,,,,,,,,,,,,,,,,,,,,,,1871.4950581993908,None,1871.4950581993908,None,1871.8746728003025,None,1871.8746728003025,None,100,1871.8746728003025,None,return,4.40734769962728,1871.8746728003025,None,,,LIULIN,F,001,2023_Apr_18_1512,untitled,2021.1.4,47.51431210567246,
36,0,18,0,36,54,54,1.0,0.0,1.0,1.0,0.0,None,,stimuli/P_36_00_18_00.png,,,,,0,70,70,200,,,,,,,,,,,,,,,,,,,,,,,,,,,,1876.3171180002391,None,1876.3171180002391,None,1876.6935026999563,None,1876.6935026999563,None,100,1876.6935026999563,None,return,5.328438499942422,1876.6935026999563,None,,,LIULIN,F,001,2023_Apr_18_1512,untitled,2021.1.4,47.51431210567246,
9,36,9,18,45,18,72,0.5,0.8,0.2,0.33,-0.13,-0.2,,stimuli/P_09_36_09_18.png,,,,,0,71,71,118,,,,,,,,,,,,,,,,,,,,,,,,,,,,1882.0566948000342,None,1882.0566948000342,None,1882.4245619997382,None,1882.4245619997382,None,30,1882.4245619997382,None,return,3.810137901455164,1882.4245619997382,None,,,LIULIN,F,001,2023_Apr_18_1512,untitled,2021.1.4,47.51431210567246,
9,9,36,36,18,45,90,0.9,0.5,0.5,0.5,0.0,0.0,,stimuli/P_09_09_36_36.png,,,,,0,72,72,95,,,,,,,,,,,,,,,,,,,,,,,,,,,,1886.2631710004061,None,1886.2631710004061,None,1886.641115900129,None,1886.641115900129,None,50,1886.641115900129,None,return,2.2520944010466337,1886.641115900129,None,,,LIULIN,F,001,2023_Apr_18_1512,untitled,2021.1.4,47.51431210567246,
9,36,0,36,45,9,81,0.56,0.8,0.2,0.0,0.2,0.2,,stimuli/P_09_36_00_36.png,,,,,0,73,73,115,,,,,,,,,,,,,,,,,,,,,,,,,,,,1888.9226559009403,None,1888.9226559009403,None,1889.2940638009459,None,1889.2940638009459,None,30,1889.2940638009459,None,return,4.883950799703598,1889.2940638009459,None,,,LIULIN,F,001,2023_Apr_18_1512,untitled,2021.1.4,47.51431210567246,
0,9,0,18,9,0,27,0.67,1.0,0.0,0.0,0.0,0.0,,stimuli/P_00_09_00_18.png,,,,,0,74,74,18,,,,,,,,,,,,,,,,,,,,,,,,,,,,1894.1991205997765,None,1894.1991205997765,None,1894.5735819004476,None,1894.5735819004476,None,0,1894.5735819004476,None,return,3.5608165003359318,1894.5735819004476,None,,,LIULIN,F,001,2023_Apr_18_1512,untitled,2021.1.4,47.51431210567246,
9,36,0,9,45,9,54,0.33,0.8,0.2,0.0,0.2,0.2,,stimuli/P_09_36_00_09.png,,,,,0,75,75,113,,,,,,,,,,,,,,,,,,,,,,,,,,,,1898.1613488998264,None,1898.1613488998264,None,1898.5453019998968,None,1898.5453019998968,None,30,1898.5453019998968,None,return,3.4897362999618053,1898.5453019998968,None,,,LIULIN,F,001,2023_Apr_18_1512,untitled,2021.1.4,47.51431210567246,
9,36,9,0,45,18,54,0.33,0.8,0.2,1.0,-0.8,#NAME?,,stimuli/P_09_36_09_00.png,,,,,0,76,76,116,,,,,,,,,,,,,,,,,,,,,,,,,,,,1902.075030600652,None,1902.075030600652,None,1902.4645745009184,None,1902.4645745009184,None,30,1902.4645745009184,None,return,3.5772989001125097,1902.4645745009184,None,,,LIULIN,F,001,2023_Apr_18_1512,untitled,2021.1.4,47.51431210567246,
9,18,18,9,27,27,54,0.67,0.67,0.33,0.67,-0.33,-1.0,,stimuli/P_09_18_18_09.png,,,,,0,77,77,105,,,,,,,,,,,,,,,,,,,,,,,,,,,,1906.0692632999271,None,1906.0692632999271,None,1906.4516720008105,None,1906.4516720008105,None,40,1906.4516720008105,None,return,2.665633799508214,1906.4516720008105,None,,,LIULIN,F,001,2023_Apr_18_1512,untitled,2021.1.4,47.51431210567246,
0,18,0,36,18,0,54,0.67,1.0,0.0,0.0,0.0,0.0,,stimuli/P_00_18_00_36.png,,,,,0,78,78,35,,,,,,,,,,,,,,,,,,,,,,,,,,,,1909.1592673007399,None,1909.1592673007399,None,1909.5307040009648,None,1909.5307040009648,None,0,1909.5307040009648,None,return,1.6678961999714375,1909.5307040009648,None,,,LIULIN,F,001,2023_Apr_18_1512,untitled,2021.1.4,47.51431210567246,
0,0,0,18,0,0,18,1.0,None,None,0.0,None,None,,stimuli/P_00_00_00_18.png,,,,,0,79,79,2,,,,,,,,,,,,,,,,,,,,,,,,,,,,1911.224144199863,None,1911.224144199863,None,1911.5795034002513,None,1911.5795034002513,None,0,1911.5795034002513,None,return,1.8854298014193773,1911.5795034002513,None,,,LIULIN,F,001,2023_Apr_18_1512,untitled,2021.1.4,47.51431210567246,
36,0,9,36,36,45,81,1.0,0.0,1.0,0.2,0.8,1.0,,stimuli/P_36_00_09_36.png,,,,,0,80,80,199,,,,,,,,,,,,,,,,,,,,,,,,,,,,1913.498999999836,None,1913.498999999836,None,1913.8775600008667,None,1913.8775600008667,None,100,1913.8775600008667,None,return,4.642584800720215,1913.8775600008667,None,,,LIULIN,F,001,2023_Apr_18_1512,untitled,2021.1.4,47.51431210567246,
0,36,0,36,36,0,72,0.5,1.0,0.0,0.0,0.0,0.0,,stimuli/P_00_36_00_36.png,,,,,0,81,81,51,,,,,,,,,,,,,,,,,,,,,,,,,,,,1918.5533214993775,None,1918.5533214993775,None,1918.928661800921,None,1918.928661800921,None,0,1918.928661800921,None,return,1.7648585997521877,1918.928661800921,None,,,LIULIN,F,001,2023_Apr_18_1512,untitled,2021.1.4,47.51431210567246,
36,0,0,0,36,36,36,1.0,0.0,1.0,None,None,None,,stimuli/P_36_00_00_00.png,,,,,0,82,82,192,,,,,,,,,,,,,,,,,,,,,,,,,,,,1920.7159553002566,None,1920.7159553002566,None,1921.0852451995015,None,1921.0852451995015,None,100,1921.0852451995015,None,return,2.2044012006372213,1921.0852451995015,None,,,LIULIN,F,001,2023_Apr_18_1512,untitled,2021.1.4,47.51431210567246,
0,18,36,0,18,36,54,0.67,1.0,0.0,1.0,-1.0,#NAME?,,stimuli/P_00_18_36_00.png,,,,,0,83,83,44,,,,,,,,,,,,,,,,,,,,,,,,,,,,1923.3175712004304,None,1923.3175712004304,None,1923.696143200621,None,1923.696143200621,None,0,1923.696143200621,None,return,1.712125699967146,1923.696143200621,None,,,LIULIN,F,001,2023_Apr_18_1512,untitled,2021.1.4,47.51431210567246,
18,18,18,36,36,36,90,0.8,0.5,0.5,0.33,0.17,0.25,,stimuli/P_18_18_18_36.png,,,,,0,84,84,171,,,,,,,,,,,,,,,,,,,,,,,,,,,,1925.4509577006102,None,1925.4509577006102,None,1925.8630324993283,None,1925.8630324993283,None,50,1925.8630324993283,None,return,3.4285227991640568,1925.8630324993283,None,,,LIULIN,F,001,2023_Apr_18_1512,untitled,2021.1.4,47.51431210567246,
0,0,36,0,0,36,36,1.0,None,None,1.0,None,None,,stimuli/P_00_00_36_00.png,,,,,0,85,85,12,,,,,,,,,,,,,,,,,,,,,,,,,,,,1929.3265911005437,None,1929.3265911005437,None,1929.6983714997768,None,1929.6983714997768,None,0,1929.6983714997768,None,return,1.3991586994379759,1929.6983714997768,None,,,LIULIN,F,001,2023_Apr_18_1512,untitled,2021.1.4,47.51431210567246,
9,18,0,36,27,9,63,0.71,0.67,0.33,0.0,0.33,0.33,,stimuli/P_09_18_00_36.png,,,,,0,86,86,99,,,,,,,,,,,,,,,,,,,,,,,,,,,,1931.1293281000108,None,1931.1293281000108,None,1931.4991615004838,None,1931.4991615004838,None,30,1931.4991615004838,None,return,3.2729398999363184,1931.4991615004838,None,,,LIULIN,F,001,2023_Apr_18_1512,untitled,2021.1.4,47.51431210567246,
36,36,18,36,72,54,126,0.71,0.5,0.5,0.33,0.17,0.25,,stimuli/P_36_36_18_36.png,,,,,0,87,87,251,,,,,,,,,,,,,,,,,,,,,,,,,,,,1934.7982566002756,None,1934.7982566002756,None,1935.1850435994565,None,1935.1850435994565,None,50,1935.1850435994565,None,return,2.2903843000531197,1935.1850435994565,None,,,LIULIN,F,001,2023_Apr_18_1512,untitled,2021.1.4,47.51431210567246,
18,0,9,18,18,27,45,1.0,0.0,1.0,0.33,0.67,1.0,,stimuli/P_18_00_09_18.png,,,,,0,88,88,134,,,,,,,,,,,,,,,,,,,,,,,,,,,,1937.51226590015,None,1937.51226590015,None,1937.885598199442,None,1937.885598199442,None,100,1937.885598199442,None,return,3.318758700042963,1937.885598199442,None,,,LIULIN,F,001,2023_Apr_18_1512,untitled,2021.1.4,47.51431210567246,
9,18,36,9,27,45,72,0.75,0.67,0.33,0.8,-0.47,-2.33,,stimuli/P_09_18_36_09.png,,,,,0,89,89,109,,,,,,,,,,,,,,,,,,,,,,,,,,,,1941.2443614006042,None,1941.2443614006042,None,1941.6413845010102,None,1941.6413845010102,None,30,1941.6413845010102,None,return,5.102569200098515,1941.6413845010102,None,,,LIULIN,F,001,2023_Apr_18_1512,untitled,2021.1.4,47.51431210567246,
9,0,18,18,9,27,45,1.0,0.0,1.0,0.5,0.5,1.0,,stimuli/P_09_00_18_18.png,,,,,0,90,90,74,,,,,,,,,,,,,,,,,,,,,,,,,,,,1946.7700183000416,None,1946.7700183000416,None,1947.1556810997427,None,1947.1556810997427,None,100,1947.1556810997427,None,return,2.2022101003676653,1947.1556810997427,None,,,LIULIN,F,001,2023_Apr_18_1512,untitled,2021.1.4,47.51431210567246,
36,18,36,0,54,72,90,0.8,0.33,0.67,1.0,-0.33,#NAME?,,stimuli/P_36_18_36_00.png,,,,,0,91,91,236,,,,,,,,,,,,,,,,,,,,,,,,,,,,1949.3835518006235,None,1949.3835518006235,None,1949.759326800704,None,1949.759326800704,None,70,1949.759326800704,None,return,4.448269199579954,1949.759326800704,None,,,LIULIN,F,001,2023_Apr_18_1512,untitled,2021.1.4,47.51431210567246,
18,18,18,9,36,36,63,0.71,0.5,0.5,0.67,-0.17,-0.5,,stimuli/P_18_18_18_09.png,,,,,0,92,92,169,,,,,,,,,,,,,,,,,,,,,,,,,,,,1954.2244774997234,None,1954.2244774997234,None,1954.6086586993188,None,1954.6086586993188,None,50,1954.6086586993188,None,return,4.045860098674893,1954.6086586993188,None,,,LIULIN,F,001,2023_Apr_18_1512,untitled,2021.1.4,47.51431210567246,
36,0,9,0,36,45,45,1.0,0.0,1.0,1.0,0.0,None,,stimuli/P_36_00_09_00.png,,,,,0,93,93,196,,,,,,,,,,,,,,,,,,,,,,,,,,,,1958.6886720005423,None,1958.6886720005423,None,1959.0545290000737,None,1959.0545290000737,None,100,1959.0545290000737,None,return,3.002667600288987,1959.0545290000737,None,,,LIULIN,F,001,2023_Apr_18_1512,untitled,2021.1.4,47.51431210567246,
0,9,36,36,9,36,81,0.89,1.0,0.0,0.5,-0.5,-1.0,,stimuli/P_00_09_36_36.png,,,,,0,94,94,31,,,,,,,,,,,,,,,,,,,,,,,,,,,,1962.098778899759,None,1962.098778899759,None,1962.4846318997443,None,1962.4846318997443,None,0,1962.4846318997443,None,return,1.3782903999090195,1962.4846318997443,None,,,LIULIN,F,001,2023_Apr_18_1512,untitled,2021.1.4,47.51431210567246,
9,0,9,9,9,18,27,1.0,0.0,1.0,0.5,0.5,1.0,,stimuli/P_09_00_09_09.png,,,,,0,95,95,69,,,,,,,,,,,,,,,,,,,,,,,,,,,,1963.8960497006774,None,1963.8960497006774,None,1964.2662176005542,None,1964.2662176005542,None,100,1964.2662176005542,None,return,1.557795798406005,1964.2662176005542,None,,,LIULIN,F,001,2023_Apr_18_1512,untitled,2021.1.4,47.51431210567246,
18,0,0,9,18,18,27,1.0,0.0,1.0,0.0,1.0,1.0,,stimuli/P_18_00_00_09.png,,,,,0,96,96,129,,,,,,,,,,,,,,,,,,,,,,,,,,,,1965.8548069000244,None,1965.8548069000244,None,1966.2341494001448,None,1966.2341494001448,None,100,1966.2341494001448,None,return,2.0905860997736454,1966.2341494001448,None,,,LIULIN,F,001,2023_Apr_18_1512,untitled,2021.1.4,47.51431210567246,
36,9,9,0,45,45,54,0.83,0.2,0.8,1.0,-0.2,#NAME?,,stimuli/P_36_09_09_00.png,,,,,0,97,97,212,,,,,,,,,,,,,,,,,,,,,,,,,,,,1968.3502402994782,None,1968.3502402994782,None,1968.7206225004047,None,1968.7206225004047,None,80,1968.7206225004047,None,return,2.7810085006058216,1968.7206225004047,None,,,LIULIN,F,001,2023_Apr_18_1512,untitled,2021.1.4,47.51431210567246,
18,18,36,0,36,54,72,0.75,0.5,0.5,1.0,-0.5,#NAME?,,stimuli/P_18_18_36_00.png,,,,,0,98,98,172,,,,,,,,,,,,,,,,,,,,,,,,,,,,1971.5372190009803,None,1971.5372190009803,None,1971.9138633999974,None,1971.9138633999974,None,50,1971.9138633999974,None,return,2.4521022997796535,1971.9138633999974,None,,,LIULIN,F,001,2023_Apr_18_1512,untitled,2021.1.4,47.51431210567246,
18,36,0,36,54,18,90,0.6,0.67,0.33,0.0,0.33,0.33,,stimuli/P_18_36_00_36.png,,,,,0,99,99,179,,,,,,,,,,,,,,,,,,,,,,,,,,,,1974.3925477005541,None,1974.3925477005541,None,1974.7602117005736,None,1974.7602117005736,None,30,1974.7602117005736,None,return,4.962906999513507,1974.7602117005736,None,,,LIULIN,F,001,2023_Apr_18_1512,untitled,2021.1.4,47.51431210567246,
0,0,18,9,0,18,27,1.0,None,None,0.67,None,None,,stimuli/P_00_00_18_09.png,,,,,0,100,100,9,,,,,,,,,,,,,,,,,,,,,,,,,,,,1979.7641528993845,None,1979.7641528993845,None,1980.1355374008417,None,1980.1355374008417,None,0,1980.1355374008417,None,return,1.4636776000261307,1980.1355374008417,None,,,LIULIN,F,001,2023_Apr_18_1512,untitled,2021.1.4,47.51431210567246,
36,18,9,18,54,45,81,0.78,0.33,0.67,0.33,0.33,0.5,,stimuli/P_36_18_09_18.png,,,,,0,101,101,230,,,,,,,,,,,,,,,,,,,,,,,,,,,,1981.6309537999332,None,1981.6309537999332,None,1982.0058731995523,None,1982.0058731995523,None,7,1982.0058731995523,None,None,,1982.0058731995523,None,,,LIULIN,F,001,2023_Apr_18_1512,untitled,2021.1.4,47.51431210567246,
36,9,9,36,45,45,90,0.9,0.2,0.8,0.2,0.6,0.75,,stimuli/P_36_09_09_36.png,,,,,0,102,102,215,,,,,,,,,,,,,,,,,,,,,,,,,,,,1990.0028322003782,None,1990.0028322003782,None,1990.3832022994757,None,1990.3832022994757,None,80,1990.3832022994757,None,return,6.921255800873041,1990.3832022994757,None,,,LIULIN,F,001,2023_Apr_18_1512,untitled,2021.1.4,47.51431210567246,
18,9,18,36,27,36,81,0.89,0.33,0.67,0.33,0.33,0.5,,stimuli/P_18_09_18_36.png,,,,,0,103,103,155,,,,,,,,,,,,,,,,,,,,,,,,,,,,1997.3478493001312,None,1997.3478493001312,None,1997.7344866003841,None,1997.7344866003841,None,70,1997.7344866003841,None,return,5.45715070143342,1997.7344866003841,None,,,LIULIN,F,001,2023_Apr_18_1512,untitled,2021.1.4,47.51431210567246,
18,18,9,0,36,27,45,0.6,0.5,0.5,1.0,-0.5,#NAME?,,stimuli/P_18_18_09_00.png,,,,,0,104,104,164,,,,,,,,,,,,,,,,,,,,,,,,,,,,2003.208427399397,None,2003.208427399397,None,2003.5722487997264,None,2003.5722487997264,None,50,2003.5722487997264,None,return,2.1219536010175943,2003.5722487997264,None,,,LIULIN,F,001,2023_Apr_18_1512,untitled,2021.1.4,47.51431210567246,
0,9,18,9,9,18,36,0.75,1.0,0.0,0.67,-0.67,-2.0,,stimuli/P_00_09_18_09.png,,,,,0,105,105,25,,,,,,,,,,,,,,,,,,,,,,,,,,,,2005.7237344998866,None,2005.7237344998866,None,2006.091154500842,None,2006.091154500842,None,0,2006.091154500842,None,return,3.123422000557184,2006.091154500842,None,,,LIULIN,F,001,2023_Apr_18_1512,untitled,2021.1.4,47.51431210567246,
9,36,18,36,45,27,99,0.64,0.8,0.2,0.33,-0.13,-0.2,,stimuli/P_09_36_18_36.png,,,,,0,106,106,123,,,,,,,,,,,,,,,,,,,,,,,,,,,,2009.2462853007019,None,2009.2462853007019,None,2009.6216026004404,None,2009.6216026004404,None,20,2009.6216026004404,None,return,2.305623000487685,2009.6216026004404,None,,,LIULIN,F,001,2023_Apr_18_1512,untitled,2021.1.4,47.51431210567246,
0,36,36,9,36,36,81,0.56,1.0,0.0,0.8,-0.8,-4.0,,stimuli/P_00_36_36_09.png,,,,,0,107,107,61,,,,,,,,,,,,,,,,,,,,,,,,,,,,2011.9502349998802,None,2011.9502349998802,None,2012.326665500179,None,2012.326665500179,None,0,2012.326665500179,None,return,2.096101200208068,2012.326665500179,None,,,LIULIN,F,001,2023_Apr_18_1512,untitled,2021.1.4,47.51431210567246,
9,36,9,36,45,18,90,0.6,0.8,0.2,0.2,0.0,0.0,,stimuli/P_09_36_09_36.png,,,,,0,108,108,119,,,,,,,,,,,,,,,,,,,,,,,,,,,,2014.4455922003835,None,2014.4455922003835,None,2014.8340991009027,None,2014.8340991009027,None,20,2014.8340991009027,None,return,3.4832166004925966,2014.8340991009027,None,,,LIULIN,F,001,2023_Apr_18_1512,untitled,2021.1.4,47.51431210567246,
18,0,9,36,18,27,63,1.0,0.0,1.0,0.2,0.8,1.0,,stimuli/P_18_00_09_36.png,,,,,0,109,109,135,,,,,,,,,,,,,,,,,,,,,,,,,,,,2018.3548585996032,None,2018.3548585996032,None,2018.731487300247,None,2018.731487300247,None,100,2018.731487300247,None,return,2.3394988011568785,2018.731487300247,None,,,LIULIN,F,001,2023_Apr_18_1512,untitled,2021.1.4,47.51431210567246,
0,9,18,18,9,18,45,0.8,1.0,0.0,0.5,-0.5,-1.0,,stimuli/P_00_09_18_18.png,,,,,0,110,110,26,,,,,,,,,,,,,,,,,,,,,,,,,,,,2021.0902798008174,None,2021.0902798008174,None,2021.47403210029,None,2021.47403210029,None,0,2021.47403210029,None,return,1.2949123997241259,2021.47403210029,None,,,LIULIN,F,001,2023_Apr_18_1512,untitled,2021.1.4,47.51431210567246,
18,9,18,18,27,36,63,0.86,0.33,0.67,0.5,0.17,0.33,,stimuli/P_18_09_18_18.png,,,,,0,111,111,154,,,,,,,,,,,,,,,,,,,,,,,,,,,,2022.807278400287,None,2022.807278400287,None,2023.21477410011,None,2023.21477410011,None,60,2023.21477410011,None,return,4.752547599375248,2023.21477410011,None,,,LIULIN,F,001,2023_Apr_18_1512,untitled,2021.1.4,47.51431210567246,
18,9,36,18,27,54,81,0.89,0.33,0.67,0.67,0.0,0.0,,stimuli/P_18_09_36_18.png,,,,,0,112,112,158,,,,,,,,,,,,,,,,,,,,,,,,,,,,2027.9949600994587,None,2027.9949600994587,None,2028.3587293997407,None,2028.3587293997407,None,60,2028.3587293997407,None,return,1.9711857996881008,2028.3587293997407,None,,,LIULIN,F,001,2023_Apr_18_1512,untitled,2021.1.4,47.51431210567246,
36,0,36,36,36,72,108,1.0,0.0,1.0,0.5,0.5,1.0,,stimuli/P_36_00_36_36.png,,,,,0,113,113,207,,,,,,,,,,,,,,,,,,,,,,,,,,,,2030.36125270091,None,2030.36125270091,None,2030.7337127998471,None,2030.7337127998471,None,100,2030.7337127998471,None,return,4.154089501127601,2030.7337127998471,None,,,LIULIN,F,001,2023_Apr_18_1512,untitled,2021.1.4,47.51431210567246,
9,0,18,0,9,27,27,1.0,0.0,1.0,1.0,0.0,None,,stimuli/P_09_00_18_00.png,,,,,0,114,114,72,,,,,,,,,,,,,,,,,,,,,,,,,,,,2034.9045768007636,None,2034.9045768007636,None,2035.2923729997128,None,2035.2923729997128,None,100,2035.2923729997128,None,return,1.7899155002087355,2035.2923729997128,None,,,LIULIN,F,001,2023_Apr_18_1512,untitled,2021.1.4,47.51431210567246,
9,36,0,0,45,9,45,0.2,0.8,0.2,None,None,None,,stimuli/P_09_36_00_00.png,,,,,0,115,115,112,,,,,,,,,,,,,,,,,,,,,,,,,,,,2037.1057322993875,None,2037.1057322993875,None,2037.4753751996905,None,2037.4753751996905,None,20,2037.4753751996905,None,return,4.4665294997394085,2037.4753751996905,None,,,LIULIN,F,001,2023_Apr_18_1512,untitled,2021.1.4,47.51431210567246,
0,9,0,9,9,0,18,0.5,1.0,0.0,0.0,0.0,0.0,,stimuli/P_00_09_00_09.png,,,,,0,116,116,17,,,,,,,,,,,,,,,,,,,,,,,,,,,,2041.9612453002483,None,2041.9612453002483,None,2042.3425204008818,None,2042.3425204008818,None,0,2042.3425204008818,None,return,1.6823525000363588,2042.3425204008818,None,,,LIULIN,F,001,2023_Apr_18_1512,untitled,2021.1.4,47.51431210567246,
18,36,18,36,54,36,108,0.67,0.67,0.33,0.33,0.0,0.0,,stimuli/P_18_36_18_36.png,,,,,0,117,117,187,,,,,,,,,,,,,,,,,,,,,,,,,,,,2044.0485392007977,None,2044.0485392007977,None,2044.4100525993854,None,2044.4100525993854,None,30,2044.4100525993854,None,return,5.667133601382375,2044.4100525993854,None,,,LIULIN,F,001,2023_Apr_18_1512,untitled,2021.1.4,47.51431210567246,
36,9,18,18,45,54,81,0.89,0.2,0.8,0.5,0.3,0.6,,stimuli/P_36_09_18_18.png,,,,,0,118,118,218,,,,,,,,,,,,,,,,,,,,,,,,,,,,2050.1189345996827,None,2050.1189345996827,None,2050.4837235994637,None,2050.4837235994637,None,70,2050.4837235994637,None,return,4.272694900631905,2050.4837235994637,None,,,LIULIN,F,001,2023_Apr_18_1512,untitled,2021.1.4,47.51431210567246,
18,9,0,18,27,18,45,0.8,0.33,0.67,0.0,0.67,0.67,,stimuli/P_18_09_00_18.png,,,,,0,119,119,146,,,,,,,,,,,,,,,,,,,,,,,,,,,,2054.7910951003432,None,2054.7910951003432,None,2055.164329800755,None,2055.164329800755,None,60,2055.164329800755,None,return,5.553942900151014,2055.164329800755,None,,,LIULIN,F,001,2023_Apr_18_1512,untitled,2021.1.4,47.51431210567246,
18,0,18,9,18,36,45,1.0,0.0,1.0,0.67,0.33,1.0,,stimuli/P_18_00_18_09.png,,,,,0,120,120,137,,,,,,,,,,,,,,,,,,,,,,,,,,,,2060.7323234993964,None,2060.7323234993964,None,2061.1039224006236,None,2061.1039224006236,None,100,2061.1039224006236,None,return,2.04345210082829,2061.1039224006236,None,,,LIULIN,F,001,2023_Apr_18_1512,untitled,2021.1.4,47.51431210567246,
18,0,36,36,18,54,90,1.0,0.0,1.0,0.5,0.5,1.0,,stimuli/P_18_00_36_36.png,,,,,0,121,121,143,,,,,,,,,,,,,,,,,,,,,,,,,,,,2063.1612895000726,None,2063.1612895000726,None,2063.5331938005984,None,2063.5331938005984,None,100,2063.5331938005984,None,return,2.131870999932289,2063.5331938005984,None,,,LIULIN,F,001,2023_Apr_18_1512,untitled,2021.1.4,47.51431210567246,
18,9,9,18,27,27,54,0.83,0.33,0.67,0.33,0.33,0.5,,stimuli/P_18_09_09_18.png,,,,,0,122,122,150,,,,,,,,,,,,,,,,,,,,,,,,,,,,2065.6881201993674,None,2065.6881201993674,None,2066.0490115005523,None,2066.0490115005523,None,60,2066.0490115005523,None,return,4.1806862987577915,2066.0490115005523,None,,,LIULIN,F,001,2023_Apr_18_1512,untitled,2021.1.4,47.51431210567246,
18,36,9,9,54,27,72,0.5,0.67,0.33,0.5,-0.17,-0.33,,stimuli/P_18_36_09_09.png,,,,,0,123,123,181,,,,,,,,,,,,,,,,,,,,,,,,,,,,2070.2502714004368,None,2070.2502714004368,None,2070.635050099343,None,2070.635050099343,None,20,2070.635050099343,None,return,4.360070200636983,2070.635050099343,None,,,LIULIN,F,001,2023_Apr_18_1512,untitled,2021.1.4,47.51431210567246,
36,36,9,18,72,45,99,0.64,0.5,0.5,0.33,0.17,0.25,,stimuli/P_36_36_09_18.png,,,,,0,124,124,246,,,,,,,,,,,,,,,,,,,,,,,,,,,,2075.0198986008763,None,2075.0198986008763,None,2075.38817919977,None,2075.38817919977,None,50,2075.38817919977,None,return,2.412636999040842,2075.38817919977,None,,,LIULIN,F,001,2023_Apr_18_1512,untitled,2021.1.4,47.51431210567246,
36,9,36,36,45,72,117,0.92,0.2,0.8,0.5,0.3,0.6,,stimuli/P_36_09_36_36.png,,,,,0,125,125,223,,,,,,,,,,,,,,,,,,,,,,,,,,,,2077.82123170048,None,2077.82123170048,None,2078.1946358010173,None,2078.1946358010173,None,80,2078.1946358010173,None,return,4.857923999428749,2078.1946358010173,None,,,LIULIN,F,001,2023_Apr_18_1512,untitled,2021.1.4,47.51431210567246,
36,18,36,18,54,72,108,0.83,0.33,0.67,0.67,0.0,0.0,,stimuli/P_36_18_36_18.png,,,,,0,126,126,238,,,,,,,,,,,,,,,,,,,,,,,,,,,,2083.085022199899,None,2083.085022199899,None,2083.443811999634,None,2083.443811999634,None,70,2083.443811999634,None,return,4.196728000417352,2083.443811999634,None,,,LIULIN,F,001,2023_Apr_18_1512,untitled,2021.1.4,47.51431210567246,
18,9,0,0,27,18,27,0.67,0.33,0.67,None,None,None,,stimuli/P_18_09_00_00.png,,,,,0,127,127,144,,,,,,,,,,,,,,,,,,,,,,,,,,,,2087.661866299808,None,2087.661866299808,None,2088.030503999442,None,2088.030503999442,None,60,2088.030503999442,None,return,3.8583715986460447,2088.030503999442,None,,,LIULIN,F,001,2023_Apr_18_1512,untitled,2021.1.4,47.51431210567246,
18,36,9,36,54,27,99,0.64,0.67,0.33,0.2,0.13,0.17,,stimuli/P_18_36_09_36.png,,,,,0,128,128,183,,,,,,,,,,,,,,,,,,,,,,,,,,,,2091.9208033010364,None,2091.9208033010364,None,2092.297340700403,None,2092.297340700403,None,30,2092.297340700403,None,return,4.689560500904918,2092.297340700403,None,,,LIULIN,F,001,2023_Apr_18_1512,untitled,2021.1.4,47.51431210567246,
0,0,9,0,0,9,9,1.0,None,None,1.0,None,None,,stimuli/P_00_00_09_00.png,,,,,0,129,129,4,,,,,,,,,,,,,,,,,,,,,,,,,,,,2097.033739099279,None,2097.033739099279,None,2097.4363068994135,None,2097.4363068994135,None,0,2097.4363068994135,None,return,1.9612127002328634,2097.4363068994135,None,,,LIULIN,F,001,2023_Apr_18_1512,untitled,2021.1.4,47.51431210567246,
0,9,0,36,9,0,45,0.8,1.0,0.0,0.0,0.0,0.0,,stimuli/P_00_09_00_36.png,,,,,0,130,130,19,,,,,,,,,,,,,,,,,,,,,,,,,,,,2099.4180449005216,None,2099.4180449005216,None,2099.799381000921,None,2099.799381000921,None,0,2099.799381000921,None,return,2.184028400108218,2099.799381000921,None,,,LIULIN,F,001,2023_Apr_18_1512,untitled,2021.1.4,47.51431210567246,
18,36,0,0,54,18,54,0.33,0.67,0.33,None,None,None,,stimuli/P_18_36_00_00.png,,,,,0,131,131,176,,,,,,,,,,,,,,,,,,,,,,,,,,,,2102.0178248994052,None,2102.0178248994052,None,2102.3880406003445,None,2102.3880406003445,None,30,2102.3880406003445,None,return,4.47709590010345,2102.3880406003445,None,,,LIULIN,F,001,2023_Apr_18_1512,untitled,2021.1.4,47.51431210567246,
0,0,9,9,0,9,18,1.0,None,None,0.5,None,None,,stimuli/P_00_00_09_09.png,,,,,0,132,132,5,,,,,,,,,,,,,,,,,,,,,,,,,,,,2106.8944525010884,None,2106.8944525010884,None,2107.261941699311,None,2107.261941699311,None,0,2107.261941699311,None,return,1.3456405997276306,2107.261941699311,None,,,LIULIN,F,001,2023_Apr_18_1512,untitled,2021.1.4,47.51431210567246,
18,18,18,18,36,36,72,0.75,0.5,0.5,0.5,0.0,0.0,,stimuli/P_18_18_18_18.png,,,,,0,133,133,170,,,,,,,,,,,,,,,,,,,,,,,,,,,,2108.642104201019,None,2108.642104201019,None,2109.007872700691,None,2109.007872700691,None,50,2109.007872700691,None,return,2.791662899777293,2109.007872700691,None,,,LIULIN,F,001,2023_Apr_18_1512,untitled,2021.1.4,47.51431210567246,
18,18,36,36,36,54,108,0.83,0.5,0.5,0.5,0.0,0.0,,stimuli/P_18_18_36_36.png,,,,,0,134,134,175,,,,,,,,,,,,,,,,,,,,,,,,,,,,2111.8209869004786,None,2111.8209869004786,None,2112.1963893007487,None,2112.1963893007487,None,50,2112.1963893007487,None,return,2.77878599986434,2112.1963893007487,None,,,LIULIN,F,001,2023_Apr_18_1512,untitled,2021.1.4,47.51431210567246,
0,0,0,9,0,0,9,1.0,None,None,0.0,None,None,,stimuli/P_00_00_00_09.png,,,,,0,135,135,1,,,,,,,,,,,,,,,,,,,,,,,,,,,,2115.005278300494,None,2115.005278300494,None,2115.368240199983,None,2115.368240199983,None,0,2115.368240199983,None,return,1.2043754011392593,2115.368240199983,None,,,LIULIN,F,001,2023_Apr_18_1512,untitled,2021.1.4,47.51431210567246,
18,0,18,36,18,36,72,1.0,0.0,1.0,0.33,0.67,1.0,,stimuli/P_18_00_18_36.png,,,,,0,136,136,139,,,,,,,,,,,,,,,,,,,,,,,,,,,,2116.5925920009613,None,2116.5925920009613,None,2116.960428599268,None,2116.960428599268,None,100,2116.960428599268,None,return,3.983312400057912,2116.960428599268,None,,,LIULIN,F,001,2023_Apr_18_1512,untitled,2021.1.4,47.51431210567246,
9,0,36,18,9,45,63,1.0,0.0,1.0,0.67,0.33,1.0,,stimuli/P_09_00_36_18.png,,,,,0,137,137,78,,,,,,,,,,,,,,,,,,,,,,,,,,,,2120.9733221009374,None,2120.9733221009374,None,2121.367276100442,None,2121.367276100442,None,100,2121.367276100442,None,return,2.0951365996152163,2121.367276100442,None,,,LIULIN,F,001,2023_Apr_18_1512,untitled,2021.1.4,47.51431210567246,
0,0,36,36,0,36,72,1.0,None,None,0.5,None,None,,stimuli/P_00_00_36_36.png,,,,,0,138,138,15,,,,,,,,,,,,,,,,,,,,,,,,,,,,2123.4994511995465,None,2123.4994511995465,None,2123.8644792009145,None,2123.8644792009145,None,0,2123.8644792009145,None,return,1.3590453993529081,2123.8644792009145,None,,,LIULIN,F,001,2023_Apr_18_1512,untitled,2021.1.4,47.51431210567246,
36,0,36,9,36,72,81,1.0,0.0,1.0,0.8,0.2,1.0,,stimuli/P_36_00_36_09.png,,,,,0,139,139,205,,,,,,,,,,,,,,,,,,,,,,,,,,,,2125.2636556010693,None,2125.2636556010693,None,2125.634096700698,None,2125.634096700698,None,100,2125.634096700698,None,return,1.7329127993434668,2125.634096700698,None,,,LIULIN,F,001,2023_Apr_18_1512,untitled,2021.1.4,47.51431210567246,
0,18,9,36,18,9,63,0.71,1.0,0.0,0.2,-0.2,-0.25,,stimuli/P_00_18_09_36.png,,,,,0,140,140,39,,,,,,,,,,,,,,,,,,,,,,,,,,,,2127.3944035004824,None,2127.3944035004824,None,2127.758705900982,None,2127.758705900982,None,0,2127.758705900982,None,return,1.4236906990408897,2127.758705900982,None,,,LIULIN,F,001,2023_Apr_18_1512,untitled,2021.1.4,47.51431210567246,
36,36,18,0,72,54,90,0.6,0.5,0.5,1.0,-0.5,#NAME?,,stimuli/P_36_36_18_00.png,,,,,0,141,141,248,,,,,,,,,,,,,,,,,,,,,,,,,,,,2129.204105200246,None,2129.204105200246,None,2129.5796852000058,None,2129.5796852000058,None,50,2129.5796852000058,None,return,2.023811299353838,2129.5796852000058,None,,,LIULIN,F,001,2023_Apr_18_1512,untitled,2021.1.4,47.51431210567246,
0,18,18,0,18,18,36,0.5,1.0,0.0,1.0,-1.0,#NAME?,,stimuli/P_00_18_18_00.png,,,,,0,142,142,40,,,,,,,,,,,,,,,,,,,,,,,,,,,,2131.6285804007202,None,2131.6285804007202,None,2132.000049199909,None,2132.000049199909,None,0,2132.000049199909,None,return,4.214541099965572,2132.000049199909,None,,,LIULIN,F,001,2023_Apr_18_1512,untitled,2021.1.4,47.51431210567246,
9,0,0,36,9,9,45,1.0,0.0,1.0,0.0,1.0,1.0,,stimuli/P_09_00_00_36.png,,,,,0,143,143,67,,,,,,,,,,,,,,,,,,,,,,,,,,,,2136.2304296996444,None,2136.2304296996444,None,2136.597553400323,None,2136.597553400323,None,100,2136.597553400323,None,return,1.8330789990723133,2136.597553400323,None,,,LIULIN,F,001,2023_Apr_18_1512,untitled,2021.1.4,47.51431210567246,
0,0,36,18,0,36,54,1.0,None,None,0.67,None,None,,stimuli/P_00_00_36_18.png,,,,,0,144,144,14,,,,,,,,,,,,,,,,,,,,,,,,,,,,2138.460033901036,None,2138.460033901036,None,2138.8277726005763,None,2138.8277726005763,None,0,2138.8277726005763,None,return,1.8584984000772238,2138.8277726005763,None,,,LIULIN,F,001,2023_Apr_18_1512,untitled,2021.1.4,47.51431210567246,
36,9,0,36,45,36,81,0.89,0.2,0.8,0.0,0.8,0.8,,stimuli/P_36_09_00_36.png,,,,,0,145,145,211,,,,,,,,,,,,,,,,,,,,,,,,,,,,2140.706586100161,None,2140.706586100161,None,2141.072835000232,None,2141.072835000232,None,70,2141.072835000232,None,return,5.054857300594449,2141.072835000232,None,,,LIULIN,F,001,2023_Apr_18_1512,untitled,2021.1.4,47.51431210567246,
9,18,9,9,27,18,45,0.6,0.67,0.33,0.5,-0.17,-0.33,,stimuli/P_09_18_09_09.png,,,,,0,146,146,101,,,,,,,,,,,,,,,,,,,,,,,,,,,,2146.147855600342,None,2146.147855600342,None,2146.5275440998375,None,2146.5275440998375,None,60,2146.5275440998375,None,return,2.5022468008100986,2146.5275440998375,None,,,LIULIN,F,001,2023_Apr_18_1512,untitled,2021.1.4,47.51431210567246,
0,0,0,36,0,0,36,1.0,None,None,0.0,None,None,,stimuli/P_00_00_00_36.png,,,,,0,147,147,3,,,,,,,,,,,,,,,,,,,,,,,,,,,,2149.0436994004995,None,2149.0436994004995,None,2149.4131815005094,None,2149.4131815005094,None,0,2149.4131815005094,None,return,5.963054299354553,2149.4131815005094,None,,,LIULIN,F,001,2023_Apr_18_1512,untitled,2021.1.4,47.51431210567246,
0,36,36,18,36,36,90,0.6,1.0,0.0,0.67,-0.67,-2.0,,stimuli/P_00_36_36_18.png,,,,,0,148,148,62,,,,,,,,,,,,,,,,,,,,,,,,,,,,2155.3986620996147,None,2155.3986620996147,None,2155.784745199606,None,2155.784745199606,None,0,2155.784745199606,None,return,2.3132859002798796,2155.784745199606,None,,,LIULIN,F,001,2023_Apr_18_1512,untitled,2021.1.4,47.51431210567246,
36,9,9,9,45,45,63,0.86,0.2,0.8,0.5,0.3,0.6,,stimuli/P_36_09_09_09.png,,,,,0,149,149,213,,,,,,,,,,,,,,,,,,,,,,,,,,,,2158.1276079993695,None,2158.1276079993695,None,2158.491802200675,None,2158.491802200675,None,80,2158.491802200675,None,None,,2158.491802200675,None,,,LIULIN,F,001,2023_Apr_18_1512,untitled,2021.1.4,47.51431210567246,
0,36,18,9,36,18,63,0.43,1.0,0.0,0.67,-0.67,-2.0,,stimuli/P_00_36_18_09.png,,,,,0,150,150,57,,,,,,,,,,,,,,,,,,,,,,,,,,,,2166.497685600072,None,2166.497685600072,None,2166.90942450054,None,2166.90942450054,None,0,2166.90942450054,None,return,2.569114699959755,2166.90942450054,None,,,LIULIN,F,001,2023_Apr_18_1512,untitled,2021.1.4,47.51431210567246,
18,36,36,36,54,54,126,0.71,0.67,0.33,0.5,-0.17,-0.33,,stimuli/P_18_36_36_36.png,,,,,0,151,151,191,,,,,,,,,,,,,,,,,,,,,,,,,,,,2169.503157399595,None,2169.503157399595,None,2169.8688484001905,None,2169.8688484001905,None,30,2169.8688484001905,None,return,4.885390799492598,2169.8688484001905,None,,,LIULIN,F,001,2023_Apr_18_1512,untitled,2021.1.4,47.51431210567246,
9,9,0,0,18,9,18,0.5,0.5,0.5,None,None,None,,stimuli/P_09_09_00_00.png,,,,,0,152,152,80,,,,,,,,,,,,,,,,,,,,,,,,,,,,2174.7846025004983,None,2174.7846025004983,None,2175.1582763995975,None,2175.1582763995975,None,50,2175.1582763995975,None,return,2.594446299597621,2175.1582763995975,None,,,LIULIN,F,001,2023_Apr_18_1512,untitled,2021.1.4,47.51431210567246,
0,36,18,18,36,18,72,0.5,1.0,0.0,0.5,-0.5,-1.0,,stimuli/P_00_36_18_18.png,,,,,0,153,153,58,,,,,,,,,,,,,,,,,,,,,,,,,,,,2177.7911572996527,None,2177.7911572996527,None,2178.355267500505,None,2178.355267500505,None,0,2178.355267500505,None,return,2.238228900358081,2178.355267500505,None,,,LIULIN,F,001,2023_Apr_18_1512,untitled,2021.1.4,47.51431210567246,
36,18,0,9,54,36,63,0.71,0.33,0.67,0.0,0.67,0.67,,stimuli/P_36_18_00_09.png,,,,,0,154,154,225,,,,,,,,,,,,,,,,,,,,,,,,,,,,2180.6107250005007,None,2180.6107250005007,None,2180.984296100214,None,2180.984296100214,None,70,2180.984296100214,None,return,3.664528200402856,2180.984296100214,None,,,LIULIN,F,001,2023_Apr_18_1512,untitled,2021.1.4,47.51431210567246,
18,0,18,0,18,36,36,1.0,0.0,1.0,1.0,0.0,None,,stimuli/P_18_00_18_00.png,,,,,0,155,155,136,,,,,,,,,,,,,,,,,,,,,,,,,,,,2184.665429800749,None,2184.665429800749,None,2185.0332277994603,None,2185.0332277994603,None,100,2185.0332277994603,None,return,3.79303739964962,2185.0332277994603,None,,,LIULIN,F,001,2023_Apr_18_1512,untitled,2021.1.4,47.51431210567246,
9,9,18,9,18,27,45,0.8,0.5,0.5,0.67,-0.17,-0.5,,stimuli/P_09_09_18_09.png,,,,,0,156,156,89,,,,,,,,,,,,,,,,,,,,,,,,,,,,2188.8522411007434,None,2188.8522411007434,None,2189.2221236005425,None,2189.2221236005425,None,50,2189.2221236005425,None,return,2.6006828006356955,2189.2221236005425,None,,,LIULIN,F,001,2023_Apr_18_1512,untitled,2021.1.4,47.51431210567246,
9,36,18,18,45,27,81,0.56,0.8,0.2,0.5,-0.3,-0.6,,stimuli/P_09_36_18_18.png,,,,,0,157,157,122,,,,,,,,,,,,,,,,,,,,,,,,,,,,2191.8373940996826,None,2191.8373940996826,None,2192.213697500527,None,2192.213697500527,None,30,2192.213697500527,None,return,4.813670799136162,2192.213697500527,None,,,LIULIN,F,001,2023_Apr_18_1512,untitled,2021.1.4,47.51431210567246,
36,36,0,9,72,36,81,0.56,0.5,0.5,0.0,0.5,0.5,,stimuli/P_36_36_00_09.png,,,,,0,158,158,241,,,,,,,,,,,,,,,,,,,,,,,,,,,,2197.042522499338,None,2197.042522499338,None,2197.420617301017,None,2197.420617301017,None,50,2197.420617301017,None,return,2.1539970003068447,2197.420617301017,None,,,LIULIN,F,001,2023_Apr_18_1512,untitled,2021.1.4,47.51431210567246,
9,18,9,18,27,18,54,0.67,0.67,0.33,0.33,0.0,0.0,,stimuli/P_09_18_09_18.png,,,,,0,159,159,102,,,,,,,,,,,,,,,,,,,,,,,,,,,,2199.6015971004963,None,2199.6015971004963,None,2199.9723460003734,None,2199.9723460003734,None,45,2199.9723460003734,None,return,5.435284400358796,2199.9723460003734,None,,,LIULIN,F,001,2023_Apr_18_1512,untitled,2021.1.4,47.51431210567246,
18,9,36,0,27,54,63,0.86,0.33,0.67,1.0,-0.33,#NAME?,,stimuli/P_18_09_36_00.png,,,,,0,160,160,156,,,,,,,,,,,,,,,,,,,,,,,,,,,,2205.441270099953,None,2205.441270099953,None,2205.8116893004626,None,2205.8116893004626,None,65,2205.8116893004626,None,return,5.009469900280237,2205.8116893004626,None,,,LIULIN,F,001,2023_Apr_18_1512,untitled,2021.1.4,47.51431210567246,
9,9,36,0,18,45,54,0.83,0.5,0.5,1.0,-0.5,#NAME?,,stimuli/P_09_09_36_00.png,,,,,0,161,161,92,,,,,,,,,,,,,,,,,,,,,,,,,,,,2210.8538515008986,None,2210.8538515008986,None,2211.2267535999417,None,2211.2267535999417,None,50,2211.2267535999417,None,return,2.0075168013572693,2211.2267535999417,None,,,LIULIN,F,001,2023_Apr_18_1512,untitled,2021.1.4,47.51431210567246,
18,18,9,36,36,27,81,0.78,0.5,0.5,0.2,0.3,0.37,,stimuli/P_18_18_09_36.png,,,,,0,162,162,167,,,,,,,,,,,,,,,,,,,,,,,,,,,,2213.272298300639,None,2213.272298300639,None,2213.657552499324,None,2213.657552499324,None,50,2213.657552499324,None,return,1.6673777997493744,2213.657552499324,None,,,LIULIN,F,001,2023_Apr_18_1512,untitled,2021.1.4,47.51431210567246,
18,36,18,9,54,36,81,0.56,0.67,0.33,0.67,-0.33,-1.0,,stimuli/P_18_36_18_09.png,,,,,0,163,163,185,,,,,,,,,,,,,,,,,,,,,,,,,,,,2215.355001600459,None,2215.355001600459,None,2215.7287569008768,None,2215.7287569008768,None,35,2215.7287569008768,None,return,4.431724300608039,2215.7287569008768,None,,,LIULIN,F,001,2023_Apr_18_1512,untitled,2021.1.4,47.51431210567246,
9,0,0,0,9,9,9,1.0,0.0,1.0,None,None,None,,stimuli/P_09_00_00_00.png,,,,,0,164,164,64,,,,,,,,,,,,,,,,,,,,,,,,,,,,2220.189012799412,None,2220.189012799412,None,2220.5548359006643,None,2220.5548359006643,None,100,2220.5548359006643,None,return,2.1729649994522333,2220.5548359006643,None,,,LIULIN,F,001,2023_Apr_18_1512,untitled,2021.1.4,47.51431210567246,
9,9,18,36,18,27,72,0.88,0.5,0.5,0.33,0.17,0.25,,stimuli/P_09_09_18_36.png,,,,,0,165,165,91,,,,,,,,,,,,,,,,,,,,,,,,,,,,2222.7531736996025,None,2222.7531736996025,None,2223.1359708998352,None,2223.1359708998352,None,50,2223.1359708998352,None,return,2.03622579947114,2223.1359708998352,None,,,LIULIN,F,001,2023_Apr_18_1512,untitled,2021.1.4,47.51431210567246,
9,36,36,36,45,45,117,0.69,0.8,0.2,0.5,-0.3,-0.6,,stimuli/P_09_36_36_36.png,,,,,0,166,166,127,,,,,,,,,,,,,,,,,,,,,,,,,,,,2225.2036028001457,None,2225.2036028001457,None,2225.5612025000155,None,2225.5612025000155,None,25,2225.5612025000155,None,return,5.350532999262214,2225.5612025000155,None,,,LIULIN,F,001,2023_Apr_18_1512,untitled,2021.1.4,47.51431210567246,
36,9,18,9,45,54,72,0.88,0.2,0.8,0.67,0.13,0.4,,stimuli/P_36_09_18_09.png,,,,,0,167,167,217,,,,,,,,,,,,,,,,,,,,,,,,,,,,2230.933211600408,None,2230.933211600408,None,2231.3117228001356,None,2231.3117228001356,None,75,2231.3117228001356,None,return,5.522576600313187,2231.3117228001356,None,,,LIULIN,F,001,2023_Apr_18_1512,untitled,2021.1.4,47.51431210567246,
18,36,18,0,54,36,72,0.5,0.67,0.33,1.0,-0.67,#NAME?,,stimuli/P_18_36_18_00.png,,,,,0,168,168,184,,,,,,,,,,,,,,,,,,,,,,,,,,,,2236.8548872005194,None,2236.8548872005194,None,2237.2223359998316,None,2237.2223359998316,None,35,2237.2223359998316,None,return,5.681787200272083,2237.2223359998316,None,,,LIULIN,F,001,2023_Apr_18_1512,untitled,2021.1.4,47.51431210567246,
18,9,9,0,27,27,36,0.75,0.33,0.67,1.0,-0.33,#NAME?,,stimuli/P_18_09_09_00.png,,,,,0,169,169,148,,,,,,,,,,,,,,,,,,,,,,,,,,,,2242.9357076007873,None,2242.9357076007873,None,2243.289654100314,None,2243.289654100314,None,65,2243.289654100314,None,return,5.169426001608372,2243.289654100314,None,,,LIULIN,F,001,2023_Apr_18_1512,untitled,2021.1.4,47.51431210567246,
36,36,18,9,72,54,99,0.64,0.5,0.5,0.67,-0.17,-0.5,,stimuli/P_36_36_18_09.png,,,,,0,170,170,249,,,,,,,,,,,,,,,,,,,,,,,,,,,,2248.482385000214,None,2248.482385000214,None,2248.864236600697,None,2248.864236600697,None,50,2248.864236600697,None,return,1.8917154986411333,2248.864236600697,None,,,LIULIN,F,001,2023_Apr_18_1512,untitled,2021.1.4,47.51431210567246,
36,9,9,18,45,45,72,0.88,0.2,0.8,0.33,0.47,0.7,,stimuli/P_36_09_09_18.png,,,,,0,171,171,214,,,,,,,,,,,,,,,,,,,,,,,,,,,,2250.7855101004243,None,2250.7855101004243,None,2251.1447883006185,None,2251.1447883006185,None,76,2251.1447883006185,None,return,3.7585966009646654,2251.1447883006185,None,,,LIULIN,F,001,2023_Apr_18_1512,untitled,2021.1.4,47.51431210567246,
18,9,0,36,27,18,63,0.86,0.33,0.67,0.0,0.67,0.67,,stimuli/P_18_09_00_36.png,,,,,0,172,172,147,,,,,,,,,,,,,,,,,,,,,,,,,,,,2254.919167600572,None,2254.919167600572,None,2255.2984788008034,None,2255.2984788008034,None,60,2255.2984788008034,None,return,6.677967399358749,2255.2984788008034,None,,,LIULIN,F,001,2023_Apr_18_1512,untitled,2021.1.4,47.51431210567246,
0,36,9,36,36,9,81,0.56,1.0,0.0,0.2,-0.2,-0.25,,stimuli/P_00_36_09_36.png,,,,,0,173,173,55,,,,,,,,,,,,,,,,,,,,,,,,,,,,2262.0055938009173,None,2262.0055938009173,None,2262.384160399437,None,2262.384160399437,None,0,2262.384160399437,None,return,1.4713084008544683,2262.384160399437,None,,,LIULIN,F,001,2023_Apr_18_1512,untitled,2021.1.4,47.51431210567246,
18,0,36,0,18,54,54,1.0,0.0,1.0,1.0,0.0,None,,stimuli/P_18_00_36_00.png,,,,,0,174,174,140,,,,,,,,,,,,,,,,,,,,,,,,,,,,2263.878643900156,None,2263.878643900156,None,2264.2465637996793,None,2264.2465637996793,None,100,2264.2465637996793,None,return,1.9235923010855913,2264.2465637996793,None,,,LIULIN,F,001,2023_Apr_18_1512,untitled,2021.1.4,47.51431210567246,
9,0,0,18,9,9,27,1.0,0.0,1.0,0.0,1.0,1.0,,stimuli/P_09_00_00_18.png,,,,,0,175,175,66,,,,,,,,,,,,,,,,,,,,,,,,,,,,2266.203689299524,None,2266.203689299524,None,2266.5769330002367,None,2266.5769330002367,None,100,2266.5769330002367,None,return,1.5890910997986794,2266.5769330002367,None,,,LIULIN,F,001,2023_Apr_18_1512,untitled,2021.1.4,47.51431210567246,
36,9,18,0,45,54,63,0.86,0.2,0.8,1.0,-0.2,#NAME?,,stimuli/P_36_09_18_00.png,,,,,0,176,176,216,,,,,,,,,,,,,,,,,,,,,,,,,,,,2268.203987300396,None,2268.203987300396,None,2268.5773482006043,None,2268.5773482006043,None,75,2268.5773482006043,None,return,2.77274820022285,2268.5773482006043,None,,,LIULIN,F,001,2023_Apr_18_1512,untitled,2021.1.4,47.51431210567246,
0,18,0,18,18,0,36,0.5,1.0,0.0,0.0,0.0,0.0,,stimuli/P_00_18_00_18.png,,,,,0,177,177,34,,,,,,,,,,,,,,,,,,,,,,,,,,,,2271.371137401089,None,2271.371137401089,None,2271.746149400249,None,2271.746149400249,None,0,2271.746149400249,None,return,1.4282080996781588,2271.746149400249,None,,,LIULIN,F,001,2023_Apr_18_1512,untitled,2021.1.4,47.51431210567246,
36,18,36,9,54,72,99,0.82,0.33,0.67,0.8,-0.13,-0.67,,stimuli/P_36_18_36_09.png,,,,,0,178,178,237,,,,,,,,,,,,,,,,,,,,,,,,,,,,2273.197013400495,None,2273.197013400495,None,2273.558384399861,None,2273.558384399861,None,65,2273.558384399861,None,return,2.363662099465728,2273.558384399861,None,,,LIULIN,F,001,2023_Apr_18_1512,untitled,2021.1.4,47.51431210567246,
0,36,9,9,36,9,54,0.33,1.0,0.0,0.5,-0.5,-1.0,,stimuli/P_00_36_09_09.png,,,,,0,179,179,53,,,,,,,,,,,,,,,,,,,,,,,,,,,,2275.9385818000883,None,2275.9385818000883,None,2276.3284300006926,None,2276.3284300006926,None,0,2276.3284300006926,None,return,1.3319189008325338,2276.3284300006926,None,,,LIULIN,F,001,2023_Apr_18_1512,untitled,2021.1.4,47.51431210567246,
0,36,0,18,36,0,54,0.33,1.0,0.0,0.0,0.0,0.0,,stimuli/P_00_36_00_18.png,,,,,0,180,180,50,,,,,,,,,,,,,,,,,,,,,,,,,,,,2277.6815505009145,None,2277.6815505009145,None,2278.0526735000312,None,2278.0526735000312,None,0,2278.0526735000312,None,return,1.4743355996906757,2278.0526735000312,None,,,LIULIN,F,001,2023_Apr_18_1512,untitled,2021.1.4,47.51431210567246,
18,0,9,0,18,27,27,1.0,0.0,1.0,1.0,0.0,None,,stimuli/P_18_00_09_00.png,,,,,0,181,181,132,,,,,,,,,,,,,,,,,,,,,,,,,,,,2279.5684041995555,None,2279.5684041995555,None,2279.934835700318,None,2279.934835700318,None,100,2279.934835700318,None,return,1.8050366006791592,2279.934835700318,None,,,LIULIN,F,001,2023_Apr_18_1512,untitled,2021.1.4,47.51431210567246,
0,0,36,9,0,36,45,1.0,None,None,0.8,None,None,,stimuli/P_00_00_36_09.png,,,,,0,182,182,13,,,,,,,,,,,,,,,,,,,,,,,,,,,,2281.763599799946,None,2281.763599799946,None,2282.1274791006,None,2282.1274791006,None,0,2282.1274791006,None,return,1.0761041007936,2282.1274791006,None,,,LIULIN,F,001,2023_Apr_18_1512,untitled,2021.1.4,47.51431210567246,
36,18,9,36,54,45,99,0.82,0.33,0.67,0.2,0.47,0.58,,stimuli/P_36_18_09_36.png,,,,,0,183,183,231,,,,,,,,,,,,,,,,,,,,,,,,,,,,2283.233135100454,None,2283.233135100454,None,2283.5966191999614,None,2283.5966191999614,None,65,2283.5966191999614,None,return,4.019172200933099,2283.5966191999614,None,,,LIULIN,F,001,2023_Apr_18_1512,untitled,2021.1.4,47.51431210567246,
36,18,36,36,54,72,126,0.86,0.33,0.67,0.5,0.17,0.33,,stimuli/P_36_18_36_36.png,,,,,0,184,184,239,,,,,,,,,,,,,,,,,,,,,,,,,,,,2287.646685799584,None,2287.646685799584,None,2288.0245715007186,None,2288.0245715007186,None,65,2288.0245715007186,None,return,5.862620899453759,2288.0245715007186,None,,,LIULIN,F,001,2023_Apr_18_1512,untitled,2021.1.4,47.51431210567246,
9,18,0,0,27,9,27,0.33,0.67,0.33,None,None,None,,stimuli/P_09_18_00_00.png,,,,,0,185,185,96,,,,,,,,,,,,,,,,,,,,,,,,,,,,2293.9110023006797,None,2293.9110023006797,None,2294.283836500719,None,2294.283836500719,None,30,2294.283836500719,None,return,6.373927699401975,2294.283836500719,None,,,LIULIN,F,001,2023_Apr_18_1512,untitled,2021.1.4,47.51431210567246,
9,36,18,0,45,27,63,0.43,0.8,0.2,1.0,-0.8,#NAME?,,stimuli/P_09_36_18_00.png,,,,,0,186,186,120,,,,,,,,,,,,,,,,,,,,,,,,,,,,2300.68312769942,None,2300.68312769942,None,2301.0580540001392,None,2301.0580540001392,None,25,2301.0580540001392,None,return,4.592533599585295,2301.0580540001392,None,,,LIULIN,F,001,2023_Apr_18_1512,untitled,2021.1.4,47.51431210567246,
9,9,36,18,18,45,72,0.88,0.5,0.5,0.67,-0.17,-0.5,,stimuli/P_09_09_36_18.png,,,,,0,187,187,94,,,,,,,,,,,,,,,,,,,,,,,,,,,,2305.681186299771,None,2305.681186299771,None,2306.046743899584,None,2306.046743899584,None,50,2306.046743899584,None,return,2.433940699324012,2306.046743899584,None,,,LIULIN,F,001,2023_Apr_18_1512,untitled,2021.1.4,47.51431210567246,
36,18,18,36,54,54,108,0.83,0.33,0.67,0.33,0.33,0.5,,stimuli/P_36_18_18_36.png,,,,,0,188,188,235,,,,,,,,,,,,,,,,,,,,,,,,,,,,2308.507340600714,None,2308.507340600714,None,2308.875793499872,None,2308.875793499872,None,55,2308.875793499872,None,return,7.560029799118638,2308.875793499872,None,,,LIULIN,F,001,2023_Apr_18_1512,untitled,2021.1.4,47.51431210567246,
9,9,0,9,18,9,27,0.67,0.5,0.5,0.0,0.5,0.5,,stimuli/P_09_09_00_09.png,,,,,0,189,189,81,,,,,,,,,,,,,,,,,,,,,,,,,,,,2316.474668700248,None,2316.474668700248,None,2316.8457645010203,None,2316.8457645010203,None,50,2316.8457645010203,None,return,2.283083898946643,2316.8457645010203,None,,,LIULIN,F,001,2023_Apr_18_1512,untitled,2021.1.4,47.51431210567246,
18,18,0,36,36,18,72,0.75,0.5,0.5,0.0,0.5,0.5,,stimuli/P_18_18_00_36.png,,,,,0,190,190,163,,,,,,,,,,,,,,,,,,,,,,,,,,,,2319.1641052998602,None,2319.1641052998602,None,2319.538154700771,None,2319.538154700771,None,50,2319.538154700771,None,return,1.6612478997558355,2319.538154700771,None,,,LIULIN,F,001,2023_Apr_18_1512,untitled,2021.1.4,47.51431210567246,
18,0,36,18,18,54,72,1.0,0.0,1.0,0.67,0.33,1.0,,stimuli/P_18_00_36_18.png,,,,,0,191,191,142,,,,,,,,,,,,,,,,,,,,,,,,,,,,2321.215748799965,None,2321.215748799965,None,2321.5930570010096,None,2321.5930570010096,None,100,2321.5930570010096,None,return,2.7379775010049343,2321.5930570010096,None,,,LIULIN,F,001,2023_Apr_18_1512,untitled,2021.1.4,47.51431210567246,
0,36,18,36,36,18,90,0.6,1.0,0.0,0.33,-0.33,-0.5,,stimuli/P_00_36_18_36.png,,,,,0,192,192,59,,,,,,,,,,,,,,,,,,,,,,,,,,,,2324.3547728005797,None,2324.3547728005797,None,2324.725837700069,None,2324.725837700069,None,0,2324.725837700069,None,return,1.1863605994731188,2324.725837700069,None,,,LIULIN,F,001,2023_Apr_18_1512,untitled,2021.1.4,47.51431210567246,
9,18,18,18,27,27,63,0.71,0.67,0.33,0.5,-0.17,-0.33,,stimuli/P_09_18_18_18.png,,,,,0,193,193,106,,,,,,,,,,,,,,,,,,,,,,,,,,,,2325.9430774003267,None,2325.9430774003267,None,2326.3096878994256,None,2326.3096878994256,None,35,2326.3096878994256,None,return,4.199717000126839,2326.3096878994256,None,,,LIULIN,F,001,2023_Apr_18_1512,untitled,2021.1.4,47.51431210567246,
36,36,36,9,72,72,117,0.69,0.5,0.5,0.8,-0.3,-1.5,,stimuli/P_36_36_36_09.png,,,,,0,194,194,253,,,,,,,,,,,,,,,,,,,,,,,,,,,,2330.5380694009364,None,2330.5380694009364,None,2330.9103453997523,None,2330.9103453997523,None,50,2330.9103453997523,None,return,2.7660298012197018,2330.9103453997523,None,,,LIULIN,F,001,2023_Apr_18_1512,untitled,2021.1.4,47.51431210567246,
0,9,0,0,9,0,9,0.0,1.0,0.0,None,None,None,,stimuli/P_00_09_00_00.png,,,,,0,195,195,16,,,,,,,,,,,,,,,,,,,,,,,,,,,,2333.721083100885,None,2333.721083100885,None,2334.0821684002876,None,2334.0821684002876,None,0,2334.0821684002876,None,return,1.6324207000434399,2334.0821684002876,None,,,LIULIN,F,001,2023_Apr_18_1512,untitled,2021.1.4,47.51431210567246,
9,9,0,18,18,9,36,0.75,0.5,0.5,0.0,0.5,0.5,,stimuli/P_09_09_00_18.png,,,,,0,196,196,82,,,,,,,,,,,,,,,,,,,,,,,,,,,,2335.749728800729,None,2335.749728800729,None,2336.115863800049,None,2336.115863800049,None,50,2336.115863800049,None,return,1.7675339002162218,2336.115863800049,None,,,LIULIN,F,001,2023_Apr_18_1512,untitled,2021.1.4,47.51431210567246,
9,0,36,0,9,45,45,1.0,0.0,1.0,1.0,0.0,None,,stimuli/P_09_00_36_00.png,,,,,0,197,197,76,,,,,,,,,,,,,,,,,,,,,,,,,,,,2337.920907199383,None,2337.920907199383,None,2338.2980471998453,None,2338.2980471998453,None,100,2338.2980471998453,None,return,3.3222450017929077,2338.2980471998453,None,,,LIULIN,F,001,2023_Apr_18_1512,untitled,2021.1.4,47.51431210567246,
36,18,0,0,54,36,54,0.67,0.33,0.67,None,None,None,,stimuli/P_36_18_00_00.png,,,,,0,198,198,224,,,,,,,,,,,,,,,,,,,,,,,,,,,,2341.6522022001445,None,2341.6522022001445,None,2342.016648599878,None,2342.016648599878,None,75,2342.016648599878,None,return,4.293728198856115,2342.016648599878,None,,,LIULIN,F,001,2023_Apr_18_1512,untitled,2021.1.4,47.51431210567246,
36,36,9,9,72,45,90,0.6,0.5,0.5,0.5,0.0,0.0,,stimuli/P_36_36_09_09.png,,,,,0,199,199,245,,,,,,,,,,,,,,,,,,,,,,,,,,,,2346.343256400898,None,2346.343256400898,None,2346.7147870007902,None,2346.7147870007902,None,50,2346.7147870007902,None,return,1.68593779951334,2346.7147870007902,None,,,LIULIN,F,001,2023_Apr_18_1512,untitled,2021.1.4,47.51431210567246,
36,9,0,9,45,36,54,0.83,0.2,0.8,0.0,0.8,0.8,,stimuli/P_36_09_00_09.png,,,,,0,200,200,209,,,,,,,,,,,,,,,,,,,,,,,,,,,,2348.419987300411,None,2348.419987300411,None,2348.803695300594,None,2348.803695300594,None,85,2348.803695300594,None,return,2.4515762999653816,2348.803695300594,None,,,LIULIN,F,001,2023_Apr_18_1512,untitled,2021.1.4,47.51431210567246,
0,9,36,18,9,36,63,0.86,1.0,0.0,0.67,-0.67,-2.0,,stimuli/P_00_09_36_18.png,,,,,0,201,201,30,,,,,,,,,,,,,,,,,,,,,,,,,,,,2351.279024200514,None,2351.279024200514,None,2351.6456824000925,None,2351.6456824000925,None,0,2351.6456824000925,None,return,1.5076398011296988,2351.6456824000925,None,,,LIULIN,F,001,2023_Apr_18_1512,untitled,2021.1.4,47.51431210567246,
18,36,18,18,54,36,90,0.6,0.67,0.33,0.5,-0.17,-0.33,,stimuli/P_18_36_18_18.png,,,,,0,202,202,186,,,,,,,,,,,,,,,,,,,,,,,,,,,,2353.192889900878,None,2353.192889900878,None,2353.6005143001676,None,2353.6005143001676,None,35,2353.6005143001676,None,return,6.087847301736474,2353.6005143001676,None,,,LIULIN,F,001,2023_Apr_18_1512,untitled,2021.1.4,47.51431210567246,
36,0,0,36,36,36,72,1.0,0.0,1.0,0.0,1.0,1.0,,stimuli/P_36_00_00_36.png,,,,,0,203,203,195,,,,,,,,,,,,,,,,,,,,,,,,,,,,2359.723248800263,None,2359.723248800263,None,2360.0942908003926,None,2360.0942908003926,None,100,2360.0942908003926,None,return,2.8723196014761925,2360.0942908003926,None,,,LIULIN,F,001,2023_Apr_18_1512,untitled,2021.1.4,47.51431210567246,
36,18,18,0,54,54,72,0.75,0.33,0.67,1.0,-0.33,#NAME?,,stimuli/P_36_18_18_00.png,,,,,0,204,204,232,,,,,,,,,,,,,,,,,,,,,,,,,,,,2362.987684400752,None,2362.987684400752,None,2363.362946299836,None,2363.362946299836,None,75,2363.362946299836,None,return,4.907700499519706,2363.362946299836,None,,,LIULIN,F,001,2023_Apr_18_1512,untitled,2021.1.4,47.51431210567246,
18,9,0,9,27,18,36,0.75,0.33,0.67,0.0,0.67,0.67,,stimuli/P_18_09_00_09.png,,,,,0,205,205,145,,,,,,,,,,,,,,,,,,,,,,,,,,,,2368.308258600533,None,2368.308258600533,None,2368.6814663000405,None,2368.6814663000405,None,55,2368.6814663000405,None,return,5.259699299931526,2368.6814663000405,None,,,LIULIN,F,001,2023_Apr_18_1512,untitled,2021.1.4,47.51431210567246,
0,9,9,0,9,9,18,0.5,1.0,0.0,1.0,-1.0,#NAME?,,stimuli/P_00_09_09_00.png,,,,,0,206,206,20,,,,,,,,,,,,,,,,,,,,,,,,,,,,2373.975499700755,None,2373.975499700755,None,2374.344284299761,None,2374.344284299761,None,0,2374.344284299761,None,return,1.5816003996878862,2374.344284299761,None,,,LIULIN,F,001,2023_Apr_18_1512,untitled,2021.1.4,47.51431210567246,
18,18,0,9,36,18,45,0.6,0.5,0.5,0.0,0.5,0.5,,stimuli/P_18_18_00_09.png,,,,,0,207,207,161,,,,,,,,,,,,,,,,,,,,,,,,,,,,2375.9686808995903,None,2375.9686808995903,None,2376.335110399872,None,2376.335110399872,None,50,2376.335110399872,None,return,1.735588800162077,2376.335110399872,None,,,LIULIN,F,001,2023_Apr_18_1512,untitled,2021.1.4,47.51431210567246,
0,18,9,9,18,9,36,0.5,1.0,0.0,0.5,-0.5,-1.0,,stimuli/P_00_18_09_09.png,,,,,0,208,208,37,,,,,,,,,,,,,,,,,,,,,,,,,,,,2378.108850300312,None,2378.108850300312,None,2378.495222400874,None,2378.495222400874,None,0,2378.495222400874,None,return,2.262363700196147,2378.495222400874,None,,,LIULIN,F,001,2023_Apr_18_1512,untitled,2021.1.4,47.51431210567246,
9,36,36,18,45,45,99,0.64,0.8,0.2,0.67,-0.47,-1.4,,stimuli/P_09_36_36_18.png,,,,,0,209,209,126,,,,,,,,,,,,,,,,,,,,,,,,,,,,2380.7936975993216,None,2380.7936975993216,None,2381.169676100835,None,2381.169676100835,None,25,2381.169676100835,None,return,5.651726400479674,2381.169676100835,None,,,LIULIN,F,001,2023_Apr_18_1512,untitled,2021.1.4,47.51431210567246,
36,0,9,18,36,45,63,1.0,0.0,1.0,0.33,0.67,1.0,,stimuli/P_36_00_09_18.png,,,,,0,210,210,198,,,,,,,,,,,,,,,,,,,,,,,,,,,,2386.8477273993194,None,2386.8477273993194,None,2387.2143859993666,None,2387.2143859993666,None,100,2387.2143859993666,None,return,1.8980788011103868,2387.2143859993666,None,,,LIULIN,F,001,2023_Apr_18_1512,untitled,2021.1.4,47.51431210567246,
18,18,9,18,36,27,63,0.71,0.5,0.5,0.33,0.17,0.25,,stimuli/P_18_18_09_18.png,,,,,0,211,211,166,,,,,,,,,,,,,,,,,,,,,,,,,,,,2389.133109200746,None,2389.133109200746,None,2389.5026118997484,None,2389.5026118997484,None,50,2389.5026118997484,None,return,1.6197448000311852,2389.5026118997484,None,,,LIULIN,F,001,2023_Apr_18_1512,untitled,2021.1.4,47.51431210567246,
9,0,9,36,9,18,54,1.0,0.0,1.0,0.2,0.8,1.0,,stimuli/P_09_00_09_36.png,,,,,0,212,212,71,,,,,,,,,,,,,,,,,,,,,,,,,,,,2391.1479860004038,None,2391.1479860004038,None,2391.5128697007895,None,2391.5128697007895,None,100,2391.5128697007895,None,return,6.20599289983511,2391.5128697007895,None,,,LIULIN,F,001,2023_Apr_18_1512,untitled,2021.1.4,47.51431210567246,
36,0,0,9,36,36,45,1.0,0.0,1.0,0.0,1.0,1.0,,stimuli/P_36_00_00_09.png,,,,,0,213,213,193,,,,,,,,,,,,,,,,,,,,,,,,,,,,2397.745275899768,None,2397.745275899768,None,2398.121302500367,None,2398.121302500367,None,100,2398.121302500367,None,return,1.3915210012346506,2398.121302500367,None,,,LIULIN,F,001,2023_Apr_18_1512,untitled,2021.1.4,47.51431210567246,
18,18,18,0,36,36,54,0.67,0.5,0.5,1.0,-0.5,#NAME?,,stimuli/P_18_18_18_00.png,,,,,0,214,214,168,,,,,,,,,,,,,,,,,,,,,,,,,,,,2399.539640199393,None,2399.539640199393,None,2399.919134700671,None,2399.919134700671,None,50,2399.919134700671,None,return,1.846136100590229,2399.919134700671,None,,,LIULIN,F,001,2023_Apr_18_1512,untitled,2021.1.4,47.51431210567246,
9,36,18,9,45,27,72,0.5,0.8,0.2,0.67,-0.47,-1.4,,stimuli/P_09_36_18_09.png,,,,,0,215,215,121,,,,,,,,,,,,,,,,,,,,,,,,,,,,2401.78579390049,None,2401.78579390049,None,2402.158851100132,None,2402.158851100132,None,35,2402.158851100132,None,return,4.159599099308252,2402.158851100132,None,,,LIULIN,F,001,2023_Apr_18_1512,untitled,2021.1.4,47.51431210567246,
18,36,9,18,54,27,81,0.56,0.67,0.33,0.33,0.0,0.0,,stimuli/P_18_36_09_18.png,,,,,0,216,216,182,,,,,,,,,,,,,,,,,,,,,,,,,,,,2406.351128300652,None,2406.351128300652,None,2406.7158646006137,None,2406.7158646006137,None,40,2406.7158646006137,None,return,4.994592200964689,2406.7158646006137,None,,,LIULIN,F,001,2023_Apr_18_1512,untitled,2021.1.4,47.51431210567246,
0,9,18,36,9,18,63,0.86,1.0,0.0,0.33,-0.33,-0.5,,stimuli/P_00_09_18_36.png,,,,,0,217,217,27,,,,,,,,,,,,,,,,,,,,,,,,,,,,2411.7313665002584,None,2411.7313665002584,None,2412.1201313994825,None,2412.1201313994825,None,0,2412.1201313994825,None,return,1.5333436001092196,2412.1201313994825,None,,,LIULIN,F,001,2023_Apr_18_1512,untitled,2021.1.4,47.51431210567246,
36,9,0,0,45,36,45,0.8,0.2,0.8,None,None,None,,stimuli/P_36_09_00_00.png,,,,,0,218,218,208,,,,,,,,,,,,,,,,,,,,,,,,,,,,2413.686126699671,None,2413.686126699671,None,2414.058048799634,None,2414.058048799634,None,75,2414.058048799634,None,return,3.3574596010148525,2414.058048799634,None,,,LIULIN,F,001,2023_Apr_18_1512,untitled,2021.1.4,47.51431210567246,
0,18,0,9,18,0,27,0.33,1.0,0.0,0.0,0.0,0.0,,stimuli/P_00_18_00_09.png,,,,,0,219,219,33,,,,,,,,,,,,,,,,,,,,,,,,,,,,2417.44287260063,None,2417.44287260063,None,2417.8300879001617,None,2417.8300879001617,None,0,2417.8300879001617,None,return,3.1315283998847008,2417.8300879001617,None,,,LIULIN,F,001,2023_Apr_18_1512,untitled,2021.1.4,47.51431210567246,
9,18,0,9,27,9,36,0.5,0.67,0.33,0.0,0.33,0.33,,stimuli/P_09_18_00_09.png,,,,,0,220,220,97,,,,,,,,,,,,,,,,,,,,,,,,,,,,2420.98035130091,None,2420.98035130091,None,2421.357178600505,None,2421.357178600505,None,40,2421.357178600505,None,return,4.212364399805665,2421.357178600505,None,,,LIULIN,F,001,2023_Apr_18_1512,untitled,2021.1.4,47.51431210567246,
9,9,18,0,18,27,36,0.75,0.5,0.5,1.0,-0.5,#NAME?,,stimuli/P_09_09_18_00.png,,,,,0,221,221,88,,,,,,,,,,,,,,,,,,,,,,,,,,,,2425.5870603006333,None,2425.5870603006333,None,2425.97186139971,None,2425.97186139971,None,50,2425.97186139971,None,return,2.0114491004496813,2425.97186139971,None,,,LIULIN,F,001,2023_Apr_18_1512,untitled,2021.1.4,47.51431210567246,
18,36,36,9,54,54,99,0.64,0.67,0.33,0.8,-0.47,-2.33,,stimuli/P_18_36_36_09.png,,,,,0,222,222,189,,,,,,,,,,,,,,,,,,,,,,,,,,,,2428.018611200154,None,2428.018611200154,None,2428.388552200049,None,2428.388552200049,None,40,2428.388552200049,None,return,5.23207219876349,2428.388552200049,None,,,LIULIN,F,001,2023_Apr_18_1512,untitled,2021.1.4,47.51431210567246,
9,36,36,9,45,45,90,0.6,0.8,0.2,0.8,-0.6,-3.0,,stimuli/P_09_36_36_09.png,,,,,0,223,223,125,,,,,,,,,,,,,,,,,,,,,,,,,,,,2433.6461868006736,None,2433.6461868006736,None,2434.009951300919,None,2434.009951300919,None,20,2434.009951300919,None,return,3.3986202999949455,2434.009951300919,None,,,LIULIN,F,001,2023_Apr_18_1512,untitled,2021.1.4,47.51431210567246,
18,0,0,36,18,18,54,1.0,0.0,1.0,0.0,1.0,1.0,,stimuli/P_18_00_00_36.png,,,,,0,224,224,131,,,,,,,,,,,,,,,,,,,,,,,,,,,,2437.436075700447,None,2437.436075700447,None,2437.8085564002395,None,2437.8085564002395,None,100,2437.8085564002395,None,return,2.8790282011032104,2437.8085564002395,None,,,LIULIN,F,001,2023_Apr_18_1512,untitled,2021.1.4,47.51431210567246,
9,36,9,9,45,18,63,0.43,0.8,0.2,0.5,-0.3,-0.6,,stimuli/P_09_36_09_09.png,,,,,0,225,225,117,,,,,,,,,,,,,,,,,,,,,,,,,,,,2440.7246583998203,None,2440.7246583998203,None,2441.093622200191,None,2441.093622200191,None,25,2441.093622200191,None,return,3.529771700501442,2441.093622200191,None,,,LIULIN,F,001,2023_Apr_18_1512,untitled,2021.1.4,47.51431210567246,
0,36,36,0,36,36,72,0.5,1.0,0.0,1.0,-1.0,#NAME?,,stimuli/P_00_36_36_00.png,,,,,0,226,226,60,,,,,,,,,,,,,,,,,,,,,,,,,,,,2444.6413809992373,None,2444.6413809992373,None,2445.017740700394,None,2445.017740700394,None,0,2445.017740700394,None,return,1.422732699662447,2445.017740700394,None,,,LIULIN,F,001,2023_Apr_18_1512,untitled,2021.1.4,47.51431210567246,
0,36,18,0,36,18,54,0.33,1.0,0.0,1.0,-1.0,#NAME?,,stimuli/P_00_36_18_00.png,,,,,0,227,227,56,,,,,,,,,,,,,,,,,,,,,,,,,,,,2446.4673548992723,None,2446.4673548992723,None,2446.8597350995988,None,2446.8597350995988,None,0,2446.8597350995988,None,return,1.0389757007360458,2446.8597350995988,None,,,LIULIN,F,001,2023_Apr_18_1512,untitled,2021.1.4,47.51431210567246,
9,36,36,0,45,45,81,0.56,0.8,0.2,1.0,-0.8,#NAME?,,stimuli/P_09_36_36_00.png,,,,,0,228,228,124,,,,,,,,,,,,,,,,,,,,,,,,,,,,2447.937887100503,None,2447.937887100503,None,2448.2914682999253,None,2448.2914682999253,None,25,2448.2914682999253,None,return,2.481812000274658,2448.2914682999253,None,,,LIULIN,F,001,2023_Apr_18_1512,untitled,2021.1.4,47.51431210567246,
0,0,0,0,0,0,0,None,None,None,None,None,None,,stimuli/P_00_00_00_00.png,,,,,0,229,229,0,,,,,,,,,,,,,,,,,,,,,,,,,,,,2450.792995799333,None,2450.792995799333,None,2451.1643439996988,None,2451.1643439996988,None,,2451.1643439996988,None,None,,2451.1643439996988,None,,,LIULIN,F,001,2023_Apr_18_1512,untitled,2021.1.4,47.51431210567246,
36,0,18,18,36,54,72,1.0,0.0,1.0,0.5,0.5,1.0,,stimuli/P_36_00_18_18.png,,,,,0,230,230,202,,,,,,,,,,,,,,,,,,,,,,,,,,,,2459.1714552007616,None,2459.1714552007616,None,2459.5914380010217,None,2459.5914380010217,None,100,2459.5914380010217,None,return,4.556353999301791,2459.5914380010217,None,,,LIULIN,F,001,2023_Apr_18_1512,untitled,2021.1.4,47.51431210567246,
0,9,9,18,9,9,36,0.75,1.0,0.0,0.33,-0.33,-0.5,,stimuli/P_00_09_09_18.png,,,,,0,231,231,22,,,,,,,,,,,,,,,,,,,,,,,,,,,,2464.1858566999435,None,2464.1858566999435,None,2464.5663255993277,None,2464.5663255993277,None,0,2464.5663255993277,None,return,2.7935326993465424,2464.5663255993277,None,,,LIULIN,F,001,2023_Apr_18_1512,untitled,2021.1.4,47.51431210567246,
9,0,36,9,9,45,54,1.0,0.0,1.0,0.8,0.2,1.0,,stimuli/P_09_00_36_09.png,,,,,0,232,232,77,,,,,,,,,,,,,,,,,,,,,,,,,,,,2467.3953009005636,None,2467.3953009005636,None,2467.7731029000133,None,2467.7731029000133,None,10,2467.7731029000133,None,return,2.952980399131775,2467.7731029000133,None,,,LIULIN,F,001,2023_Apr_18_1512,untitled,2021.1.4,47.51431210567246,
36,9,18,36,45,54,99,0.91,0.2,0.8,0.33,0.47,0.7,,stimuli/P_36_09_18_36.png,,,,,0,233,233,219,,,,,,,,,,,,,,,,,,,,,,,,,,,,2470.7526076994836,None,2470.7526076994836,None,2471.13089540042,None,2471.13089540042,None,75,2471.13089540042,None,return,7.144213899970055,2471.13089540042,None,,,LIULIN,F,001,2023_Apr_18_1512,untitled,2021.1.4,47.51431210567246,
9,9,9,36,18,18,63,0.86,0.5,0.5,0.2,0.3,0.37,,stimuli/P_09_09_09_36.png,,,,,0,234,234,87,,,,,,,,,,,,,,,,,,,,,,,,,,,,2478.2976872995496,None,2478.2976872995496,None,2478.6738459002227,None,2478.6738459002227,None,50,2478.6738459002227,None,return,3.0254433006048203,2478.6738459002227,None,,,LIULIN,F,001,2023_Apr_18_1512,untitled,2021.1.4,47.51431210567246,
0,9,36,9,9,36,54,0.83,1.0,0.0,0.8,-0.8,-4.0,,stimuli/P_00_09_36_09.png,,,,,0,235,235,29,,,,,,,,,,,,,,,,,,,,,,,,,,,,2481.7299124002457,None,2481.7299124002457,None,2482.101313199848,None,2482.101313199848,None,0,2482.101313199848,None,return,3.757592100650072,2482.101313199848,None,,,LIULIN,F,001,2023_Apr_18_1512,untitled,2021.1.4,47.51431210567246,
36,0,36,0,36,72,72,1.0,0.0,1.0,1.0,0.0,None,,stimuli/P_36_00_36_00.png,,,,,0,236,236,204,,,,,,,,,,,,,,,,,,,,,,,,,,,,2485.8938675001264,None,2485.8938675001264,None,2486.290922999382,None,2486.290922999382,None,100,2486.290922999382,None,return,2.0937629006803036,2486.290922999382,None,,,LIULIN,F,001,2023_Apr_18_1512,untitled,2021.1.4,47.51431210567246,
9,18,36,0,27,45,63,0.71,0.67,0.33,1.0,-0.67,#NAME?,,stimuli/P_09_18_36_00.png,,,,,0,237,237,108,,,,,,,,,,,,,,,,,,,,,,,,,,,,2488.409748600796,None,2488.409748600796,None,2488.77778849937,None,2488.77778849937,None,35,2488.77778849937,None,return,5.339835299178958,2488.77778849937,None,,,LIULIN,F,001,2023_Apr_18_1512,untitled,2021.1.4,47.51431210567246,
36,18,18,18,54,54,90,0.8,0.33,0.67,0.5,0.17,0.33,,stimuli/P_36_18_18_18.png,,,,,0,238,238,234,,,,,,,,,,,,,,,,,,,,,,,,,,,,2494.1466761007905,None,2494.1466761007905,None,2494.535709099844,None,2494.535709099844,None,65,2494.535709099844,None,None,,2494.535709099844,None,,,LIULIN,F,001,2023_Apr_18_1512,untitled,2021.1.4,47.51431210567246,
9,18,9,36,27,18,72,0.75,0.67,0.33,0.2,0.13,0.17,,stimuli/P_09_18_09_36.png,,,,,0,239,239,103,,,,,,,,,,,,,,,,,,,,,,,,,,,,2502.5634139999747,None,2502.5634139999747,None,2502.958585899323,None,2502.958585899323,None,40,2502.958585899323,None,return,4.7445187997072935,2502.958585899323,None,,,LIULIN,F,001,2023_Apr_18_1512,untitled,2021.1.4,47.51431210567246,
36,0,36,18,36,72,90,1.0,0.0,1.0,0.67,0.33,1.0,,stimuli/P_36_00_36_18.png,,,,,0,240,240,206,,,,,,,,,,,,,,,,,,,,,,,,,,,,2507.7233284004033,None,2507.7233284004033,None,2508.103079300374,None,2508.103079300374,None,100,2508.103079300374,None,return,5.537608001381159,2508.103079300374,None,,,LIULIN,F,001,2023_Apr_18_1512,untitled,2021.1.4,47.51431210567246,
0,36,36,36,36,36,108,0.67,1.0,0.0,0.5,-0.5,-1.0,,stimuli/P_00_36_36_36.png,,,,,0,241,241,63,,,,,,,,,,,,,,,,,,,,,,,,,,,,2513.667731899768,None,2513.667731899768,None,2514.0340781994164,None,2514.0340781994164,None,0,2514.0340781994164,None,return,1.4503503013402224,2514.0340781994164,None,,,LIULIN,F,001,2023_Apr_18_1512,untitled,2021.1.4,47.51431210567246,
18,36,9,0,54,27,63,0.43,0.67,0.33,1.0,-0.67,#NAME?,,stimuli/P_18_36_09_00.png,,,,,0,242,242,180,,,,,,,,,,,,,,,,,,,,,,,,,,,,2515.517862100154,None,2515.517862100154,None,2515.881621500477,None,2515.881621500477,None,35,2515.881621500477,None,return,2.6646685004234314,2515.881621500477,None,,,LIULIN,F,001,2023_Apr_18_1512,untitled,2021.1.4,47.51431210567246,
9,0,18,36,9,27,63,1.0,0.0,1.0,0.33,0.67,1.0,,stimuli/P_09_00_18_36.png,,,,,0,243,243,75,,,,,,,,,,,,,,,,,,,,,,,,,,,,2518.5830956008285,None,2518.5830956008285,None,2518.947221800685,None,2518.947221800685,None,100,2518.947221800685,None,return,1.8029426001012325,2518.947221800685,None,,,LIULIN,F,001,2023_Apr_18_1512,untitled,2021.1.4,47.51431210567246,
18,9,18,0,27,36,45,0.8,0.33,0.67,1.0,-0.33,#NAME?,,stimuli/P_18_09_18_00.png,,,,,0,244,244,152,,,,,,,,,,,,,,,,,,,,,,,,,,,,2520.7737900000066,None,2520.7737900000066,None,2521.1381350997835,None,2521.1381350997835,None,55,2521.1381350997835,None,return,3.187508998438716,2521.1381350997835,None,,,LIULIN,F,001,2023_Apr_18_1512,untitled,2021.1.4,47.51431210567246,
0,18,18,18,18,18,54,0.67,1.0,0.0,0.5,-0.5,-1.0,,stimuli/P_00_18_18_18.png,,,,,0,245,245,42,,,,,,,,,,,,,,,,,,,,,,,,,,,,2524.3524498995394,None,2524.3524498995394,None,2524.7138337008655,None,2524.7138337008655,None,0,2524.7138337008655,None,return,1.2000719010829926,2524.7138337008655,None,,,LIULIN,F,001,2023_Apr_18_1512,untitled,2021.1.4,47.51431210567246,
36,9,36,9,45,72,90,0.9,0.2,0.8,0.8,0.0,0.0,,stimuli/P_36_09_36_09.png,,,,,0,246,246,221,,,,,,,,,,,,,,,,,,,,,,,,,,,,2525.952095299959,None,2525.952095299959,None,2526.3256074003875,None,2526.3256074003875,None,75,2526.3256074003875,None,return,2.486855199560523,2526.3256074003875,None,,,LIULIN,F,001,2023_Apr_18_1512,untitled,2021.1.4,47.51431210567246,
9,18,36,36,27,45,99,0.82,0.67,0.33,0.5,-0.17,-0.33,,stimuli/P_09_18_36_36.png,,,,,0,247,247,111,,,,,,,,,,,,,,,,,,,,,,,,,,,,2528.843089800328,None,2528.843089800328,None,2529.2231393009424,None,2529.2231393009424,None,35,2529.2231393009424,None,return,2.170932298526168,2529.2231393009424,None,,,LIULIN,F,001,2023_Apr_18_1512,untitled,2021.1.4,47.51431210567246,
9,0,0,9,9,9,18,1.0,0.0,1.0,0.0,1.0,1.0,,stimuli/P_09_00_00_09.png,,,,,0,248,248,65,,,,,,,,,,,,,,,,,,,,,,,,,,,,2531.4230581000447,None,2531.4230581000447,None,2531.784202599898,None,2531.784202599898,None,100,2531.784202599898,None,return,2.505908600986004,2531.784202599898,None,,,LIULIN,F,001,2023_Apr_18_1512,untitled,2021.1.4,47.51431210567246,
0,9,9,36,9,9,54,0.83,1.0,0.0,0.2,-0.2,-0.25,,stimuli/P_00_09_09_36.png,,,,,0,249,249,23,,,,,,,,,,,,,,,,,,,,,,,,,,,,2534.328955700621,None,2534.328955700621,None,2534.697219600901,None,2534.697219600901,None,0,2534.697219600901,None,return,2.001332400366664,2534.697219600901,None,,,LIULIN,F,001,2023_Apr_18_1512,untitled,2021.1.4,47.51431210567246,
0,0,9,18,0,9,27,1.0,None,None,0.33,None,None,,stimuli/P_00_00_09_18.png,,,,,0,250,250,6,,,,,,,,,,,,,,,,,,,,,,,,,,,,2536.7298592999578,None,2536.7298592999578,None,2537.0944743994623,None,2537.0944743994623,None,0,2537.0944743994623,None,return,1.7005742993205786,2537.0944743994623,None,,,LIULIN,F,001,2023_Apr_18_1512,untitled,2021.1.4,47.51431210567246,
9,9,9,18,18,18,45,0.8,0.5,0.5,0.33,0.17,0.25,,stimuli/P_09_09_09_18.png,,,,,0,251,251,86,,,,,,,,,,,,,,,,,,,,,,,,,,,,2538.8139606993645,None,2538.8139606993645,None,2539.1829372998327,None,2539.1829372998327,None,50,2539.1829372998327,None,return,1.8303895983844995,2539.1829372998327,None,,,LIULIN,F,001,2023_Apr_18_1512,untitled,2021.1.4,47.51431210567246,
0,18,36,36,18,36,90,0.8,1.0,0.0,0.5,-0.5,-1.0,,stimuli/P_00_18_36_36.png,,,,,0,252,252,47,,,,,,,,,,,,,,,,,,,,,,,,,,,,2541.038365500048,None,2541.038365500048,None,2541.3944393992424,None,2541.3944393992424,None,0,2541.3944393992424,None,return,2.78518039919436,2541.3944393992424,None,,,LIULIN,F,001,2023_Apr_18_1512,untitled,2021.1.4,47.51431210567246,
36,18,0,36,54,36,90,0.8,0.33,0.67,0.0,0.67,0.67,,stimuli/P_36_18_00_36.png,,,,,0,253,253,227,,,,,,,,,,,,,,,,,,,,,,,,,,,,2544.1943724006414,None,2544.1943724006414,None,2544.5734717007726,None,2544.5734717007726,None,75,2544.5734717007726,None,return,5.868446400389075,2544.5734717007726,None,,,LIULIN,F,001,2023_Apr_18_1512,untitled,2021.1.4,47.51431210567246,
18,18,36,18,36,54,90,0.8,0.5,0.5,0.67,-0.17,-0.5,,stimuli/P_18_18_36_18.png,,,,,0,254,254,174,,,,,,,,,,,,,,,,,,,,,,,,,,,,2550.4606519993395,None,2550.4606519993395,None,2550.8307527005672,None,2550.8307527005672,None,50,2550.8307527005672,None,return,4.917057998478413,2550.8307527005672,None,,,LIULIN,F,001,2023_Apr_18_1512,untitled,2021.1.4,47.51431210567246,
36,0,9,9,36,45,54,1.0,0.0,1.0,0.5,0.5,1.0,,stimuli/P_36_00_09_09.png,,,,,0,255,255,197,,,,,,,,,,,,,,,,,,,,,,,,,,,,2555.7716138996184,None,2555.7716138996184,None,2556.1397417001426,None,2556.1397417001426,None,100,2556.1397417001426,None,return,1.7867626007646322,2556.1397417001426,None,,,LIULIN,F,001,2023_Apr_18_1512,untitled,2021.1.4,47.51431210567246,
,,,,,,,,,,,,,,,,,,,,,,,,,,,,,,,,,,,,,,,,,,,,,,,,,,,,,,,,,,,,,,,,,2557.963220000267,None,,,,,,,,
