A1C1,A1C0,A0C1,A0C0,A1,C1,Total,MI,C0GvA1,C1GvA1,C1GvA0,dltP,dltPp,Image_practice,Image,trials_2.thisRepN,trials_2.thisTrialN,trials_2.thisN,trials_2.thisIndex,trials.thisRepN,trials.thisTrialN,trials.thisN,trials.thisIndex,image.started,image.stopped,key_resp.keys,key_resp.rt,key_resp.started,key_resp.stopped,betweenTrial.started,betweenTrial.stopped,ISI.started,ISI.stopped,image_card.started,image_card.stopped,textbox.text,textbox.started,textbox.stopped,key_resp_3.keys,key_resp_3.rt,key_resp_3.started,key_resp_3.stopped,text_2.started,text_2.stopped,key_resp_2.keys,key_resp_2.rt,key_resp_2.started,key_resp_2.stopped,image_endPractice.started,image_endPractice.stopped,polygon_2.started,polygon_2.stopped,ISI_2.started,ISI_2.stopped,Cards.started,Cards.stopped,TextNote.started,TextNote.stopped,Estimation.text,Estimation.started,Estimation.stopped,key_resp_4.keys,key_resp_4.rt,key_resp_4.started,key_resp_4.stopped,text.started,text.stopped,participant,gender,session,date,expName,psychopyVersion,frameRate,
,,,,,,,,,,,,,,,,,,,,,,,3666.1789416735483,None,space,280.8310764569396,3666.1789416735483,None,,,,,,,,,,,,,,,,,,,,,,,,,,,,,,,,,,,,,,,QINZUBAO,M,002,2023_Apr_19_1030,untitled,2021.1.4,60.15540087284211,
0,0,0,9,0,0,9,1.0,None,None,0.0,None,None,practice_stimuli/P_00_00_00_09.png,,0,0,0,0,,,,,,,,,,,3947.1338134374964,None,3947.1338134374964,None,3947.6444263411395,None,0,3947.6444263411395,None,return,3.484194280055817,3947.6444263411395,None,3947.6444263411395,None,,,,,,,,,,,,,,,,,,,,,,,,QINZUBAO,M,002,2023_Apr_19_1030,untitled,2021.1.4,60.15540087284211,
18,0,36,0,18,54,54,1.0,0.0,1.0,1.0,0.0,None,practice_stimuli/P_18_00_36_00.png,,0,1,1,1,,,,,,,,,,,3951.151475156912,None,3951.151475156912,None,3951.5607126582836,None,34,3951.5607126582836,None,return,4.563481439719908,3951.5607126582836,None,3951.5607126582836,None,,,,,,,,,,,,,,,,,,,,,,,,QINZUBAO,M,002,2023_Apr_19_1030,untitled,2021.1.4,60.15540087284211,
9,18,18,0,27,27,45,0.6,0.67,0.33,1.0,-0.67,#NAME?,practice_stimuli/P_09_18_18_00.png,,0,2,2,2,,,,,,,,,,,3956.1496279752173,None,3956.1496279752173,None,3956.5428046100496,None,20,3956.5428046100496,None,return,4.497389085190662,3956.5428046100496,None,3956.5428046100496,None,,,,,,,,,,,,,,,,,,,,,,,,QINZUBAO,M,002,2023_Apr_19_1030,untitled,2021.1.4,60.15540087284211,
36,18,18,36,54,54,108,0.83,0.33,0.67,0.33,0.33,0.5,practice_stimuli/P_36_18_18_36.png,,0,3,3,3,,,,,,,,,,,3961.061543520271,None,3961.061543520271,None,3961.4552987149364,None,33,3961.4552987149364,None,return,6.544816200592322,3961.4552987149364,None,3961.4552987149364,None,,,,,,,,,,,,,,,,,,,,,,,,QINZUBAO,M,002,2023_Apr_19_1030,untitled,2021.1.4,60.15540087284211,
,,,,,,,,,,,,,,,,,,,,,,,,,,,,,,,,,,,,,,,,,,,,space,17.43958600829501,3968.0221815403565,None,,,,,,,,,,,,,,,,,,,,QINZUBAO,M,002,2023_Apr_19_1030,untitled,2021.1.4,60.15540087284211,
9,36,36,9,45,45,90,0.6,0.8,0.2,0.8,-0.6,-3.0,,stimuli/P_09_36_36_09.png,,,,,0,0,0,125,,,,,,,,,,,,,,,,,,,,,,,,,,3968.0221815403565,None,3992.145096776505,None,3992.145096776505,None,3992.7204167906384,None,3992.7204167906384,None,12,3992.7204167906384,None,return,4.356642031882075,3992.7204167906384,None,,,QINZUBAO,M,002,2023_Apr_19_1030,untitled,2021.1.4,60.15540087284211,
36,36,0,9,72,36,81,0.56,0.5,0.5,0.0,0.5,0.5,,stimuli/P_36_36_00_09.png,,,,,0,1,1,241,,,,,,,,,,,,,,,,,,,,,,,,,,,,3997.105955525418,None,3997.105955525418,None,3997.5236205443944,None,3997.5236205443944,None,40,3997.5236205443944,None,return,5.4696034219741705,3997.5236205443944,None,,,QINZUBAO,M,002,2023_Apr_19_1030,untitled,2021.1.4,60.15540087284211,
0,18,9,0,18,9,27,0.33,1.0,0.0,1.0,-1.0,#NAME?,,stimuli/P_00_18_09_00.png,,,,,0,2,2,36,,,,,,,,,,,,,,,,,,,,,,,,,,,,4003.0183335770053,None,4003.0183335770053,None,4003.4113970029794,None,4003.4113970029794,None,0,4003.4113970029794,None,return,3.068840087085846,4003.4113970029794,None,,,QINZUBAO,M,002,2023_Apr_19_1030,untitled,2021.1.4,60.15540087284211,
9,9,0,0,18,9,18,0.5,0.5,0.5,None,None,None,,stimuli/P_09_09_00_00.png,,,,,0,3,3,80,,,,,,,,,,,,,,,,,,,,,,,,,,,,4006.504004692193,None,4006.504004692193,None,4006.8972501625612,None,4006.8972501625612,None,50,4006.8972501625612,None,return,3.514761809128686,4006.8972501625612,None,,,QINZUBAO,M,002,2023_Apr_19_1030,untitled,2021.1.4,60.15540087284211,
9,9,18,36,18,27,72,0.88,0.5,0.5,0.33,0.17,0.25,,stimuli/P_09_09_18_36.png,,,,,0,4,4,91,,,,,,,,,,,,,,,,,,,,,,,,,,,,4010.428274224847,None,4010.428274224847,None,4010.8244790543686,None,4010.8244790543686,None,20,4010.8244790543686,None,None,,4010.8244790543686,None,,,QINZUBAO,M,002,2023_Apr_19_1030,untitled,2021.1.4,60.15540087284211,
0,9,9,9,9,9,27,0.67,1.0,0.0,0.5,-0.5,-1.0,,stimuli/P_00_09_09_09.png,,,,,0,5,5,21,,,,,,,,,,,,,,,,,,,,,,,,,,,,4018.824148530017,None,4018.824148530017,None,4019.220912008277,None,4019.220912008277,None,0,4019.220912008277,None,return,1.8364388020781917,4019.220912008277,None,,,QINZUBAO,M,002,2023_Apr_19_1030,untitled,2021.1.4,60.15540087284211,
36,0,0,18,36,36,54,1.0,0.0,1.0,0.0,1.0,1.0,,stimuli/P_36_00_00_18.png,,,,,0,6,6,194,,,,,,,,,,,,,,,,,,,,,,,,,,,,4021.0900966143745,None,4021.0900966143745,None,4021.4828266715485,None,4021.4828266715485,None,66,4021.4828266715485,None,return,3.8648013184574666,4021.4828266715485,None,,,QINZUBAO,M,002,2023_Apr_19_1030,untitled,2021.1.4,60.15540087284211,
18,18,9,36,36,27,81,0.78,0.5,0.5,0.2,0.3,0.37,,stimuli/P_18_18_09_36.png,,,,,0,7,7,167,,,,,,,,,,,,,,,,,,,,,,,,,,,,4025.379177421033,None,4025.379177421033,None,4025.781172968913,None,4025.781172968913,None,23,4025.781172968913,None,return,5.237625959074649,4025.781172968913,None,,,QINZUBAO,M,002,2023_Apr_19_1030,untitled,2021.1.4,60.15540087284211,
0,36,0,9,36,0,45,0.2,1.0,0.0,0.0,0.0,0.0,,stimuli/P_00_36_00_09.png,,,,,0,8,8,49,,,,,,,,,,,,,,,,,,,,,,,,,,,,4031.05563504195,None,4031.05563504195,None,4031.4471812416887,None,4031.4471812416887,None,0,4031.4471812416887,None,return,1.8201350200470188,4031.4471812416887,None,,,QINZUBAO,M,002,2023_Apr_19_1030,untitled,2021.1.4,60.15540087284211,
18,36,9,36,54,27,99,0.64,0.67,0.33,0.2,0.13,0.17,,stimuli/P_18_36_09_36.png,,,,,0,9,9,183,,,,,,,,,,,,,,,,,,,,,,,,,,,,4033.3059199129857,None,4033.3059199129857,None,4033.7026111423693,None,4033.7026111423693,None,18,4033.7026111423693,None,return,5.977043633196445,4033.7026111423693,None,,,QINZUBAO,M,002,2023_Apr_19_1030,untitled,2021.1.4,60.15540087284211,
36,0,9,18,36,45,63,1.0,0.0,1.0,0.33,0.67,1.0,,stimuli/P_36_00_09_18.png,,,,,0,10,10,198,,,,,,,,,,,,,,,,,,,,,,,,,,,,4039.703679515398,None,4039.703679515398,None,4040.098953074077,None,4040.098953074077,None,40,4040.098953074077,None,return,6.240667238205788,4040.098953074077,None,,,QINZUBAO,M,002,2023_Apr_19_1030,untitled,2021.1.4,60.15540087284211,
9,36,36,36,45,45,117,0.69,0.8,0.2,0.5,-0.3,-0.6,,stimuli/P_09_36_36_36.png,,,,,0,11,11,127,,,,,,,,,,,,,,,,,,,,,,,,,,,,4046.3651912916757,None,4046.3651912916757,None,4046.761457561188,None,4046.761457561188,None,10,4046.761457561188,None,return,5.337605877306487,4046.761457561188,None,,,QINZUBAO,M,002,2023_Apr_19_1030,untitled,2021.1.4,60.15540087284211,
9,36,9,9,45,18,63,0.43,0.8,0.2,0.5,-0.3,-0.6,,stimuli/P_09_36_09_09.png,,,,,0,12,12,117,,,,,,,,,,,,,,,,,,,,,,,,,,,,4052.1322404601597,None,4052.1322404601597,None,4052.5268700368033,None,4052.5268700368033,None,16,4052.5268700368033,None,return,6.721697928056528,4052.5268700368033,None,,,QINZUBAO,M,002,2023_Apr_19_1030,untitled,2021.1.4,60.15540087284211,
36,0,36,18,36,72,90,1.0,0.0,1.0,0.67,0.33,1.0,,stimuli/P_36_00_36_18.png,,,,,0,13,13,206,,,,,,,,,,,,,,,,,,,,,,,,,,,,4059.2658855065965,None,4059.2658855065965,None,4059.662398673805,None,4059.662398673805,None,42,4059.662398673805,None,return,6.675376163446344,4059.662398673805,None,,,QINZUBAO,M,002,2023_Apr_19_1030,untitled,2021.1.4,60.15540087284211,
0,18,9,18,18,9,45,0.6,1.0,0.0,0.33,-0.33,-0.5,,stimuli/P_00_18_09_18.png,,,,,0,14,14,38,,,,,,,,,,,,,,,,,,,,,,,,,,,,4066.359933622065,None,4066.359933622065,None,4066.7554591984444,None,4066.7554591984444,None,0,4066.7554591984444,None,return,2.0279267476071254,4066.7554591984444,None,,,QINZUBAO,M,002,2023_Apr_19_1030,untitled,2021.1.4,60.15540087284211,
36,0,18,18,36,54,72,1.0,0.0,1.0,0.5,0.5,1.0,,stimuli/P_36_00_18_18.png,,,,,0,15,15,202,,,,,,,,,,,,,,,,,,,,,,,,,,,,4068.796227471299,None,4068.796227471299,None,4069.1914964788666,None,4069.1914964788666,None,50,4069.1914964788666,None,return,3.1931934739404824,4069.1914964788666,None,,,QINZUBAO,M,002,2023_Apr_19_1030,untitled,2021.1.4,60.15540087284211,
9,36,36,0,45,45,81,0.56,0.8,0.2,1.0,-0.8,#NAME?,,stimuli/P_09_36_36_00.png,,,,,0,16,16,124,,,,,,,,,,,,,,,,,,,,,,,,,,,,4072.4129705492014,None,4072.4129705492014,None,4072.8102830050775,None,4072.8102830050775,None,11,4072.8102830050775,None,return,4.590787529734371,4072.8102830050775,None,,,QINZUBAO,M,002,2023_Apr_19_1030,untitled,2021.1.4,60.15540087284211,
9,9,9,36,18,18,63,0.86,0.5,0.5,0.2,0.3,0.37,,stimuli/P_09_09_09_36.png,,,,,0,17,17,87,,,,,,,,,,,,,,,,,,,,,,,,,,,,4077.4363279825557,None,4077.4363279825557,None,4077.8318643678285,None,4077.8318643678285,None,14,4077.8318643678285,None,return,3.981784751849773,4077.8318643678285,None,,,QINZUBAO,M,002,2023_Apr_19_1030,untitled,2021.1.4,60.15540087284211,
9,18,0,18,27,9,45,0.6,0.67,0.33,0.0,0.33,0.33,,stimuli/P_09_18_00_18.png,,,,,0,18,18,98,,,,,,,,,,,,,,,,,,,,,,,,,,,,4081.8388776280553,None,4081.8388776280553,None,4082.2345397377285,None,4082.2345397377285,None,20,4082.2345397377285,None,return,4.5189385901685455,4082.2345397377285,None,,,QINZUBAO,M,002,2023_Apr_19_1030,untitled,2021.1.4,60.15540087284211,
36,0,0,0,36,36,36,1.0,0.0,1.0,None,None,None,,stimuli/P_36_00_00_00.png,,,,,0,19,19,192,,,,,,,,,,,,,,,,,,,,,,,,,,,,4086.7739742509584,None,4086.7739742509584,None,4087.166573463728,None,4087.166573463728,None,100,4087.166573463728,None,return,2.3677740464991075,4087.166573463728,None,,,QINZUBAO,M,002,2023_Apr_19_1030,untitled,2021.1.4,60.15540087284211,
18,18,0,36,36,18,72,0.75,0.5,0.5,0.0,0.5,0.5,,stimuli/P_18_18_00_36.png,,,,,0,20,20,163,,,,,,,,,,,,,,,,,,,,,,,,,,,,4089.559242080926,None,4089.559242080926,None,4089.955125488319,None,4089.955125488319,None,25,4089.955125488319,None,return,3.191468034427089,4089.955125488319,None,,,QINZUBAO,M,002,2023_Apr_19_1030,untitled,2021.1.4,60.15540087284211,
18,18,36,0,36,54,72,0.75,0.5,0.5,1.0,-0.5,#NAME?,,stimuli/P_18_18_36_00.png,,,,,0,21,21,172,,,,,,,,,,,,,,,,,,,,,,,,,,,,4093.1814265795037,None,4093.1814265795037,None,4093.577236031364,None,4093.577236031364,None,25,4093.577236031364,None,return,2.649106588702125,4093.577236031364,None,,,QINZUBAO,M,002,2023_Apr_19_1030,untitled,2021.1.4,60.15540087284211,
18,36,36,36,54,54,126,0.71,0.67,0.33,0.5,-0.17,-0.33,,stimuli/P_18_36_36_36.png,,,,,0,22,22,191,,,,,,,,,,,,,,,,,,,,,,,,,,,,4096.246393103247,None,4096.246393103247,None,4096.642302679524,None,4096.642302679524,None,14,4096.642302679524,None,return,5.887967036309419,4096.642302679524,None,,,QINZUBAO,M,002,2023_Apr_19_1030,untitled,2021.1.4,60.15540087284211,
9,9,0,36,18,9,54,0.83,0.5,0.5,0.0,0.5,0.5,,stimuli/P_09_09_00_36.png,,,,,0,23,23,83,,,,,,,,,,,,,,,,,,,,,,,,,,,,4102.546520591211,None,4102.546520591211,None,4102.940876532375,None,4102.940876532375,None,16,4102.940876532375,None,return,4.352733766332676,4102.940876532375,None,,,QINZUBAO,M,002,2023_Apr_19_1030,untitled,2021.1.4,60.15540087284211,
0,9,0,9,9,0,18,0.5,1.0,0.0,0.0,0.0,0.0,,stimuli/P_00_09_00_09.png,,,,,0,24,24,17,,,,,,,,,,,,,,,,,,,,,,,,,,,,4107.308743307738,None,4107.308743307738,None,4107.701042716151,None,4107.701042716151,None,0,4107.701042716151,None,return,2.1226404628905584,4107.701042716151,None,,,QINZUBAO,M,002,2023_Apr_19_1030,untitled,2021.1.4,60.15540087284211,
0,0,18,36,0,18,54,1.0,None,None,0.33,None,None,,stimuli/P_00_00_18_36.png,,,,,0,25,25,11,,,,,,,,,,,,,,,,,,,,,,,,,,,,4109.85961191549,None,4109.85961191549,None,4110.252384639323,None,4110.252384639323,None,0,4110.252384639323,None,return,1.4890855853300309,4110.252384639323,None,,,QINZUBAO,M,002,2023_Apr_19_1030,untitled,2021.1.4,60.15540087284211,
18,0,0,18,18,18,36,1.0,0.0,1.0,0.0,1.0,1.0,,stimuli/P_18_00_00_18.png,,,,,0,26,26,130,,,,,,,,,,,,,,,,,,,,,,,,,,,,4111.767492901694,None,4111.767492901694,None,4112.1634360424,None,4112.1634360424,None,50,4112.1634360424,None,return,2.4400018659580383,4112.1634360424,None,,,QINZUBAO,M,002,2023_Apr_19_1030,untitled,2021.1.4,60.15540087284211,
18,18,18,9,36,36,63,0.71,0.5,0.5,0.67,-0.17,-0.5,,stimuli/P_18_18_18_09.png,,,,,0,27,27,169,,,,,,,,,,,,,,,,,,,,,,,,,,,,4114.631713953648,None,4114.631713953648,None,4115.0334665860355,None,4115.0334665860355,None,28,4115.0334665860355,None,return,4.814742523805762,4115.0334665860355,None,,,QINZUBAO,M,002,2023_Apr_19_1030,untitled,2021.1.4,60.15540087284211,
36,36,36,0,72,72,108,0.67,0.5,0.5,1.0,-0.5,#NAME?,,stimuli/P_36_36_36_00.png,,,,,0,28,28,252,,,,,,,,,,,,,,,,,,,,,,,,,,,,4119.874274453541,None,4119.874274453541,None,4120.269178234543,None,4120.269178234543,None,33,4120.269178234543,None,return,3.1053957389085554,4120.269178234543,None,,,QINZUBAO,M,002,2023_Apr_19_1030,untitled,2021.1.4,60.15540087284211,
9,0,36,36,9,45,81,1.0,0.0,1.0,0.5,0.5,1.0,,stimuli/P_09_00_36_36.png,,,,,0,29,29,79,,,,,,,,,,,,,,,,,,,,,,,,,,,,4123.409303492466,None,4123.409303492466,None,4123.80445018896,None,4123.80445018896,None,11,4123.80445018896,None,return,2.6735500306313043,4123.80445018896,None,,,QINZUBAO,M,002,2023_Apr_19_1030,untitled,2021.1.4,60.15540087284211,
18,36,0,36,54,18,90,0.6,0.67,0.33,0.0,0.33,0.33,,stimuli/P_18_36_00_36.png,,,,,0,30,30,179,,,,,,,,,,,,,,,,,,,,,,,,,,,,4126.512787196363,None,4126.512787196363,None,4126.907722835138,None,4126.907722835138,None,20,4126.907722835138,None,return,2.6353235526185017,4126.907722835138,None,,,QINZUBAO,M,002,2023_Apr_19_1030,untitled,2021.1.4,60.15540087284211,
36,18,18,18,54,54,90,0.8,0.33,0.67,0.5,0.17,0.33,,stimuli/P_36_18_18_18.png,,,,,0,31,31,234,,,,,,,,,,,,,,,,,,,,,,,,,,,,4129.564597599405,None,4129.564597599405,None,4129.959218642711,None,4129.959218642711,None,40,4129.959218642711,None,return,2.746107236664102,4129.959218642711,None,,,QINZUBAO,M,002,2023_Apr_19_1030,untitled,2021.1.4,60.15540087284211,
0,18,36,0,18,36,54,0.67,1.0,0.0,1.0,-1.0,#NAME?,,stimuli/P_00_18_36_00.png,,,,,0,32,32,44,,,,,,,,,,,,,,,,,,,,,,,,,,,,4132.736597692703,None,4132.736597692703,None,4133.129696389777,None,4133.129696389777,None,0,4133.129696389777,None,return,1.5105890103222919,4133.129696389777,None,,,QINZUBAO,M,002,2023_Apr_19_1030,untitled,2021.1.4,60.15540087284211,
18,0,9,9,18,27,36,1.0,0.0,1.0,0.5,0.5,1.0,,stimuli/P_18_00_09_09.png,,,,,0,33,33,133,,,,,,,,,,,,,,,,,,,,,,,,,,,,4134.662588682644,None,4134.662588682644,None,4135.057956107958,None,4135.057956107958,None,50,4135.057956107958,None,return,2.977842921856791,4135.057956107958,None,,,QINZUBAO,M,002,2023_Apr_19_1030,untitled,2021.1.4,60.15540087284211,
36,36,9,9,72,45,90,0.6,0.5,0.5,0.5,0.0,0.0,,stimuli/P_36_36_09_09.png,,,,,0,34,34,245,,,,,,,,,,,,,,,,,,,,,,,,,,,,4138.061962791267,None,4138.061962791267,None,4138.45705373666,None,4138.45705373666,None,33,4138.45705373666,None,return,7.134988192716264,4138.45705373666,None,,,QINZUBAO,M,002,2023_Apr_19_1030,untitled,2021.1.4,60.15540087284211,
18,0,36,9,18,54,63,1.0,0.0,1.0,0.8,0.2,1.0,,stimuli/P_18_00_36_09.png,,,,,0,35,35,141,,,,,,,,,,,,,,,,,,,,,,,,,,,,4145.60558091219,None,4145.60558091219,None,4146.00473770532,None,4146.00473770532,None,28,4146.00473770532,None,return,5.4945628459900036,4146.00473770532,None,,,QINZUBAO,M,002,2023_Apr_19_1030,untitled,2021.1.4,60.15540087284211,
0,36,36,9,36,36,81,0.56,1.0,0.0,0.8,-0.8,-4.0,,stimuli/P_00_36_36_09.png,,,,,0,36,36,61,,,,,,,,,,,,,,,,,,,,,,,,,,,,4151.532638568497,None,4151.532638568497,None,4151.927671487239,None,4151.927671487239,None,0,4151.927671487239,None,return,1.7536632167320931,4151.927671487239,None,,,QINZUBAO,M,002,2023_Apr_19_1030,untitled,2021.1.4,60.15540087284211,
36,0,18,0,36,54,54,1.0,0.0,1.0,1.0,0.0,None,,stimuli/P_36_00_18_00.png,,,,,0,37,37,200,,,,,,,,,,,,,,,,,,,,,,,,,,,,4153.6991266989135,None,4153.6991266989135,None,4154.0967765058085,None,4154.0967765058085,None,66,4154.0967765058085,None,return,2.0477144042015425,4154.0967765058085,None,,,QINZUBAO,M,002,2023_Apr_19_1030,untitled,2021.1.4,60.15540087284211,
0,36,18,0,36,18,54,0.33,1.0,0.0,1.0,-1.0,#NAME?,,stimuli/P_00_36_18_00.png,,,,,0,38,38,56,,,,,,,,,,,,,,,,,,,,,,,,,,,,4156.161193483036,None,4156.161193483036,None,4156.553777904701,None,4156.553777904701,None,0,4156.553777904701,None,return,1.3880594807269517,4156.553777904701,None,,,QINZUBAO,M,002,2023_Apr_19_1030,untitled,2021.1.4,60.15540087284211,
18,9,0,18,27,18,45,0.8,0.33,0.67,0.0,0.67,0.67,,stimuli/P_18_09_00_18.png,,,,,0,39,39,146,,,,,,,,,,,,,,,,,,,,,,,,,,,,4157.957353256577,None,4157.957353256577,None,4158.352757659661,None,4158.352757659661,None,40,4158.352757659661,None,return,3.2936467075851397,4158.352757659661,None,,,QINZUBAO,M,002,2023_Apr_19_1030,untitled,2021.1.4,60.15540087284211,
36,18,0,36,54,36,90,0.8,0.33,0.67,0.0,0.67,0.67,,stimuli/P_36_18_00_36.png,,,,,0,40,40,227,,,,,,,,,,,,,,,,,,,,,,,,,,,,4161.669004040814,None,4161.669004040814,None,4162.064333919479,None,4162.064333919479,None,40,4162.064333919479,None,return,2.836978677478328,4162.064333919479,None,,,QINZUBAO,M,002,2023_Apr_19_1030,untitled,2021.1.4,60.15540087284211,
9,0,9,0,9,18,18,1.0,0.0,1.0,1.0,0.0,None,,stimuli/P_09_00_09_00.png,,,,,0,41,41,68,,,,,,,,,,,,,,,,,,,,,,,,,,,,4164.924234261554,None,4164.924234261554,None,4165.318681793797,None,4165.318681793797,None,50,4165.318681793797,None,return,2.058393583385623,4165.318681793797,None,,,QINZUBAO,M,002,2023_Apr_19_1030,untitled,2021.1.4,60.15540087284211,
0,18,0,9,18,0,27,0.33,1.0,0.0,0.0,0.0,0.0,,stimuli/P_00_18_00_09.png,,,,,0,42,42,33,,,,,,,,,,,,,,,,,,,,,,,,,,,,4167.392189612889,None,4167.392189612889,None,4167.784001483662,None,4167.784001483662,None,0,4167.784001483662,None,return,1.1128231501352275,4167.784001483662,None,,,QINZUBAO,M,002,2023_Apr_19_1030,untitled,2021.1.4,60.15540087284211,
36,18,18,36,54,54,108,0.83,0.33,0.67,0.33,0.33,0.5,,stimuli/P_36_18_18_36.png,,,,,0,43,43,235,,,,,,,,,,,,,,,,,,,,,,,,,,,,4168.933146472351,None,4168.933146472351,None,4169.329527088492,None,4169.329527088492,None,33,4169.329527088492,None,return,4.374970488897816,4169.329527088492,None,,,QINZUBAO,M,002,2023_Apr_19_1030,untitled,2021.1.4,60.15540087284211,
0,0,36,0,0,36,36,1.0,None,None,1.0,None,None,,stimuli/P_00_00_36_00.png,,,,,0,44,44,12,,,,,,,,,,,,,,,,,,,,,,,,,,,,4173.720248399572,None,4173.720248399572,None,4174.114401816347,None,4174.114401816347,None,0,4174.114401816347,None,return,1.1942897225162596,4174.114401816347,None,,,QINZUBAO,M,002,2023_Apr_19_1030,untitled,2021.1.4,60.15540087284211,
9,18,9,18,27,18,54,0.67,0.67,0.33,0.33,0.0,0.0,,stimuli/P_09_18_09_18.png,,,,,0,45,45,102,,,,,,,,,,,,,,,,,,,,,,,,,,,,4175.326998378099,None,4175.326998378099,None,4175.725544184737,None,4175.725544184737,None,16,4175.725544184737,None,return,4.37880081669573,4175.725544184737,None,,,QINZUBAO,M,002,2023_Apr_19_1030,untitled,2021.1.4,60.15540087284211,
18,9,0,9,27,18,36,0.75,0.33,0.67,0.0,0.67,0.67,,stimuli/P_18_09_00_09.png,,,,,0,46,46,145,,,,,,,,,,,,,,,,,,,,,,,,,,,,4180.120945743372,None,4180.120945743372,None,4180.514393169236,None,4180.514393169236,None,50,4180.514393169236,None,return,1.8386130947983474,4180.514393169236,None,,,QINZUBAO,M,002,2023_Apr_19_1030,untitled,2021.1.4,60.15540087284211,
18,9,9,9,27,27,45,0.8,0.33,0.67,0.5,0.17,0.33,,stimuli/P_18_09_09_09.png,,,,,0,47,47,149,,,,,,,,,,,,,,,,,,,,,,,,,,,,4182.367285371081,None,4182.367285371081,None,4182.763465169504,None,4182.763465169504,None,40,4182.763465169504,None,return,5.727537570834102,4182.763465169504,None,,,QINZUBAO,M,002,2023_Apr_19_1030,untitled,2021.1.4,60.15540087284211,
36,0,36,9,36,72,81,1.0,0.0,1.0,0.8,0.2,1.0,,stimuli/P_36_00_36_09.png,,,,,0,48,48,205,,,,,,,,,,,,,,,,,,,,,,,,,,,,4188.505551500646,None,4188.505551500646,None,4188.902753592105,None,4188.902753592105,None,44,4188.902753592105,None,return,4.704320084099891,4188.902753592105,None,,,QINZUBAO,M,002,2023_Apr_19_1030,untitled,2021.1.4,60.15540087284211,
9,9,0,18,18,9,36,0.75,0.5,0.5,0.0,0.5,0.5,,stimuli/P_09_09_00_18.png,,,,,0,49,49,82,,,,,,,,,,,,,,,,,,,,,,,,,,,,4193.632901793309,None,4193.632901793309,None,4194.027756080992,None,4194.027756080992,None,25,4194.027756080992,None,return,3.189581599406665,4194.027756080992,None,,,QINZUBAO,M,002,2023_Apr_19_1030,untitled,2021.1.4,60.15540087284211,
9,0,36,18,9,45,63,1.0,0.0,1.0,0.67,0.33,1.0,,stimuli/P_09_00_36_18.png,,,,,0,50,50,78,,,,,,,,,,,,,,,,,,,,,,,,,,,,4197.248646471497,None,4197.248646471497,None,4197.645752989651,None,4197.645752989651,None,14,4197.645752989651,None,return,4.48066773883329,4197.645752989651,None,,,QINZUBAO,M,002,2023_Apr_19_1030,untitled,2021.1.4,60.15540087284211,
9,0,36,0,9,45,45,1.0,0.0,1.0,1.0,0.0,None,,stimuli/P_09_00_36_00.png,,,,,0,51,51,76,,,,,,,,,,,,,,,,,,,,,,,,,,,,4202.1611565052735,None,4202.1611565052735,None,4202.556376019522,None,4202.556376019522,None,20,4202.556376019522,None,return,4.597084559056384,4202.556376019522,None,,,QINZUBAO,M,002,2023_Apr_19_1030,untitled,2021.1.4,60.15540087284211,
18,18,18,36,36,36,90,0.8,0.5,0.5,0.33,0.17,0.25,,stimuli/P_18_18_18_36.png,,,,,0,52,52,171,,,,,,,,,,,,,,,,,,,,,,,,,,,,4207.186724071333,None,4207.186724071333,None,4207.583360118508,None,4207.583360118508,None,20,4207.583360118508,None,return,3.8658952914775,4207.583360118508,None,,,QINZUBAO,M,002,2023_Apr_19_1030,untitled,2021.1.4,60.15540087284211,
9,18,9,9,27,18,45,0.6,0.67,0.33,0.5,-0.17,-0.33,,stimuli/P_09_18_09_09.png,,,,,0,53,53,101,,,,,,,,,,,,,,,,,,,,,,,,,,,,4211.472896149935,None,4211.472896149935,None,4211.869798437037,None,4211.869798437037,None,20,4211.869798437037,None,return,2.814946185972076,4211.869798437037,None,,,QINZUBAO,M,002,2023_Apr_19_1030,untitled,2021.1.4,60.15540087284211,
18,36,18,9,54,36,81,0.56,0.67,0.33,0.67,-0.33,-1.0,,stimuli/P_18_36_18_09.png,,,,,0,54,54,185,,,,,,,,,,,,,,,,,,,,,,,,,,,,4214.715503867592,None,4214.715503867592,None,4215.1107728751595,None,4215.1107728751595,None,22,4215.1107728751595,None,return,5.817062452035316,4215.1107728751595,None,,,QINZUBAO,M,002,2023_Apr_19_1030,untitled,2021.1.4,60.15540087284211,
0,18,0,36,18,0,54,0.67,1.0,0.0,0.0,0.0,0.0,,stimuli/P_00_18_00_36.png,,,,,0,55,55,35,,,,,,,,,,,,,,,,,,,,,,,,,,,,4220.959880829192,None,4220.959880829192,None,4221.3569412673605,None,4221.3569412673605,None,0,4221.3569412673605,None,return,1.316988780941756,4221.3569412673605,None,,,QINZUBAO,M,002,2023_Apr_19_1030,untitled,2021.1.4,60.15540087284211,
18,0,9,18,18,27,45,1.0,0.0,1.0,0.33,0.67,1.0,,stimuli/P_18_00_09_18.png,,,,,0,56,56,134,,,,,,,,,,,,,,,,,,,,,,,,,,,,4222.697768192636,None,4222.697768192636,None,4223.098932594083,None,4223.098932594083,None,40,4223.098932594083,None,return,5.9502722985853325,4223.098932594083,None,,,QINZUBAO,M,002,2023_Apr_19_1030,untitled,2021.1.4,60.15540087284211,
9,36,0,0,45,9,45,0.2,0.8,0.2,None,None,None,,stimuli/P_09_36_00_00.png,,,,,0,57,57,112,,,,,,,,,,,,,,,,,,,,,,,,,,,,4229.069095518127,None,4229.069095518127,None,4229.4636215570135,None,4229.4636215570135,None,20,4229.4636215570135,None,return,3.043950636390946,4229.4636215570135,None,,,QINZUBAO,M,002,2023_Apr_19_1030,untitled,2021.1.4,60.15540087284211,
9,9,18,9,18,27,45,0.8,0.5,0.5,0.67,-0.17,-0.5,,stimuli/P_09_09_18_09.png,,,,,0,58,58,89,,,,,,,,,,,,,,,,,,,,,,,,,,,,4232.526517894679,None,4232.526517894679,None,4232.925641692265,None,4232.925641692265,None,20,4232.925641692265,None,return,4.0347261056740535,4232.925641692265,None,,,QINZUBAO,M,002,2023_Apr_19_1030,untitled,2021.1.4,60.15540087284211,
0,36,36,18,36,36,90,0.6,1.0,0.0,0.67,-0.67,-2.0,,stimuli/P_00_36_36_18.png,,,,,0,59,59,62,,,,,,,,,,,,,,,,,,,,,,,,,,,,4236.9838509557085,None,4236.9838509557085,None,4237.380184922971,None,4237.380184922971,None,0,4237.380184922971,None,return,1.491241673604236,4237.380184922971,None,,,QINZUBAO,M,002,2023_Apr_19_1030,untitled,2021.1.4,60.15540087284211,
9,18,9,0,27,18,36,0.5,0.67,0.33,1.0,-0.67,#NAME?,,stimuli/P_09_18_09_00.png,,,,,0,60,60,100,,,,,,,,,,,,,,,,,,,,,,,,,,,,4238.891213115392,None,4238.891213115392,None,4239.288528984594,None,4239.288528984594,None,25,4239.288528984594,None,return,3.597616470011417,4239.288528984594,None,,,QINZUBAO,M,002,2023_Apr_19_1030,untitled,2021.1.4,60.15540087284211,
18,9,36,0,27,54,63,0.86,0.33,0.67,1.0,-0.33,#NAME?,,stimuli/P_18_09_36_00.png,,,,,0,61,61,156,,,,,,,,,,,,,,,,,,,,,,,,,,,,4242.902152845607,None,4242.902152845607,None,4243.301027469934,None,4243.301027469934,None,29,4243.301027469934,None,return,6.540560912901128,4243.301027469934,None,,,QINZUBAO,M,002,2023_Apr_19_1030,untitled,2021.1.4,60.15540087284211,
18,36,0,0,54,18,54,0.33,0.67,0.33,None,None,None,,stimuli/P_18_36_00_00.png,,,,,0,62,62,176,,,,,,,,,,,,,,,,,,,,,,,,,,,,4249.858078760371,None,4249.858078760371,None,4250.25360149231,None,4250.25360149231,None,33,4250.25360149231,None,return,2.5317658931890037,4250.25360149231,None,,,QINZUBAO,M,002,2023_Apr_19_1030,untitled,2021.1.4,60.15540087284211,
36,0,9,36,36,45,81,1.0,0.0,1.0,0.2,0.8,1.0,,stimuli/P_36_00_09_36.png,,,,,0,63,63,199,,,,,,,,,,,,,,,,,,,,,,,,,,,,4252.807592730285,None,4252.807592730285,None,4253.204979141694,None,4253.204979141694,None,44,4253.204979141694,None,return,3.191171643396956,4253.204979141694,None,,,QINZUBAO,M,002,2023_Apr_19_1030,untitled,2021.1.4,60.15540087284211,
9,18,18,9,27,27,54,0.67,0.67,0.33,0.67,-0.33,-1.0,,stimuli/P_09_18_18_09.png,,,,,0,64,64,105,,,,,,,,,,,,,,,,,,,,,,,,,,,,4256.429935379929,None,4256.429935379929,None,4256.829364101868,None,4256.829364101868,None,17,4256.829364101868,None,return,4.059581991947198,4256.829364101868,None,,,QINZUBAO,M,002,2023_Apr_19_1030,untitled,2021.1.4,60.15540087284211,
0,18,18,9,18,18,45,0.6,1.0,0.0,0.67,-0.67,-2.0,,stimuli/P_00_18_18_09.png,,,,,0,65,65,41,,,,,,,,,,,,,,,,,,,,,,,,,,,,4260.923667079493,None,4260.923667079493,None,4261.320473224398,None,4261.320473224398,None,0,4261.320473224398,None,return,1.4941646238876274,4261.320473224398,None,,,QINZUBAO,M,002,2023_Apr_19_1030,untitled,2021.1.4,60.15540087284211,
36,18,0,18,54,36,72,0.75,0.33,0.67,0.0,0.67,0.67,,stimuli/P_36_18_00_18.png,,,,,0,66,66,226,,,,,,,,,,,,,,,,,,,,,,,,,,,,4262.836300562121,None,4262.836300562121,None,4263.232437125,None,4263.232437125,None,50,4263.232437125,None,return,3.621461441005522,4263.232437125,None,,,QINZUBAO,M,002,2023_Apr_19_1030,untitled,2021.1.4,60.15540087284211,
9,9,36,0,18,45,54,0.83,0.5,0.5,1.0,-0.5,#NAME?,,stimuli/P_09_09_36_00.png,,,,,0,67,67,92,,,,,,,,,,,,,,,,,,,,,,,,,,,,4266.870587485697,None,4266.870587485697,None,4267.267864101588,None,4267.267864101588,None,17,4267.267864101588,None,return,3.149877148476662,4267.267864101588,None,,,QINZUBAO,M,002,2023_Apr_19_1030,untitled,2021.1.4,60.15540087284211,
18,0,9,36,18,27,63,1.0,0.0,1.0,0.2,0.8,1.0,,stimuli/P_18_00_09_36.png,,,,,0,68,68,135,,,,,,,,,,,,,,,,,,,,,,,,,,,,4270.437094275672,None,4270.437094275672,None,4270.835518909007,None,4270.835518909007,None,28,4270.835518909007,None,return,3.7486729248266784,4270.835518909007,None,,,QINZUBAO,M,002,2023_Apr_19_1030,untitled,2021.1.4,60.15540087284211,
9,0,0,36,9,9,45,1.0,0.0,1.0,0.0,1.0,1.0,,stimuli/P_09_00_00_36.png,,,,,0,69,69,67,,,,,,,,,,,,,,,,,,,,,,,,,,,,4274.603011241808,None,4274.603011241808,None,4275.000927857516,None,4275.000927857516,None,20,4275.000927857516,None,return,7.031784382073965,4275.000927857516,None,,,QINZUBAO,M,002,2023_Apr_19_1030,untitled,2021.1.4,60.15540087284211,
0,9,9,18,9,9,36,0.75,1.0,0.0,0.33,-0.33,-0.5,,stimuli/P_00_09_09_18.png,,,,,0,70,70,22,,,,,,,,,,,,,,,,,,,,,,,,,,,,4282.058943129901,None,4282.058943129901,None,4282.456562216801,None,4282.456562216801,None,0,4282.456562216801,None,return,1.4512140938750235,4282.456562216801,None,,,QINZUBAO,M,002,2023_Apr_19_1030,untitled,2021.1.4,60.15540087284211,
36,0,0,9,36,36,45,1.0,0.0,1.0,0.0,1.0,1.0,,stimuli/P_36_00_00_09.png,,,,,0,71,71,193,,,,,,,,,,,,,,,,,,,,,,,,,,,,4283.932975805728,None,4283.932975805728,None,4284.329289861889,None,4284.329289861889,None,80,4284.329289861889,None,return,2.913185304700164,4284.329289861889,None,,,QINZUBAO,M,002,2023_Apr_19_1030,untitled,2021.1.4,60.15540087284211,
18,36,0,9,54,18,63,0.43,0.67,0.33,0.0,0.33,0.33,,stimuli/P_18_36_00_09.png,,,,,0,72,72,177,,,,,,,,,,,,,,,,,,,,,,,,,,,,4287.278804969588,None,4287.278804969588,None,4287.675057585759,None,4287.675057585759,None,28,4287.675057585759,None,return,3.849546567245852,4287.675057585759,None,,,QINZUBAO,M,002,2023_Apr_19_1030,untitled,2021.1.4,60.15540087284211,
36,9,0,0,45,36,45,0.8,0.2,0.8,None,None,None,,stimuli/P_36_09_00_00.png,,,,,0,73,73,208,,,,,,,,,,,,,,,,,,,,,,,,,,,,4291.549789425837,None,4291.549789425837,None,4291.948371641352,None,4291.948371641352,None,80,4291.948371641352,None,return,3.3802440873987507,4291.948371641352,None,,,QINZUBAO,M,002,2023_Apr_19_1030,untitled,2021.1.4,60.15540087284211,
9,9,9,0,18,18,27,0.67,0.5,0.5,1.0,-0.5,#NAME?,,stimuli/P_09_09_09_00.png,,,,,0,74,74,84,,,,,,,,,,,,,,,,,,,,,,,,,,,,4295.34587410606,None,4295.34587410606,None,4295.746846223119,None,4295.746846223119,None,33,4295.746846223119,None,return,2.085983548880904,4295.746846223119,None,,,QINZUBAO,M,002,2023_Apr_19_1030,untitled,2021.1.4,60.15540087284211,
0,0,9,36,0,9,45,1.0,None,None,0.2,None,None,,stimuli/P_00_00_09_36.png,,,,,0,75,75,7,,,,,,,,,,,,,,,,,,,,,,,,,,,,4297.856629231894,None,4297.856629231894,None,4298.252868194737,None,4298.252868194737,None,0,4298.252868194737,None,return,1.1964947352171293,4298.252868194737,None,,,QINZUBAO,M,002,2023_Apr_19_1030,untitled,2021.1.4,60.15540087284211,
18,18,18,18,36,36,72,0.75,0.5,0.5,0.5,0.0,0.0,,stimuli/P_18_18_18_18.png,,,,,0,76,76,170,,,,,,,,,,,,,,,,,,,,,,,,,,,,4299.469335475391,None,4299.469335475391,None,4299.86655349574,None,4299.86655349574,None,25,4299.86655349574,None,return,2.306002401848673,4299.86655349574,None,,,QINZUBAO,M,002,2023_Apr_19_1030,untitled,2021.1.4,60.15540087284211,
18,0,0,0,18,18,18,1.0,0.0,1.0,None,None,None,,stimuli/P_18_00_00_00.png,,,,,0,77,77,128,,,,,,,,,,,,,,,,,,,,,,,,,,,,4302.191507856638,None,4302.191507856638,None,4302.585610642316,None,4302.585610642316,None,100,4302.585610642316,None,return,2.310871520458022,4302.585610642316,None,,,QINZUBAO,M,002,2023_Apr_19_1030,untitled,2021.1.4,60.15540087284211,
36,36,36,36,72,72,144,0.75,0.5,0.5,0.5,0.0,0.0,,stimuli/P_36_36_36_36.png,,,,,0,78,78,255,,,,,,,,,,,,,,,,,,,,,,,,,,,,4304.916867721426,None,4304.916867721426,None,4305.312890506553,None,4305.312890506553,None,25,4305.312890506553,None,return,1.999056782493426,4305.312890506553,None,,,QINZUBAO,M,002,2023_Apr_19_1030,untitled,2021.1.4,60.15540087284211,
18,18,9,18,36,27,63,0.71,0.5,0.5,0.33,0.17,0.25,,stimuli/P_18_18_09_18.png,,,,,0,79,79,166,,,,,,,,,,,,,,,,,,,,,,,,,,,,4307.341018640778,None,4307.341018640778,None,4307.74129671359,None,4307.74129671359,None,28,4307.74129671359,None,return,4.877067697190796,4307.74129671359,None,,,QINZUBAO,M,002,2023_Apr_19_1030,untitled,2021.1.4,60.15540087284211,
0,36,18,18,36,18,72,0.5,1.0,0.0,0.5,-0.5,-1.0,,stimuli/P_00_36_18_18.png,,,,,0,80,80,58,,,,,,,,,,,,,,,,,,,,,,,,,,,,4312.634516868406,None,4312.634516868406,None,4313.028324969724,None,4313.028324969724,None,0,4313.028324969724,None,return,1.37916888770269,4313.028324969724,None,,,QINZUBAO,M,002,2023_Apr_19_1030,untitled,2021.1.4,60.15540087284211,
9,0,9,18,9,18,36,1.0,0.0,1.0,0.33,0.67,1.0,,stimuli/P_09_00_09_18.png,,,,,0,81,81,70,,,,,,,,,,,,,,,,,,,,,,,,,,,,4314.429357957873,None,4314.429357957873,None,4314.819835784583,None,4314.819835784583,None,25,4314.819835784583,None,return,3.154479458280548,4314.819835784583,None,,,QINZUBAO,M,002,2023_Apr_19_1030,untitled,2021.1.4,60.15540087284211,
36,36,9,0,72,45,81,0.56,0.5,0.5,1.0,-0.5,#NAME?,,stimuli/P_36_36_09_00.png,,,,,0,82,82,244,,,,,,,,,,,,,,,,,,,,,,,,,,,,4317.994947130326,None,4317.994947130326,None,4318.390696279981,None,4318.390696279981,None,44,4318.390696279981,None,return,3.6192535838636104,4318.390696279981,None,,,QINZUBAO,M,002,2023_Apr_19_1030,untitled,2021.1.4,60.15540087284211,
36,9,36,9,45,72,90,0.9,0.2,0.8,0.8,0.0,0.0,,stimuli/P_36_09_36_09.png,,,,,0,83,83,221,,,,,,,,,,,,,,,,,,,,,,,,,,,,4322.033781181504,None,4322.033781181504,None,4322.425152163516,None,4322.425152163516,None,40,4322.425152163516,None,return,5.083314891853661,4322.425152163516,None,,,QINZUBAO,M,002,2023_Apr_19_1030,untitled,2021.1.4,60.15540087284211,
18,9,9,18,27,27,54,0.83,0.33,0.67,0.33,0.33,0.5,,stimuli/P_18_09_09_18.png,,,,,0,84,84,150,,,,,,,,,,,,,,,,,,,,,,,,,,,,4327.525213432826,None,4327.525213432826,None,4327.921780644472,None,4327.921780644472,None,33,4327.921780644472,None,return,3.562493280005583,4327.921780644472,None,,,QINZUBAO,M,002,2023_Apr_19_1030,untitled,2021.1.4,60.15540087284211,
0,0,18,9,0,18,27,1.0,None,None,0.67,None,None,,stimuli/P_00_00_18_09.png,,,,,0,85,85,9,,,,,,,,,,,,,,,,,,,,,,,,,,,,4331.522446926952,None,4331.522446926952,None,4331.913466335725,None,4331.913466335725,None,0,4331.913466335725,None,return,1.0529476116062142,4331.913466335725,None,,,QINZUBAO,M,002,2023_Apr_19_1030,untitled,2021.1.4,60.15540087284211,
36,36,18,36,72,54,126,0.71,0.5,0.5,0.33,0.17,0.25,,stimuli/P_36_36_18_36.png,,,,,0,86,86,251,,,,,,,,,,,,,,,,,,,,,,,,,,,,4332.997724445093,None,4332.997724445093,None,4333.388545311704,None,4333.388545311704,None,28,4333.388545311704,None,return,4.958414234046359,4333.388545311704,None,,,QINZUBAO,M,002,2023_Apr_19_1030,untitled,2021.1.4,60.15540087284211,
36,0,18,9,36,54,63,1.0,0.0,1.0,0.67,0.33,1.0,,stimuli/P_36_00_18_09.png,,,,,0,87,87,201,,,,,,,,,,,,,,,,,,,,,,,,,,,,4338.36014126645,None,4338.36014126645,None,4338.752979412486,None,4338.752979412486,None,57,4338.752979412486,None,return,7.205458146003366,4338.752979412486,None,,,QINZUBAO,M,002,2023_Apr_19_1030,untitled,2021.1.4,60.15540087284211,
36,36,36,9,72,72,117,0.69,0.5,0.5,0.8,-0.3,-1.5,,stimuli/P_36_36_36_09.png,,,,,0,88,88,253,,,,,,,,,,,,,,,,,,,,,,,,,,,,4345.974848860489,None,4345.974848860489,None,4346.366228375831,None,4346.366228375831,None,,4346.366228375831,None,None,,4346.366228375831,None,,,QINZUBAO,M,002,2023_Apr_19_1030,untitled,2021.1.4,60.15540087284211,
9,0,9,36,9,18,54,1.0,0.0,1.0,0.2,0.8,1.0,,stimuli/P_09_00_09_36.png,,,,,0,89,89,71,,,,,,,,,,,,,,,,,,,,,,,,,,,,4354.381632175893,None,4354.381632175893,None,4354.786977340591,None,4354.786977340591,None,17,4354.786977340591,None,return,5.607996982616896,4354.786977340591,None,,,QINZUBAO,M,002,2023_Apr_19_1030,untitled,2021.1.4,60.15540087284211,
18,18,9,9,36,27,54,0.67,0.5,0.5,0.5,0.0,0.0,,stimuli/P_18_18_09_09.png,,,,,0,90,90,165,,,,,,,,,,,,,,,,,,,,,,,,,,,,4360.43062714862,None,4360.43062714862,None,4360.822345152752,None,4360.822345152752,None,33,4360.822345152752,None,return,4.170671738116653,4360.822345152752,None,,,QINZUBAO,M,002,2023_Apr_19_1030,untitled,2021.1.4,60.15540087284211,
36,0,9,0,36,45,45,1.0,0.0,1.0,1.0,0.0,None,,stimuli/P_36_00_09_00.png,,,,,0,91,91,196,,,,,,,,,,,,,,,,,,,,,,,,,,,,4365.018158928171,None,4365.018158928171,None,4365.411023811976,None,4365.411023811976,None,80,4365.411023811976,None,return,5.542309676849982,4365.411023811976,None,,,QINZUBAO,M,002,2023_Apr_19_1030,untitled,2021.1.4,60.15540087284211,
36,9,9,36,45,45,90,0.9,0.2,0.8,0.2,0.6,0.75,,stimuli/P_36_09_09_36.png,,,,,0,92,92,215,,,,,,,,,,,,,,,,,,,,,,,,,,,,4370.990626989333,None,4370.990626989333,None,4371.385075090468,None,4371.385075090468,None,40,4371.385075090468,None,return,3.9967516453689313,4371.385075090468,None,,,QINZUBAO,M,002,2023_Apr_19_1030,untitled,2021.1.4,60.15540087284211,
18,9,36,9,27,54,72,0.88,0.33,0.67,0.8,-0.13,-0.67,,stimuli/P_18_09_36_09.png,,,,,0,93,93,157,,,,,,,,,,,,,,,,,,,,,,,,,,,,4375.406063102273,None,4375.406063102273,None,4375.804946828815,None,4375.804946828815,None,25,4375.804946828815,None,return,5.01631572869519,4375.804946828815,None,,,QINZUBAO,M,002,2023_Apr_19_1030,untitled,2021.1.4,60.15540087284211,
36,9,9,0,45,45,54,0.83,0.2,0.8,1.0,-0.2,#NAME?,,stimuli/P_36_09_09_00.png,,,,,0,94,94,212,,,,,,,,,,,,,,,,,,,,,,,,,,,,4380.844464115355,None,4380.844464115355,None,4381.240854971489,None,4381.240854971489,None,66,4381.240854971489,None,return,3.1268576350266812,4381.240854971489,None,,,QINZUBAO,M,002,2023_Apr_19_1030,untitled,2021.1.4,60.15540087284211,
18,0,18,0,18,36,36,1.0,0.0,1.0,1.0,0.0,None,,stimuli/P_18_00_18_00.png,,,,,0,95,95,136,,,,,,,,,,,,,,,,,,,,,,,,,,,,4384.38135512708,None,4384.38135512708,None,4384.7749766328925,None,4384.7749766328925,None,50,4384.7749766328925,None,return,3.543118067733303,4384.7749766328925,None,,,QINZUBAO,M,002,2023_Apr_19_1030,untitled,2021.1.4,60.15540087284211,
18,0,9,0,18,27,27,1.0,0.0,1.0,1.0,0.0,None,,stimuli/P_18_00_09_00.png,,,,,0,96,96,132,,,,,,,,,,,,,,,,,,,,,,,,,,,,4388.349669731651,None,4388.349669731651,None,4388.742225139991,None,4388.742225139991,None,66,4388.742225139991,None,return,2.5167335774604,4388.742225139991,None,,,QINZUBAO,M,002,2023_Apr_19_1030,untitled,2021.1.4,60.15540087284211,
9,18,18,18,27,27,63,0.71,0.67,0.33,0.5,-0.17,-0.33,,stimuli/P_09_18_18_18.png,,,,,0,97,97,106,,,,,,,,,,,,,,,,,,,,,,,,,,,,4391.278542142994,None,4391.278542142994,None,4391.673943132744,None,4391.673943132744,None,14,4391.673943132744,None,return,5.607764307125763,4391.673943132744,None,,,QINZUBAO,M,002,2023_Apr_19_1030,untitled,2021.1.4,60.15540087284211,
18,18,0,18,36,18,54,0.67,0.5,0.5,0.0,0.5,0.5,,stimuli/P_18_18_00_18.png,,,,,0,98,98,162,,,,,,,,,,,,,,,,,,,,,,,,,,,,4397.313335377541,None,4397.313335377541,None,4397.7061826258,None,4397.7061826258,None,33,4397.7061826258,None,return,1.7620042632479453,4397.7061826258,None,,,QINZUBAO,M,002,2023_Apr_19_1030,untitled,2021.1.4,60.15540087284211,
36,18,9,9,54,45,72,0.75,0.33,0.67,0.5,0.17,0.33,,stimuli/P_36_18_09_09.png,,,,,0,99,99,229,,,,,,,,,,,,,,,,,,,,,,,,,,,,4399.501668835081,None,4399.501668835081,None,4399.8947493277155,None,4399.8947493277155,None,50,4399.8947493277155,None,return,4.2351120397870545,4399.8947493277155,None,,,QINZUBAO,M,002,2023_Apr_19_1030,untitled,2021.1.4,60.15540087284211,
0,18,9,36,18,9,63,0.71,1.0,0.0,0.2,-0.2,-0.25,,stimuli/P_00_18_09_36.png,,,,,0,100,100,39,,,,,,,,,,,,,,,,,,,,,,,,,,,,4404.151726605734,None,4404.151726605734,None,4404.543075401081,None,4404.543075401081,None,0,4404.543075401081,None,return,3.8822337757155765,4404.543075401081,None,,,QINZUBAO,M,002,2023_Apr_19_1030,untitled,2021.1.4,60.15540087284211,
9,0,9,9,9,18,27,1.0,0.0,1.0,0.5,0.5,1.0,,stimuli/P_09_00_09_09.png,,,,,0,101,101,69,,,,,,,,,,,,,,,,,,,,,,,,,,,,4408.459477202639,None,4408.459477202639,None,4408.850071082648,None,4408.850071082648,None,33,4408.850071082648,None,return,2.1016666733048623,4408.850071082648,None,,,QINZUBAO,M,002,2023_Apr_19_1030,untitled,2021.1.4,60.15540087284211,
18,36,18,0,54,36,72,0.5,0.67,0.33,1.0,-0.67,#NAME?,,stimuli/P_18_36_18_00.png,,,,,0,102,102,184,,,,,,,,,,,,,,,,,,,,,,,,,,,,4410.975914389077,None,4410.975914389077,None,4411.376947946112,None,4411.376947946112,None,25,4411.376947946112,None,return,6.0592304187084665,4411.376947946112,None,,,QINZUBAO,M,002,2023_Apr_19_1030,untitled,2021.1.4,60.15540087284211,
36,0,36,0,36,72,72,1.0,0.0,1.0,1.0,0.0,None,,stimuli/P_36_00_36_00.png,,,,,0,103,103,204,,,,,,,,,,,,,,,,,,,,,,,,,,,,4417.46390600138,None,4417.46390600138,None,4417.85650692082,None,4417.85650692082,None,50,4417.85650692082,None,return,3.7429265797909466,4417.85650692082,None,,,QINZUBAO,M,002,2023_Apr_19_1030,untitled,2021.1.4,60.15540087284211,
18,9,18,9,27,36,54,0.83,0.33,0.67,0.67,0.0,0.0,,stimuli/P_18_09_18_09.png,,,,,0,104,104,153,,,,,,,,,,,,,,,,,,,,,,,,,,,,4421.617271575531,None,4421.617271575531,None,4422.011090485736,None,4422.011090485736,None,33,4422.011090485736,None,return,3.898326500035182,4422.011090485736,None,,,QINZUBAO,M,002,2023_Apr_19_1030,untitled,2021.1.4,60.15540087284211,
36,18,9,0,54,45,63,0.71,0.33,0.67,1.0,-0.33,#NAME?,,stimuli/P_36_18_09_00.png,,,,,0,105,105,228,,,,,,,,,,,,,,,,,,,,,,,,,,,,4425.937827288799,None,4425.937827288799,None,4426.330900954767,None,4426.330900954767,None,57,4426.330900954767,None,return,4.890644226659788,4426.330900954767,None,,,QINZUBAO,M,002,2023_Apr_19_1030,untitled,2021.1.4,60.15540087284211,
0,9,9,0,9,9,18,0.5,1.0,0.0,1.0,-1.0,#NAME?,,stimuli/P_00_09_09_00.png,,,,,0,106,106,20,,,,,,,,,,,,,,,,,,,,,,,,,,,,4431.239861691771,None,4431.239861691771,None,4431.630356585141,None,4431.630356585141,None,0,4431.630356585141,None,return,1.568109349514998,4431.630356585141,None,,,QINZUBAO,M,002,2023_Apr_19_1030,untitled,2021.1.4,60.15540087284211,
9,36,18,9,45,27,72,0.5,0.8,0.2,0.67,-0.47,-1.4,,stimuli/P_09_36_18_09.png,,,,,0,107,107,121,,,,,,,,,,,,,,,,,,,,,,,,,,,,4433.233145960352,None,4433.233145960352,None,4433.626686683965,None,4433.626686683965,None,13,4433.626686683965,None,return,6.689427146120579,4433.626686683965,None,,,QINZUBAO,M,002,2023_Apr_19_1030,untitled,2021.1.4,60.15540087284211,
36,18,36,36,54,72,126,0.86,0.33,0.67,0.5,0.17,0.33,,stimuli/P_36_18_36_36.png,,,,,0,108,108,239,,,,,,,,,,,,,,,,,,,,,,,,,,,,4440.339518481203,None,4440.339518481203,None,4440.729650423564,None,4440.729650423564,None,28,4440.729650423564,None,return,3.5532186870841542,4440.729650423564,None,,,QINZUBAO,M,002,2023_Apr_19_1030,untitled,2021.1.4,60.15540087284211,
9,18,0,36,27,9,63,0.71,0.67,0.33,0.0,0.33,0.33,,stimuli/P_09_18_00_36.png,,,,,0,109,109,99,,,,,,,,,,,,,,,,,,,,,,,,,,,,4444.305221886512,None,4444.305221886512,None,4444.6973511971955,None,4444.6973511971955,None,14,4444.6973511971955,None,return,3.256423180391721,4444.6973511971955,None,,,QINZUBAO,M,002,2023_Apr_19_1030,untitled,2021.1.4,60.15540087284211,
0,18,18,18,18,18,54,0.67,1.0,0.0,0.5,-0.5,-1.0,,stimuli/P_00_18_18_18.png,,,,,0,110,110,42,,,,,,,,,,,,,,,,,,,,,,,,,,,,4447.970211279586,None,4447.970211279586,None,4448.362694439056,None,4448.362694439056,None,0,4448.362694439056,None,return,1.4559859325236175,4448.362694439056,None,,,QINZUBAO,M,002,2023_Apr_19_1030,untitled,2021.1.4,60.15540087284211,
36,9,0,36,45,36,81,0.89,0.2,0.8,0.0,0.8,0.8,,stimuli/P_36_09_00_36.png,,,,,0,111,111,211,,,,,,,,,,,,,,,,,,,,,,,,,,,,4449.837081646343,None,4449.837081646343,None,4450.241398260223,None,4450.241398260223,None,44,4450.241398260223,None,return,2.91350217571744,4450.241398260223,None,,,QINZUBAO,M,002,2023_Apr_19_1030,untitled,2021.1.4,60.15540087284211,
9,36,9,0,45,18,54,0.33,0.8,0.2,1.0,-0.8,#NAME?,,stimuli/P_09_36_09_00.png,,,,,0,112,112,116,,,,,,,,,,,,,,,,,,,,,,,,,,,,4453.18378007217,None,4453.18378007217,None,4453.576723462618,None,4453.576723462618,None,17,4453.576723462618,None,return,4.519936989883718,4453.576723462618,None,,,QINZUBAO,M,002,2023_Apr_19_1030,untitled,2021.1.4,60.15540087284211,
18,9,18,0,27,36,45,0.8,0.33,0.67,1.0,-0.33,#NAME?,,stimuli/P_18_09_18_00.png,,,,,0,113,113,152,,,,,,,,,,,,,,,,,,,,,,,,,,,,4458.116813904548,None,4458.116813904548,None,4458.508613828664,None,4458.508613828664,None,40,4458.508613828664,None,return,2.750449564315204,4458.508613828664,None,,,QINZUBAO,M,002,2023_Apr_19_1030,untitled,2021.1.4,60.15540087284211,
0,0,36,36,0,36,72,1.0,None,None,0.5,None,None,,stimuli/P_00_00_36_36.png,,,,,0,114,114,15,,,,,,,,,,,,,,,,,,,,,,,,,,,,4461.296719844489,None,4461.296719844489,None,4461.688520906377,None,4461.688520906377,None,0,4461.688520906377,None,return,1.3455333417150541,4461.688520906377,None,,,QINZUBAO,M,002,2023_Apr_19_1030,untitled,2021.1.4,60.15540087284211,
0,0,0,36,0,0,36,1.0,None,None,0.0,None,None,,stimuli/P_00_00_00_36.png,,,,,0,115,115,3,,,,,,,,,,,,,,,,,,,,,,,,,,,,4463.050990634387,None,4463.050990634387,None,4463.44062138578,None,4463.44062138578,None,0,4463.44062138578,None,return,1.2885454823699547,4463.44062138578,None,,,QINZUBAO,M,002,2023_Apr_19_1030,untitled,2021.1.4,60.15540087284211,
36,9,18,36,45,54,99,0.91,0.2,0.8,0.33,0.47,0.7,,stimuli/P_36_09_18_36.png,,,,,0,116,116,219,,,,,,,,,,,,,,,,,,,,,,,,,,,,4464.747148871924,None,4464.747148871924,None,4465.140607675559,None,4465.140607675559,None,3,4465.140607675559,None,None,,4465.140607675559,None,,,QINZUBAO,M,002,2023_Apr_19_1030,untitled,2021.1.4,60.15540087284211,
9,0,0,18,9,9,27,1.0,0.0,1.0,0.0,1.0,1.0,,stimuli/P_09_00_00_18.png,,,,,0,117,117,66,,,,,,,,,,,,,,,,,,,,,,,,,,,,4473.163702851212,None,4473.163702851212,None,4473.576462911587,None,4473.576462911587,None,33,4473.576462911587,None,return,1.6905046213651076,4473.576462911587,None,,,QINZUBAO,M,002,2023_Apr_19_1030,untitled,2021.1.4,60.15540087284211,
18,36,36,9,54,54,99,0.64,0.67,0.33,0.8,-0.47,-2.33,,stimuli/P_18_36_36_09.png,,,,,0,118,118,189,,,,,,,,,,,,,,,,,,,,,,,,,,,,4475.2884038290795,None,4475.2884038290795,None,4475.686714684671,None,4475.686714684671,None,18,4475.686714684671,None,return,6.344303973171918,4475.686714684671,None,,,QINZUBAO,M,002,2023_Apr_19_1030,untitled,2021.1.4,60.15540087284211,
9,9,9,9,18,18,36,0.75,0.5,0.5,0.5,0.0,0.0,,stimuli/P_09_09_09_09.png,,,,,0,119,119,85,,,,,,,,,,,,,,,,,,,,,,,,,,,,4482.055984339633,None,4482.055984339633,None,4482.446611215186,None,4482.446611215186,None,25,4482.446611215186,None,return,2.9137251800930244,4482.446611215186,None,,,QINZUBAO,M,002,2023_Apr_19_1030,untitled,2021.1.4,60.15540087284211,
0,36,9,18,36,9,63,0.43,1.0,0.0,0.33,-0.33,-0.5,,stimuli/P_00_36_09_18.png,,,,,0,120,120,54,,,,,,,,,,,,,,,,,,,,,,,,,,,,4485.399575495234,None,4485.399575495234,None,4485.79132251269,None,4485.79132251269,None,0,4485.79132251269,None,return,2.85709458286874,4485.79132251269,None,,,QINZUBAO,M,002,2023_Apr_19_1030,untitled,2021.1.4,60.15540087284211,
0,36,0,36,36,0,72,0.5,1.0,0.0,0.0,0.0,0.0,,stimuli/P_00_36_00_36.png,,,,,0,121,121,51,,,,,,,,,,,,,,,,,,,,,,,,,,,,4488.665951952797,None,4488.665951952797,None,4489.051779114161,None,4489.051779114161,None,0,4489.051779114161,None,return,1.6900887637020787,4489.051779114161,None,,,QINZUBAO,M,002,2023_Apr_19_1030,untitled,2021.1.4,60.15540087284211,
0,36,9,0,36,9,45,0.2,1.0,0.0,1.0,-1.0,#NAME?,,stimuli/P_00_36_09_00.png,,,,,0,122,122,52,,,,,,,,,,,,,,,,,,,,,,,,,,,,4490.757660228934,None,4490.757660228934,None,4491.151099121467,None,4491.151099121467,None,0,4491.151099121467,None,return,1.5782742532901466,4491.151099121467,None,,,QINZUBAO,M,002,2023_Apr_19_1030,untitled,2021.1.4,60.15540087284211,
18,0,18,36,18,36,72,1.0,0.0,1.0,0.33,0.67,1.0,,stimuli/P_18_00_18_36.png,,,,,0,123,123,139,,,,,,,,,,,,,,,,,,,,,,,,,,,,4492.7531398391075,None,4492.7531398391075,None,4493.145402269751,None,4493.145402269751,None,25,4493.145402269751,None,return,2.8330436741598533,4493.145402269751,None,,,QINZUBAO,M,002,2023_Apr_19_1030,untitled,2021.1.4,60.15540087284211,
0,9,0,0,9,0,9,0.0,1.0,0.0,None,None,None,,stimuli/P_00_09_00_00.png,,,,,0,124,124,16,,,,,,,,,,,,,,,,,,,,,,,,,,,,4496.011239534579,None,4496.011239534579,None,4496.399011726506,None,4496.399011726506,None,0,4496.399011726506,None,return,1.3604717907946906,4496.399011726506,None,,,QINZUBAO,M,002,2023_Apr_19_1030,untitled,2021.1.4,60.15540087284211,
18,9,36,36,27,54,99,0.91,0.33,0.67,0.5,0.17,0.33,,stimuli/P_18_09_36_36.png,,,,,0,125,125,159,,,,,,,,,,,,,,,,,,,,,,,,,,,,4497.782290835261,None,4497.782290835261,None,4498.176059683254,None,4498.176059683254,None,18,4498.176059683254,None,return,5.932756214679102,4498.176059683254,None,,,QINZUBAO,M,002,2023_Apr_19_1030,untitled,2021.1.4,60.15540087284211,
36,9,36,0,45,72,81,0.89,0.2,0.8,1.0,-0.2,#NAME?,,stimuli/P_36_09_36_00.png,,,,,0,126,126,220,,,,,,,,,,,,,,,,,,,,,,,,,,,,4504.143990287936,None,4504.143990287936,None,4504.537612931526,None,4504.537612931526,None,44,4504.537612931526,None,return,4.052204642925062,4504.537612931526,None,,,QINZUBAO,M,002,2023_Apr_19_1030,untitled,2021.1.4,60.15540087284211,
36,18,18,0,54,54,72,0.75,0.33,0.67,1.0,-0.33,#NAME?,,stimuli/P_36_18_18_00.png,,,,,0,127,127,232,,,,,,,,,,,,,,,,,,,,,,,,,,,,4508.617135042237,None,4508.617135042237,None,4509.014046431563,None,4509.014046431563,None,50,4509.014046431563,None,return,3.8409580541265314,4509.014046431563,None,,,QINZUBAO,M,002,2023_Apr_19_1030,untitled,2021.1.4,60.15540087284211,
9,36,36,18,45,45,99,0.64,0.8,0.2,0.67,-0.47,-1.4,,stimuli/P_09_36_36_18.png,,,,,0,128,128,126,,,,,,,,,,,,,,,,,,,,,,,,,,,,4512.890101506819,None,4512.890101506819,None,4513.281259155556,None,4513.281259155556,None,9,4513.281259155556,None,return,5.84037266762607,4513.281259155556,None,,,QINZUBAO,M,002,2023_Apr_19_1030,untitled,2021.1.4,60.15540087284211,
18,18,36,36,36,54,108,0.83,0.5,0.5,0.5,0.0,0.0,,stimuli/P_18_18_36_36.png,,,,,0,129,129,175,,,,,,,,,,,,,,,,,,,,,,,,,,,,4519.154596649358,None,4519.154596649358,None,4519.548800128345,None,4519.548800128345,None,33,4519.548800128345,None,return,3.811216551475809,4519.548800128345,None,,,QINZUBAO,M,002,2023_Apr_19_1030,untitled,2021.1.4,60.15540087284211,
36,9,18,9,45,54,72,0.88,0.2,0.8,0.67,0.13,0.4,,stimuli/P_36_09_18_09.png,,,,,0,130,130,217,,,,,,,,,,,,,,,,,,,,,,,,,,,,4523.391379515342,None,4523.391379515342,None,4523.778991849533,None,4523.778991849533,None,50,4523.778991849533,None,return,4.320802610971441,4523.778991849533,None,,,QINZUBAO,M,002,2023_Apr_19_1030,untitled,2021.1.4,60.15540087284211,
9,36,0,9,45,9,54,0.33,0.8,0.2,0.0,0.2,0.2,,stimuli/P_09_36_00_09.png,,,,,0,131,131,113,,,,,,,,,,,,,,,,,,,,,,,,,,,,4528.130199856299,None,4528.130199856299,None,4528.521823424904,None,4528.521823424904,None,16,4528.521823424904,None,return,3.127772976986307,4528.521823424904,None,,,QINZUBAO,M,002,2023_Apr_19_1030,untitled,2021.1.4,60.15540087284211,
0,36,18,9,36,18,63,0.43,1.0,0.0,0.67,-0.67,-2.0,,stimuli/P_00_36_18_09.png,,,,,0,132,132,57,,,,,,,,,,,,,,,,,,,,,,,,,,,,4531.66450697543,None,4531.66450697543,None,4532.057444108104,None,4532.057444108104,None,0,4532.057444108104,None,return,1.5287143740570173,4532.057444108104,None,,,QINZUBAO,M,002,2023_Apr_19_1030,untitled,2021.1.4,60.15540087284211,
18,18,0,9,36,18,45,0.6,0.5,0.5,0.0,0.5,0.5,,stimuli/P_18_18_00_09.png,,,,,0,133,133,161,,,,,,,,,,,,,,,,,,,,,,,,,,,,4533.61163673269,None,4533.61163673269,None,4534.001000106386,None,4534.001000106386,None,40,4534.001000106386,None,return,3.2926033656622167,4534.001000106386,None,,,QINZUBAO,M,002,2023_Apr_19_1030,untitled,2021.1.4,60.15540087284211,
9,18,18,0,27,27,45,0.6,0.67,0.33,1.0,-0.67,#NAME?,,stimuli/P_09_18_18_00.png,,,,,0,134,134,104,,,,,,,,,,,,,,,,,,,,,,,,,,,,4537.312747715485,None,4537.312747715485,None,4537.706272510215,None,4537.706272510215,None,20,4537.706272510215,None,return,2.7400946517082048,4537.706272510215,None,,,QINZUBAO,M,002,2023_Apr_19_1030,untitled,2021.1.4,60.15540087284211,
0,0,9,9,0,9,18,1.0,None,None,0.5,None,None,,stimuli/P_00_00_09_09.png,,,,,0,135,135,5,,,,,,,,,,,,,,,,,,,,,,,,,,,,4540.462013308585,None,4540.462013308585,None,4540.850984149052,None,4540.850984149052,None,0,4540.850984149052,None,return,1.303029389360745,4540.850984149052,None,,,QINZUBAO,M,002,2023_Apr_19_1030,untitled,2021.1.4,60.15540087284211,
9,36,18,36,45,27,99,0.64,0.8,0.2,0.33,-0.13,-0.2,,stimuli/P_09_36_18_36.png,,,,,0,136,136,123,,,,,,,,,,,,,,,,,,,,,,,,,,,,4542.187475004452,None,4542.187475004452,None,4542.582618287612,None,4542.582618287612,None,9,4542.582618287612,None,return,5.229135863708507,4542.582618287612,None,,,QINZUBAO,M,002,2023_Apr_19_1030,untitled,2021.1.4,60.15540087284211,
18,36,36,0,54,54,90,0.6,0.67,0.33,1.0,-0.67,#NAME?,,stimuli/P_18_36_36_00.png,,,,,0,137,137,188,,,,,,,,,,,,,,,,,,,,,,,,,,,,4547.833853771706,None,4547.833853771706,None,4548.2286466194055,None,4548.2286466194055,None,20,4548.2286466194055,None,return,3.737079541453568,4548.2286466194055,None,,,QINZUBAO,M,002,2023_Apr_19_1030,untitled,2021.1.4,60.15540087284211,
18,18,18,0,36,36,54,0.67,0.5,0.5,1.0,-0.5,#NAME?,,stimuli/P_18_18_18_00.png,,,,,0,138,138,168,,,,,,,,,,,,,,,,,,,,,,,,,,,,4551.998379236014,None,4551.998379236014,None,4552.394828118806,None,4552.394828118806,None,33,4552.394828118806,None,return,1.5870925974450074,4552.394828118806,None,,,QINZUBAO,M,002,2023_Apr_19_1030,untitled,2021.1.4,60.15540087284211,
0,18,18,36,18,18,72,0.75,1.0,0.0,0.33,-0.33,-0.5,,stimuli/P_00_18_18_36.png,,,,,0,139,139,43,,,,,,,,,,,,,,,,,,,,,,,,,,,,4554.006825526951,None,4554.006825526951,None,4554.393686928015,None,4554.393686928015,None,0,4554.393686928015,None,return,1.546849977778038,4554.393686928015,None,,,QINZUBAO,M,002,2023_Apr_19_1030,untitled,2021.1.4,60.15540087284211,
0,36,0,18,36,0,54,0.33,1.0,0.0,0.0,0.0,0.0,,stimuli/P_00_36_00_18.png,,,,,0,140,140,50,,,,,,,,,,,,,,,,,,,,,,,,,,,,4555.974786851613,None,4555.974786851613,None,4556.363305425548,None,4556.363305425548,None,0,4556.363305425548,None,return,1.1526106588135008,4556.363305425548,None,,,QINZUBAO,M,002,2023_Apr_19_1030,untitled,2021.1.4,60.15540087284211,
18,36,18,36,54,36,108,0.67,0.67,0.33,0.33,0.0,0.0,,stimuli/P_18_36_18_36.png,,,,,0,141,141,187,,,,,,,,,,,,,,,,,,,,,,,,,,,,4557.546720840044,None,4557.546720840044,None,4557.942307856414,None,4557.942307856414,None,33,4557.942307856414,None,return,3.040393375180429,4557.942307856414,None,,,QINZUBAO,M,002,2023_Apr_19_1030,untitled,2021.1.4,60.15540087284211,
36,36,0,36,72,36,108,0.67,0.5,0.5,0.0,0.5,0.5,,stimuli/P_36_36_00_36.png,,,,,0,142,142,243,,,,,,,,,,,,,,,,,,,,,,,,,,,,4561.004412300965,None,4561.004412300965,None,4561.398733539914,None,4561.398733539914,None,33,4561.398733539914,None,return,1.6904966569272801,4561.398733539914,None,,,QINZUBAO,M,002,2023_Apr_19_1030,untitled,2021.1.4,60.15540087284211,
9,18,0,9,27,9,36,0.5,0.67,0.33,0.0,0.33,0.33,,stimuli/P_09_18_00_09.png,,,,,0,143,143,97,,,,,,,,,,,,,,,,,,,,,,,,,,,,4563.121619876518,None,4563.121619876518,None,4563.513592173913,None,4563.513592173913,None,25,4563.513592173913,None,return,2.9374677511223126,4563.513592173913,None,,,QINZUBAO,M,002,2023_Apr_19_1030,untitled,2021.1.4,60.15540087284211,
18,18,0,0,36,18,36,0.5,0.5,0.5,None,None,None,,stimuli/P_18_18_00_00.png,,,,,0,144,144,160,,,,,,,,,,,,,,,,,,,,,,,,,,,,4566.486545497159,None,4566.486545497159,None,4566.875879857529,None,4566.875879857529,None,50,4566.875879857529,None,return,1.5198362965820706,4566.875879857529,None,,,QINZUBAO,M,002,2023_Apr_19_1030,untitled,2021.1.4,60.15540087284211,
9,18,36,36,27,45,99,0.82,0.67,0.33,0.5,-0.17,-0.33,,stimuli/P_09_18_36_36.png,,,,,0,145,145,111,,,,,,,,,,,,,,,,,,,,,,,,,,,,4568.431415059509,None,4568.431415059509,None,4568.825928582846,None,4568.825928582846,None,9,4568.825928582846,None,return,4.008728459739359,4568.825928582846,None,,,QINZUBAO,M,002,2023_Apr_19_1030,untitled,2021.1.4,60.15540087284211,
0,0,0,0,0,0,0,None,None,None,None,None,None,,stimuli/P_00_00_00_00.png,,,,,0,146,146,0,,,,,,,,,,,,,,,,,,,,,,,,,,,,4572.854048183741,None,4572.854048183741,None,4573.24071047375,None,4573.24071047375,None,0,4573.24071047375,None,return,2.4182071699324297,4573.24071047375,None,,,QINZUBAO,M,002,2023_Apr_19_1030,untitled,2021.1.4,60.15540087284211,
0,36,36,36,36,36,108,0.67,1.0,0.0,0.5,-0.5,-1.0,,stimuli/P_00_36_36_36.png,,,,,0,147,147,63,,,,,,,,,,,,,,,,,,,,,,,,,,,,4575.680685601939,None,4575.680685601939,None,4576.0713449041505,None,4576.0713449041505,None,0,4576.0713449041505,None,return,1.9793356858790503,4576.0713449041505,None,,,QINZUBAO,M,002,2023_Apr_19_1030,untitled,2021.1.4,60.15540087284211,
0,9,36,18,9,36,63,0.86,1.0,0.0,0.67,-0.67,-2.0,,stimuli/P_00_09_36_18.png,,,,,0,148,148,30,,,,,,,,,,,,,,,,,,,,,,,,,,,,4578.078235853303,None,4578.078235853303,None,4578.465128543256,None,4578.465128543256,None,0,4578.465128543256,None,return,1.52335999335628,4578.465128543256,None,,,QINZUBAO,M,002,2023_Apr_19_1030,untitled,2021.1.4,60.15540087284211,
9,0,18,0,9,27,27,1.0,0.0,1.0,1.0,0.0,None,,stimuli/P_09_00_18_00.png,,,,,0,149,149,72,,,,,,,,,,,,,,,,,,,,,,,,,,,,4580.006232176005,None,4580.006232176005,None,4580.399403121948,None,4580.399403121948,None,33,4580.399403121948,None,return,1.8860925479602884,4580.399403121948,None,,,QINZUBAO,M,002,2023_Apr_19_1030,untitled,2021.1.4,60.15540087284211,
18,0,0,36,18,18,54,1.0,0.0,1.0,0.0,1.0,1.0,,stimuli/P_18_00_00_36.png,,,,,0,150,150,131,,,,,,,,,,,,,,,,,,,,,,,,,,,,4582.3044021178575,None,4582.3044021178575,None,4582.699841223155,None,4582.699841223155,None,33,4582.699841223155,None,return,1.822646663786145,4582.699841223155,None,,,QINZUBAO,M,002,2023_Apr_19_1030,untitled,2021.1.4,60.15540087284211,
0,9,18,0,9,18,27,0.67,1.0,0.0,1.0,-1.0,#NAME?,,stimuli/P_00_09_18_00.png,,,,,0,151,151,24,,,,,,,,,,,,,,,,,,,,,,,,,,,,4584.550639914487,None,4584.550639914487,None,4584.941502878864,None,4584.941502878864,None,0,4584.941502878864,None,return,1.293755934217188,4584.941502878864,None,,,QINZUBAO,M,002,2023_Apr_19_1030,untitled,2021.1.4,60.15540087284211,
0,18,36,9,18,36,63,0.71,1.0,0.0,0.8,-0.8,-4.0,,stimuli/P_00_18_36_09.png,,,,,0,152,152,45,,,,,,,,,,,,,,,,,,,,,,,,,,,,4586.268103603739,None,4586.268103603739,None,4586.659930265618,None,4586.659930265618,None,0,4586.659930265618,None,return,1.6076471160486108,4586.659930265618,None,,,QINZUBAO,M,002,2023_Apr_19_1030,untitled,2021.1.4,60.15540087284211,
36,36,9,36,72,45,117,0.69,0.5,0.5,0.2,0.3,0.37,,stimuli/P_36_36_09_36.png,,,,,0,153,153,247,,,,,,,,,,,,,,,,,,,,,,,,,,,,4588.298325248477,None,4588.298325248477,None,4588.689225190617,None,4588.689225190617,None,35,4588.689225190617,None,return,7.883646895315906,4588.689225190617,None,,,QINZUBAO,M,002,2023_Apr_19_1030,untitled,2021.1.4,60.15540087284211,
18,18,9,0,36,27,45,0.6,0.5,0.5,1.0,-0.5,#NAME?,,stimuli/P_18_18_09_00.png,,,,,0,154,154,164,,,,,,,,,,,,,,,,,,,,,,,,,,,,4596.604705392441,None,4596.604705392441,None,4596.997368889635,None,4596.997368889635,None,40,4596.997368889635,None,return,4.252531412610551,4596.997368889635,None,,,QINZUBAO,M,002,2023_Apr_19_1030,untitled,2021.1.4,60.15540087284211,
18,9,9,36,27,27,72,0.88,0.33,0.67,0.2,0.47,0.58,,stimuli/P_18_09_09_36.png,,,,,0,155,155,151,,,,,,,,,,,,,,,,,,,,,,,,,,,,4601.269097452343,None,4601.269097452343,None,4601.661008309755,None,4601.661008309755,None,25,4601.661008309755,None,return,5.827164209156763,4601.661008309755,None,,,QINZUBAO,M,002,2023_Apr_19_1030,untitled,2021.1.4,60.15540087284211,
9,9,36,36,18,45,90,0.9,0.5,0.5,0.5,0.0,0.0,,stimuli/P_09_09_36_36.png,,,,,0,156,156,95,,,,,,,,,,,,,,,,,,,,,,,,,,,,4607.5024419548645,None,4607.5024419548645,None,4607.895883691839,None,4607.895883691839,None,10,4607.895883691839,None,return,5.129826665295695,4607.895883691839,None,,,QINZUBAO,M,002,2023_Apr_19_1030,untitled,2021.1.4,60.15540087284211,
9,0,0,9,9,9,18,1.0,0.0,1.0,0.0,1.0,1.0,,stimuli/P_09_00_00_09.png,,,,,0,157,157,65,,,,,,,,,,,,,,,,,,,,,,,,,,,,4613.041246139379,None,4613.041246139379,None,4613.428391984817,None,4613.428391984817,None,50,4613.428391984817,None,return,2.9433455094476813,4613.428391984817,None,,,QINZUBAO,M,002,2023_Apr_19_1030,untitled,2021.1.4,60.15540087284211,
0,0,18,18,0,18,36,1.0,None,None,0.5,None,None,,stimuli/P_00_00_18_18.png,,,,,0,158,158,10,,,,,,,,,,,,,,,,,,,,,,,,,,,,4616.393852474641,None,4616.393852474641,None,4616.787777198144,None,4616.787777198144,None,0,4616.787777198144,None,return,2.501559608441312,4616.787777198144,None,,,QINZUBAO,M,002,2023_Apr_19_1030,untitled,2021.1.4,60.15540087284211,
36,36,18,9,72,54,99,0.64,0.5,0.5,0.67,-0.17,-0.5,,stimuli/P_36_36_18_09.png,,,,,0,159,159,249,,,,,,,,,,,,,,,,,,,,,,,,,,,,4619.308613032219,None,4619.308613032219,None,4619.704932777262,None,4619.704932777262,None,37,4619.704932777262,None,return,7.141605506389169,4619.704932777262,None,,,QINZUBAO,M,002,2023_Apr_19_1030,untitled,2021.1.4,60.15540087284211,
18,9,36,18,27,54,81,0.89,0.33,0.67,0.67,0.0,0.0,,stimuli/P_18_09_36_18.png,,,,,0,160,160,158,,,,,,,,,,,,,,,,,,,,,,,,,,,,4626.866762277896,None,4626.866762277896,None,4627.257493260091,None,4627.257493260091,None,22,4627.257493260091,None,return,5.371273849945283,4627.257493260091,None,,,QINZUBAO,M,002,2023_Apr_19_1030,untitled,2021.1.4,60.15540087284211,
18,9,18,18,27,36,63,0.86,0.33,0.67,0.5,0.17,0.33,,stimuli/P_18_09_18_18.png,,,,,0,161,161,154,,,,,,,,,,,,,,,,,,,,,,,,,,,,4632.649850695154,None,4632.649850695154,None,4633.044191845205,None,4633.044191845205,None,28,4633.044191845205,None,return,4.307304588139232,4633.044191845205,None,,,QINZUBAO,M,002,2023_Apr_19_1030,untitled,2021.1.4,60.15540087284211,
9,9,18,18,18,27,54,0.83,0.5,0.5,0.5,0.0,0.0,,stimuli/P_09_09_18_18.png,,,,,0,162,162,90,,,,,,,,,,,,,,,,,,,,,,,,,,,,4637.3754443732105,None,4637.3754443732105,None,4637.767649914982,None,4637.767649914982,None,17,4637.767649914982,None,return,3.277698481011612,4637.767649914982,None,,,QINZUBAO,M,002,2023_Apr_19_1030,untitled,2021.1.4,60.15540087284211,
36,36,18,18,72,54,108,0.67,0.5,0.5,0.5,0.0,0.0,,stimuli/P_36_36_18_18.png,,,,,0,163,163,250,,,,,,,,,,,,,,,,,,,,,,,,,,,,4641.063053350954,None,4641.063053350954,None,4641.454885701722,None,4641.454885701722,None,33,4641.454885701722,None,return,3.673584732845484,4641.454885701722,None,,,QINZUBAO,M,002,2023_Apr_19_1030,untitled,2021.1.4,60.15540087284211,
0,0,9,0,0,9,9,1.0,None,None,1.0,None,None,,stimuli/P_00_00_09_00.png,,,,,0,164,164,4,,,,,,,,,,,,,,,,,,,,,,,,,,,,4645.147550962472,None,4645.147550962472,None,4645.539843544226,None,4645.539843544226,None,0,4645.539843544226,None,return,1.3117191646670108,4645.539843544226,None,,,QINZUBAO,M,002,2023_Apr_19_1030,untitled,2021.1.4,60.15540087284211,
0,9,18,9,9,18,36,0.75,1.0,0.0,0.67,-0.67,-2.0,,stimuli/P_00_09_18_09.png,,,,,0,165,165,25,,,,,,,,,,,,,,,,,,,,,,,,,,,,4646.874679502311,None,4646.874679502311,None,4647.268165612608,None,4647.268165612608,None,0,4647.268165612608,None,return,1.2739028554206016,4647.268165612608,None,,,QINZUBAO,M,002,2023_Apr_19_1030,untitled,2021.1.4,60.15540087284211,
0,0,36,9,0,36,45,1.0,None,None,0.8,None,None,,stimuli/P_00_00_36_09.png,,,,,0,166,166,13,,,,,,,,,,,,,,,,,,,,,,,,,,,,4648.576893560348,None,4648.576893560348,None,4648.966559582848,None,4648.966559582848,None,0,4648.966559582848,None,return,1.4380818665013066,4648.966559582848,None,,,QINZUBAO,M,002,2023_Apr_19_1030,untitled,2021.1.4,60.15540087284211,
0,0,36,18,0,36,54,1.0,None,None,0.67,None,None,,stimuli/P_00_00_36_18.png,,,,,0,167,167,14,,,,,,,,,,,,,,,,,,,,,,,,,,,,4650.419477498457,None,4650.419477498457,None,4650.814125279539,None,4650.814125279539,None,0,4650.814125279539,None,return,1.1877008532756008,4650.814125279539,None,,,QINZUBAO,M,002,2023_Apr_19_1030,untitled,2021.1.4,60.15540087284211,
18,36,0,18,54,18,72,0.5,0.67,0.33,0.0,0.33,0.33,,stimuli/P_18_36_00_18.png,,,,,0,168,168,178,,,,,,,,,,,,,,,,,,,,,,,,,,,,4652.02942975163,None,4652.02942975163,None,4652.4239233638655,None,4652.4239233638655,None,25,4652.4239233638655,None,return,2.638289738446474,4652.4239233638655,None,,,QINZUBAO,M,002,2023_Apr_19_1030,untitled,2021.1.4,60.15540087284211,
9,9,36,18,18,45,72,0.88,0.5,0.5,0.67,-0.17,-0.5,,stimuli/P_09_09_36_18.png,,,,,0,169,169,94,,,,,,,,,,,,,,,,,,,,,,,,,,,,4655.091419849552,None,4655.091419849552,None,4655.485404306375,None,4655.485404306375,None,13,4655.485404306375,None,return,3.811347964765446,4655.485404306375,None,,,QINZUBAO,M,002,2023_Apr_19_1030,untitled,2021.1.4,60.15540087284211,
18,36,9,9,54,27,72,0.5,0.67,0.33,0.5,-0.17,-0.33,,stimuli/P_18_36_09_09.png,,,,,0,170,170,181,,,,,,,,,,,,,,,,,,,,,,,,,,,,4659.315296905872,None,4659.315296905872,None,4659.709083389418,None,4659.709083389418,None,25,4659.709083389418,None,return,3.4840366978751263,4659.709083389418,None,,,QINZUBAO,M,002,2023_Apr_19_1030,untitled,2021.1.4,60.15540087284211,
0,9,0,18,9,0,27,0.67,1.0,0.0,0.0,0.0,0.0,,stimuli/P_00_09_00_18.png,,,,,0,171,171,18,,,,,,,,,,,,,,,,,,,,,,,,,,,,4663.225810709104,None,4663.225810709104,None,4663.617885406471,None,4663.617885406471,None,0,4663.617885406471,None,return,1.3828234288812382,4663.617885406471,None,,,QINZUBAO,M,002,2023_Apr_19_1030,untitled,2021.1.4,60.15540087284211,
0,9,9,36,9,9,54,0.83,1.0,0.0,0.2,-0.2,-0.25,,stimuli/P_00_09_09_36.png,,,,,0,172,172,23,,,,,,,,,,,,,,,,,,,,,,,,,,,,4665.025307015021,None,4665.025307015021,None,4665.419731222835,None,4665.419731222835,None,0,4665.419731222835,None,return,1.2165258761888254,4665.419731222835,None,,,QINZUBAO,M,002,2023_Apr_19_1030,untitled,2021.1.4,60.15540087284211,
36,9,0,18,45,36,63,0.86,0.2,0.8,0.0,0.8,0.8,,stimuli/P_36_09_00_18.png,,,,,0,173,173,210,,,,,,,,,,,,,,,,,,,,,,,,,,,,4666.654043405069,None,4666.654043405069,None,4667.0437907786545,None,4667.0437907786545,None,57,4667.0437907786545,None,return,3.5869685797079,4667.0437907786545,None,,,QINZUBAO,M,002,2023_Apr_19_1030,untitled,2021.1.4,60.15540087284211,
0,36,0,0,36,0,36,0.0,1.0,0.0,None,None,None,,stimuli/P_00_36_00_00.png,,,,,0,174,174,48,,,,,,,,,,,,,,,,,,,,,,,,,,,,4670.651889592351,None,4670.651889592351,None,4671.040948610578,None,4671.040948610578,None,0,4671.040948610578,None,return,1.295770369208185,4671.040948610578,None,,,QINZUBAO,M,002,2023_Apr_19_1030,untitled,2021.1.4,60.15540087284211,
18,0,36,0,18,54,54,1.0,0.0,1.0,1.0,0.0,None,,stimuli/P_18_00_36_00.png,,,,,0,175,175,140,,,,,,,,,,,,,,,,,,,,,,,,,,,,4672.356109552042,None,4672.356109552042,None,4672.749700906752,None,4672.749700906752,None,33,4672.749700906752,None,return,2.8745071290250053,4672.749700906752,None,,,QINZUBAO,M,002,2023_Apr_19_1030,untitled,2021.1.4,60.15540087284211,
36,36,36,18,72,72,126,0.71,0.5,0.5,0.67,-0.17,-0.5,,stimuli/P_36_36_36_18.png,,,,,0,176,176,254,,,,,,,,,,,,,,,,,,,,,,,,,,,,4675.661519171837,None,4675.661519171837,None,4676.059947787391,None,4676.059947787391,None,28,4676.059947787391,None,return,3.403874018455099,4676.059947787391,None,,,QINZUBAO,M,002,2023_Apr_19_1030,untitled,2021.1.4,60.15540087284211,
0,18,9,9,18,9,36,0.5,1.0,0.0,0.5,-0.5,-1.0,,stimuli/P_00_18_09_09.png,,,,,0,177,177,37,,,,,,,,,,,,,,,,,,,,,,,,,,,,4679.496531769873,None,4679.496531769873,None,4679.8884067873005,None,4679.8884067873005,None,0,4679.8884067873005,None,return,2.8568704407152836,4679.8884067873005,None,,,QINZUBAO,M,002,2023_Apr_19_1030,untitled,2021.1.4,60.15540087284211,
36,18,0,9,54,36,63,0.71,0.33,0.67,0.0,0.67,0.67,,stimuli/P_36_18_00_09.png,,,,,0,178,178,225,,,,,,,,,,,,,,,,,,,,,,,,,,,,4682.766361950904,None,4682.766361950904,None,4683.156489911045,None,4683.156489911045,None,57,4683.156489911045,None,return,3.0545296911586775,4683.156489911045,None,,,QINZUBAO,M,002,2023_Apr_19_1030,untitled,2021.1.4,60.15540087284211,
36,18,9,18,54,45,81,0.78,0.33,0.67,0.33,0.33,0.5,,stimuli/P_36_18_09_18.png,,,,,0,179,179,230,,,,,,,,,,,,,,,,,,,,,,,,,,,,4686.226794886599,None,4686.226794886599,None,4686.622063894167,None,4686.622063894167,None,44,4686.622063894167,None,return,3.7756632815944613,4686.622063894167,None,,,QINZUBAO,M,002,2023_Apr_19_1030,untitled,2021.1.4,60.15540087284211,
18,9,9,0,27,27,36,0.75,0.33,0.67,1.0,-0.33,#NAME?,,stimuli/P_18_09_09_00.png,,,,,0,180,180,148,,,,,,,,,,,,,,,,,,,,,,,,,,,,4690.4253484301225,None,4690.4253484301225,None,4690.816843998764,None,4690.816843998764,None,50,4690.816843998764,None,return,2.4059823200805113,4690.816843998764,None,,,QINZUBAO,M,002,2023_Apr_19_1030,untitled,2021.1.4,60.15540087284211,
0,9,18,18,9,18,45,0.8,1.0,0.0,0.5,-0.5,-1.0,,stimuli/P_00_09_18_18.png,,,,,0,181,181,26,,,,,,,,,,,,,,,,,,,,,,,,,,,,4693.240630829336,None,4693.240630829336,None,4693.634331979571,None,4693.634331979571,None,0,4693.634331979571,None,return,1.5107124591741012,4693.634331979571,None,,,QINZUBAO,M,002,2023_Apr_19_1030,untitled,2021.1.4,60.15540087284211,
9,0,18,9,9,27,36,1.0,0.0,1.0,0.67,0.33,1.0,,stimuli/P_09_00_18_09.png,,,,,0,182,182,73,,,,,,,,,,,,,,,,,,,,,,,,,,,,4695.170833871409,None,4695.170833871409,None,4695.561931217941,None,4695.561931217941,None,25,4695.561931217941,None,return,2.2302144767454593,4695.561931217941,None,,,QINZUBAO,M,002,2023_Apr_19_1030,untitled,2021.1.4,60.15540087284211,
9,9,18,0,18,27,36,0.75,0.5,0.5,1.0,-0.5,#NAME?,,stimuli/P_09_09_18_00.png,,,,,0,183,183,88,,,,,,,,,,,,,,,,,,,,,,,,,,,,4697.824499534363,None,4697.824499534363,None,4698.218853199971,None,4698.218853199971,None,25,4698.218853199971,None,return,2.1855771916525555,4698.218853199971,None,,,QINZUBAO,M,002,2023_Apr_19_1030,untitled,2021.1.4,60.15540087284211,
9,18,36,18,27,45,81,0.78,0.67,0.33,0.67,-0.33,-1.0,,stimuli/P_09_18_36_18.png,,,,,0,184,184,110,,,,,,,,,,,,,,,,,,,,,,,,,,,,4700.424018368278,None,4700.424018368278,None,4700.814750488251,None,4700.814750488251,None,11,4700.814750488251,None,return,4.286137376388069,4700.814750488251,None,,,QINZUBAO,M,002,2023_Apr_19_1030,untitled,2021.1.4,60.15540087284211,
9,9,36,9,18,45,63,0.86,0.5,0.5,0.8,-0.3,-1.5,,stimuli/P_09_09_36_09.png,,,,,0,185,185,93,,,,,,,,,,,,,,,,,,,,,,,,,,,,4705.118023930874,None,4705.118023930874,None,4705.516647675264,None,4705.516647675264,None,14,4705.516647675264,None,return,3.7420288733774214,4705.516647675264,None,,,QINZUBAO,M,002,2023_Apr_19_1030,untitled,2021.1.4,60.15540087284211,
18,9,18,36,27,36,81,0.89,0.33,0.67,0.33,0.33,0.5,,stimuli/P_18_09_18_36.png,,,,,0,186,186,155,,,,,,,,,,,,,,,,,,,,,,,,,,,,4709.280842160115,None,4709.280842160115,None,4709.674815808052,None,4709.674815808052,None,22,4709.674815808052,None,return,3.5349539456146886,4709.674815808052,None,,,QINZUBAO,M,002,2023_Apr_19_1030,untitled,2021.1.4,60.15540087284211,
36,9,9,18,45,45,72,0.88,0.2,0.8,0.33,0.47,0.7,,stimuli/P_36_09_09_18.png,,,,,0,187,187,214,,,,,,,,,,,,,,,,,,,,,,,,,,,,4713.230687223273,None,4713.230687223273,None,4713.622041138617,None,4713.622041138617,None,50,4713.622041138617,None,return,4.550325887910731,4713.622041138617,None,,,QINZUBAO,M,002,2023_Apr_19_1030,untitled,2021.1.4,60.15540087284211,
36,36,18,0,72,54,90,0.6,0.5,0.5,1.0,-0.5,#NAME?,,stimuli/P_36_36_18_00.png,,,,,0,188,188,248,,,,,,,,,,,,,,,,,,,,,,,,,,,,4718.188638950785,None,4718.188638950785,None,4718.599610425001,None,4718.599610425001,None,40,4718.599610425001,None,return,4.685068320693972,4718.599610425001,None,,,QINZUBAO,M,002,2023_Apr_19_1030,untitled,2021.1.4,60.15540087284211,
36,36,9,18,72,45,99,0.64,0.5,0.5,0.33,0.17,0.25,,stimuli/P_36_36_09_18.png,,,,,0,189,189,246,,,,,,,,,,,,,,,,,,,,,,,,,,,,4723.302497478398,None,4723.302497478398,None,4723.69674248626,None,4723.69674248626,None,37,4723.69674248626,None,return,5.8431141424007365,4723.69674248626,None,,,QINZUBAO,M,002,2023_Apr_19_1030,untitled,2021.1.4,60.15540087284211,
36,36,0,18,72,36,90,0.6,0.5,0.5,0.0,0.5,0.5,,stimuli/P_36_36_00_18.png,,,,,0,190,190,242,,,,,,,,,,,,,,,,,,,,,,,,,,,,4729.563293706444,None,4729.563293706444,None,4729.956094874709,None,4729.956094874709,None,40,4729.956094874709,None,return,5.3750165688907146,4729.956094874709,None,,,QINZUBAO,M,002,2023_Apr_19_1030,untitled,2021.1.4,60.15540087284211,
18,18,36,18,36,54,90,0.8,0.5,0.5,0.67,-0.17,-0.5,,stimuli/P_18_18_36_18.png,,,,,0,191,191,174,,,,,,,,,,,,,,,,,,,,,,,,,,,,4735.352745712997,None,4735.352745712997,None,4735.7431160197375,None,4735.7431160197375,None,20,4735.7431160197375,None,return,4.083539602906967,4735.7431160197375,None,,,QINZUBAO,M,002,2023_Apr_19_1030,untitled,2021.1.4,60.15540087284211,
0,36,9,36,36,9,81,0.56,1.0,0.0,0.2,-0.2,-0.25,,stimuli/P_00_36_09_36.png,,,,,0,192,192,55,,,,,,,,,,,,,,,,,,,,,,,,,,,,4739.844812844145,None,4739.844812844145,None,4740.24132999358,None,4740.24132999358,None,0,4740.24132999358,None,return,6.921779506694293,4740.24132999358,None,,,QINZUBAO,M,002,2023_Apr_19_1030,untitled,2021.1.4,60.15540087284211,
0,18,36,36,18,36,90,0.8,1.0,0.0,0.5,-0.5,-1.0,,stimuli/P_00_18_36_36.png,,,,,0,193,193,47,,,,,,,,,,,,,,,,,,,,,,,,,,,,4747.183203787892,None,4747.183203787892,None,4747.571805419575,None,4747.571805419575,None,0,4747.571805419575,None,return,5.2090512471986585,4747.571805419575,None,,,QINZUBAO,M,002,2023_Apr_19_1030,untitled,2021.1.4,60.15540087284211,
18,0,18,18,18,36,54,1.0,0.0,1.0,0.5,0.5,1.0,,stimuli/P_18_00_18_18.png,,,,,0,194,194,138,,,,,,,,,,,,,,,,,,,,,,,,,,,,4752.80226338069,None,4752.80226338069,None,4753.199952440904,None,4753.199952440904,None,33,4753.199952440904,None,return,4.238908803155937,4753.199952440904,None,,,QINZUBAO,M,002,2023_Apr_19_1030,untitled,2021.1.4,60.15540087284211,
18,0,18,9,18,36,45,1.0,0.0,1.0,0.67,0.33,1.0,,stimuli/P_18_00_18_09.png,,,,,0,195,195,137,,,,,,,,,,,,,,,,,,,,,,,,,,,,4757.466273716258,None,4757.466273716258,None,4757.861841390411,None,4757.861841390411,None,40,4757.861841390411,None,return,2.7793610583175905,4757.861841390411,None,,,QINZUBAO,M,002,2023_Apr_19_1030,untitled,2021.1.4,60.15540087284211,
36,18,0,0,54,36,54,0.67,0.33,0.67,None,None,None,,stimuli/P_36_18_00_00.png,,,,,0,196,196,224,,,,,,,,,,,,,,,,,,,,,,,,,,,,4760.655731297928,None,4760.655731297928,None,4761.046310955717,None,4761.046310955717,None,66,4761.046310955717,None,return,3.406427191061084,4761.046310955717,None,,,QINZUBAO,M,002,2023_Apr_19_1030,untitled,2021.1.4,60.15540087284211,
36,0,18,36,36,54,90,1.0,0.0,1.0,0.33,0.67,1.0,,stimuli/P_36_00_18_36.png,,,,,0,197,197,203,,,,,,,,,,,,,,,,,,,,,,,,,,,,4764.480461801111,None,4764.480461801111,None,4764.874517369026,None,4764.874517369026,None,40,4764.874517369026,None,return,4.474829802718887,4764.874517369026,None,,,QINZUBAO,M,002,2023_Apr_19_1030,untitled,2021.1.4,60.15540087284211,
9,18,9,36,27,18,72,0.75,0.67,0.33,0.2,0.13,0.17,,stimuli/P_09_18_09_36.png,,,,,0,198,198,103,,,,,,,,,,,,,,,,,,,,,,,,,,,,4769.374546097904,None,4769.374546097904,None,4769.76636422646,None,4769.76636422646,None,13,4769.76636422646,None,return,4.034609483489476,4769.76636422646,None,,,QINZUBAO,M,002,2023_Apr_19_1030,untitled,2021.1.4,60.15540087284211,
36,9,36,18,45,72,99,0.91,0.2,0.8,0.67,0.13,0.4,,stimuli/P_36_09_36_18.png,,,,,0,199,199,222,,,,,,,,,,,,,,,,,,,,,,,,,,,,4773.820500246613,None,4773.820500246613,None,4774.214798161127,None,4774.214798161127,None,36,4774.214798161127,None,return,5.201369542723114,4774.214798161127,None,,,QINZUBAO,M,002,2023_Apr_19_1030,untitled,2021.1.4,60.15540087284211,
9,36,0,18,45,9,63,0.43,0.8,0.2,0.0,0.2,0.2,,stimuli/P_09_36_00_18.png,,,,,0,200,200,114,,,,,,,,,,,,,,,,,,,,,,,,,,,,4779.437383271143,None,4779.437383271143,None,4779.829801577303,None,4779.829801577303,None,14,4779.829801577303,None,return,3.928446313686436,4779.829801577303,None,,,QINZUBAO,M,002,2023_Apr_19_1030,untitled,2021.1.4,60.15540087284211,
0,36,18,36,36,18,90,0.6,1.0,0.0,0.33,-0.33,-0.5,,stimuli/P_00_36_18_36.png,,,,,0,201,201,59,,,,,,,,,,,,,,,,,,,,,,,,,,,,4783.774255850876,None,4783.774255850876,None,4784.16760713455,None,4784.16760713455,None,0,4784.16760713455,None,return,1.3529687173795537,4784.16760713455,None,,,QINZUBAO,M,002,2023_Apr_19_1030,untitled,2021.1.4,60.15540087284211,
18,36,9,0,54,27,63,0.43,0.67,0.33,1.0,-0.67,#NAME?,,stimuli/P_18_36_09_00.png,,,,,0,202,202,180,,,,,,,,,,,,,,,,,,,,,,,,,,,,4785.549607381443,None,4785.549607381443,None,4785.9405448702455,None,4785.9405448702455,None,28,4785.9405448702455,None,return,5.6553290935917175,4785.9405448702455,None,,,QINZUBAO,M,002,2023_Apr_19_1030,untitled,2021.1.4,60.15540087284211,
36,9,9,9,45,45,63,0.86,0.2,0.8,0.5,0.3,0.6,,stimuli/P_36_09_09_09.png,,,,,0,203,203,213,,,,,,,,,,,,,,,,,,,,,,,,,,,,4791.615680393763,None,4791.615680393763,None,4792.013903640487,None,4792.013903640487,None,57,4792.013903640487,None,return,3.750563910951314,4792.013903640487,None,,,QINZUBAO,M,002,2023_Apr_19_1030,untitled,2021.1.4,60.15540087284211,
0,0,0,18,0,0,18,1.0,None,None,0.0,None,None,,stimuli/P_00_00_00_18.png,,,,,0,204,204,2,,,,,,,,,,,,,,,,,,,,,,,,,,,,4795.788116255826,None,4795.788116255826,None,4796.17870217139,None,4796.17870217139,None,0,4796.17870217139,None,return,1.2733083667044411,4796.17870217139,None,,,QINZUBAO,M,002,2023_Apr_19_1030,untitled,2021.1.4,60.15540087284211,
9,9,0,9,18,9,27,0.67,0.5,0.5,0.0,0.5,0.5,,stimuli/P_09_09_00_09.png,,,,,0,205,205,81,,,,,,,,,,,,,,,,,,,,,,,,,,,,4797.480308770049,None,4797.480308770049,None,4797.870702401226,None,4797.870702401226,None,33,4797.870702401226,None,return,2.5546602511167293,4797.870702401226,None,,,QINZUBAO,M,002,2023_Apr_19_1030,untitled,2021.1.4,60.15540087284211,
18,36,18,18,54,36,90,0.6,0.67,0.33,0.5,-0.17,-0.33,,stimuli/P_18_36_18_18.png,,,,,0,206,206,186,,,,,,,,,,,,,,,,,,,,,,,,,,,,4800.451729507062,None,4800.451729507062,None,4800.84632153705,None,4800.84632153705,None,20,4800.84632153705,None,return,3.1718430800101487,4800.84632153705,None,,,QINZUBAO,M,002,2023_Apr_19_1030,untitled,2021.1.4,60.15540087284211,
0,9,18,36,9,18,63,0.86,1.0,0.0,0.33,-0.33,-0.5,,stimuli/P_00_09_18_36.png,,,,,0,207,207,27,,,,,,,,,,,,,,,,,,,,,,,,,,,,4804.04968446587,None,4804.04968446587,None,4804.441805243223,None,4804.441805243223,None,0,4804.441805243223,None,return,1.2856202565308195,4804.441805243223,None,,,QINZUBAO,M,002,2023_Apr_19_1030,untitled,2021.1.4,60.15540087284211,
9,36,9,18,45,18,72,0.5,0.8,0.2,0.33,-0.13,-0.2,,stimuli/P_09_36_09_18.png,,,,,0,208,208,118,,,,,,,,,,,,,,,,,,,,,,,,,,,,4805.7594397128705,None,4805.7594397128705,None,4806.154015813969,None,4806.154015813969,None,13,4806.154015813969,None,return,3.5866192820249125,4806.154015813969,None,,,QINZUBAO,M,002,2023_Apr_19_1030,untitled,2021.1.4,60.15540087284211,
36,0,0,36,36,36,72,1.0,0.0,1.0,0.0,1.0,1.0,,stimuli/P_36_00_00_36.png,,,,,0,209,209,195,,,,,,,,,,,,,,,,,,,,,,,,,,,,4809.778151600884,None,4809.778151600884,None,4810.168133925508,None,4810.168133925508,None,50,4810.168133925508,None,return,1.6854420805902919,4810.168133925508,None,,,QINZUBAO,M,002,2023_Apr_19_1030,untitled,2021.1.4,60.15540087284211,
0,18,36,18,18,36,72,0.75,1.0,0.0,0.67,-0.67,-2.0,,stimuli/P_00_18_36_18.png,,,,,0,210,210,46,,,,,,,,,,,,,,,,,,,,,,,,,,,,4811.885772832495,None,4811.885772832495,None,4812.280668649051,None,4812.280668649051,None,0,4812.280668649051,None,return,1.4521709647160606,4812.280668649051,None,,,QINZUBAO,M,002,2023_Apr_19_1030,untitled,2021.1.4,60.15540087284211,
9,0,18,36,9,27,63,1.0,0.0,1.0,0.33,0.67,1.0,,stimuli/P_09_00_18_36.png,,,,,0,211,211,75,,,,,,,,,,,,,,,,,,,,,,,,,,,,4813.7685823236025,None,4813.7685823236025,None,4814.162389287143,None,4814.162389287143,None,14,4814.162389287143,None,return,3.7328987781947944,4814.162389287143,None,,,QINZUBAO,M,002,2023_Apr_19_1030,untitled,2021.1.4,60.15540087284211,
0,9,36,0,9,36,45,0.8,1.0,0.0,1.0,-1.0,#NAME?,,stimuli/P_00_09_36_00.png,,,,,0,212,212,28,,,,,,,,,,,,,,,,,,,,,,,,,,,,4817.920641160352,None,4817.920641160352,None,4818.318499749403,None,4818.318499749403,None,0,4818.318499749403,None,return,1.216131067412789,4818.318499749403,None,,,QINZUBAO,M,002,2023_Apr_19_1030,untitled,2021.1.4,60.15540087284211,
9,18,36,9,27,45,72,0.75,0.67,0.33,0.8,-0.47,-2.33,,stimuli/P_09_18_36_09.png,,,,,0,213,213,109,,,,,,,,,,,,,,,,,,,,,,,,,,,,4819.563239662013,None,4819.563239662013,None,4819.957596740947,None,4819.957596740947,None,13,4819.957596740947,None,return,3.828291746613104,4819.957596740947,None,,,QINZUBAO,M,002,2023_Apr_19_1030,untitled,2021.1.4,60.15540087284211,
18,0,36,36,18,54,90,1.0,0.0,1.0,0.5,0.5,1.0,,stimuli/P_18_00_36_36.png,,,,,0,214,214,143,,,,,,,,,,,,,,,,,,,,,,,,,,,,4823.803720304721,None,4823.803720304721,None,4824.1946225224165,None,4824.1946225224165,None,20,4824.1946225224165,None,return,2.0965352969869855,4824.1946225224165,None,,,QINZUBAO,M,002,2023_Apr_19_1030,untitled,2021.1.4,60.15540087284211,
9,0,36,9,9,45,54,1.0,0.0,1.0,0.8,0.2,1.0,,stimuli/P_09_00_36_09.png,,,,,0,215,215,77,,,,,,,,,,,,,,,,,,,,,,,,,,,,4826.318964531492,None,4826.318964531492,None,4826.712616757301,None,4826.712616757301,None,16,4826.712616757301,None,return,3.255725153925596,4826.712616757301,None,,,QINZUBAO,M,002,2023_Apr_19_1030,untitled,2021.1.4,60.15540087284211,
18,0,36,18,18,54,72,1.0,0.0,1.0,0.67,0.33,1.0,,stimuli/P_18_00_36_18.png,,,,,0,216,216,142,,,,,,,,,,,,,,,,,,,,,,,,,,,,4829.993133513068,None,4829.993133513068,None,4830.3854801392445,None,4830.3854801392445,None,25,4830.3854801392445,None,return,2.7124386951327324,4830.3854801392445,None,,,QINZUBAO,M,002,2023_Apr_19_1030,untitled,2021.1.4,60.15540087284211,
0,0,0,9,0,0,9,1.0,None,None,0.0,None,None,,stimuli/P_00_00_00_09.png,,,,,0,217,217,1,,,,,,,,,,,,,,,,,,,,,,,,,,,,4833.119710117062,None,4833.119710117062,None,4833.510897916902,None,4833.510897916902,None,0,4833.510897916902,None,return,1.236218528370955,4833.510897916902,None,,,QINZUBAO,M,002,2023_Apr_19_1030,untitled,2021.1.4,60.15540087284211,
18,18,36,9,36,54,81,0.78,0.5,0.5,0.8,-0.3,-1.5,,stimuli/P_18_18_36_09.png,,,,,0,218,218,173,,,,,,,,,,,,,,,,,,,,,,,,,,,,4834.78555454989,None,4834.78555454989,None,4835.178699326949,None,4835.178699326949,None,22,4835.178699326949,None,return,4.827085133627406,4835.178699326949,None,,,QINZUBAO,M,002,2023_Apr_19_1030,untitled,2021.1.4,60.15540087284211,
36,18,36,18,54,72,108,0.83,0.33,0.67,0.67,0.0,0.0,,stimuli/P_36_18_36_18.png,,,,,0,219,219,238,,,,,,,,,,,,,,,,,,,,,,,,,,,,4840.037594442641,None,4840.037594442641,None,4840.432605174727,None,4840.432605174727,None,33,4840.432605174727,None,return,4.8972501625539735,4840.432605174727,None,,,QINZUBAO,M,002,2023_Apr_19_1030,untitled,2021.1.4,60.15540087284211,
36,18,36,0,54,72,90,0.8,0.33,0.67,1.0,-0.33,#NAME?,,stimuli/P_36_18_36_00.png,,,,,0,220,220,236,,,,,,,,,,,,,,,,,,,,,,,,,,,,4845.349165127351,None,4845.349165127351,None,4845.751523057348,None,4845.751523057348,None,40,4845.751523057348,None,return,2.749434097939229,4845.751523057348,None,,,QINZUBAO,M,002,2023_Apr_19_1030,untitled,2021.1.4,60.15540087284211,
0,18,0,0,18,0,18,0.0,1.0,0.0,None,None,None,,stimuli/P_00_18_00_00.png,,,,,0,221,221,32,,,,,,,,,,,,,,,,,,,,,,,,,,,,4848.521928100432,None,4848.521928100432,None,4848.918915151953,None,4848.918915151953,None,0,4848.918915151953,None,return,1.3193348780550878,4848.918915151953,None,,,QINZUBAO,M,002,2023_Apr_19_1030,untitled,2021.1.4,60.15540087284211,
9,36,9,36,45,18,90,0.6,0.8,0.2,0.2,0.0,0.0,,stimuli/P_09_36_09_36.png,,,,,0,222,222,119,,,,,,,,,,,,,,,,,,,,,,,,,,,,4850.268435265869,None,4850.268435265869,None,4850.668036361094,None,4850.668036361094,None,10,4850.668036361094,None,return,3.4560183591820532,4850.668036361094,None,,,QINZUBAO,M,002,2023_Apr_19_1030,untitled,2021.1.4,60.15540087284211,
36,0,9,9,36,45,54,1.0,0.0,1.0,0.5,0.5,1.0,,stimuli/P_36_00_09_09.png,,,,,0,223,223,197,,,,,,,,,,,,,,,,,,,,,,,,,,,,4854.142608457216,None,4854.142608457216,None,4854.53527366108,None,4854.53527366108,None,66,4854.53527366108,None,return,2.712702090611856,4854.53527366108,None,,,QINZUBAO,M,002,2023_Apr_19_1030,untitled,2021.1.4,60.15540087284211,
0,9,36,9,9,36,54,0.83,1.0,0.0,0.8,-0.8,-4.0,,stimuli/P_00_09_36_09.png,,,,,0,224,224,29,,,,,,,,,,,,,,,,,,,,,,,,,,,,4857.278570587427,None,4857.278570587427,None,4857.670852360294,None,4857.670852360294,None,0,4857.670852360294,None,return,2.9145085398777155,4857.670852360294,None,,,QINZUBAO,M,002,2023_Apr_19_1030,untitled,2021.1.4,60.15540087284211,
9,0,0,0,9,9,9,1.0,0.0,1.0,None,None,None,,stimuli/P_09_00_00_00.png,,,,,0,225,225,64,,,,,,,,,,,,,,,,,,,,,,,,,,,,4860.625203022166,None,4860.625203022166,None,4861.01729706175,None,4861.01729706175,None,100,4861.01729706175,None,return,2.081814732278872,4861.01729706175,None,,,QINZUBAO,M,002,2023_Apr_19_1030,untitled,2021.1.4,60.15540087284211,
0,0,9,18,0,9,27,1.0,None,None,0.33,None,None,,stimuli/P_00_00_09_18.png,,,,,0,226,226,6,,,,,,,,,,,,,,,,,,,,,,,,,,,,4863.116966935617,None,4863.116966935617,None,4863.5115595344905,None,4863.5115595344905,None,0,4863.5115595344905,None,return,1.0615497780454461,4863.5115595344905,None,,,QINZUBAO,M,002,2023_Apr_19_1030,untitled,2021.1.4,60.15540087284211,
36,18,18,9,54,54,81,0.78,0.33,0.67,0.67,0.0,0.0,,stimuli/P_36_18_18_09.png,,,,,0,227,227,233,,,,,,,,,,,,,,,,,,,,,,,,,,,,4864.594709448618,None,4864.594709448618,None,4864.985057568694,None,4864.985057568694,None,44,4864.985057568694,None,return,3.7442458327495842,4864.985057568694,None,,,QINZUBAO,M,002,2023_Apr_19_1030,untitled,2021.1.4,60.15540087284211,
18,0,0,9,18,18,27,1.0,0.0,1.0,0.0,1.0,1.0,,stimuli/P_18_00_00_09.png,,,,,0,228,228,129,,,,,,,,,,,,,,,,,,,,,,,,,,,,4868.7562789671065,None,4868.7562789671065,None,4869.148262642273,None,4869.148262642273,None,67,4869.148262642273,None,return,4.111816785974952,4869.148262642273,None,,,QINZUBAO,M,002,2023_Apr_19_1030,untitled,2021.1.4,60.15540087284211,
36,9,0,9,45,36,54,0.83,0.2,0.8,0.0,0.8,0.8,,stimuli/P_36_09_00_09.png,,,,,0,229,229,209,,,,,,,,,,,,,,,,,,,,,,,,,,,,4873.279145733934,None,4873.279145733934,None,4873.670409764862,None,4873.670409764862,None,67,4873.670409764862,None,return,3.542362583502836,4873.670409764862,None,,,QINZUBAO,M,002,2023_Apr_19_1030,untitled,2021.1.4,60.15540087284211,
36,9,18,18,45,54,81,0.89,0.2,0.8,0.5,0.3,0.6,,stimuli/P_36_09_18_18.png,,,,,0,230,230,218,,,,,,,,,,,,,,,,,,,,,,,,,,,,4877.240815718171,None,4877.240815718171,None,4877.639145915979,None,4877.639145915979,None,44,4877.639145915979,None,return,3.1610882386230514,4877.639145915979,None,,,QINZUBAO,M,002,2023_Apr_19_1030,untitled,2021.1.4,60.15540087284211,
9,9,9,18,18,18,45,0.8,0.5,0.5,0.33,0.17,0.25,,stimuli/P_09_09_09_18.png,,,,,0,231,231,86,,,,,,,,,,,,,,,,,,,,,,,,,,,,4880.829889186163,None,4880.829889186163,None,4881.2243151006405,None,4881.2243151006405,None,20,4881.2243151006405,None,return,3.8444254309142707,4881.2243151006405,None,,,QINZUBAO,M,002,2023_Apr_19_1030,untitled,2021.1.4,60.15540087284211,
18,9,0,0,27,18,27,0.67,0.33,0.67,None,None,None,,stimuli/P_18_09_00_00.png,,,,,0,232,232,144,,,,,,,,,,,,,,,,,,,,,,,,,,,,4885.104987845691,None,4885.104987845691,None,4885.495196588032,None,4885.495196588032,None,67,4885.495196588032,None,return,2.2099648824951146,4885.495196588032,None,,,QINZUBAO,M,002,2023_Apr_19_1030,untitled,2021.1.4,60.15540087284211,
9,18,36,0,27,45,63,0.71,0.67,0.33,1.0,-0.67,#NAME?,,stimuli/P_09_18_36_00.png,,,,,0,233,233,108,,,,,,,,,,,,,,,,,,,,,,,,,,,,4887.736912857057,None,4887.736912857057,None,4888.131966255794,None,4888.131966255794,None,14,4888.131966255794,None,return,4.035057198918366,4888.131966255794,None,,,QINZUBAO,M,002,2023_Apr_19_1030,untitled,2021.1.4,60.15540087284211,
9,36,18,18,45,27,81,0.56,0.8,0.2,0.5,-0.3,-0.6,,stimuli/P_09_36_18_18.png,,,,,0,234,234,122,,,,,,,,,,,,,,,,,,,,,,,,,,,,4892.200937756177,None,4892.200937756177,None,4892.591761467236,None,4892.591761467236,None,11,4892.591761467236,None,return,5.388485009498254,4892.591761467236,None,,,QINZUBAO,M,002,2023_Apr_19_1030,untitled,2021.1.4,60.15540087284211,
36,18,36,9,54,72,99,0.82,0.33,0.67,0.8,-0.13,-0.67,,stimuli/P_36_18_36_09.png,,,,,0,235,235,237,,,,,,,,,,,,,,,,,,,,,,,,,,,,4898.008114059914,None,4898.008114059914,None,4898.403117396447,None,4898.403117396447,None,36,4898.403117396447,None,return,5.877826025862305,4898.403117396447,None,,,QINZUBAO,M,002,2023_Apr_19_1030,untitled,2021.1.4,60.15540087284211,
0,9,36,36,9,36,81,0.89,1.0,0.0,0.5,-0.5,-1.0,,stimuli/P_00_09_36_36.png,,,,,0,236,236,31,,,,,,,,,,,,,,,,,,,,,,,,,,,,4904.299006208283,None,4904.299006208283,None,4904.6903550036295,None,4904.6903550036295,None,0,4904.6903550036295,None,return,1.3743282135183108,4904.6903550036295,None,,,QINZUBAO,M,002,2023_Apr_19_1030,untitled,2021.1.4,60.15540087284211,
36,9,18,0,45,54,63,0.86,0.2,0.8,1.0,-0.2,#NAME?,,stimuli/P_36_09_18_00.png,,,,,0,237,237,216,,,,,,,,,,,,,,,,,,,,,,,,,,,,4906.089512365652,None,4906.089512365652,None,4906.48376932017,None,4906.48376932017,None,57,4906.48376932017,None,return,4.039143526642874,4906.48376932017,None,,,QINZUBAO,M,002,2023_Apr_19_1030,untitled,2021.1.4,60.15540087284211,
9,18,0,0,27,9,27,0.33,0.67,0.33,None,None,None,,stimuli/P_09_18_00_00.png,,,,,0,238,238,96,,,,,,,,,,,,,,,,,,,,,,,,,,,,4910.5480093730075,None,4910.5480093730075,None,4910.940932283469,None,4910.940932283469,None,33,4910.940932283469,None,return,1.9473248860958847,4910.940932283469,None,,,QINZUBAO,M,002,2023_Apr_19_1030,untitled,2021.1.4,60.15540087284211,
9,36,0,36,45,9,81,0.56,0.8,0.2,0.0,0.2,0.2,,stimuli/P_09_36_00_36.png,,,,,0,239,239,115,,,,,,,,,,,,,,,,,,,,,,,,,,,,4912.918638103147,None,4912.918638103147,None,4913.311462595848,None,4913.311462595848,None,11,4913.311462595848,None,return,2.249261440207192,4913.311462595848,None,,,QINZUBAO,M,002,2023_Apr_19_1030,untitled,2021.1.4,60.15540087284211,
0,9,0,36,9,0,45,0.8,1.0,0.0,0.0,0.0,0.0,,stimuli/P_00_09_00_36.png,,,,,0,240,240,19,,,,,,,,,,,,,,,,,,,,,,,,,,,,4915.594194035431,None,4915.594194035431,None,4915.979896041274,None,4915.979896041274,None,0,4915.979896041274,None,return,1.3118204268612317,4915.979896041274,None,,,QINZUBAO,M,002,2023_Apr_19_1030,untitled,2021.1.4,60.15540087284211,
0,0,18,0,0,18,18,1.0,None,None,1.0,None,None,,stimuli/P_00_00_18_00.png,,,,,0,241,241,8,,,,,,,,,,,,,,,,,,,,,,,,,,,,4917.306599166121,None,4917.306599166121,None,4917.694956744548,None,4917.694956744548,None,0,4917.694956744548,None,return,1.1450245276428177,4917.694956744548,None,,,QINZUBAO,M,002,2023_Apr_19_1030,untitled,2021.1.4,60.15540087284211,
9,36,18,0,45,27,63,0.43,0.8,0.2,1.0,-0.8,#NAME?,,stimuli/P_09_36_18_00.png,,,,,0,242,242,120,,,,,,,,,,,,,,,,,,,,,,,,,,,,4918.867887539804,None,4918.867887539804,None,4919.263517222826,None,4919.263517222826,None,14,4919.263517222826,None,return,4.288229180237977,4919.263517222826,None,,,QINZUBAO,M,002,2023_Apr_19_1030,untitled,2021.1.4,60.15540087284211,
36,9,36,36,45,72,117,0.92,0.2,0.8,0.5,0.3,0.6,,stimuli/P_36_09_36_36.png,,,,,0,243,243,223,,,,,,,,,,,,,,,,,,,,,,,,,,,,4923.587381592923,None,4923.587381592923,None,4923.977991970707,None,4923.977991970707,None,3,4923.977991970707,None,None,,4923.977991970707,None,,,QINZUBAO,M,002,2023_Apr_19_1030,untitled,2021.1.4,60.15540087284211,
36,18,9,36,54,45,99,0.82,0.33,0.67,0.2,0.47,0.58,,stimuli/P_36_18_09_36.png,,,,,0,244,244,231,,,,,,,,,,,,,,,,,,,,,,,,,,,,4931.990696393761,None,4931.990696393761,None,4932.3889930271325,None,4932.3889930271325,None,36,4932.3889930271325,None,return,6.903184240873088,4932.3889930271325,None,,,QINZUBAO,M,002,2023_Apr_19_1030,untitled,2021.1.4,60.15540087284211,
9,18,18,36,27,27,81,0.78,0.67,0.33,0.33,0.0,0.0,,stimuli/P_09_18_18_36.png,,,,,0,245,245,107,,,,,,,,,,,,,,,,,,,,,,,,,,,,4939.328153222217,None,4939.328153222217,None,4939.719739244167,None,4939.719739244167,None,11,4939.719739244167,None,return,5.165170015243348,4939.719739244167,None,,,QINZUBAO,M,002,2023_Apr_19_1030,untitled,2021.1.4,60.15540087284211,
36,0,36,36,36,72,108,1.0,0.0,1.0,0.5,0.5,1.0,,stimuli/P_36_00_36_36.png,,,,,0,246,246,207,,,,,,,,,,,,,,,,,,,,,,,,,,,,4944.90580568013,None,4944.90580568013,None,4945.300849976651,None,4945.300849976651,None,33,4945.300849976651,None,return,2.87423690687865,4945.300849976651,None,,,QINZUBAO,M,002,2023_Apr_19_1030,untitled,2021.1.4,60.15540087284211,
9,0,18,18,9,27,45,1.0,0.0,1.0,0.5,0.5,1.0,,stimuli/P_09_00_18_18.png,,,,,0,247,247,74,,,,,,,,,,,,,,,,,,,,,,,,,,,,4948.196922539544,None,4948.196922539544,None,4948.587703583944,None,4948.587703583944,None,20,4948.587703583944,None,return,4.778281876402616,4948.587703583944,None,,,QINZUBAO,M,002,2023_Apr_19_1030,untitled,2021.1.4,60.15540087284211,
0,36,9,9,36,9,54,0.33,1.0,0.0,0.5,-0.5,-1.0,,stimuli/P_00_36_09_09.png,,,,,0,248,248,53,,,,,,,,,,,,,,,,,,,,,,,,,,,,4953.392133292902,None,4953.392133292902,None,4953.784516896849,None,4953.784516896849,None,0,4953.784516896849,None,return,4.389808813568379,4953.784516896849,None,,,QINZUBAO,M,002,2023_Apr_19_1030,untitled,2021.1.4,60.15540087284211,
18,36,9,18,54,27,81,0.56,0.67,0.33,0.33,0.0,0.0,,stimuli/P_18_36_09_18.png,,,,,0,249,249,182,,,,,,,,,,,,,,,,,,,,,,,,,,,,4958.193388033884,None,4958.193388033884,None,4958.581569256799,None,4958.581569256799,None,22,4958.581569256799,None,return,5.6736029372914345,4958.581569256799,None,,,QINZUBAO,M,002,2023_Apr_19_1030,untitled,2021.1.4,60.15540087284211,
36,36,0,0,72,36,72,0.5,0.5,0.5,None,None,None,,stimuli/P_36_36_00_00.png,,,,,0,250,250,240,,,,,,,,,,,,,,,,,,,,,,,,,,,,4964.274211762,None,4964.274211762,None,4964.662414602688,None,4964.662414602688,None,50,4964.662414602688,None,return,3.9020896989604807,4964.662414602688,None,,,QINZUBAO,M,002,2023_Apr_19_1030,untitled,2021.1.4,60.15540087284211,
18,9,0,36,27,18,63,0.86,0.33,0.67,0.0,0.67,0.67,,stimuli/P_18_09_00_36.png,,,,,0,251,251,147,,,,,,,,,,,,,,,,,,,,,,,,,,,,4968.582478340984,None,4968.582478340984,None,4968.974503545032,None,4968.974503545032,None,28,4968.974503545032,None,return,7.565764959072112,4968.974503545032,None,,,QINZUBAO,M,002,2023_Apr_19_1030,untitled,2021.1.4,60.15540087284211,
0,18,18,0,18,18,36,0.5,1.0,0.0,1.0,-1.0,#NAME?,,stimuli/P_00_18_18_00.png,,,,,0,252,252,40,,,,,,,,,,,,,,,,,,,,,,,,,,,,4976.576937364785,None,4976.576937364785,None,4976.96646059621,None,4976.96646059621,None,0,4976.96646059621,None,return,1.4570702344353776,4976.96646059621,None,,,QINZUBAO,M,002,2023_Apr_19_1030,untitled,2021.1.4,60.15540087284211,
18,36,36,18,54,54,108,0.67,0.67,0.33,0.67,-0.33,-1.0,,stimuli/P_18_36_36_18.png,,,,,0,253,253,190,,,,,,,,,,,,,,,,,,,,,,,,,,,,4978.444152478107,None,4978.444152478107,None,4978.838730854761,None,4978.838730854761,None,16,4978.838730854761,None,return,3.330762145917106,4978.838730854761,None,,,QINZUBAO,M,002,2023_Apr_19_1030,untitled,2021.1.4,60.15540087284211,
0,36,36,0,36,36,72,0.5,1.0,0.0,1.0,-1.0,#NAME?,,stimuli/P_00_36_36_00.png,,,,,0,254,254,60,,,,,,,,,,,,,,,,,,,,,,,,,,,,4982.186534062501,None,4982.186534062501,None,4982.574669205431,None,4982.574669205431,None,0,4982.574669205431,None,return,2.0080480688266107,4982.574669205431,None,,,QINZUBAO,M,002,2023_Apr_19_1030,untitled,2021.1.4,60.15540087284211,
0,18,0,18,18,0,36,0.5,1.0,0.0,0.0,0.0,0.0,,stimuli/P_00_18_00_18.png,,,,,0,255,255,34,,,,,,,,,,,,,,,,,,,,,,,,,,,,4984.614868589546,None,4984.614868589546,None,4984.998621582614,None,4984.998621582614,None,0,4984.998621582614,None,return,2.819245846971171,4984.998621582614,None,,,QINZUBAO,M,002,2023_Apr_19_1030,untitled,2021.1.4,60.15540087284211,
,,,,,,,,,,,,,,,,,,,,,,,,,,,,,,,,,,,,,,,,,,,,,,,,,,,,,,,,,,,,,,,,,4987.832364421018,None,,,,,,,,
