A1C1,A1C0,A0C1,A0C0,A1,C1,Total,MI,C0GvA1,C1GvA1,C1GvA0,dltP,dltPp,Image_practice,Image,trials_2.thisRepN,trials_2.thisTrialN,trials_2.thisN,trials_2.thisIndex,trials.thisRepN,trials.thisTrialN,trials.thisN,trials.thisIndex,image.started,image.stopped,key_resp.keys,key_resp.rt,key_resp.started,key_resp.stopped,betweenTrial.started,betweenTrial.stopped,ISI.started,ISI.stopped,image_card.started,image_card.stopped,textbox.text,textbox.started,textbox.stopped,key_resp_3.keys,key_resp_3.rt,key_resp_3.started,key_resp_3.stopped,text_2.started,text_2.stopped,key_resp_2.keys,key_resp_2.rt,key_resp_2.started,key_resp_2.stopped,image_endPractice.started,image_endPractice.stopped,polygon_2.started,polygon_2.stopped,ISI_2.started,ISI_2.stopped,Cards.started,Cards.stopped,TextNote.started,TextNote.stopped,Estimation.text,Estimation.started,Estimation.stopped,key_resp_4.keys,key_resp_4.rt,key_resp_4.started,key_resp_4.stopped,text.started,text.stopped,participant,gender,session,date,expName,psychopyVersion,frameRate,
,,,,,,,,,,,,,,,,,,,,,,,62.26897043714416,None,space,4.0083467306540115,62.26897043714416,None,,,,,,,,,,,,,,,,,,,,,,,,,,,,,,,,,,,,,,,YAOYAO,F,002,2023_Apr_18_1927,untitled,2021.1.4,60.58085194354634,
0,0,0,9,0,0,9,1.0,None,None,0.0,None,None,practice_stimuli/P_00_00_00_09.png,,0,0,0,0,,,,,,,,,,,None,None,None,None,None,None,0,69.03341479815208,None,return,2.0831441779391753,69.03341479815208,None,69.03341479815208,None,,,,,,,,,,,,,,,,,,,,,,,,YAOYAO,F,002,2023_Apr_18_1927,untitled,2021.1.4,60.58085194354634,
18,0,36,0,18,54,54,1.0,0.0,1.0,1.0,0.0,None,practice_stimuli/P_18_00_36_00.png,,0,1,1,1,,,,,,,,,,,71.15948558834862,None,71.15948558834862,None,73.26691333667804,None,100,73.26691333667804,None,None,,73.26691333667804,None,73.26691333667804,None,,,,,,,,,,,,,,,,,,,,,,,,YAOYAO,F,002,2023_Apr_18_1927,untitled,2021.1.4,60.58085194354634,
9,18,18,0,27,27,45,0.6,0.67,0.33,1.0,-0.67,#NAME?,practice_stimuli/P_09_18_18_00.png,,0,2,2,2,,,,,,,,,,,81.29676860009022,None,81.29676860009022,None,82.44392979006807,None,40,82.44392979006807,None,None,,82.44392979006807,None,82.44392979006807,None,,,,,,,,,,,,,,,,,,,,,,,,YAOYAO,F,002,2023_Apr_18_1927,untitled,2021.1.4,60.58085194354634,
36,18,18,36,54,54,108,0.83,0.33,0.67,0.33,0.33,0.5,practice_stimuli/P_36_18_18_36.png,,0,3,3,3,,,,,,,,,,,90.48099685177112,None,90.48099685177112,None,91.12114137218123,None,,91.12114137218123,None,None,,91.12114137218123,None,91.12114137218123,None,,,,,,,,,,,,,,,,,,,,,,,,YAOYAO,F,002,2023_Apr_18_1927,untitled,2021.1.4,60.58085194354634,
,,,,,,,,,,,,,,,,,,,,,,,,,,,,,,,,,,,,,,,,,,,,space,24.026141559914322,99.1573198301976,None,,,,,,,,,,,,,,,,,,,,YAOYAO,F,002,2023_Apr_18_1927,untitled,2021.1.4,60.58085194354634,
0,9,18,9,9,18,36,0.75,1.0,0.0,0.67,-0.67,-2.0,,stimuli/P_00_09_18_09.png,,,,,0,0,0,25,,,,,,,,,,,,,,,,,,,,,,,,,,99.1573198301976,None,132.48873714738875,None,132.48873714738875,None,133.3002843304239,None,133.3002843304239,None,0,133.3002843304239,None,return,3.60473292396091,133.3002843304239,None,,,YAOYAO,F,002,2023_Apr_18_1927,untitled,2021.1.4,60.58085194354634,
36,18,36,36,54,72,126,0.86,0.33,0.67,0.5,0.17,0.33,,stimuli/P_36_18_36_36.png,,,,,0,1,1,239,,,,,,,,,,,,,,,,,,,,,,,,,,,,136.93269026188136,None,136.93269026188136,None,137.56675620970054,None,137.56675620970054,None,79,137.56675620970054,None,return,4.736063087448201,137.56675620970054,None,,,YAOYAO,F,002,2023_Apr_18_1927,untitled,2021.1.4,60.58085194354634,
9,0,9,9,9,18,27,1.0,0.0,1.0,0.5,0.5,1.0,,stimuli/P_09_00_09_09.png,,,,,0,2,2,69,,,,,,,,,,,,,,,,,,,,,,,,,,,,142.339204830545,None,142.339204830545,None,142.90891982883295,None,142.90891982883295,None,100,142.90891982883295,None,return,4.731806664414762,142.90891982883295,None,,,YAOYAO,F,002,2023_Apr_18_1927,untitled,2021.1.4,60.58085194354634,
9,18,18,0,27,27,45,0.6,0.67,0.33,1.0,-0.67,#NAME?,,stimuli/P_09_18_18_00.png,,,,,0,3,3,104,,,,,,,,,,,,,,,,,,,,,,,,,,,,147.67492521961867,None,147.67492521961867,None,148.30925114943784,None,148.30925114943784,None,40,148.30925114943784,None,return,4.538565513756112,148.30925114943784,None,,,YAOYAO,F,002,2023_Apr_18_1927,untitled,2021.1.4,60.58085194354634,
0,0,0,9,0,0,9,1.0,None,None,0.0,None,None,,stimuli/P_00_00_00_09.png,,,,,0,4,4,1,,,,,,,,,,,,,,,,,,,,,,,,,,,,152.88553965322717,None,152.88553965322717,None,153.525853133493,None,153.525853133493,None,40,153.525853133493,None,return,6.564642789282516,153.525853133493,None,,,YAOYAO,F,002,2023_Apr_18_1927,untitled,2021.1.4,60.58085194354634,
18,9,9,18,27,27,54,0.83,0.33,0.67,0.33,0.33,0.5,,stimuli/P_18_09_09_18.png,,,,,0,5,5,150,,,,,,,,,,,,,,,,,,,,,,,,,,,,160.13303000203632,None,160.13303000203632,None,160.6837885009445,None,160.6837885009445,None,60,160.6837885009445,None,return,4.434252429438857,160.6837885009445,None,,,YAOYAO,F,002,2023_Apr_18_1927,untitled,2021.1.4,60.58085194354634,
9,36,18,18,45,27,81,0.56,0.8,0.2,0.5,-0.3,-0.6,,stimuli/P_09_36_18_18.png,,,,,0,6,6,122,,,,,,,,,,,,,,,,,,,,,,,,,,,,165.13633808810118,None,165.13633808810118,None,165.7698505075041,None,165.7698505075041,None,20,165.7698505075041,None,return,4.088206715839988,165.7698505075041,None,,,YAOYAO,F,002,2023_Apr_18_1927,untitled,2021.1.4,60.58085194354634,
9,9,36,9,18,45,63,0.86,0.5,0.5,0.8,-0.3,-1.5,,stimuli/P_09_09_36_09.png,,,,,0,7,7,93,,,,,,,,,,,,,,,,,,,,,,,,,,,,169.87975405816542,None,169.87975405816542,None,170.54467423743336,None,170.54467423743336,None,50,170.54467423743336,None,return,3.464919496602306,170.54467423743336,None,,,YAOYAO,F,002,2023_Apr_18_1927,untitled,2021.1.4,60.58085194354634,
18,18,18,36,36,36,90,0.8,0.5,0.5,0.33,0.17,0.25,,stimuli/P_18_18_18_36.png,,,,,0,8,8,171,,,,,,,,,,,,,,,,,,,,,,,,,,,,174.0299496988864,None,174.0299496988864,None,174.68891646101292,None,174.68891646101292,None,50,174.68891646101292,None,return,2.4829219701296097,174.68891646101292,None,,,YAOYAO,F,002,2023_Apr_18_1927,untitled,2021.1.4,60.58085194354634,
36,9,36,36,45,72,117,0.92,0.2,0.8,0.5,0.3,0.6,,stimuli/P_36_09_36_36.png,,,,,0,9,9,223,,,,,,,,,,,,,,,,,,,,,,,,,,,,177.19947502977993,None,177.19947502977993,None,177.82746240501,None,177.82746240501,None,80,177.82746240501,None,return,4.043032425501224,177.82746240501,None,,,YAOYAO,F,002,2023_Apr_18_1927,untitled,2021.1.4,60.58085194354634,
9,36,9,36,45,18,90,0.6,0.8,0.2,0.2,0.0,0.0,,stimuli/P_09_36_09_36.png,,,,,0,10,10,119,,,,,,,,,,,,,,,,,,,,,,,,,,,,181.89127916833058,None,181.89127916833058,None,182.50256170447938,None,182.50256170447938,None,20,182.50256170447938,None,return,5.966538552998827,182.50256170447938,None,,,YAOYAO,F,002,2023_Apr_18_1927,untitled,2021.1.4,60.58085194354634,
36,0,36,0,36,72,72,1.0,0.0,1.0,1.0,0.0,None,,stimuli/P_36_00_36_00.png,,,,,0,11,11,204,,,,,,,,,,,,,,,,,,,,,,,,,,,,188.49643648304118,None,188.49643648304118,None,189.1440368548665,None,189.1440368548665,None,100,189.1440368548665,None,return,3.998005477256811,189.1440368548665,None,,,YAOYAO,F,002,2023_Apr_18_1927,untitled,2021.1.4,60.58085194354634,
36,9,0,0,45,36,45,0.8,0.2,0.8,None,None,None,,stimuli/P_36_09_00_00.png,,,,,0,12,12,208,,,,,,,,,,,,,,,,,,,,,,,,,,,,193.1743773800863,None,193.1743773800863,None,193.79017063238643,None,193.79017063238643,None,80,193.79017063238643,None,return,5.280581449458623,193.79017063238643,None,,,YAOYAO,F,002,2023_Apr_18_1927,untitled,2021.1.4,60.58085194354634,
36,18,36,0,54,72,90,0.8,0.33,0.67,1.0,-0.33,#NAME?,,stimuli/P_36_18_36_00.png,,,,,0,13,13,236,,,,,,,,,,,,,,,,,,,,,,,,,,,,199.10537007897256,None,199.10537007897256,None,199.7470574247327,None,199.7470574247327,None,80,199.7470574247327,None,None,,199.7470574247327,None,,,YAOYAO,F,002,2023_Apr_18_1927,untitled,2021.1.4,60.58085194354634,
18,36,36,9,54,54,99,0.64,0.67,0.33,0.8,-0.47,-2.33,,stimuli/P_18_36_36_09.png,,,,,0,14,14,189,,,,,,,,,,,,,,,,,,,,,,,,,,,,207.77846404682168,None,207.77846404682168,None,208.4011641732286,None,208.4011641732286,None,50,208.4011641732286,None,return,5.847211365933617,208.4011641732286,None,,,YAOYAO,F,002,2023_Apr_18_1927,untitled,2021.1.4,60.58085194354634,
18,18,0,36,36,18,72,0.75,0.5,0.5,0.0,0.5,0.5,,stimuli/P_18_18_00_36.png,,,,,0,15,15,163,,,,,,,,,,,,,,,,,,,,,,,,,,,,214.26966277433166,None,214.26966277433166,None,214.88695561646455,None,214.88695561646455,None,50,214.88695561646455,None,return,2.45013465588454,214.88695561646455,None,,,YAOYAO,F,002,2023_Apr_18_1927,untitled,2021.1.4,60.58085194354634,
0,36,0,36,36,0,72,0.5,1.0,0.0,0.0,0.0,0.0,,stimuli/P_00_36_00_36.png,,,,,0,16,16,51,,,,,,,,,,,,,,,,,,,,,,,,,,,,217.38609261275633,None,217.38609261275633,None,217.9871886331548,None,217.9871886331548,None,0,217.9871886331548,None,return,3.2558410616820765,217.9871886331548,None,,,YAOYAO,F,002,2023_Apr_18_1927,untitled,2021.1.4,60.58085194354634,
18,9,0,18,27,18,45,0.8,0.33,0.67,0.0,0.67,0.67,,stimuli/P_18_09_00_18.png,,,,,0,17,17,146,,,,,,,,,,,,,,,,,,,,,,,,,,,,221.27733764778168,None,221.27733764778168,None,221.89829128679048,None,221.89829128679048,None,60,221.89829128679048,None,return,5.853241583012277,221.89829128679048,None,,,YAOYAO,F,002,2023_Apr_18_1927,untitled,2021.1.4,60.58085194354634,
36,36,9,36,72,45,117,0.69,0.5,0.5,0.2,0.3,0.37,,stimuli/P_36_36_09_36.png,,,,,0,18,18,247,,,,,,,,,,,,,,,,,,,,,,,,,,,,227.7760166889093,None,227.7760166889093,None,228.4063234221594,None,228.4063234221594,None,50,228.4063234221594,None,return,3.4784419739517034,228.4063234221594,None,,,YAOYAO,F,002,2023_Apr_18_1927,untitled,2021.1.4,60.58085194354634,
0,18,18,0,18,18,36,0.5,1.0,0.0,1.0,-1.0,#NAME?,,stimuli/P_00_18_18_00.png,,,,,0,19,19,40,,,,,,,,,,,,,,,,,,,,,,,,,,,,231.90728313689578,None,231.90728313689578,None,232.51484286733285,None,232.51484286733285,None,0,232.51484286733285,None,return,2.327506209416242,232.51484286733285,None,,,YAOYAO,F,002,2023_Apr_18_1927,untitled,2021.1.4,60.58085194354634,
36,0,0,36,36,36,72,1.0,0.0,1.0,0.0,1.0,1.0,,stimuli/P_36_00_00_36.png,,,,,0,20,20,195,,,,,,,,,,,,,,,,,,,,,,,,,,,,234.88095441269616,None,234.88095441269616,None,235.52129121738653,None,235.52129121738653,None,100,235.52129121738653,None,return,2.5625640710568405,235.52129121738653,None,,,YAOYAO,F,002,2023_Apr_18_1927,untitled,2021.1.4,60.58085194354634,
9,18,0,0,27,9,27,0.33,0.67,0.33,None,None,None,,stimuli/P_09_18_00_00.png,,,,,0,21,21,96,,,,,,,,,,,,,,,,,,,,,,,,,,,,238.11057825230637,None,238.11057825230637,None,238.73017679913755,None,238.73017679913755,None,45,238.73017679913755,None,return,4.493140343631239,238.73017679913755,None,,,YAOYAO,F,002,2023_Apr_18_1927,untitled,2021.1.4,60.58085194354634,
0,36,18,18,36,18,72,0.5,1.0,0.0,0.5,-0.5,-1.0,,stimuli/P_00_36_18_18.png,,,,,0,22,22,58,,,,,,,,,,,,,,,,,,,,,,,,,,,,243.2565095055561,None,243.2565095055561,None,243.87760081555825,None,243.87760081555825,None,0,243.87760081555825,None,return,2.0077010423174215,243.87760081555825,None,,,YAOYAO,F,002,2023_Apr_18_1927,untitled,2021.1.4,60.58085194354634,
36,0,18,36,36,54,90,1.0,0.0,1.0,0.33,0.67,1.0,,stimuli/P_36_00_18_36.png,,,,,0,23,23,203,,,,,,,,,,,,,,,,,,,,,,,,,,,,245.91764430138755,None,245.91764430138755,None,246.53322365164786,None,246.53322365164786,None,100,246.53322365164786,None,return,2.561447343119653,246.53322365164786,None,,,YAOYAO,F,002,2023_Apr_18_1927,untitled,2021.1.4,60.58085194354634,
36,9,9,0,45,45,54,0.83,0.2,0.8,1.0,-0.2,#NAME?,,stimuli/P_36_09_09_00.png,,,,,0,24,24,212,,,,,,,,,,,,,,,,,,,,,,,,,,,,249.1235454945745,None,249.1235454945745,None,249.74171954484336,None,249.74171954484336,None,85,249.74171954484336,None,return,6.721337411125205,249.74171954484336,None,,,YAOYAO,F,002,2023_Apr_18_1927,untitled,2021.1.4,60.58085194354634,
0,9,9,0,9,9,18,0.5,1.0,0.0,1.0,-1.0,#NAME?,,stimuli/P_00_09_09_00.png,,,,,0,25,25,20,,,,,,,,,,,,,,,,,,,,,,,,,,,,256.49667029617376,None,256.49667029617376,None,257.11475503096335,None,257.11475503096335,None,0,257.11475503096335,None,return,1.537943718731185,257.11475503096335,None,,,YAOYAO,F,002,2023_Apr_18_1927,untitled,2021.1.4,60.58085194354634,
0,0,18,36,0,18,54,1.0,None,None,0.33,None,None,,stimuli/P_00_00_18_36.png,,,,,0,26,26,11,,,,,,,,,,,,,,,,,,,,,,,,,,,,258.68772293314214,None,258.68772293314214,None,259.6475742029579,None,259.6475742029579,None,50,259.6475742029579,None,return,5.042386737164634,259.6475742029579,None,,,YAOYAO,F,002,2023_Apr_18_1927,untitled,2021.1.4,60.58085194354634,
9,9,36,36,18,45,90,0.9,0.5,0.5,0.5,0.0,0.0,,stimuli/P_09_09_36_36.png,,,,,0,27,27,95,,,,,,,,,,,,,,,,,,,,,,,,,,,,264.71642392198373,None,264.71642392198373,None,265.3245036164226,None,265.3245036164226,None,50,265.3245036164226,None,return,3.658689713472995,265.3245036164226,None,,,YAOYAO,F,002,2023_Apr_18_1927,untitled,2021.1.4,60.58085194354634,
0,0,36,36,0,36,72,1.0,None,None,0.5,None,None,,stimuli/P_00_00_36_36.png,,,,,0,28,28,15,,,,,,,,,,,,,,,,,,,,,,,,,,,,269.02132193735997,None,269.02132193735997,None,269.61965998677806,None,269.61965998677806,None,50,269.61965998677806,None,return,2.0539380161953886,269.61965998677806,None,,,YAOYAO,F,002,2023_Apr_18_1927,untitled,2021.1.4,60.58085194354634,
18,0,18,0,18,36,36,1.0,0.0,1.0,1.0,0.0,None,,stimuli/P_18_00_18_00.png,,,,,0,29,29,136,,,,,,,,,,,,,,,,,,,,,,,,,,,,271.69617945925893,None,271.69617945925893,None,272.33310748463737,None,272.33310748463737,None,100,272.33310748463737,None,return,2.7889412645472476,272.33310748463737,None,,,YAOYAO,F,002,2023_Apr_18_1927,untitled,2021.1.4,60.58085194354634,
0,9,18,36,9,18,63,0.86,1.0,0.0,0.33,-0.33,-0.5,,stimuli/P_00_09_18_36.png,,,,,0,30,30,27,,,,,,,,,,,,,,,,,,,,,,,,,,,,275.16476885495285,None,275.16476885495285,None,275.79423704669534,None,275.79423704669534,None,0,275.79423704669534,None,return,3.0769944942967413,275.79423704669534,None,,,YAOYAO,F,002,2023_Apr_18_1927,untitled,2021.1.4,60.58085194354634,
18,9,0,0,27,18,27,0.67,0.33,0.67,None,None,None,,stimuli/P_18_09_00_00.png,,,,,0,31,31,144,,,,,,,,,,,,,,,,,,,,,,,,,,,,278.90464975247596,None,278.90464975247596,None,279.53895520231345,None,279.53895520231345,None,60,279.53895520231345,None,return,4.990469981465139,279.53895520231345,None,,,YAOYAO,F,002,2023_Apr_18_1927,untitled,2021.1.4,60.58085194354634,
0,36,0,0,36,0,36,0.0,1.0,0.0,None,None,None,,stimuli/P_00_36_00_00.png,,,,,0,32,32,48,,,,,,,,,,,,,,,,,,,,,,,,,,,,284.5589738163417,None,284.5589738163417,None,285.1621707416143,None,285.1621707416143,None,0,285.1621707416143,None,return,3.5178386336665426,285.1621707416143,None,,,YAOYAO,F,002,2023_Apr_18_1927,untitled,2021.1.4,60.58085194354634,
36,18,0,9,54,36,63,0.71,0.33,0.67,0.0,0.67,0.67,,stimuli/P_36_18_00_09.png,,,,,0,33,33,225,,,,,,,,,,,,,,,,,,,,,,,,,,,,288.7061304552117,None,288.7061304552117,None,289.3301475582739,None,289.3301475582739,None,85,289.3301475582739,None,return,4.4254522947248915,289.3301475582739,None,,,YAOYAO,F,002,2023_Apr_18_1927,untitled,2021.1.4,60.58085194354634,
9,0,0,18,9,9,27,1.0,0.0,1.0,0.0,1.0,1.0,,stimuli/P_09_00_00_18.png,,,,,0,34,34,66,,,,,,,,,,,,,,,,,,,,,,,,,,,,293.7908436273683,None,293.7908436273683,None,294.4065703197266,None,294.4065703197266,None,100,294.4065703197266,None,return,3.2172249168561393,294.4065703197266,None,,,YAOYAO,F,002,2023_Apr_18_1927,untitled,2021.1.4,60.58085194354634,
0,18,9,0,18,9,27,0.33,1.0,0.0,1.0,-1.0,#NAME?,,stimuli/P_00_18_09_00.png,,,,,0,35,35,36,,,,,,,,,,,,,,,,,,,,,,,,,,,,297.65885753555267,None,297.65885753555267,None,298.27563439590267,None,298.27563439590267,None,0,298.27563439590267,None,return,2.233744298315287,298.27563439590267,None,,,YAOYAO,F,002,2023_Apr_18_1927,untitled,2021.1.4,60.58085194354634,
18,0,9,36,18,27,63,1.0,0.0,1.0,0.2,0.8,1.0,,stimuli/P_18_00_09_36.png,,,,,0,36,36,135,,,,,,,,,,,,,,,,,,,,,,,,,,,,300.54531821910496,None,300.54531821910496,None,301.0807286777781,None,301.0807286777781,None,100,301.0807286777781,None,return,3.899843214356224,301.0807286777781,None,,,YAOYAO,F,002,2023_Apr_18_1927,untitled,2021.1.4,60.58085194354634,
9,0,18,0,9,27,27,1.0,0.0,1.0,1.0,0.0,None,,stimuli/P_09_00_18_00.png,,,,,0,37,37,72,,,,,,,,,,,,,,,,,,,,,,,,,,,,305.01150463018166,None,305.01150463018166,None,305.624757795762,None,305.624757795762,None,100,305.624757795762,None,return,2.086059162118545,305.624757795762,None,,,YAOYAO,F,002,2023_Apr_18_1927,untitled,2021.1.4,60.58085194354634,
0,36,0,18,36,0,54,0.33,1.0,0.0,0.0,0.0,0.0,,stimuli/P_00_36_00_18.png,,,,,0,38,38,50,,,,,,,,,,,,,,,,,,,,,,,,,,,,307.73314468993885,None,307.73314468993885,None,308.3319236278694,None,308.3319236278694,None,0,308.3319236278694,None,return,1.7155421449606365,308.3319236278694,None,,,YAOYAO,F,002,2023_Apr_18_1927,untitled,2021.1.4,60.58085194354634,
18,9,9,0,27,27,36,0.75,0.33,0.67,1.0,-0.33,#NAME?,,stimuli/P_18_09_09_00.png,,,,,0,39,39,148,,,,,,,,,,,,,,,,,,,,,,,,,,,,310.0891129550673,None,310.0891129550673,None,310.7075936361871,None,310.7075936361871,None,70,310.7075936361871,None,return,2.896048728705864,310.7075936361871,None,,,YAOYAO,F,002,2023_Apr_18_1927,untitled,2021.1.4,60.58085194354634,
9,36,0,0,45,9,45,0.2,0.8,0.2,None,None,None,,stimuli/P_09_36_00_00.png,,,,,0,40,40,112,,,,,,,,,,,,,,,,,,,,,,,,,,,,313.6311788391704,None,313.6311788391704,None,314.26990796523387,None,314.26990796523387,None,25,314.26990796523387,None,return,3.751967500544197,314.26990796523387,None,,,YAOYAO,F,002,2023_Apr_18_1927,untitled,2021.1.4,60.58085194354634,
18,0,0,36,18,18,54,1.0,0.0,1.0,0.0,1.0,1.0,,stimuli/P_18_00_00_36.png,,,,,0,41,41,131,,,,,,,,,,,,,,,,,,,,,,,,,,,,318.0567796137693,None,318.0567796137693,None,318.6688961403197,None,318.6688961403197,None,100,318.6688961403197,None,return,2.151613879512297,318.6688961403197,None,,,YAOYAO,F,002,2023_Apr_18_1927,untitled,2021.1.4,60.58085194354634,
9,36,36,0,45,45,81,0.56,0.8,0.2,1.0,-0.8,#NAME?,,stimuli/P_09_36_36_00.png,,,,,0,42,42,124,,,,,,,,,,,,,,,,,,,,,,,,,,,,320.8555910921168,None,320.8555910921168,None,321.4694148527651,None,321.4694148527651,None,30,321.4694148527651,None,return,5.2343945377615455,321.4694148527651,None,,,YAOYAO,F,002,2023_Apr_18_1927,untitled,2021.1.4,60.58085194354634,
9,9,9,9,18,18,36,0.75,0.5,0.5,0.5,0.0,0.0,,stimuli/P_09_09_09_09.png,,,,,0,43,43,85,,,,,,,,,,,,,,,,,,,,,,,,,,,,326.7260552026546,None,326.7260552026546,None,327.3447839191176,None,327.3447839191176,None,50,327.3447839191176,None,return,4.030694942695845,327.3447839191176,None,,,YAOYAO,F,002,2023_Apr_18_1927,untitled,2021.1.4,60.58085194354634,
0,36,9,18,36,9,63,0.43,1.0,0.0,0.33,-0.33,-0.5,,stimuli/P_00_36_09_18.png,,,,,0,44,44,54,,,,,,,,,,,,,,,,,,,,,,,,,,,,331.4080380518062,None,331.4080380518062,None,332.03718652826683,None,332.03718652826683,None,0,332.03718652826683,None,return,1.5391799132339656,332.03718652826683,None,,,YAOYAO,F,002,2023_Apr_18_1927,untitled,2021.1.4,60.58085194354634,
0,0,0,36,0,0,36,1.0,None,None,0.0,None,None,,stimuli/P_00_00_00_36.png,,,,,0,45,45,3,,,,,,,,,,,,,,,,,,,,,,,,,,,,333.60698685981515,None,333.60698685981515,None,334.2139657551925,None,334.2139657551925,None,0,334.2139657551925,None,return,1.894445601183179,334.2139657551925,None,,,YAOYAO,F,002,2023_Apr_18_1927,untitled,2021.1.4,60.58085194354634,
36,18,36,9,54,72,99,0.82,0.33,0.67,0.8,-0.13,-0.67,,stimuli/P_36_18_36_09.png,,,,,0,46,46,237,,,,,,,,,,,,,,,,,,,,,,,,,,,,336.14008364935034,None,336.14008364935034,None,336.75803014425765,None,336.75803014425765,None,70,336.75803014425765,None,return,4.294773508459912,336.75803014425765,None,,,YAOYAO,F,002,2023_Apr_18_1927,untitled,2021.1.4,60.58085194354634,
0,0,18,9,0,18,27,1.0,None,None,0.67,None,None,,stimuli/P_00_00_18_09.png,,,,,0,47,47,9,,,,,,,,,,,,,,,,,,,,,,,,,,,,341.0746353140876,None,341.0746353140876,None,341.68360816332097,None,341.68360816332097,None,0,341.68360816332097,None,return,6.841738090604849,341.68360816332097,None,,,YAOYAO,F,002,2023_Apr_18_1927,untitled,2021.1.4,60.58085194354634,
9,9,0,9,18,9,27,0.67,0.5,0.5,0.0,0.5,0.5,,stimuli/P_09_09_00_09.png,,,,,0,48,48,81,,,,,,,,,,,,,,,,,,,,,,,,,,,,348.5606019749521,None,348.5606019749521,None,349.1750867839255,None,349.1750867839255,None,50,349.1750867839255,None,return,1.9313573563540558,349.1750867839255,None,,,YAOYAO,F,002,2023_Apr_18_1927,untitled,2021.1.4,60.58085194354634,
36,0,9,36,36,45,81,1.0,0.0,1.0,0.2,0.8,1.0,,stimuli/P_36_00_09_36.png,,,,,0,49,49,199,,,,,,,,,,,,,,,,,,,,,,,,,,,,351.12908362318194,None,351.12908362318194,None,351.7353411680633,None,351.7353411680633,None,100,351.7353411680633,None,return,2.6123730952203914,351.7353411680633,None,,,YAOYAO,F,002,2023_Apr_18_1927,untitled,2021.1.4,60.58085194354634,
0,36,9,36,36,9,81,0.56,1.0,0.0,0.2,-0.2,-0.25,,stimuli/P_00_36_09_36.png,,,,,0,50,50,55,,,,,,,,,,,,,,,,,,,,,,,,,,,,354.36637437180434,None,354.36637437180434,None,354.97362804028126,None,354.97362804028126,None,0,354.97362804028126,None,return,3.0512101963013265,354.97362804028126,None,,,YAOYAO,F,002,2023_Apr_18_1927,untitled,2021.1.4,60.58085194354634,
9,9,0,0,18,9,18,0.5,0.5,0.5,None,None,None,,stimuli/P_09_09_00_00.png,,,,,0,51,51,80,,,,,,,,,,,,,,,,,,,,,,,,,,,,358.05119768075565,None,358.05119768075565,None,358.6502815428703,None,358.6502815428703,None,50,358.6502815428703,None,return,2.0517204891984875,358.6502815428703,None,,,YAOYAO,F,002,2023_Apr_18_1927,untitled,2021.1.4,60.58085194354634,
9,36,0,9,45,9,54,0.33,0.8,0.2,0.0,0.2,0.2,,stimuli/P_09_36_00_09.png,,,,,0,52,52,113,,,,,,,,,,,,,,,,,,,,,,,,,,,,360.7249646435848,None,360.7249646435848,None,361.3375772408217,None,361.3375772408217,None,20,361.3375772408217,None,return,5.3499528391512285,361.3375772408217,None,,,YAOYAO,F,002,2023_Apr_18_1927,untitled,2021.1.4,60.58085194354634,
18,36,9,36,54,27,99,0.64,0.67,0.33,0.2,0.13,0.17,,stimuli/P_18_36_09_36.png,,,,,0,53,53,183,,,,,,,,,,,,,,,,,,,,,,,,,,,,366.70448522994957,None,366.70448522994957,None,367.30733854662685,None,367.30733854662685,None,65,367.30733854662685,None,return,3.012013785304589,367.30733854662685,None,,,YAOYAO,F,002,2023_Apr_18_1927,untitled,2021.1.4,60.58085194354634,
18,18,18,18,36,36,72,0.75,0.5,0.5,0.5,0.0,0.0,,stimuli/P_18_18_18_18.png,,,,,0,54,54,170,,,,,,,,,,,,,,,,,,,,,,,,,,,,370.3387372042762,None,370.3387372042762,None,370.93958575822035,None,370.93958575822035,None,50,370.93958575822035,None,return,2.546329702687217,370.93958575822035,None,,,YAOYAO,F,002,2023_Apr_18_1927,untitled,2021.1.4,60.58085194354634,
18,0,36,0,18,54,54,1.0,0.0,1.0,1.0,0.0,None,,stimuli/P_18_00_36_00.png,,,,,0,55,55,140,,,,,,,,,,,,,,,,,,,,,,,,,,,,373.52693174590604,None,373.52693174590604,None,374.14216122979997,None,374.14216122979997,None,100,374.14216122979997,None,return,4.076995063187496,374.14216122979997,None,,,YAOYAO,F,002,2023_Apr_18_1927,untitled,2021.1.4,60.58085194354634,
18,9,9,36,27,27,72,0.88,0.33,0.67,0.2,0.47,0.58,,stimuli/P_18_09_09_36.png,,,,,0,56,56,151,,,,,,,,,,,,,,,,,,,,,,,,,,,,378.24092025663595,None,378.24092025663595,None,378.8626743216282,None,378.8626743216282,None,65,378.8626743216282,None,return,4.637723900254059,378.8626743216282,None,,,YAOYAO,F,002,2023_Apr_18_1927,untitled,2021.1.4,60.58085194354634,
0,18,36,0,18,36,54,0.67,1.0,0.0,1.0,-1.0,#NAME?,,stimuli/P_00_18_36_00.png,,,,,0,57,57,44,,,,,,,,,,,,,,,,,,,,,,,,,,,,383.5252950539707,None,383.5252950539707,None,384.1450386673441,None,384.1450386673441,None,0,384.1450386673441,None,return,1.848730297971997,384.1450386673441,None,,,YAOYAO,F,002,2023_Apr_18_1927,untitled,2021.1.4,60.58085194354634,
0,18,36,36,18,36,90,0.8,1.0,0.0,0.5,-0.5,-1.0,,stimuli/P_00_18_36_36.png,,,,,0,58,58,47,,,,,,,,,,,,,,,,,,,,,,,,,,,,386.0303649874222,None,386.0303649874222,None,386.6494754280029,None,386.6494754280029,None,0,386.6494754280029,None,return,1.9268722401793639,386.6494754280029,None,,,YAOYAO,F,002,2023_Apr_18_1927,untitled,2021.1.4,60.58085194354634,
0,0,18,0,0,18,18,1.0,None,None,1.0,None,None,,stimuli/P_00_00_18_00.png,,,,,0,59,59,8,,,,,,,,,,,,,,,,,,,,,,,,,,,,388.61203915772603,None,388.61203915772603,None,389.2413537495995,None,389.2413537495995,None,0,389.2413537495995,None,return,4.711911499169219,389.2413537495995,None,,,YAOYAO,F,002,2023_Apr_18_1927,untitled,2021.1.4,60.58085194354634,
0,36,18,9,36,18,63,0.43,1.0,0.0,0.67,-0.67,-2.0,,stimuli/P_00_36_18_09.png,,,,,0,60,60,57,,,,,,,,,,,,,,,,,,,,,,,,,,,,393.99945671157366,None,393.99945671157366,None,394.56401814981473,None,394.56401814981473,None,0,394.56401814981473,None,return,3.6497769388570305,394.56401814981473,None,,,YAOYAO,F,002,2023_Apr_18_1927,untitled,2021.1.4,60.58085194354634,
36,0,18,18,36,54,72,1.0,0.0,1.0,0.5,0.5,1.0,,stimuli/P_36_00_18_18.png,,,,,0,61,61,202,,,,,,,,,,,,,,,,,,,,,,,,,,,,398.2389371116624,None,398.2389371116624,None,398.8207136818801,None,398.8207136818801,None,100,398.8207136818801,None,return,2.0407409430117696,398.8207136818801,None,,,YAOYAO,F,002,2023_Apr_18_1927,untitled,2021.1.4,60.58085194354634,
18,36,18,18,54,36,90,0.6,0.67,0.33,0.5,-0.17,-0.33,,stimuli/P_18_36_18_18.png,,,,,0,62,62,186,,,,,,,,,,,,,,,,,,,,,,,,,,,,400.90258127424204,None,400.90258127424204,None,401.51033044451833,None,401.51033044451833,None,40,401.51033044451833,None,return,4.619801071103211,401.51033044451833,None,,,YAOYAO,F,002,2023_Apr_18_1927,untitled,2021.1.4,60.58085194354634,
9,9,9,0,18,18,27,0.67,0.5,0.5,1.0,-0.5,#NAME?,,stimuli/P_09_09_09_00.png,,,,,0,63,63,84,,,,,,,,,,,,,,,,,,,,,,,,,,,,406.15861234465046,None,406.15861234465046,None,406.78768174562174,None,406.78768174562174,None,50,406.78768174562174,None,return,2.202350191771984,406.78768174562174,None,,,YAOYAO,F,002,2023_Apr_18_1927,untitled,2021.1.4,60.58085194354634,
36,36,36,36,72,72,144,0.75,0.5,0.5,0.5,0.0,0.0,,stimuli/P_36_36_36_36.png,,,,,0,64,64,255,,,,,,,,,,,,,,,,,,,,,,,,,,,,409.0070815228446,None,409.0070815228446,None,409.6312050080378,None,409.6312050080378,None,50,409.6312050080378,None,return,2.72747173478092,409.6312050080378,None,,,YAOYAO,F,002,2023_Apr_18_1927,untitled,2021.1.4,60.58085194354634,
0,9,0,0,9,0,9,0.0,1.0,0.0,None,None,None,,stimuli/P_00_09_00_00.png,,,,,0,65,65,16,,,,,,,,,,,,,,,,,,,,,,,,,,,,412.37813557065783,None,412.37813557065783,None,412.8634696276167,None,412.8634696276167,None,0,412.8634696276167,None,return,1.5416591288958443,412.8634696276167,None,,,YAOYAO,F,002,2023_Apr_18_1927,untitled,2021.1.4,60.58085194354634,
36,36,0,36,72,36,108,0.67,0.5,0.5,0.0,0.5,0.5,,stimuli/P_36_36_00_36.png,,,,,0,66,66,243,,,,,,,,,,,,,,,,,,,,,,,,,,,,414.44497711361873,None,414.44497711361873,None,415.04714662643346,None,415.04714662643346,None,50,415.04714662643346,None,return,1.866173554199122,415.04714662643346,None,,,YAOYAO,F,002,2023_Apr_18_1927,untitled,2021.1.4,60.58085194354634,
9,36,36,18,45,45,99,0.64,0.8,0.2,0.67,-0.47,-1.4,,stimuli/P_09_36_36_18.png,,,,,0,67,67,126,,,,,,,,,,,,,,,,,,,,,,,,,,,,416.9304869570951,None,416.9304869570951,None,417.5261205110437,None,417.5261205110437,None,20,417.5261205110437,None,return,5.324883064988171,417.5261205110437,None,,,YAOYAO,F,002,2023_Apr_18_1927,untitled,2021.1.4,60.58085194354634,
9,36,36,36,45,45,117,0.69,0.8,0.2,0.5,-0.3,-0.6,,stimuli/P_09_36_36_36.png,,,,,0,68,68,127,,,,,,,,,,,,,,,,,,,,,,,,,,,,422.8840804544725,None,422.8840804544725,None,423.5173027407891,None,423.5173027407891,None,20,423.5173027407891,None,return,2.2916377955789358,423.5173027407891,None,,,YAOYAO,F,002,2023_Apr_18_1927,untitled,2021.1.4,60.58085194354634,
18,0,9,9,18,27,36,1.0,0.0,1.0,0.5,0.5,1.0,,stimuli/P_18_00_09_09.png,,,,,0,69,69,133,,,,,,,,,,,,,,,,,,,,,,,,,,,,425.84827291169495,None,425.84827291169495,None,426.4732679339213,None,426.4732679339213,None,100,426.4732679339213,None,return,2.346093500222196,426.4732679339213,None,,,YAOYAO,F,002,2023_Apr_18_1927,untitled,2021.1.4,60.58085194354634,
18,36,9,9,54,27,72,0.5,0.67,0.33,0.5,-0.17,-0.33,,stimuli/P_18_36_09_09.png,,,,,0,70,70,181,,,,,,,,,,,,,,,,,,,,,,,,,,,,428.85111564704675,None,428.85111564704675,None,429.46787487185793,None,429.46787487185793,None,45,429.46787487185793,None,return,6.391634723582683,429.46787487185793,None,,,YAOYAO,F,002,2023_Apr_18_1927,untitled,2021.1.4,60.58085194354634,
0,18,36,18,18,36,72,0.75,1.0,0.0,0.67,-0.67,-2.0,,stimuli/P_00_18_36_18.png,,,,,0,71,71,46,,,,,,,,,,,,,,,,,,,,,,,,,,,,435.880705808464,None,435.880705808464,None,436.4966742783927,None,436.4966742783927,None,0,436.4966742783927,None,return,1.5383550250480766,436.4966742783927,None,,,YAOYAO,F,002,2023_Apr_18_1927,untitled,2021.1.4,60.58085194354634,
18,9,18,0,27,36,45,0.8,0.33,0.67,1.0,-0.33,#NAME?,,stimuli/P_18_09_18_00.png,,,,,0,72,72,152,,,,,,,,,,,,,,,,,,,,,,,,,,,,438.0701689712332,None,438.0701689712332,None,438.6988208081166,None,438.6988208081166,None,75,438.6988208081166,None,return,3.832875947056891,438.6988208081166,None,,,YAOYAO,F,002,2023_Apr_18_1927,untitled,2021.1.4,60.58085194354634,
0,9,0,36,9,0,45,0.8,1.0,0.0,0.0,0.0,0.0,,stimuli/P_00_09_00_36.png,,,,,0,73,73,19,,,,,,,,,,,,,,,,,,,,,,,,,,,,442.55962064245614,None,442.55962064245614,None,443.19621359256416,None,443.19621359256416,None,0,443.19621359256416,None,return,3.1310127237575216,443.19621359256416,None,,,YAOYAO,F,002,2023_Apr_18_1927,untitled,2021.1.4,60.58085194354634,
0,9,18,0,9,18,27,0.67,1.0,0.0,1.0,-1.0,#NAME?,,stimuli/P_00_09_18_00.png,,,,,0,74,74,24,,,,,,,,,,,,,,,,,,,,,,,,,,,,446.36229657972945,None,446.36229657972945,None,446.9930277037274,None,446.9930277037274,None,0,446.9930277037274,None,return,2.280312934131871,446.9930277037274,None,,,YAOYAO,F,002,2023_Apr_18_1927,untitled,2021.1.4,60.58085194354634,
36,18,18,18,54,54,90,0.8,0.33,0.67,0.5,0.17,0.33,,stimuli/P_36_18_18_18.png,,,,,0,75,75,234,,,,,,,,,,,,,,,,,,,,,,,,,,,,449.3092374961161,None,449.3092374961161,None,449.9083412693253,None,449.9083412693253,None,70,449.9083412693253,None,return,6.971358175551359,449.9083412693253,None,,,YAOYAO,F,002,2023_Apr_18_1927,untitled,2021.1.4,60.58085194354634,
18,0,0,18,18,18,36,1.0,0.0,1.0,0.0,1.0,1.0,,stimuli/P_18_00_00_18.png,,,,,0,76,76,130,,,,,,,,,,,,,,,,,,,,,,,,,,,,456.9197173307293,None,456.9197173307293,None,457.5309054314039,None,457.5309054314039,None,100,457.5309054314039,None,return,2.5908679757940263,457.5309054314039,None,,,YAOYAO,F,002,2023_Apr_18_1927,untitled,2021.1.4,60.58085194354634,
18,0,36,18,18,54,72,1.0,0.0,1.0,0.67,0.33,1.0,,stimuli/P_18_00_36_18.png,,,,,0,77,77,142,,,,,,,,,,,,,,,,,,,,,,,,,,,,460.14080215540343,None,460.14080215540343,None,460.6290062543594,None,460.6290062543594,None,100,460.6290062543594,None,return,2.553556292077701,460.6290062543594,None,,,YAOYAO,F,002,2023_Apr_18_1927,untitled,2021.1.4,60.58085194354634,
9,36,18,36,45,27,99,0.64,0.8,0.2,0.33,-0.13,-0.2,,stimuli/P_09_36_18_36.png,,,,,0,78,78,123,,,,,,,,,,,,,,,,,,,,,,,,,,,,463.2231902806543,None,463.2231902806543,None,463.7257150073892,None,463.7257150073892,None,20,463.7257150073892,None,return,4.842983387319691,463.7257150073892,None,,,YAOYAO,F,002,2023_Apr_18_1927,untitled,2021.1.4,60.58085194354634,
18,0,9,0,18,27,27,1.0,0.0,1.0,1.0,0.0,None,,stimuli/P_18_00_09_00.png,,,,,0,79,79,132,,,,,,,,,,,,,,,,,,,,,,,,,,,,468.5897808300524,None,468.5897808300524,None,469.24296029045036,None,469.24296029045036,None,100,469.24296029045036,None,return,2.013513944024453,469.24296029045036,None,,,YAOYAO,F,002,2023_Apr_18_1927,untitled,2021.1.4,60.58085194354634,
18,18,36,0,36,54,72,0.75,0.5,0.5,1.0,-0.5,#NAME?,,stimuli/P_18_18_36_00.png,,,,,0,80,80,172,,,,,,,,,,,,,,,,,,,,,,,,,,,,471.29743363063426,None,471.29743363063426,None,471.80506356190017,None,471.80506356190017,None,50,471.80506356190017,None,return,2.5905630516081146,471.80506356190017,None,,,YAOYAO,F,002,2023_Apr_18_1927,untitled,2021.1.4,60.58085194354634,
18,0,18,9,18,36,45,1.0,0.0,1.0,0.67,0.33,1.0,,stimuli/P_18_00_18_09.png,,,,,0,81,81,137,,,,,,,,,,,,,,,,,,,,,,,,,,,,474.42439643784746,None,474.42439643784746,None,475.02738685662916,None,475.02738685662916,None,100,475.02738685662916,None,return,2.376505705382442,475.02738685662916,None,,,YAOYAO,F,002,2023_Apr_18_1927,untitled,2021.1.4,60.58085194354634,
36,0,9,0,36,45,45,1.0,0.0,1.0,1.0,0.0,None,,stimuli/P_36_00_09_00.png,,,,,0,82,82,196,,,,,,,,,,,,,,,,,,,,,,,,,,,,477.43160994280333,None,477.43160994280333,None,478.0434152873968,None,478.0434152873968,None,100,478.0434152873968,None,return,1.7280929609169107,478.0434152873968,None,,,YAOYAO,F,002,2023_Apr_18_1927,untitled,2021.1.4,60.58085194354634,
36,18,0,0,54,36,54,0.67,0.33,0.67,None,None,None,,stimuli/P_36_18_00_00.png,,,,,0,83,83,224,,,,,,,,,,,,,,,,,,,,,,,,,,,,479.80672528492687,None,479.80672528492687,None,480.4310200055297,None,480.4310200055297,None,70,480.4310200055297,None,return,6.561721547330308,480.4310200055297,None,,,YAOYAO,F,002,2023_Apr_18_1927,untitled,2021.1.4,60.58085194354634,
36,0,9,9,36,45,54,1.0,0.0,1.0,0.5,0.5,1.0,,stimuli/P_36_00_09_09.png,,,,,0,84,84,197,,,,,,,,,,,,,,,,,,,,,,,,,,,,487.01483945400287,None,487.01483945400287,None,487.5030481040649,None,487.5030481040649,None,100,487.5030481040649,None,return,1.791785137676925,487.5030481040649,None,,,YAOYAO,F,002,2023_Apr_18_1927,untitled,2021.1.4,60.58085194354634,
36,9,9,9,45,45,63,0.86,0.2,0.8,0.5,0.3,0.6,,stimuli/P_36_09_09_09.png,,,,,0,85,85,213,,,,,,,,,,,,,,,,,,,,,,,,,,,,489.33280995600217,None,489.33280995600217,None,489.94059269069294,None,489.94059269069294,None,90,489.94059269069294,None,return,3.2496458669702406,489.94059269069294,None,,,YAOYAO,F,002,2023_Apr_18_1927,untitled,2021.1.4,60.58085194354634,
9,0,9,18,9,18,36,1.0,0.0,1.0,0.33,0.67,1.0,,stimuli/P_09_00_09_18.png,,,,,0,86,86,70,,,,,,,,,,,,,,,,,,,,,,,,,,,,493.2260347226729,None,493.2260347226729,None,493.86168843802443,None,493.86168843802443,None,100,493.86168843802443,None,return,2.5959817136517813,493.86168843802443,None,,,YAOYAO,F,002,2023_Apr_18_1927,untitled,2021.1.4,60.58085194354634,
0,18,18,9,18,18,45,0.6,1.0,0.0,0.67,-0.67,-2.0,,stimuli/P_00_18_18_09.png,,,,,0,87,87,41,,,,,,,,,,,,,,,,,,,,,,,,,,,,496.4799540793283,None,496.4799540793283,None,497.1115356914888,None,497.1115356914888,None,0,497.1115356914888,None,return,1.503059481834498,497.1115356914888,None,,,YAOYAO,F,002,2023_Apr_18_1927,untitled,2021.1.4,60.58085194354634,
36,9,36,9,45,72,90,0.9,0.2,0.8,0.8,0.0,0.0,,stimuli/P_36_09_36_09.png,,,,,0,88,88,221,,,,,,,,,,,,,,,,,,,,,,,,,,,,498.6534855223581,None,498.6534855223581,None,499.270310738224,None,499.270310738224,None,85,499.270310738224,None,return,7.253140548431475,499.270310738224,None,,,YAOYAO,F,002,2023_Apr_18_1927,untitled,2021.1.4,60.58085194354634,
0,0,0,18,0,0,18,1.0,None,None,0.0,None,None,,stimuli/P_00_00_00_18.png,,,,,0,89,89,2,,,,,,,,,,,,,,,,,,,,,,,,,,,,506.56367055900046,None,506.56367055900046,None,507.12869848573246,None,507.12869848573246,None,50,507.12869848573246,None,return,4.976783095367864,507.12869848573246,None,,,YAOYAO,F,002,2023_Apr_18_1927,untitled,2021.1.4,60.58085194354634,
18,36,0,18,54,18,72,0.5,0.67,0.33,0.0,0.33,0.33,,stimuli/P_18_36_00_18.png,,,,,0,90,90,178,,,,,,,,,,,,,,,,,,,,,,,,,,,,512.1458271466709,None,512.1458271466709,None,512.767327487436,None,512.767327487436,None,45,512.767327487436,None,return,5.350765780680376,512.767327487436,None,,,YAOYAO,F,002,2023_Apr_18_1927,untitled,2021.1.4,60.58085194354634,
18,36,18,36,54,36,108,0.67,0.67,0.33,0.33,0.0,0.0,,stimuli/P_18_36_18_36.png,,,,,0,91,91,187,,,,,,,,,,,,,,,,,,,,,,,,,,,,518.1549885255208,None,518.1549885255208,None,518.7465169807492,None,518.7465169807492,None,45,518.7465169807492,None,return,6.467168312461581,518.7465169807492,None,,,YAOYAO,F,002,2023_Apr_18_1927,untitled,2021.1.4,60.58085194354634,
9,36,0,36,45,9,81,0.56,0.8,0.2,0.0,0.2,0.2,,stimuli/P_09_36_00_36.png,,,,,0,92,92,115,,,,,,,,,,,,,,,,,,,,,,,,,,,,525.254149756458,None,525.254149756458,None,525.8735947034202,None,525.8735947034202,None,20,525.8735947034202,None,return,4.332869689284053,525.8735947034202,None,,,YAOYAO,F,002,2023_Apr_18_1927,untitled,2021.1.4,60.58085194354634,
36,9,0,36,45,36,81,0.89,0.2,0.8,0.0,0.8,0.8,,stimuli/P_36_09_00_36.png,,,,,0,93,93,211,,,,,,,,,,,,,,,,,,,,,,,,,,,,530.2323857928077,None,530.2323857928077,None,530.7205563273474,None,530.7205563273474,None,70,530.7205563273474,None,return,7.224408270727508,530.7205563273474,None,,,YAOYAO,F,002,2023_Apr_18_1927,untitled,2021.1.4,60.58085194354634,
36,0,0,9,36,36,45,1.0,0.0,1.0,0.0,1.0,1.0,,stimuli/P_36_00_00_09.png,,,,,0,94,94,193,,,,,,,,,,,,,,,,,,,,,,,,,,,,537.9695599193092,None,537.9695599193092,None,538.5980234541312,None,538.5980234541312,None,100,538.5980234541312,None,return,1.9362645877208706,538.5980234541312,None,,,YAOYAO,F,002,2023_Apr_18_1927,untitled,2021.1.4,60.58085194354634,
18,9,0,36,27,18,63,0.86,0.33,0.67,0.0,0.67,0.67,,stimuli/P_18_09_00_36.png,,,,,0,95,95,147,,,,,,,,,,,,,,,,,,,,,,,,,,,,540.5625686221629,None,540.5625686221629,None,541.1880051017906,None,541.1880051017906,None,70,541.1880051017906,None,return,6.521832230258951,541.1880051017906,None,,,YAOYAO,F,002,2023_Apr_18_1927,untitled,2021.1.4,60.58085194354634,
36,0,36,9,36,72,81,1.0,0.0,1.0,0.8,0.2,1.0,,stimuli/P_36_00_36_09.png,,,,,0,96,96,205,,,,,,,,,,,,,,,,,,,,,,,,,,,,547.7457802702666,None,547.7457802702666,None,548.359238235671,None,548.359238235671,None,100,548.359238235671,None,return,1.945511299831196,548.359238235671,None,,,YAOYAO,F,002,2023_Apr_18_1927,untitled,2021.1.4,60.58085194354634,
9,9,18,9,18,27,45,0.8,0.5,0.5,0.67,-0.17,-0.5,,stimuli/P_09_09_18_09.png,,,,,0,97,97,89,,,,,,,,,,,,,,,,,,,,,,,,,,,,550.3431204894259,None,550.3431204894259,None,550.958968355013,None,550.958968355013,None,50,550.958968355013,None,return,2.9185533850577485,550.958968355013,None,,,YAOYAO,F,002,2023_Apr_18_1927,untitled,2021.1.4,60.58085194354634,
36,0,9,18,36,45,63,1.0,0.0,1.0,0.33,0.67,1.0,,stimuli/P_36_00_09_18.png,,,,,0,98,98,198,,,,,,,,,,,,,,,,,,,,,,,,,,,,553.9064650753717,None,553.9064650753717,None,554.5407142052572,None,554.5407142052572,None,100,554.5407142052572,None,return,3.439600549319948,554.5407142052572,None,,,YAOYAO,F,002,2023_Apr_18_1927,untitled,2021.1.4,60.58085194354634,
36,36,0,0,72,36,72,0.5,0.5,0.5,None,None,None,,stimuli/P_36_36_00_00.png,,,,,0,99,99,240,,,,,,,,,,,,,,,,,,,,,,,,,,,,558.0022852247166,None,558.0022852247166,None,558.6070306642214,None,558.6070306642214,None,50,558.6070306642214,None,return,1.7773615410951606,558.6070306642214,None,,,YAOYAO,F,002,2023_Apr_18_1927,untitled,2021.1.4,60.58085194354634,
36,0,36,18,36,72,90,1.0,0.0,1.0,0.67,0.33,1.0,,stimuli/P_36_00_36_18.png,,,,,0,100,100,206,,,,,,,,,,,,,,,,,,,,,,,,,,,,560.4089124332822,None,560.4089124332822,None,560.904750445723,None,560.904750445723,None,100,560.904750445723,None,return,1.812407342302322,560.904750445723,None,,,YAOYAO,F,002,2023_Apr_18_1927,untitled,2021.1.4,60.58085194354634,
36,18,18,9,54,54,81,0.78,0.33,0.67,0.67,0.0,0.0,,stimuli/P_36_18_18_09.png,,,,,0,101,101,233,,,,,,,,,,,,,,,,,,,,,,,,,,,,562.7513798388227,None,562.7513798388227,None,563.3610239763693,None,563.3610239763693,None,75,563.3610239763693,None,return,4.7151524564033025,563.3610239763693,None,,,YAOYAO,F,002,2023_Apr_18_1927,untitled,2021.1.4,60.58085194354634,
36,18,36,18,54,72,108,0.83,0.33,0.67,0.67,0.0,0.0,,stimuli/P_36_18_36_18.png,,,,,0,102,102,238,,,,,,,,,,,,,,,,,,,,,,,,,,,,568.1116523136116,None,568.1116523136116,None,568.7236818002348,None,568.7236818002348,None,75,568.7236818002348,None,return,3.412124377209693,568.7236818002348,None,,,YAOYAO,F,002,2023_Apr_18_1927,untitled,2021.1.4,60.58085194354634,
9,0,18,18,9,27,45,1.0,0.0,1.0,0.5,0.5,1.0,,stimuli/P_09_00_18_18.png,,,,,0,103,103,74,,,,,,,,,,,,,,,,,,,,,,,,,,,,572.1601637033273,None,572.1601637033273,None,572.7692133524924,None,572.7692133524924,None,100,572.7692133524924,None,return,2.0592508649933734,572.7692133524924,None,,,YAOYAO,F,002,2023_Apr_18_1927,untitled,2021.1.4,60.58085194354634,
9,9,18,0,18,27,36,0.75,0.5,0.5,1.0,-0.5,#NAME?,,stimuli/P_09_09_18_00.png,,,,,0,104,104,88,,,,,,,,,,,,,,,,,,,,,,,,,,,,574.8669057135739,None,574.8669057135739,None,575.4947121822897,None,575.4947121822897,None,50,575.4947121822897,None,return,2.3777106110192108,575.4947121822897,None,,,YAOYAO,F,002,2023_Apr_18_1927,untitled,2021.1.4,60.58085194354634,
0,18,9,18,18,9,45,0.6,1.0,0.0,0.33,-0.33,-0.5,,stimuli/P_00_18_09_18.png,,,,,0,105,105,38,,,,,,,,,,,,,,,,,,,,,,,,,,,,577.9133110784187,None,577.9133110784187,None,578.5018170295607,None,578.5018170295607,None,0,578.5018170295607,None,return,1.7906399653202243,578.5018170295607,None,,,YAOYAO,F,002,2023_Apr_18_1927,untitled,2021.1.4,60.58085194354634,
0,36,36,0,36,36,72,0.5,1.0,0.0,1.0,-1.0,#NAME?,,stimuli/P_00_36_36_00.png,,,,,0,106,106,60,,,,,,,,,,,,,,,,,,,,,,,,,,,,580.3280017112156,None,580.3280017112156,None,580.927502568531,None,580.927502568531,None,0,580.927502568531,None,return,1.3937339217918634,580.927502568531,None,,,YAOYAO,F,002,2023_Apr_18_1927,untitled,2021.1.4,60.58085194354634,
9,9,0,36,18,9,54,0.83,0.5,0.5,0.0,0.5,0.5,,stimuli/P_09_09_00_36.png,,,,,0,107,107,83,,,,,,,,,,,,,,,,,,,,,,,,,,,,582.3472136414875,None,582.3472136414875,None,582.8243995098455,None,582.8243995098455,None,50,582.8243995098455,None,return,2.016423808207037,582.8243995098455,None,,,YAOYAO,F,002,2023_Apr_18_1927,untitled,2021.1.4,60.58085194354634,
36,18,9,9,54,45,72,0.75,0.33,0.67,0.5,0.17,0.33,,stimuli/P_36_18_09_09.png,,,,,0,108,108,229,,,,,,,,,,,,,,,,,,,,,,,,,,,,584.8727988285445,None,584.8727988285445,None,585.4644894169687,None,585.4644894169687,None,75,585.4644894169687,None,return,5.635525146575674,585.4644894169687,None,,,YAOYAO,F,002,2023_Apr_18_1927,untitled,2021.1.4,60.58085194354634,
18,9,36,9,27,54,72,0.88,0.33,0.67,0.8,-0.13,-0.67,,stimuli/P_18_09_36_09.png,,,,,0,109,109,157,,,,,,,,,,,,,,,,,,,,,,,,,,,,591.1366350478493,None,591.1366350478493,None,591.733442218574,None,591.733442218574,None,85,591.733442218574,None,return,5.63496991149259,591.733442218574,None,,,YAOYAO,F,002,2023_Apr_18_1927,untitled,2021.1.4,60.58085194354634,
18,0,0,9,18,18,27,1.0,0.0,1.0,0.0,1.0,1.0,,stimuli/P_18_00_00_09.png,,,,,0,110,110,129,,,,,,,,,,,,,,,,,,,,,,,,,,,,597.4007158891654,None,597.4007158891654,None,598.0084354772462,None,598.0084354772462,None,100,598.0084354772462,None,return,1.9341710783955932,598.0084354772462,None,,,YAOYAO,F,002,2023_Apr_18_1927,untitled,2021.1.4,60.58085194354634,
36,9,9,18,45,45,72,0.88,0.2,0.8,0.33,0.47,0.7,,stimuli/P_36_09_09_18.png,,,,,0,111,111,214,,,,,,,,,,,,,,,,,,,,,,,,,,,,599.9762927135635,None,599.9762927135635,None,600.4736547780358,None,600.4736547780358,None,80,600.4736547780358,None,return,6.032813483110658,600.4736547780358,None,,,YAOYAO,F,002,2023_Apr_18_1927,untitled,2021.1.4,60.58085194354634,
9,36,9,9,45,18,63,0.43,0.8,0.2,0.5,-0.3,-0.6,,stimuli/P_09_36_09_09.png,,,,,0,112,112,117,,,,,,,,,,,,,,,,,,,,,,,,,,,,606.534963881275,None,606.534963881275,None,607.1261225590424,None,607.1261225590424,None,20,607.1261225590424,None,return,3.9731723606710148,607.1261225590424,None,,,YAOYAO,F,002,2023_Apr_18_1927,untitled,2021.1.4,60.58085194354634,
0,9,0,9,9,0,18,0.5,1.0,0.0,0.0,0.0,0.0,,stimuli/P_00_09_00_09.png,,,,,0,113,113,17,,,,,,,,,,,,,,,,,,,,,,,,,,,,611.1411520217716,None,611.1411520217716,None,611.7747816321862,None,611.7747816321862,None,0,611.7747816321862,None,return,1.6719618799252203,611.7747816321862,None,,,YAOYAO,F,002,2023_Apr_18_1927,untitled,2021.1.4,60.58085194354634,
9,0,0,9,9,9,18,1.0,0.0,1.0,0.0,1.0,1.0,,stimuli/P_09_00_00_09.png,,,,,0,114,114,65,,,,,,,,,,,,,,,,,,,,,,,,,,,,613.4692458929094,None,613.4692458929094,None,614.0847342210254,None,614.0847342210254,None,100,614.0847342210254,None,return,1.9902327550007612,614.0847342210254,None,,,YAOYAO,F,002,2023_Apr_18_1927,untitled,2021.1.4,60.58085194354634,
9,18,0,36,27,9,63,0.71,0.67,0.33,0.0,0.33,0.33,,stimuli/P_09_18_00_36.png,,,,,0,115,115,99,,,,,,,,,,,,,,,,,,,,,,,,,,,,616.1091816312764,None,616.1091816312764,None,616.7122693299734,None,616.7122693299734,None,40,616.7122693299734,None,return,5.324206656676324,616.7122693299734,None,,,YAOYAO,F,002,2023_Apr_18_1927,untitled,2021.1.4,60.58085194354634,
0,9,9,9,9,9,27,0.67,1.0,0.0,0.5,-0.5,-1.0,,stimuli/P_00_09_09_09.png,,,,,0,116,116,21,,,,,,,,,,,,,,,,,,,,,,,,,,,,622.0747189406829,None,622.0747189406829,None,622.6687647270974,None,622.6687647270974,None,0,622.6687647270974,None,return,2.2852087877326994,622.6687647270974,None,,,YAOYAO,F,002,2023_Apr_18_1927,untitled,2021.1.4,60.58085194354634,
36,36,36,9,72,72,117,0.69,0.5,0.5,0.8,-0.3,-1.5,,stimuli/P_36_36_36_09.png,,,,,0,117,117,253,,,,,,,,,,,,,,,,,,,,,,,,,,,,624.9887581962594,None,624.9887581962594,None,625.5948558835007,None,625.5948558835007,None,50,625.5948558835007,None,return,2.1118127401423408,625.5948558835007,None,,,YAOYAO,F,002,2023_Apr_18_1927,untitled,2021.1.4,60.58085194354634,
36,18,9,0,54,45,63,0.71,0.33,0.67,1.0,-0.33,#NAME?,,stimuli/P_36_18_09_00.png,,,,,0,118,118,228,,,,,,,,,,,,,,,,,,,,,,,,,,,,627.74081558117,None,627.74081558117,None,628.367006406821,None,628.367006406821,None,75,628.367006406821,None,return,4.426273200691867,628.367006406821,None,,,YAOYAO,F,002,2023_Apr_18_1927,untitled,2021.1.4,60.58085194354634,
18,18,9,36,36,27,81,0.78,0.5,0.5,0.2,0.3,0.37,,stimuli/P_18_18_09_36.png,,,,,0,119,119,167,,,,,,,,,,,,,,,,,,,,,,,,,,,,632.8260111706913,None,632.8260111706913,None,633.4294709224068,None,633.4294709224068,None,50,633.4294709224068,None,return,1.9120646439259872,633.4294709224068,None,,,YAOYAO,F,002,2023_Apr_18_1927,untitled,2021.1.4,60.58085194354634,
18,9,18,18,27,36,63,0.86,0.33,0.67,0.5,0.17,0.33,,stimuli/P_18_09_18_18.png,,,,,0,120,120,154,,,,,,,,,,,,,,,,,,,,,,,,,,,,635.3596114264637,None,635.3596114264637,None,635.9874827484582,None,635.9874827484582,None,75,635.9874827484582,None,return,4.852822881146494,635.9874827484582,None,,,YAOYAO,F,002,2023_Apr_18_1927,untitled,2021.1.4,60.58085194354634,
0,9,36,9,9,36,54,0.83,1.0,0.0,0.8,-0.8,-4.0,,stimuli/P_00_09_36_09.png,,,,,0,121,121,29,,,,,,,,,,,,,,,,,,,,,,,,,,,,640.8784018104307,None,640.8784018104307,None,641.3643445779817,None,641.3643445779817,None,0,641.3643445779817,None,return,1.6184954722175462,641.3643445779817,None,,,YAOYAO,F,002,2023_Apr_18_1927,untitled,2021.1.4,60.58085194354634,
36,36,36,18,72,72,126,0.71,0.5,0.5,0.67,-0.17,-0.5,,stimuli/P_36_36_36_18.png,,,,,0,122,122,254,,,,,,,,,,,,,,,,,,,,,,,,,,,,643.0015627364428,None,643.0015627364428,None,643.6367971810432,None,643.6367971810432,None,50,643.6367971810432,None,return,2.4867625357401266,643.6367971810432,None,,,YAOYAO,F,002,2023_Apr_18_1927,untitled,2021.1.4,60.58085194354634,
18,36,9,0,54,27,63,0.43,0.67,0.33,1.0,-0.67,#NAME?,,stimuli/P_18_36_09_00.png,,,,,0,123,123,180,,,,,,,,,,,,,,,,,,,,,,,,,,,,646.154052135209,None,646.154052135209,None,646.7495241248507,None,646.7495241248507,None,35,646.7495241248507,None,return,3.5779968756633025,646.7495241248507,None,,,YAOYAO,F,002,2023_Apr_18_1927,untitled,2021.1.4,60.58085194354634,
0,36,9,9,36,9,54,0.33,1.0,0.0,0.5,-0.5,-1.0,,stimuli/P_00_36_09_09.png,,,,,0,124,124,53,,,,,,,,,,,,,,,,,,,,,,,,,,,,650.3471300148922,None,650.3471300148922,None,650.9576195206082,None,650.9576195206082,None,0,650.9576195206082,None,return,1.489531884488315,650.9576195206082,None,,,YAOYAO,F,002,2023_Apr_18_1927,untitled,2021.1.4,60.58085194354634,
0,18,0,18,18,0,36,0.5,1.0,0.0,0.0,0.0,0.0,,stimuli/P_00_18_00_18.png,,,,,0,125,125,34,,,,,,,,,,,,,,,,,,,,,,,,,,,,652.4823212239735,None,652.4823212239735,None,653.1018088375677,None,653.1018088375677,None,0,653.1018088375677,None,return,2.2545792672044627,653.1018088375677,None,,,YAOYAO,F,002,2023_Apr_18_1927,untitled,2021.1.4,60.58085194354634,
36,9,18,36,45,54,99,0.91,0.2,0.8,0.33,0.47,0.7,,stimuli/P_36_09_18_36.png,,,,,0,126,126,219,,,,,,,,,,,,,,,,,,,,,,,,,,,,655.3783267171602,None,655.3783267171602,None,655.8811336125436,None,655.8811336125436,None,85,655.8811336125436,None,return,5.067125418274372,655.8811336125436,None,,,YAOYAO,F,002,2023_Apr_18_1927,untitled,2021.1.4,60.58085194354634,
9,0,18,9,9,27,36,1.0,0.0,1.0,0.67,0.33,1.0,,stimuli/P_09_00_18_09.png,,,,,0,127,127,73,,,,,,,,,,,,,,,,,,,,,,,,,,,,660.9846508219871,None,660.9846508219871,None,661.5765615702221,None,661.5765615702221,None,100,661.5765615702221,None,return,1.7713944706320035,661.5765615702221,None,,,YAOYAO,F,002,2023_Apr_18_1927,untitled,2021.1.4,60.58085194354634,
9,36,36,9,45,45,90,0.6,0.8,0.2,0.8,-0.6,-3.0,,stimuli/P_09_36_36_09.png,,,,,0,128,128,125,,,,,,,,,,,,,,,,,,,,,,,,,,,,663.3810562437211,None,663.3810562437211,None,663.8847500361244,None,663.8847500361244,None,25,663.8847500361244,None,return,5.774845347687005,663.8847500361244,None,,,YAOYAO,F,002,2023_Apr_18_1927,untitled,2021.1.4,60.58085194354634,
36,36,0,18,72,36,90,0.6,0.5,0.5,0.0,0.5,0.5,,stimuli/P_36_36_00_18.png,,,,,0,129,129,242,,,,,,,,,,,,,,,,,,,,,,,,,,,,669.6891406030445,None,669.6891406030445,None,670.2974302173043,None,670.2974302173043,None,50,670.2974302173043,None,return,1.967154659139851,670.2974302173043,None,,,YAOYAO,F,002,2023_Apr_18_1927,untitled,2021.1.4,60.58085194354634,
18,18,36,36,36,54,108,0.83,0.5,0.5,0.5,0.0,0.0,,stimuli/P_18_18_36_36.png,,,,,0,130,130,175,,,,,,,,,,,,,,,,,,,,,,,,,,,,672.289885050408,None,672.289885050408,None,672.8817019320577,None,672.8817019320577,None,50,672.8817019320577,None,return,1.8424662677625747,672.8817019320577,None,,,YAOYAO,F,002,2023_Apr_18_1927,untitled,2021.1.4,60.58085194354634,
36,18,0,36,54,36,90,0.8,0.33,0.67,0.0,0.67,0.67,,stimuli/P_36_18_00_36.png,,,,,0,131,131,227,,,,,,,,,,,,,,,,,,,,,,,,,,,,674.7621397940839,None,674.7621397940839,None,675.3637313162817,None,675.3637313162817,None,75,675.3637313162817,None,return,4.720075047756836,675.3637313162817,None,,,YAOYAO,F,002,2023_Apr_18_1927,untitled,2021.1.4,60.58085194354634,
9,9,9,18,18,18,45,0.8,0.5,0.5,0.33,0.17,0.25,,stimuli/P_09_09_09_18.png,,,,,0,132,132,86,,,,,,,,,,,,,,,,,,,,,,,,,,,,680.1052585768448,None,680.1052585768448,None,680.7098293676117,None,680.7098293676117,None,50,680.7098293676117,None,return,1.5059932393305644,680.7098293676117,None,,,YAOYAO,F,002,2023_Apr_18_1927,untitled,2021.1.4,60.58085194354634,
18,0,9,18,18,27,45,1.0,0.0,1.0,0.33,0.67,1.0,,stimuli/P_18_00_09_18.png,,,,,0,133,133,134,,,,,,,,,,,,,,,,,,,,,,,,,,,,682.2515817942058,None,682.2515817942058,None,682.7518884250549,None,682.7518884250549,None,100,682.7518884250549,None,return,2.650770786898647,682.7518884250549,None,,,YAOYAO,F,002,2023_Apr_18_1927,untitled,2021.1.4,60.58085194354634,
9,18,9,18,27,18,54,0.67,0.67,0.33,0.33,0.0,0.0,,stimuli/P_09_18_09_18.png,,,,,0,134,134,102,,,,,,,,,,,,,,,,,,,,,,,,,,,,685.4254301080764,None,685.4254301080764,None,686.0257655246787,None,686.0257655246787,None,35,686.0257655246787,None,return,5.529324490531508,686.0257655246787,None,,,YAOYAO,F,002,2023_Apr_18_1927,untitled,2021.1.4,60.58085194354634,
36,0,18,0,36,54,54,1.0,0.0,1.0,1.0,0.0,None,,stimuli/P_36_00_18_00.png,,,,,0,135,135,200,,,,,,,,,,,,,,,,,,,,,,,,,,,,691.5942033685023,None,691.5942033685023,None,692.197043600745,None,692.197043600745,None,100,692.197043600745,None,return,2.21244284093882,692.197043600745,None,,,YAOYAO,F,002,2023_Apr_18_1927,untitled,2021.1.4,60.58085194354634,
9,36,9,18,45,18,72,0.5,0.8,0.2,0.33,-0.13,-0.2,,stimuli/P_09_36_09_18.png,,,,,0,136,136,118,,,,,,,,,,,,,,,,,,,,,,,,,,,,694.4509214285463,None,694.4509214285463,None,694.9868933800735,None,694.9868933800735,None,23,694.9868933800735,None,return,5.4248834063218965,694.9868933800735,None,,,YAOYAO,F,002,2023_Apr_18_1927,untitled,2021.1.4,60.58085194354634,
0,9,36,0,9,36,45,0.8,1.0,0.0,1.0,-1.0,#NAME?,,stimuli/P_00_09_36_00.png,,,,,0,137,137,28,,,,,,,,,,,,,,,,,,,,,,,,,,,,700.4531856043923,None,700.4531856043923,None,701.0737922214739,None,701.0737922214739,None,0,701.0737922214739,None,return,1.540612943121232,701.0737922214739,None,,,YAOYAO,F,002,2023_Apr_18_1927,untitled,2021.1.4,60.58085194354634,
18,0,36,9,18,54,63,1.0,0.0,1.0,0.8,0.2,1.0,,stimuli/P_18_00_36_09.png,,,,,0,138,138,141,,,,,,,,,,,,,,,,,,,,,,,,,,,,702.6335806860097,None,702.6335806860097,None,703.2447392044887,None,703.2447392044887,None,100,703.2447392044887,None,return,2.549403406730562,703.2447392044887,None,,,YAOYAO,F,002,2023_Apr_18_1927,untitled,2021.1.4,60.58085194354634,
0,36,36,9,36,36,81,0.56,1.0,0.0,0.8,-0.8,-4.0,,stimuli/P_00_36_36_09.png,,,,,0,139,139,61,,,,,,,,,,,,,,,,,,,,,,,,,,,,705.8307909710584,None,705.8307909710584,None,706.4490691279043,None,706.4490691279043,None,0,706.4490691279043,None,return,1.5131339265699353,706.4490691279043,None,,,YAOYAO,F,002,2023_Apr_18_1927,untitled,2021.1.4,60.58085194354634,
0,9,18,18,9,18,45,0.8,1.0,0.0,0.5,-0.5,-1.0,,stimuli/P_00_09_18_18.png,,,,,0,140,140,26,,,,,,,,,,,,,,,,,,,,,,,,,,,,708.0001410843233,None,708.0001410843233,None,708.620534937143,None,708.620534937143,None,0,708.620534937143,None,return,3.1318131497409922,708.620534937143,None,,,YAOYAO,F,002,2023_Apr_18_1927,untitled,2021.1.4,60.58085194354634,
18,18,0,0,36,18,36,0.5,0.5,0.5,None,None,None,,stimuli/P_18_18_00_00.png,,,,,0,141,141,160,,,,,,,,,,,,,,,,,,,,,,,,,,,,711.7758357823968,None,711.7758357823968,None,712.3850140003433,None,712.3850140003433,None,50,712.3850140003433,None,return,1.9066129863567767,712.3850140003433,None,,,YAOYAO,F,002,2023_Apr_18_1927,untitled,2021.1.4,60.58085194354634,
36,9,18,9,45,54,72,0.88,0.2,0.8,0.67,0.13,0.4,,stimuli/P_36_09_18_09.png,,,,,0,142,142,217,,,,,,,,,,,,,,,,,,,,,,,,,,,,714.3119607649041,None,714.3119607649041,None,714.9154318943856,None,714.9154318943856,None,80,714.9154318943856,None,return,5.62677336737579,714.9154318943856,None,,,YAOYAO,F,002,2023_Apr_18_1927,untitled,2021.1.4,60.58085194354634,
0,36,36,18,36,36,90,0.6,1.0,0.0,0.67,-0.67,-2.0,,stimuli/P_00_36_36_18.png,,,,,0,143,143,62,,,,,,,,,,,,,,,,,,,,,,,,,,,,720.5600672198525,None,720.5600672198525,None,721.1665193245699,None,721.1665193245699,None,0,721.1665193245699,None,return,1.6285369214256207,721.1665193245699,None,,,YAOYAO,F,002,2023_Apr_18_1927,untitled,2021.1.4,60.58085194354634,
18,36,36,18,54,54,108,0.67,0.67,0.33,0.67,-0.33,-1.0,,stimuli/P_18_36_36_18.png,,,,,0,144,144,190,,,,,,,,,,,,,,,,,,,,,,,,,,,,722.8356532602411,None,722.8356532602411,None,723.4322425467071,None,723.4322425467071,None,35,723.4322425467071,None,return,4.766038386313085,723.4322425467071,None,,,YAOYAO,F,002,2023_Apr_18_1927,untitled,2021.1.4,60.58085194354634,
0,0,9,18,0,9,27,1.0,None,None,0.33,None,None,,stimuli/P_00_00_09_18.png,,,,,0,145,145,6,,,,,,,,,,,,,,,,,,,,,,,,,,,,728.2254726609299,None,728.2254726609299,None,728.8431443827376,None,728.8431443827376,None,50,728.8431443827376,None,return,3.811343520987066,728.8431443827376,None,,,YAOYAO,F,002,2023_Apr_18_1927,untitled,2021.1.4,60.58085194354634,
36,18,9,36,54,45,99,0.82,0.33,0.67,0.2,0.47,0.58,,stimuli/P_36_18_09_36.png,,,,,0,146,146,231,,,,,,,,,,,,,,,,,,,,,,,,,,,,732.68695777824,None,732.68695777824,None,733.2815297864272,None,733.2815297864272,None,85,733.2815297864272,None,return,7.763620610598082,733.2815297864272,None,,,YAOYAO,F,002,2023_Apr_18_1927,untitled,2021.1.4,60.58085194354634,
36,36,0,9,72,36,81,0.56,0.5,0.5,0.0,0.5,0.5,,stimuli/P_36_36_00_09.png,,,,,0,147,147,241,,,,,,,,,,,,,,,,,,,,,,,,,,,,741.068071479689,None,741.068071479689,None,741.6777207372324,None,741.6777207372324,None,50,741.6777207372324,None,return,1.908124522844446,741.6777207372324,None,,,YAOYAO,F,002,2023_Apr_18_1927,untitled,2021.1.4,60.58085194354634,
0,0,0,0,0,0,0,None,None,None,None,None,None,,stimuli/P_00_00_00_00.png,,,,,0,148,148,0,,,,,,,,,,,,,,,,,,,,,,,,,,,,743.6278036242729,None,743.6278036242729,None,744.2250226702017,None,744.2250226702017,None,0,744.2250226702017,None,return,7.686658542941586,744.2250226702017,None,,,YAOYAO,F,002,2023_Apr_18_1927,untitled,2021.1.4,60.58085194354634,
0,18,0,36,18,0,54,0.67,1.0,0.0,0.0,0.0,0.0,,stimuli/P_00_18_00_36.png,,,,,0,149,149,35,,,,,,,,,,,,,,,,,,,,,,,,,,,,751.9499964160023,None,751.9499964160023,None,752.4336181188683,None,752.4336181188683,None,0,752.4336181188683,None,return,7.754910360254144,752.4336181188683,None,,,YAOYAO,F,002,2023_Apr_18_1927,untitled,2021.1.4,60.58085194354634,
9,18,18,36,27,27,81,0.78,0.67,0.33,0.33,0.0,0.0,,stimuli/P_09_18_18_36.png,,,,,0,150,150,107,,,,,,,,,,,,,,,,,,,,,,,,,,,,760.2251990256082,None,760.2251990256082,None,760.8350030207966,None,760.8350030207966,None,40,760.8350030207966,None,return,6.601819646446529,760.8350030207966,None,,,YAOYAO,F,002,2023_Apr_18_1927,untitled,2021.1.4,60.58085194354634,
18,18,18,9,36,36,63,0.71,0.5,0.5,0.67,-0.17,-0.5,,stimuli/P_18_18_18_09.png,,,,,0,151,151,169,,,,,,,,,,,,,,,,,,,,,,,,,,,,767.4596476077677,None,767.4596476077677,None,768.0921195302799,None,768.0921195302799,None,50,768.0921195302799,None,return,1.7752486895660695,768.0921195302799,None,,,YAOYAO,F,002,2023_Apr_18_1927,untitled,2021.1.4,60.58085194354634,
18,18,9,18,36,27,63,0.71,0.5,0.5,0.33,0.17,0.25,,stimuli/P_18_18_09_18.png,,,,,0,152,152,166,,,,,,,,,,,,,,,,,,,,,,,,,,,,769.9018849548356,None,769.9018849548356,None,770.5174665806499,None,770.5174665806499,None,50,770.5174665806499,None,return,2.10200169073687,770.5174665806499,None,,,YAOYAO,F,002,2023_Apr_18_1927,untitled,2021.1.4,60.58085194354634,
18,18,36,18,36,54,90,0.8,0.5,0.5,0.67,-0.17,-0.5,,stimuli/P_18_18_36_18.png,,,,,0,153,153,174,,,,,,,,,,,,,,,,,,,,,,,,,,,,772.6413158616324,None,772.6413158616324,None,773.2655007867725,None,773.2655007867725,None,50,773.2655007867725,None,return,1.6063974914286518,773.2655007867725,None,,,YAOYAO,F,002,2023_Apr_18_1927,untitled,2021.1.4,60.58085194354634,
36,18,0,18,54,36,72,0.75,0.33,0.67,0.0,0.67,0.67,,stimuli/P_36_18_00_18.png,,,,,0,154,154,226,,,,,,,,,,,,,,,,,,,,,,,,,,,,774.9046161880597,None,774.9046161880597,None,775.5153702268835,None,775.5153702268835,None,75,775.5153702268835,None,return,2.5802877892656397,775.5153702268835,None,,,YAOYAO,F,002,2023_Apr_18_1927,untitled,2021.1.4,60.58085194354634,
9,18,9,9,27,18,45,0.6,0.67,0.33,0.5,-0.17,-0.33,,stimuli/P_09_18_09_09.png,,,,,0,155,155,101,,,,,,,,,,,,,,,,,,,,,,,,,,,,778.1369746742257,None,778.1369746742257,None,778.7217441663324,None,778.7217441663324,None,35,778.7217441663324,None,return,5.344713945843978,778.7217441663324,None,,,YAOYAO,F,002,2023_Apr_18_1927,untitled,2021.1.4,60.58085194354634,
36,9,0,9,45,36,54,0.83,0.2,0.8,0.0,0.8,0.8,,stimuli/P_36_09_00_09.png,,,,,0,156,156,209,,,,,,,,,,,,,,,,,,,,,,,,,,,,784.105444603354,None,784.105444603354,None,784.7110462199071,None,784.7110462199071,None,85,784.7110462199071,None,return,2.4275105329688813,784.7110462199071,None,,,YAOYAO,F,002,2023_Apr_18_1927,untitled,2021.1.4,60.58085194354634,
9,0,36,9,9,45,54,1.0,0.0,1.0,0.8,0.2,1.0,,stimuli/P_09_00_36_09.png,,,,,0,157,157,77,,,,,,,,,,,,,,,,,,,,,,,,,,,,787.1617076664534,None,787.1617076664534,None,787.7627251802514,None,787.7627251802514,None,100,787.7627251802514,None,return,1.749656675847291,787.7627251802514,None,,,YAOYAO,F,002,2023_Apr_18_1927,untitled,2021.1.4,60.58085194354634,
0,0,9,9,0,9,18,1.0,None,None,0.5,None,None,,stimuli/P_00_00_09_09.png,,,,,0,158,158,5,,,,,,,,,,,,,,,,,,,,,,,,,,,,789.5353080587593,None,789.5353080587593,None,790.1503748405685,None,790.1503748405685,None,50,790.1503748405685,None,return,2.2058226865865436,790.1503748405685,None,,,YAOYAO,F,002,2023_Apr_18_1927,untitled,2021.1.4,60.58085194354634,
0,0,9,36,0,9,45,1.0,None,None,0.2,None,None,,stimuli/P_00_00_09_36.png,,,,,0,159,159,7,,,,,,,,,,,,,,,,,,,,,,,,,,,,792.3828590510711,None,792.3828590510711,None,792.9937598631022,None,792.9937598631022,None,50,792.9937598631022,None,return,5.776706181653935,792.9937598631022,None,,,YAOYAO,F,002,2023_Apr_18_1927,untitled,2021.1.4,60.58085194354634,
18,18,18,0,36,36,54,0.67,0.5,0.5,1.0,-0.5,#NAME?,,stimuli/P_18_18_18_00.png,,,,,0,160,160,168,,,,,,,,,,,,,,,,,,,,,,,,,,,,798.8063338897064,None,798.8063338897064,None,799.4316361116707,None,799.4316361116707,None,50,799.4316361116707,None,return,1.7226219611402485,799.4316361116707,None,,,YAOYAO,F,002,2023_Apr_18_1927,untitled,2021.1.4,60.58085194354634,
0,18,0,9,18,0,27,0.33,1.0,0.0,0.0,0.0,0.0,,stimuli/P_00_18_00_09.png,,,,,0,161,161,33,,,,,,,,,,,,,,,,,,,,,,,,,,,,801.180207917334,None,801.180207917334,None,801.7991044558748,None,801.7991044558748,None,0,801.7991044558748,None,return,1.7666510791241308,801.7991044558748,None,,,YAOYAO,F,002,2023_Apr_18_1927,untitled,2021.1.4,60.58085194354634,
0,36,9,0,36,9,45,0.2,1.0,0.0,1.0,-1.0,#NAME?,,stimuli/P_00_36_09_00.png,,,,,0,162,162,52,,,,,,,,,,,,,,,,,,,,,,,,,,,,803.6054218478166,None,803.6054218478166,None,804.2160046512308,None,804.2160046512308,None,0,804.2160046512308,None,return,2.5360208759284433,804.2160046512308,None,,,YAOYAO,F,002,2023_Apr_18_1927,untitled,2021.1.4,60.58085194354634,
36,0,18,9,36,54,63,1.0,0.0,1.0,0.67,0.33,1.0,,stimuli/P_36_00_18_09.png,,,,,0,163,163,201,,,,,,,,,,,,,,,,,,,,,,,,,,,,806.7867402353149,None,806.7867402353149,None,807.2598050760771,None,807.2598050760771,None,100,807.2598050760771,None,return,1.816052210302587,807.2598050760771,None,,,YAOYAO,F,002,2023_Apr_18_1927,untitled,2021.1.4,60.58085194354634,
18,9,36,0,27,54,63,0.86,0.33,0.67,1.0,-0.33,#NAME?,,stimuli/P_18_09_36_00.png,,,,,0,164,164,156,,,,,,,,,,,,,,,,,,,,,,,,,,,,809.1153045771625,None,809.1153045771625,None,809.730771287519,None,809.730771287519,None,80,809.730771287519,None,return,4.218624951217862,809.730771287519,None,,,YAOYAO,F,002,2023_Apr_18_1927,untitled,2021.1.4,60.58085194354634,
0,0,36,0,0,36,36,1.0,None,None,1.0,None,None,,stimuli/P_00_00_36_00.png,,,,,0,165,165,12,,,,,,,,,,,,,,,,,,,,,,,,,,,,813.9758125717508,None,813.9758125717508,None,814.5703737710592,None,814.5703737710592,None,40,814.5703737710592,None,None,,814.5703737710592,None,,,YAOYAO,F,002,2023_Apr_18_1927,untitled,2021.1.4,60.58085194354634,
36,9,9,36,45,45,90,0.9,0.2,0.8,0.2,0.6,0.75,,stimuli/P_36_09_09_36.png,,,,,0,166,166,215,,,,,,,,,,,,,,,,,,,,,,,,,,,,822.6088243693575,None,822.6088243693575,None,823.1278309309164,None,823.1278309309164,None,85,823.1278309309164,None,return,3.565136015527969,823.1278309309164,None,,,YAOYAO,F,002,2023_Apr_18_1927,untitled,2021.1.4,60.58085194354634,
0,0,9,0,0,9,9,1.0,None,None,1.0,None,None,,stimuli/P_00_00_09_00.png,,,,,0,167,167,4,,,,,,,,,,,,,,,,,,,,,,,,,,,,826.7294548797527,None,826.7294548797527,None,827.3570940952795,None,827.3570940952795,None,,827.3570940952795,None,None,,827.3570940952795,None,,,YAOYAO,F,002,2023_Apr_18_1927,untitled,2021.1.4,60.58085194354634,
36,36,9,18,72,45,99,0.64,0.5,0.5,0.33,0.17,0.25,,stimuli/P_36_36_09_18.png,,,,,0,168,168,246,,,,,,,,,,,,,,,,,,,,,,,,,,,,835.3888210015393,None,835.3888210015393,None,835.990576932485,None,835.990576932485,None,50,835.990576932485,None,return,2.378440494841925,835.990576932485,None,,,YAOYAO,F,002,2023_Apr_18_1927,untitled,2021.1.4,60.58085194354634,
18,18,9,9,36,27,54,0.67,0.5,0.5,0.5,0.0,0.0,,stimuli/P_18_18_09_09.png,,,,,0,169,169,165,,,,,,,,,,,,,,,,,,,,,,,,,,,,838.4089408777036,None,838.4089408777036,None,839.0365453910363,None,839.0365453910363,None,50,839.0365453910363,None,return,1.5449598194118153,839.0365453910363,None,,,YAOYAO,F,002,2023_Apr_18_1927,untitled,2021.1.4,60.58085194354634,
36,9,36,0,45,72,81,0.89,0.2,0.8,1.0,-0.2,#NAME?,,stimuli/P_36_09_36_00.png,,,,,0,170,170,220,,,,,,,,,,,,,,,,,,,,,,,,,,,,840.5994013018444,None,840.5994013018444,None,841.2084606221124,None,841.2084606221124,None,85,841.2084606221124,None,return,4.027351585549695,841.2084606221124,None,,,YAOYAO,F,002,2023_Apr_18_1927,untitled,2021.1.4,60.58085194354634,
36,0,36,36,36,72,108,1.0,0.0,1.0,0.5,0.5,1.0,,stimuli/P_36_00_36_36.png,,,,,0,171,171,207,,,,,,,,,,,,,,,,,,,,,,,,,,,,845.257800313344,None,845.257800313344,None,845.7480398950047,None,845.7480398950047,None,100,845.7480398950047,None,return,1.6999784960189572,845.7480398950047,None,,,YAOYAO,F,002,2023_Apr_18_1927,untitled,2021.1.4,60.58085194354634,
36,36,9,0,72,45,81,0.56,0.5,0.5,1.0,-0.5,#NAME?,,stimuli/P_36_36_09_00.png,,,,,0,172,172,244,,,,,,,,,,,,,,,,,,,,,,,,,,,,847.4878889347783,None,847.4878889347783,None,848.0884945733724,None,848.0884945733724,None,50,848.0884945733724,None,return,1.7370916376821697,848.0884945733724,None,,,YAOYAO,F,002,2023_Apr_18_1927,untitled,2021.1.4,60.58085194354634,
18,36,36,0,54,54,90,0.6,0.67,0.33,1.0,-0.67,#NAME?,,stimuli/P_18_36_36_00.png,,,,,0,173,173,188,,,,,,,,,,,,,,,,,,,,,,,,,,,,849.8594578265947,None,849.8594578265947,None,850.3546922484402,None,850.3546922484402,None,40,850.3546922484402,None,return,5.091357788707683,850.3546922484402,None,,,YAOYAO,F,002,2023_Apr_18_1927,untitled,2021.1.4,60.58085194354634,
9,36,18,9,45,27,72,0.5,0.8,0.2,0.67,-0.47,-1.4,,stimuli/P_09_36_18_09.png,,,,,0,174,174,121,,,,,,,,,,,,,,,,,,,,,,,,,,,,855.4861458607102,None,855.4861458607102,None,855.979663946242,None,855.979663946242,None,20,855.979663946242,None,return,4.091618339596607,855.979663946242,None,,,YAOYAO,F,002,2023_Apr_18_1927,untitled,2021.1.4,60.58085194354634,
18,36,9,18,54,27,81,0.56,0.67,0.33,0.33,0.0,0.0,,stimuli/P_18_36_09_18.png,,,,,0,175,175,182,,,,,,,,,,,,,,,,,,,,,,,,,,,,860.1017542242807,None,860.1017542242807,None,860.5819472367384,None,860.5819472367384,None,40,860.5819472367384,None,return,3.315585152922722,860.5819472367384,None,,,YAOYAO,F,002,2023_Apr_18_1927,untitled,2021.1.4,60.58085194354634,
9,18,36,36,27,45,99,0.82,0.67,0.33,0.5,-0.17,-0.33,,stimuli/P_09_18_36_36.png,,,,,0,176,176,111,,,,,,,,,,,,,,,,,,,,,,,,,,,,863.9316440761067,None,863.9316440761067,None,864.5276405808581,None,864.5276405808581,None,20,864.5276405808581,None,return,2.120748839182852,864.5276405808581,None,,,YAOYAO,F,002,2023_Apr_18_1927,untitled,2021.1.4,60.58085194354634,
18,36,0,9,54,18,63,0.43,0.67,0.33,0.0,0.33,0.33,,stimuli/P_18_36_00_09.png,,,,,0,177,177,177,,,,,,,,,,,,,,,,,,,,,,,,,,,,866.6855514861072,None,866.6855514861072,None,867.2848606280295,None,867.2848606280295,None,60,867.2848606280295,None,return,5.185724428181857,867.2848606280295,None,,,YAOYAO,F,002,2023_Apr_18_1927,untitled,2021.1.4,60.58085194354634,
0,9,36,18,9,36,63,0.86,1.0,0.0,0.67,-0.67,-2.0,,stimuli/P_00_09_36_18.png,,,,,0,178,178,30,,,,,,,,,,,,,,,,,,,,,,,,,,,,872.5128056779613,None,872.5128056779613,None,873.1397064763387,None,873.1397064763387,None,0,873.1397064763387,None,return,2.3907808220883453,873.1397064763387,None,,,YAOYAO,F,002,2023_Apr_18_1927,untitled,2021.1.4,60.58085194354634,
9,36,0,18,45,9,63,0.43,0.8,0.2,0.0,0.2,0.2,,stimuli/P_09_36_00_18.png,,,,,0,179,179,114,,,,,,,,,,,,,,,,,,,,,,,,,,,,875.5662516056873,None,875.5662516056873,None,876.1901401399682,None,876.1901401399682,None,20,876.1901401399682,None,return,2.92908749162234,876.1901401399682,None,,,YAOYAO,F,002,2023_Apr_18_1927,untitled,2021.1.4,60.58085194354634,
9,18,9,0,27,18,36,0.5,0.67,0.33,1.0,-0.67,#NAME?,,stimuli/P_09_18_09_00.png,,,,,0,180,180,100,,,,,,,,,,,,,,,,,,,,,,,,,,,,879.1504340049632,None,879.1504340049632,None,879.7690142415522,None,879.7690142415522,None,25,879.7690142415522,None,return,5.965366073998666,879.7690142415522,None,,,YAOYAO,F,002,2023_Apr_18_1927,untitled,2021.1.4,60.58085194354634,
36,36,9,9,72,45,90,0.6,0.5,0.5,0.5,0.0,0.0,,stimuli/P_36_36_09_09.png,,,,,0,181,181,245,,,,,,,,,,,,,,,,,,,,,,,,,,,,885.7733099178859,None,885.7733099178859,None,886.4206764765786,None,886.4206764765786,None,50,886.4206764765786,None,return,1.9656294693304517,886.4206764765786,None,,,YAOYAO,F,002,2023_Apr_18_1927,untitled,2021.1.4,60.58085194354634,
0,18,18,36,18,18,72,0.75,1.0,0.0,0.33,-0.33,-0.5,,stimuli/P_00_18_18_36.png,,,,,0,182,182,43,,,,,,,,,,,,,,,,,,,,,,,,,,,,888.4148982770639,None,888.4148982770639,None,889.0354690541772,None,889.0354690541772,None,0,889.0354690541772,None,return,1.7029788134568662,889.0354690541772,None,,,YAOYAO,F,002,2023_Apr_18_1927,untitled,2021.1.4,60.58085194354634,
9,0,0,0,9,9,9,1.0,0.0,1.0,None,None,None,,stimuli/P_09_00_00_00.png,,,,,0,183,183,64,,,,,,,,,,,,,,,,,,,,,,,,,,,,890.7669053722402,None,890.7669053722402,None,891.2514640343052,None,891.2514640343052,None,100,891.2514640343052,None,return,2.0214391283716395,891.2514640343052,None,,,YAOYAO,F,002,2023_Apr_18_1927,untitled,2021.1.4,60.58085194354634,
36,9,18,18,45,54,81,0.89,0.2,0.8,0.5,0.3,0.6,,stimuli/P_36_09_18_18.png,,,,,0,184,184,218,,,,,,,,,,,,,,,,,,,,,,,,,,,,893.3104577617414,None,893.3104577617414,None,893.9301234374052,None,893.9301234374052,None,75,893.9301234374052,None,return,6.136780114391513,893.9301234374052,None,,,YAOYAO,F,002,2023_Apr_18_1927,untitled,2021.1.4,60.58085194354634,
9,9,18,18,18,27,54,0.83,0.5,0.5,0.5,0.0,0.0,,stimuli/P_09_09_18_18.png,,,,,0,185,185,90,,,,,,,,,,,,,,,,,,,,,,,,,,,,900.0941680974211,None,900.0941680974211,None,900.7115855261127,None,900.7115855261127,None,50,900.7115855261127,None,return,1.8703935683752206,900.7115855261127,None,,,YAOYAO,F,002,2023_Apr_18_1927,untitled,2021.1.4,60.58085194354634,
0,18,0,0,18,0,18,0.0,1.0,0.0,None,None,None,,stimuli/P_00_18_00_00.png,,,,,0,186,186,32,,,,,,,,,,,,,,,,,,,,,,,,,,,,902.6181950991395,None,902.6181950991395,None,903.2170440103437,None,903.2170440103437,None,0,903.2170440103437,None,return,1.8047916332434397,903.2170440103437,None,,,YAOYAO,F,002,2023_Apr_18_1927,untitled,2021.1.4,60.58085194354634,
36,9,36,18,45,72,99,0.91,0.2,0.8,0.67,0.13,0.4,,stimuli/P_36_09_36_18.png,,,,,0,187,187,222,,,,,,,,,,,,,,,,,,,,,,,,,,,,905.0625947910303,None,905.0625947910303,None,905.7177539830718,None,905.7177539830718,None,80,905.7177539830718,None,return,3.933500927856585,905.7177539830718,None,,,YAOYAO,F,002,2023_Apr_18_1927,untitled,2021.1.4,60.58085194354634,
18,0,0,0,18,18,18,1.0,0.0,1.0,None,None,None,,stimuli/P_18_00_00_00.png,,,,,0,188,188,128,,,,,,,,,,,,,,,,,,,,,,,,,,,,909.6857790414688,None,909.6857790414688,None,910.294355944372,None,910.294355944372,None,100,910.294355944372,None,return,1.7398661064253247,910.294355944372,None,,,YAOYAO,F,002,2023_Apr_18_1927,untitled,2021.1.4,60.58085194354634,
36,36,18,18,72,54,108,0.67,0.5,0.5,0.5,0.0,0.0,,stimuli/P_36_36_18_18.png,,,,,0,189,189,250,,,,,,,,,,,,,,,,,,,,,,,,,,,,912.0533025678487,None,912.0533025678487,None,912.6630252119958,None,912.6630252119958,None,50,912.6630252119958,None,return,2.121692625043579,912.6630252119958,None,,,YAOYAO,F,002,2023_Apr_18_1927,untitled,2021.1.4,60.58085194354634,
0,18,9,9,18,9,36,0.5,1.0,0.0,0.5,-0.5,-1.0,,stimuli/P_00_18_09_09.png,,,,,0,190,190,37,,,,,,,,,,,,,,,,,,,,,,,,,,,,914.808104270418,None,914.808104270418,None,915.4315576050703,None,915.4315576050703,None,0,915.4315576050703,None,return,4.369521462453122,915.4315576050703,None,,,YAOYAO,F,002,2023_Apr_18_1927,untitled,2021.1.4,60.58085194354634,
9,0,18,36,9,27,63,1.0,0.0,1.0,0.33,0.67,1.0,,stimuli/P_09_00_18_36.png,,,,,0,191,191,75,,,,,,,,,,,,,,,,,,,,,,,,,,,,919.8230296265701,None,919.8230296265701,None,920.2986106607405,None,920.2986106607405,None,100,920.2986106607405,None,return,1.531616541909898,920.2986106607405,None,,,YAOYAO,F,002,2023_Apr_18_1927,untitled,2021.1.4,60.58085194354634,
36,36,18,9,72,54,99,0.64,0.5,0.5,0.67,-0.17,-0.5,,stimuli/P_36_36_18_09.png,,,,,0,192,192,249,,,,,,,,,,,,,,,,,,,,,,,,,,,,921.8551831991317,None,921.8551831991317,None,922.483322467564,None,922.483322467564,None,50,922.483322467564,None,return,1.7236209291768319,922.483322467564,None,,,YAOYAO,F,002,2023_Apr_18_1927,untitled,2021.1.4,60.58085194354634,
9,9,36,18,18,45,72,0.88,0.5,0.5,0.67,-0.17,-0.5,,stimuli/P_09_09_36_18.png,,,,,0,193,193,94,,,,,,,,,,,,,,,,,,,,,,,,,,,,924.2428004328103,None,924.2428004328103,None,924.8592479067738,None,924.8592479067738,None,50,924.8592479067738,None,return,1.4858102165526361,924.8592479067738,None,,,YAOYAO,F,002,2023_Apr_18_1927,untitled,2021.1.4,60.58085194354634,
18,9,36,36,27,54,99,0.91,0.33,0.67,0.5,0.17,0.33,,stimuli/P_18_09_36_36.png,,,,,0,194,194,159,,,,,,,,,,,,,,,,,,,,,,,,,,,,926.3772498114122,None,926.3772498114122,None,926.8786765835284,None,926.8786765835284,None,60,926.8786765835284,None,return,3.602841938907659,926.8786765835284,None,,,YAOYAO,F,002,2023_Apr_18_1927,untitled,2021.1.4,60.58085194354634,
9,0,9,0,9,18,18,1.0,0.0,1.0,1.0,0.0,None,,stimuli/P_09_00_09_00.png,,,,,0,195,195,68,,,,,,,,,,,,,,,,,,,,,,,,,,,,930.5152137825717,None,930.5152137825717,None,931.118738956453,None,931.118738956453,None,100,931.118738956453,None,return,3.548067087873278,931.118738956453,None,,,YAOYAO,F,002,2023_Apr_18_1927,untitled,2021.1.4,60.58085194354634,
0,0,36,9,0,36,45,1.0,None,None,0.8,None,None,,stimuli/P_00_00_36_09.png,,,,,0,196,196,13,,,,,,,,,,,,,,,,,,,,,,,,,,,,934.6850724820706,None,934.6850724820706,None,935.2858214805437,None,935.2858214805437,None,50,935.2858214805437,None,return,4.236467567103318,935.2858214805437,None,,,YAOYAO,F,002,2023_Apr_18_1927,untitled,2021.1.4,60.58085194354634,
18,9,0,9,27,18,36,0.75,0.33,0.67,0.0,0.67,0.67,,stimuli/P_18_09_00_09.png,,,,,0,197,197,145,,,,,,,,,,,,,,,,,,,,,,,,,,,,939.5447373840452,None,939.5447373840452,None,940.0229427004215,None,940.0229427004215,None,70,940.0229427004215,None,return,4.114844346444443,940.0229427004215,None,,,YAOYAO,F,002,2023_Apr_18_1927,untitled,2021.1.4,60.58085194354634,
18,36,0,36,54,18,90,0.6,0.67,0.33,0.0,0.33,0.33,,stimuli/P_18_36_00_36.png,,,,,0,198,198,179,,,,,,,,,,,,,,,,,,,,,,,,,,,,944.1588245400253,None,944.1588245400253,None,944.7681728556036,None,944.7681728556036,None,35,944.7681728556036,None,return,5.359037418065782,944.7681728556036,None,,,YAOYAO,F,002,2023_Apr_18_1927,untitled,2021.1.4,60.58085194354634,
9,18,36,18,27,45,81,0.78,0.67,0.33,0.67,-0.33,-1.0,,stimuli/P_09_18_36_18.png,,,,,0,199,199,110,,,,,,,,,,,,,,,,,,,,,,,,,,,,950.1669403019878,None,950.1669403019878,None,950.7799812721933,None,950.7799812721933,None,35,950.7799812721933,None,return,2.516409017109254,950.7799812721933,None,,,YAOYAO,F,002,2023_Apr_18_1927,untitled,2021.1.4,60.58085194354634,
0,18,9,36,18,9,63,0.71,1.0,0.0,0.2,-0.2,-0.25,,stimuli/P_00_18_09_36.png,,,,,0,200,200,39,,,,,,,,,,,,,,,,,,,,,,,,,,,,953.3318752723553,None,953.3318752723553,None,953.9510699084203,None,953.9510699084203,None,0,953.9510699084203,None,return,1.6856271482647571,953.9510699084203,None,,,YAOYAO,F,002,2023_Apr_18_1927,untitled,2021.1.4,60.58085194354634,
0,9,9,36,9,9,54,0.83,1.0,0.0,0.2,-0.2,-0.25,,stimuli/P_00_09_09_36.png,,,,,0,201,201,23,,,,,,,,,,,,,,,,,,,,,,,,,,,,955.6643956641601,None,955.6643956641601,None,956.2936488160849,None,956.2936488160849,None,0,956.2936488160849,None,return,1.6961242770848912,956.2936488160849,None,,,YAOYAO,F,002,2023_Apr_18_1927,untitled,2021.1.4,60.58085194354634,
9,9,9,36,18,18,63,0.86,0.5,0.5,0.2,0.3,0.37,,stimuli/P_09_09_09_36.png,,,,,0,202,202,87,,,,,,,,,,,,,,,,,,,,,,,,,,,,958.0237687263834,None,958.0237687263834,None,958.6240512363638,None,958.6240512363638,None,50,958.6240512363638,None,return,1.7341891690484772,958.6240512363638,None,,,YAOYAO,F,002,2023_Apr_18_1927,untitled,2021.1.4,60.58085194354634,
18,36,18,9,54,36,81,0.56,0.67,0.33,0.67,-0.33,-1.0,,stimuli/P_18_36_18_09.png,,,,,0,203,203,185,,,,,,,,,,,,,,,,,,,,,,,,,,,,960.3818373274989,None,960.3818373274989,None,960.9827939702373,None,960.9827939702373,None,30,960.9827939702373,None,return,4.446617787774812,960.9827939702373,None,,,YAOYAO,F,002,2023_Apr_18_1927,untitled,2021.1.4,60.58085194354634,
36,9,0,18,45,36,63,0.86,0.2,0.8,0.0,0.8,0.8,,stimuli/P_36_09_00_18.png,,,,,0,204,204,210,,,,,,,,,,,,,,,,,,,,,,,,,,,,965.4522913118217,None,965.4522913118217,None,966.0458336319989,None,966.0458336319989,None,70,966.0458336319989,None,return,2.3113224721164443,966.0458336319989,None,,,YAOYAO,F,002,2023_Apr_18_1927,untitled,2021.1.4,60.58085194354634,
18,0,18,18,18,36,54,1.0,0.0,1.0,0.5,0.5,1.0,,stimuli/P_18_00_18_18.png,,,,,0,205,205,138,,,,,,,,,,,,,,,,,,,,,,,,,,,,968.3926934249012,None,968.3926934249012,None,968.9946734978785,None,968.9946734978785,None,100,968.9946734978785,None,return,2.406471333144509,968.9946734978785,None,,,YAOYAO,F,002,2023_Apr_18_1927,untitled,2021.1.4,60.58085194354634,
9,0,0,36,9,9,45,1.0,0.0,1.0,0.0,1.0,1.0,,stimuli/P_09_00_00_36.png,,,,,0,206,206,67,,,,,,,,,,,,,,,,,,,,,,,,,,,,971.4414858454875,None,971.4414858454875,None,972.0303905873989,None,972.0303905873989,None,100,972.0303905873989,None,return,1.658271580497967,972.0303905873989,None,,,YAOYAO,F,002,2023_Apr_18_1927,untitled,2021.1.4,60.58085194354634,
36,36,18,0,72,54,90,0.6,0.5,0.5,1.0,-0.5,#NAME?,,stimuli/P_36_36_18_00.png,,,,,0,207,207,248,,,,,,,,,,,,,,,,,,,,,,,,,,,,973.7100660251872,None,973.7100660251872,None,974.3210555838104,None,974.3210555838104,None,50,974.3210555838104,None,return,1.8805772396863176,974.3210555838104,None,,,YAOYAO,F,002,2023_Apr_18_1927,untitled,2021.1.4,60.58085194354634,
18,36,0,0,54,18,54,0.33,0.67,0.33,None,None,None,,stimuli/P_18_36_00_00.png,,,,,0,208,208,176,,,,,,,,,,,,,,,,,,,,,,,,,,,,976.2319295443085,None,976.2319295443085,None,976.8425385165883,None,976.8425385165883,None,35,976.8425385165883,None,return,4.251858842857473,976.8425385165883,None,,,YAOYAO,F,002,2023_Apr_18_1927,untitled,2021.1.4,60.58085194354634,
9,18,0,9,27,9,36,0.5,0.67,0.33,0.0,0.33,0.33,,stimuli/P_09_18_00_09.png,,,,,0,209,209,97,,,,,,,,,,,,,,,,,,,,,,,,,,,,981.1270208338301,None,981.1270208338301,None,981.7246489105219,None,981.7246489105219,None,30,981.7246489105219,None,return,5.126089563513233,981.7246489105219,None,,,YAOYAO,F,002,2023_Apr_18_1927,untitled,2021.1.4,60.58085194354634,
0,9,36,36,9,36,81,0.89,1.0,0.0,0.5,-0.5,-1.0,,stimuli/P_00_09_36_36.png,,,,,0,210,210,31,,,,,,,,,,,,,,,,,,,,,,,,,,,,986.8713760386472,None,986.8713760386472,None,987.4717325041202,None,987.4717325041202,None,0,987.4717325041202,None,return,2.7740779172308976,987.4717325041202,None,,,YAOYAO,F,002,2023_Apr_18_1927,untitled,2021.1.4,60.58085194354634,
18,36,36,36,54,54,126,0.71,0.67,0.33,0.5,-0.17,-0.33,,stimuli/P_18_36_36_36.png,,,,,0,211,211,191,,,,,,,,,,,,,,,,,,,,,,,,,,,,990.2762578975926,None,990.2762578975926,None,990.8797569026065,None,990.8797569026065,None,35,990.8797569026065,None,return,4.0047166537533485,990.8797569026065,None,,,YAOYAO,F,002,2023_Apr_18_1927,untitled,2021.1.4,60.58085194354634,
18,18,0,9,36,18,45,0.6,0.5,0.5,0.0,0.5,0.5,,stimuli/P_18_18_00_09.png,,,,,0,212,212,161,,,,,,,,,,,,,,,,,,,,,,,,,,,,994.9109115071333,None,994.9109115071333,None,995.4808881940862,None,995.4808881940862,None,50,995.4808881940862,None,return,1.79959654434424,995.4808881940862,None,,,YAOYAO,F,002,2023_Apr_18_1927,untitled,2021.1.4,60.58085194354634,
18,9,36,18,27,54,81,0.89,0.33,0.67,0.67,0.0,0.0,,stimuli/P_18_09_36_18.png,,,,,0,213,213,158,,,,,,,,,,,,,,,,,,,,,,,,,,,,997.3209423750177,None,997.3209423750177,None,997.8000510861784,None,997.8000510861784,None,75,997.8000510861784,None,return,5.739524773383891,997.8000510861784,None,,,YAOYAO,F,002,2023_Apr_18_1927,untitled,2021.1.4,60.58085194354634,
9,9,0,18,18,9,36,0.75,0.5,0.5,0.0,0.5,0.5,,stimuli/P_09_09_00_18.png,,,,,0,214,214,82,,,,,,,,,,,,,,,,,,,,,,,,,,,,1003.5785640574031,None,1003.5785640574031,None,1004.0985200937066,None,1004.0985200937066,None,50,1004.0985200937066,None,return,2.2840266376297222,1004.0985200937066,None,,,YAOYAO,F,002,2023_Apr_18_1927,untitled,2021.1.4,60.58085194354634,
0,0,18,18,0,18,36,1.0,None,None,0.5,None,None,,stimuli/P_00_00_18_18.png,,,,,0,215,215,10,,,,,,,,,,,,,,,,,,,,,,,,,,,,1006.4116715420405,None,1006.4116715420405,None,1006.8996924589283,None,1006.8996924589283,None,50,1006.8996924589283,None,return,2.4234168120165123,1006.8996924589283,None,,,YAOYAO,F,002,2023_Apr_18_1927,untitled,2021.1.4,60.58085194354634,
36,9,18,0,45,54,63,0.86,0.2,0.8,1.0,-0.2,#NAME?,,stimuli/P_36_09_18_00.png,,,,,0,216,216,216,,,,,,,,,,,,,,,,,,,,,,,,,,,,1009.35681932218,None,1009.35681932218,None,1009.8561639627387,None,1009.8561639627387,None,85,1009.8561639627387,None,return,5.068583479254812,1009.8561639627387,None,,,YAOYAO,F,002,2023_Apr_18_1927,untitled,2021.1.4,60.58085194354634,
9,0,36,0,9,45,45,1.0,0.0,1.0,1.0,0.0,None,,stimuli/P_09_00_36_00.png,,,,,0,217,217,76,,,,,,,,,,,,,,,,,,,,,,,,,,,,1014.9596288344492,None,1014.9596288344492,None,1015.4482157952989,None,1015.4482157952989,None,100,1015.4482157952989,None,return,1.8926223138514615,1015.4482157952989,None,,,YAOYAO,F,002,2023_Apr_18_1927,untitled,2021.1.4,60.58085194354634,
36,18,18,36,54,54,108,0.83,0.33,0.67,0.33,0.33,0.5,,stimuli/P_36_18_18_36.png,,,,,0,218,218,235,,,,,,,,,,,,,,,,,,,,,,,,,,,,1017.3771212426345,None,1017.3771212426345,None,1017.966536846332,None,1017.966536846332,None,85,1017.966536846332,None,return,2.3779432863775583,1017.966536846332,None,,,YAOYAO,F,002,2023_Apr_18_1927,untitled,2021.1.4,60.58085194354634,
9,9,18,36,18,27,72,0.88,0.5,0.5,0.33,0.17,0.25,,stimuli/P_09_09_18_36.png,,,,,0,219,219,91,,,,,,,,,,,,,,,,,,,,,,,,,,,,1020.3812559235503,None,1020.3812559235503,None,1020.9821312152471,None,1020.9821312152471,None,50,1020.9821312152471,None,return,1.8860340172504948,1020.9821312152471,None,,,YAOYAO,F,002,2023_Apr_18_1927,untitled,2021.1.4,60.58085194354634,
18,0,36,36,18,54,90,1.0,0.0,1.0,0.5,0.5,1.0,,stimuli/P_18_00_36_36.png,,,,,0,220,220,143,,,,,,,,,,,,,,,,,,,,,,,,,,,,1022.8954576536526,None,1022.8954576536526,None,1023.3982855979066,None,1023.3982855979066,None,100,1023.3982855979066,None,return,5.156927297199218,1023.3982855979066,None,,,YAOYAO,F,002,2023_Apr_18_1927,untitled,2021.1.4,60.58085194354634,
9,0,36,18,9,45,63,1.0,0.0,1.0,0.67,0.33,1.0,,stimuli/P_09_00_36_18.png,,,,,0,221,221,78,,,,,,,,,,,,,,,,,,,,,,,,,,,,1028.5776231159834,None,1028.5776231159834,None,1029.1945069273534,None,1029.1945069273534,None,100,1029.1945069273534,None,return,1.3708481102094083,1029.1945069273534,None,,,YAOYAO,F,002,2023_Apr_18_1927,untitled,2021.1.4,60.58085194354634,
9,18,9,36,27,18,72,0.75,0.67,0.33,0.2,0.13,0.17,,stimuli/P_09_18_09_36.png,,,,,0,222,222,103,,,,,,,,,,,,,,,,,,,,,,,,,,,,1030.5942841506549,None,1030.5942841506549,None,1031.1982695552542,None,1031.1982695552542,None,30,1031.1982695552542,None,return,4.9353071485384135,1031.1982695552542,None,,,YAOYAO,F,002,2023_Apr_18_1927,untitled,2021.1.4,60.58085194354634,
9,36,18,0,45,27,63,0.43,0.8,0.2,1.0,-0.8,#NAME?,,stimuli/P_09_36_18_00.png,,,,,0,223,223,120,,,,,,,,,,,,,,,,,,,,,,,,,,,,1036.1681981142483,None,1036.1681981142483,None,1036.7693641079204,None,1036.7693641079204,None,20,1036.7693641079204,None,return,5.245708021440805,1036.7693641079204,None,,,YAOYAO,F,002,2023_Apr_18_1927,untitled,2021.1.4,60.58085194354634,
18,18,0,18,36,18,54,0.67,0.5,0.5,0.0,0.5,0.5,,stimuli/P_18_18_00_18.png,,,,,0,224,224,162,,,,,,,,,,,,,,,,,,,,,,,,,,,,1042.0341759708353,None,1042.0341759708353,None,1042.648438344444,None,1042.648438344444,None,50,1042.648438344444,None,return,1.5957245760928345,1042.648438344444,None,,,YAOYAO,F,002,2023_Apr_18_1927,untitled,2021.1.4,60.58085194354634,
9,18,0,18,27,9,45,0.6,0.67,0.33,0.0,0.33,0.33,,stimuli/P_09_18_00_18.png,,,,,0,225,225,98,,,,,,,,,,,,,,,,,,,,,,,,,,,,1044.2723297231678,None,1044.2723297231678,None,1044.7910324983186,None,1044.7910324983186,None,40,1044.7910324983186,None,return,6.109278342304606,1044.7910324983186,None,,,YAOYAO,F,002,2023_Apr_18_1927,untitled,2021.1.4,60.58085194354634,
18,9,9,9,27,27,45,0.8,0.33,0.67,0.5,0.17,0.33,,stimuli/P_18_09_09_09.png,,,,,0,226,226,149,,,,,,,,,,,,,,,,,,,,,,,,,,,,1050.9336215321982,None,1050.9336215321982,None,1051.5382264562686,None,1051.5382264562686,None,70,1051.5382264562686,None,return,4.206204979594986,1051.5382264562686,None,,,YAOYAO,F,002,2023_Apr_18_1927,untitled,2021.1.4,60.58085194354634,
9,18,36,0,27,45,63,0.71,0.67,0.33,1.0,-0.67,#NAME?,,stimuli/P_09_18_36_00.png,,,,,0,227,227,108,,,,,,,,,,,,,,,,,,,,,,,,,,,,1055.7769781103107,None,1055.7769781103107,None,1056.3671759355657,None,1056.3671759355657,None,35,1056.3671759355657,None,return,6.120611737078434,1056.3671759355657,None,,,YAOYAO,F,002,2023_Apr_18_1927,untitled,2021.1.4,60.58085194354634,
36,18,9,18,54,45,81,0.78,0.33,0.67,0.33,0.33,0.5,,stimuli/P_36_18_09_18.png,,,,,0,228,228,230,,,,,,,,,,,,,,,,,,,,,,,,,,,,1062.523892175166,None,1062.523892175166,None,1063.1264149676808,None,1063.1264149676808,None,80,1063.1264149676808,None,return,3.6359449862156907,1063.1264149676808,None,,,YAOYAO,F,002,2023_Apr_18_1927,untitled,2021.1.4,60.58085194354634,
18,18,9,0,36,27,45,0.6,0.5,0.5,1.0,-0.5,#NAME?,,stimuli/P_18_18_09_00.png,,,,,0,229,229,164,,,,,,,,,,,,,,,,,,,,,,,,,,,,1066.8055573570346,None,1066.8055573570346,None,1067.418027732172,None,1067.418027732172,None,50,1067.418027732172,None,return,1.5778802535405703,1067.418027732172,None,,,YAOYAO,F,002,2023_Apr_18_1927,untitled,2021.1.4,60.58085194354634,
0,9,9,18,9,9,36,0.75,1.0,0.0,0.33,-0.33,-0.5,,stimuli/P_00_09_09_18.png,,,,,0,230,230,22,,,,,,,,,,,,,,,,,,,,,,,,,,,,1069.0240571528047,None,1069.0240571528047,None,1069.629282165235,None,1069.629282165235,None,0,1069.629282165235,None,return,1.5470703953888005,1069.629282165235,None,,,YAOYAO,F,002,2023_Apr_18_1927,untitled,2021.1.4,60.58085194354634,
0,36,36,36,36,36,108,0.67,1.0,0.0,0.5,-0.5,-1.0,,stimuli/P_00_36_36_36.png,,,,,0,231,231,63,,,,,,,,,,,,,,,,,,,,,,,,,,,,1071.194673042768,None,1071.194673042768,None,1071.6706625388124,None,1071.6706625388124,None,0,1071.6706625388124,None,return,1.6167603625872289,1071.6706625388124,None,,,YAOYAO,F,002,2023_Apr_18_1927,untitled,2021.1.4,60.58085194354634,
0,9,0,18,9,0,27,0.67,1.0,0.0,0.0,0.0,0.0,,stimuli/P_00_09_00_18.png,,,,,0,232,232,18,,,,,,,,,,,,,,,,,,,,,,,,,,,,1073.3201709623427,None,1073.3201709623427,None,1073.92112817397,None,1073.92112817397,None,0,1073.92112817397,None,return,2.421079818455837,1073.92112817397,None,,,YAOYAO,F,002,2023_Apr_18_1927,untitled,2021.1.4,60.58085194354634,
36,0,0,18,36,36,54,1.0,0.0,1.0,0.0,1.0,1.0,,stimuli/P_36_00_00_18.png,,,,,0,233,233,194,,,,,,,,,,,,,,,,,,,,,,,,,,,,1076.3742955739344,None,1076.3742955739344,None,1076.8743080894783,None,1076.8743080894783,None,100,1076.8743080894783,None,return,2.4920901756377134,1076.8743080894783,None,,,YAOYAO,F,002,2023_Apr_18_1927,untitled,2021.1.4,60.58085194354634,
0,0,36,18,0,36,54,1.0,None,None,0.67,None,None,,stimuli/P_00_00_36_18.png,,,,,0,234,234,14,,,,,,,,,,,,,,,,,,,,,,,,,,,,1079.3914799859358,None,1079.3914799859358,None,1079.9960530522567,None,1079.9960530522567,None,50,1079.9960530522567,None,return,2.1201367152625608,1079.9960530522567,None,,,YAOYAO,F,002,2023_Apr_18_1927,untitled,2021.1.4,60.58085194354634,
0,36,0,9,36,0,45,0.2,1.0,0.0,0.0,0.0,0.0,,stimuli/P_00_36_00_09.png,,,,,0,235,235,49,,,,,,,,,,,,,,,,,,,,,,,,,,,,1082.150247978454,None,1082.150247978454,None,1082.7725134741213,None,1082.7725134741213,None,0,1082.7725134741213,None,return,1.7133502179403877,1082.7725134741213,None,,,YAOYAO,F,002,2023_Apr_18_1927,untitled,2021.1.4,60.58085194354634,
9,18,36,9,27,45,72,0.75,0.67,0.33,0.8,-0.47,-2.33,,stimuli/P_09_18_36_09.png,,,,,0,236,236,109,,,,,,,,,,,,,,,,,,,,,,,,,,,,1084.518691397383,None,1084.518691397383,None,1085.1146566132702,None,1085.1146566132702,None,35,1085.1146566132702,None,return,7.123392463594428,1085.1146566132702,None,,,YAOYAO,F,002,2023_Apr_18_1927,untitled,2021.1.4,60.58085194354634,
18,9,18,36,27,36,81,0.89,0.33,0.67,0.33,0.33,0.5,,stimuli/P_18_09_18_36.png,,,,,0,237,237,155,,,,,,,,,,,,,,,,,,,,,,,,,,,,1092.278350838029,None,1092.278350838029,None,1092.765165142615,None,1092.765165142615,None,65,1092.765165142615,None,return,5.49378432530284,1092.765165142615,None,,,YAOYAO,F,002,2023_Apr_18_1927,untitled,2021.1.4,60.58085194354634,
9,18,18,18,27,27,63,0.71,0.67,0.33,0.5,-0.17,-0.33,,stimuli/P_09_18_18_18.png,,,,,0,238,238,106,,,,,,,,,,,,,,,,,,,,,,,,,,,,1098.294257526677,None,1098.294257526677,None,1098.9215263958522,None,1098.9215263958522,None,30,1098.9215263958522,None,return,4.03294375855512,1098.9215263958522,None,,,YAOYAO,F,002,2023_Apr_18_1927,untitled,2021.1.4,60.58085194354634,
18,0,18,36,18,36,72,1.0,0.0,1.0,0.33,0.67,1.0,,stimuli/P_18_00_18_36.png,,,,,0,239,239,139,,,,,,,,,,,,,,,,,,,,,,,,,,,,1102.9916379093575,None,1102.9916379093575,None,1103.5922520812783,None,1103.5922520812783,None,100,1103.5922520812783,None,return,1.900098645248363,1103.5922520812783,None,,,YAOYAO,F,002,2023_Apr_18_1927,untitled,2021.1.4,60.58085194354634,
0,36,18,36,36,18,90,0.6,1.0,0.0,0.33,-0.33,-0.5,,stimuli/P_00_36_18_36.png,,,,,0,240,240,59,,,,,,,,,,,,,,,,,,,,,,,,,,,,1105.527138821286,None,1105.527138821286,None,1106.1263831099295,None,1106.1263831099295,None,0,1106.1263831099295,None,return,1.9719446994949976,1106.1263831099295,None,,,YAOYAO,F,002,2023_Apr_18_1927,untitled,2021.1.4,60.58085194354634,
9,0,36,36,9,45,81,1.0,0.0,1.0,0.5,0.5,1.0,,stimuli/P_09_00_36_36.png,,,,,0,241,241,79,,,,,,,,,,,,,,,,,,,,,,,,,,,,1108.1387956860053,None,1108.1387956860053,None,1108.7507404082571,None,1108.7507404082571,None,100,1108.7507404082571,None,return,1.2758329379557836,1108.7507404082571,None,,,YAOYAO,F,002,2023_Apr_18_1927,untitled,2021.1.4,60.58085194354634,
18,9,18,9,27,36,54,0.83,0.33,0.67,0.67,0.0,0.0,,stimuli/P_18_09_18_09.png,,,,,0,242,242,153,,,,,,,,,,,,,,,,,,,,,,,,,,,,1110.0585300833864,None,1110.0585300833864,None,1110.6715721913697,None,1110.6715721913697,None,60,1110.6715721913697,None,return,2.144307076856421,1110.6715721913697,None,,,YAOYAO,F,002,2023_Apr_18_1927,untitled,2021.1.4,60.58085194354634,
36,18,18,0,54,54,72,0.75,0.33,0.67,1.0,-0.33,#NAME?,,stimuli/P_36_18_18_00.png,,,,,0,243,243,232,,,,,,,,,,,,,,,,,,,,,,,,,,,,1112.8459222648125,None,1112.8459222648125,None,1113.4706743716906,None,1113.4706743716906,None,80,1113.4706743716906,None,return,5.147903589344423,1113.4706743716906,None,,,YAOYAO,F,002,2023_Apr_18_1927,untitled,2021.1.4,60.58085194354634,
9,18,18,9,27,27,54,0.67,0.67,0.33,0.67,-0.33,-1.0,,stimuli/P_09_18_18_09.png,,,,,0,244,244,105,,,,,,,,,,,,,,,,,,,,,,,,,,,,1118.6414324837551,None,1118.6414324837551,None,1119.245392857265,None,1119.245392857265,None,40,1119.245392857265,None,return,2.1059566029180132,1119.245392857265,None,,,YAOYAO,F,002,2023_Apr_18_1927,untitled,2021.1.4,60.58085194354634,
36,36,18,36,72,54,126,0.71,0.5,0.5,0.33,0.17,0.25,,stimuli/P_36_36_18_36.png,,,,,0,245,245,251,,,,,,,,,,,,,,,,,,,,,,,,,,,,1121.3762906655647,None,1121.3762906655647,None,1121.9901377506376,None,1121.9901377506376,None,50,1121.9901377506376,None,return,1.7146780034745461,1121.9901377506376,None,,,YAOYAO,F,002,2023_Apr_18_1927,untitled,2021.1.4,60.58085194354634,
36,0,0,0,36,36,36,1.0,0.0,1.0,None,None,None,,stimuli/P_36_00_00_00.png,,,,,0,246,246,192,,,,,,,,,,,,,,,,,,,,,,,,,,,,1123.7239281289148,None,1123.7239281289148,None,1124.3483076138873,None,1124.3483076138873,None,100,1124.3483076138873,None,return,1.9118786174203706,1124.3483076138873,None,,,YAOYAO,F,002,2023_Apr_18_1927,untitled,2021.1.4,60.58085194354634,
9,36,9,0,45,18,54,0.33,0.8,0.2,1.0,-0.8,#NAME?,,stimuli/P_09_36_09_00.png,,,,,0,247,247,116,,,,,,,,,,,,,,,,,,,,,,,,,,,,1126.2862868312568,None,1126.2862868312568,None,1126.8670229045838,None,1126.8670229045838,None,30,1126.8670229045838,None,return,2.354295164335781,1126.8670229045838,None,,,YAOYAO,F,002,2023_Apr_18_1927,untitled,2021.1.4,60.58085194354634,
0,18,18,18,18,18,54,0.67,1.0,0.0,0.5,-0.5,-1.0,,stimuli/P_00_18_18_18.png,,,,,0,248,248,42,,,,,,,,,,,,,,,,,,,,,,,,,,,,1129.2600058936841,None,1129.2600058936841,None,1129.8732499570488,None,1129.8732499570488,None,0,1129.8732499570488,None,return,1.5805728023569827,1129.8732499570488,None,,,YAOYAO,F,002,2023_Apr_18_1927,untitled,2021.1.4,60.58085194354634,
0,18,36,9,18,36,63,0.71,1.0,0.0,0.8,-0.8,-4.0,,stimuli/P_00_18_36_09.png,,,,,0,249,249,45,,,,,,,,,,,,,,,,,,,,,,,,,,,,1131.4930954014471,None,1131.4930954014471,None,1132.1052307013142,None,1132.1052307013142,None,0,1132.1052307013142,None,return,0.8653884882023704,1132.1052307013142,None,,,YAOYAO,F,002,2023_Apr_18_1927,untitled,2021.1.4,60.58085194354634,
18,18,36,9,36,54,81,0.78,0.5,0.5,0.8,-0.3,-1.5,,stimuli/P_18_18_36_09.png,,,,,0,250,250,173,,,,,,,,,,,,,,,,,,,,,,,,,,,,1132.9964706163446,None,1132.9964706163446,None,1133.4692868528746,None,1133.4692868528746,None,50,1133.4692868528746,None,return,1.563861705504678,1133.4692868528746,None,,,YAOYAO,F,002,2023_Apr_18_1927,untitled,2021.1.4,60.58085194354634,
36,36,36,0,72,72,108,0.67,0.5,0.5,1.0,-0.5,#NAME?,,stimuli/P_36_36_36_00.png,,,,,0,251,251,252,,,,,,,,,,,,,,,,,,,,,,,,,,,,1135.063227394934,None,1135.063227394934,None,1135.6611433291564,None,1135.6611433291564,None,50,1135.6611433291564,None,return,1.345508114056429,1135.6611433291564,None,,,YAOYAO,F,002,2023_Apr_18_1927,untitled,2021.1.4,60.58085194354634,
9,9,36,0,18,45,54,0.83,0.5,0.5,1.0,-0.5,#NAME?,,stimuli/P_09_09_36_00.png,,,,,0,252,252,92,,,,,,,,,,,,,,,,,,,,,,,,,,,,1137.0313542843542,None,1137.0313542843542,None,1137.64458412551,None,1137.64458412551,None,50,1137.64458412551,None,return,0.9374467378220288,1137.64458412551,None,,,YAOYAO,F,002,2023_Apr_18_1927,untitled,2021.1.4,60.58085194354634,
18,36,18,0,54,36,72,0.5,0.67,0.33,1.0,-0.67,#NAME?,,stimuli/P_18_36_18_00.png,,,,,0,253,253,184,,,,,,,,,,,,,,,,,,,,,,,,,,,,1138.600405389876,None,1138.600405389876,None,1139.0829365336722,None,1139.0829365336722,None,35,1139.0829365336722,None,return,4.424337273454512,1139.0829365336722,None,,,YAOYAO,F,002,2023_Apr_18_1927,untitled,2021.1.4,60.58085194354634,
9,0,9,36,9,18,54,1.0,0.0,1.0,0.2,0.8,1.0,,stimuli/P_09_00_09_36.png,,,,,0,254,254,71,,,,,,,,,,,,,,,,,,,,,,,,,,,,1143.529255655034,None,1143.529255655034,None,1144.1238202676723,None,1144.1238202676723,None,100,1144.1238202676723,None,return,1.6327597800445801,1144.1238202676723,None,,,YAOYAO,F,002,2023_Apr_18_1927,untitled,2021.1.4,60.58085194354634,
0,36,18,0,36,18,54,0.33,1.0,0.0,1.0,-1.0,#NAME?,,stimuli/P_00_36_18_00.png,,,,,0,255,255,56,,,,,,,,,,,,,,,,,,,,,,,,,,,,1145.7785892022694,None,1145.7785892022694,None,1146.2649466894673,None,1146.2649466894673,None,0,1146.2649466894673,None,return,1.4586429508453875,1146.2649466894673,None,,,YAOYAO,F,002,2023_Apr_18_1927,untitled,2021.1.4,60.58085194354634,
,,,,,,,,,,,,,,,,,,,,,,,,,,,,,,,,,,,,,,,,,,,,,,,,,,,,,,,,,,,,,,,,,1147.759248703218,None,,,,,,,,
