A1C1,A1C0,A0C1,A0C0,A1,C1,Total,MI,C0GvA1,C1GvA1,C1GvA0,dltP,dltPp,Image_practice,Image,trials_2.thisRepN,trials_2.thisTrialN,trials_2.thisN,trials_2.thisIndex,trials.thisRepN,trials.thisTrialN,trials.thisN,trials.thisIndex,image.started,image.stopped,key_resp.keys,key_resp.rt,key_resp.started,key_resp.stopped,betweenTrial.started,betweenTrial.stopped,ISI.started,ISI.stopped,image_card.started,image_card.stopped,textbox.text,textbox.started,textbox.stopped,key_resp_3.keys,key_resp_3.rt,key_resp_3.started,key_resp_3.stopped,text_2.started,text_2.stopped,key_resp_2.keys,key_resp_2.rt,key_resp_2.started,key_resp_2.stopped,image_endPractice.started,image_endPractice.stopped,polygon_2.started,polygon_2.stopped,ISI_2.started,ISI_2.stopped,Cards.started,Cards.stopped,TextNote.started,TextNote.stopped,Estimation.text,Estimation.started,Estimation.stopped,key_resp_4.keys,key_resp_4.rt,key_resp_4.started,key_resp_4.stopped,text.started,text.stopped,participant,gender,session,date,expName,psychopyVersion,frameRate,
,,,,,,,,,,,,,,,,,,,,,,,1641.3497687000781,None,space,95.63629779964685,1641.3497687000781,None,,,,,,,,,,,,,,,,,,,,,,,,,,,,,,,,,,,,,,,YEERASILI,M,001,2023_Apr_18_1601,untitled,2021.1.4,48.04696296045182,
0,0,0,9,0,0,9,1.0,None,None,0.0,None,None,practice_stimuli/P_00_00_00_09.png,,0,0,0,0,,,,,,,,,,,1737.1440945006907,None,1737.1440945006907,None,1739.850850701332,None,0,1739.850850701332,None,return,7.743549298495054,1739.850850701332,None,1739.850850701332,None,,,,,,,,,,,,,,,,,,,,,,,,YEERASILI,M,001,2023_Apr_18_1601,untitled,2021.1.4,48.04696296045182,
18,0,36,0,18,54,54,1.0,0.0,1.0,1.0,0.0,None,practice_stimuli/P_18_00_36_00.png,,0,1,1,1,,,,,,,,,,,1747.6580266002566,None,1747.6580266002566,None,1748.0410633999854,None,,1748.0410633999854,None,None,,1748.0410633999854,None,1748.0410633999854,None,,,,,,,,,,,,,,,,,,,,,,,,YEERASILI,M,001,2023_Apr_18_1601,untitled,2021.1.4,48.04696296045182,
9,18,18,0,27,27,45,0.6,0.67,0.33,1.0,-0.67,#NAME?,practice_stimuli/P_09_18_18_00.png,,0,2,2,2,,,,,,,,,,,1756.0634239017963,None,1756.0634239017963,None,1756.4578187000006,None,30,1756.4578187000006,None,return,5.739955300465226,1756.4578187000006,None,1756.4578187000006,None,,,,,,,,,,,,,,,,,,,,,,,,YEERASILI,M,001,2023_Apr_18_1601,untitled,2021.1.4,48.04696296045182,
36,18,18,36,54,54,108,0.83,0.33,0.67,0.33,0.33,0.5,practice_stimuli/P_36_18_18_36.png,,0,3,3,3,,,,,,,,,,,1762.2291215006262,None,1762.2291215006262,None,1762.607292599976,None,100,1762.607292599976,None,None,,1762.607292599976,None,1762.607292599976,None,,,,,,,,,,,,,,,,,,,,,,,,YEERASILI,M,001,2023_Apr_18_1601,untitled,2021.1.4,48.04696296045182,
,,,,,,,,,,,,,,,,,,,,,,,,,,,,,,,,,,,,,,,,,,,,space,45.482980500906706,1770.6220515016466,None,,,,,,,,,,,,,,,,,,,,YEERASILI,M,001,2023_Apr_18_1601,untitled,2021.1.4,48.04696296045182,
18,36,36,18,54,54,108,0.67,0.67,0.33,0.67,-0.33,-1.0,,stimuli/P_18_36_36_18.png,,,,,0,0,0,190,,,,,,,,,,,,,,,,,,,,,,,,,,1770.6220515016466,None,1823.0471569001675,None,1823.0471569001675,None,1823.8393383007497,None,1823.8393383007497,None,50,1823.8393383007497,None,return,3.908846899867058,1823.8393383007497,None,,,YEERASILI,M,001,2023_Apr_18_1601,untitled,2021.1.4,48.04696296045182,
9,36,36,0,45,45,81,0.56,0.8,0.2,1.0,-0.8,#NAME?,,stimuli/P_09_36_36_00.png,,,,,0,1,1,124,,,,,,,,,,,,,,,,,,,,,,,,,,,,1827.7664165012538,None,1827.7664165012538,None,1828.1570287011564,None,1828.1570287011564,None,15,1828.1570287011564,None,return,2.818868700414896,1828.1570287011564,None,,,YEERASILI,M,001,2023_Apr_18_1601,untitled,2021.1.4,48.04696296045182,
9,0,18,0,9,27,27,1.0,0.0,1.0,1.0,0.0,None,,stimuli/P_09_00_18_00.png,,,,,0,2,2,72,,,,,,,,,,,,,,,,,,,,,,,,,,,,1830.9953905008733,None,1830.9953905008733,None,1831.3736636005342,None,1831.3736636005342,None,20,1831.3736636005342,None,return,2.700782099738717,1831.3736636005342,None,,,YEERASILI,M,001,2023_Apr_18_1601,untitled,2021.1.4,48.04696296045182,
0,0,0,36,0,0,36,1.0,None,None,0.0,None,None,,stimuli/P_00_00_00_36.png,,,,,0,3,3,3,,,,,,,,,,,,,,,,,,,,,,,,,,,,1834.106740200892,None,1834.106740200892,None,1834.486348701641,None,1834.486348701641,None,0,1834.486348701641,None,return,2.231064198538661,1834.486348701641,None,,,YEERASILI,M,001,2023_Apr_18_1601,untitled,2021.1.4,48.04696296045182,
36,9,18,0,45,54,63,0.86,0.2,0.8,1.0,-0.2,#NAME?,,stimuli/P_36_09_18_00.png,,,,,0,4,4,216,,,,,,,,,,,,,,,,,,,,,,,,,,,,1836.7524423003197,None,1836.7524423003197,None,1837.1214844007045,None,1837.1214844007045,None,100,1837.1214844007045,None,return,2.9264555014669895,1837.1214844007045,None,,,YEERASILI,M,001,2023_Apr_18_1601,untitled,2021.1.4,48.04696296045182,
0,18,36,36,18,36,90,0.8,1.0,0.0,0.5,-0.5,-1.0,,stimuli/P_00_18_36_36.png,,,,,0,5,5,47,,,,,,,,,,,,,,,,,,,,,,,,,,,,1840.082780001685,None,1840.082780001685,None,1840.4916776008904,None,1840.4916776008904,None,50,1840.4916776008904,None,return,3.732584100216627,1840.4916776008904,None,,,YEERASILI,M,001,2023_Apr_18_1601,untitled,2021.1.4,48.04696296045182,
9,0,18,18,9,27,45,1.0,0.0,1.0,0.5,0.5,1.0,,stimuli/P_09_00_18_18.png,,,,,0,6,6,74,,,,,,,,,,,,,,,,,,,,,,,,,,,,1844.2401705011725,None,1844.2401705011725,None,1844.618324900046,None,1844.618324900046,None,20,1844.618324900046,None,return,4.356350800022483,1844.618324900046,None,,,YEERASILI,M,001,2023_Apr_18_1601,untitled,2021.1.4,48.04696296045182,
9,0,0,0,9,9,9,1.0,0.0,1.0,None,None,None,,stimuli/P_09_00_00_00.png,,,,,0,7,7,64,,,,,,,,,,,,,,,,,,,,,,,,,,,,1849.012028099969,None,1849.012028099969,None,1849.4282998014241,None,1849.4282998014241,None,100,1849.4282998014241,None,return,2.743537800386548,1849.4282998014241,None,,,YEERASILI,M,001,2023_Apr_18_1601,untitled,2021.1.4,48.04696296045182,
18,36,18,0,54,36,72,0.5,0.67,0.33,1.0,-0.67,#NAME?,,stimuli/P_18_36_18_00.png,,,,,0,8,8,184,,,,,,,,,,,,,,,,,,,,,,,,,,,,1852.2062993012369,None,1852.2062993012369,None,1852.5873207002878,None,1852.5873207002878,None,25,1852.5873207002878,None,return,3.888612700626254,1852.5873207002878,None,,,YEERASILI,M,001,2023_Apr_18_1601,untitled,2021.1.4,48.04696296045182,
36,36,18,18,72,54,108,0.67,0.5,0.5,0.5,0.0,0.0,,stimuli/P_36_36_18_18.png,,,,,0,9,9,250,,,,,,,,,,,,,,,,,,,,,,,,,,,,1856.5141758006066,None,1856.5141758006066,None,1856.8924895003438,None,1856.8924895003438,None,50,1856.8924895003438,None,return,4.043546600267291,1856.8924895003438,None,,,YEERASILI,M,001,2023_Apr_18_1601,untitled,2021.1.4,48.04696296045182,
36,36,9,0,72,45,81,0.56,0.5,0.5,1.0,-0.5,#NAME?,,stimuli/P_36_36_09_00.png,,,,,0,10,10,244,,,,,,,,,,,,,,,,,,,,,,,,,,,,1860.9725120011717,None,1860.9725120011717,None,1861.3488327004015,None,1861.3488327004015,None,50,1861.3488327004015,None,return,4.436718000099063,1861.3488327004015,None,,,YEERASILI,M,001,2023_Apr_18_1601,untitled,2021.1.4,48.04696296045182,
0,9,0,36,9,0,45,0.8,1.0,0.0,0.0,0.0,0.0,,stimuli/P_00_09_00_36.png,,,,,0,11,11,19,,,,,,,,,,,,,,,,,,,,,,,,,,,,1865.808070100844,None,1865.808070100844,None,1866.188283700496,None,1866.188283700496,None,10,1866.188283700496,None,return,2.9188970010727644,1866.188283700496,None,,,YEERASILI,M,001,2023_Apr_18_1601,untitled,2021.1.4,48.04696296045182,
36,9,9,9,45,45,63,0.86,0.2,0.8,0.5,0.3,0.6,,stimuli/P_36_09_09_09.png,,,,,0,12,12,213,,,,,,,,,,,,,,,,,,,,,,,,,,,,1869.1398767009377,None,1869.1398767009377,None,1869.5302965007722,None,1869.5302965007722,None,50,1869.5302965007722,None,return,5.10329470038414,1869.5302965007722,None,,,YEERASILI,M,001,2023_Apr_18_1601,untitled,2021.1.4,48.04696296045182,
0,18,0,0,18,0,18,0.0,1.0,0.0,None,None,None,,stimuli/P_00_18_00_00.png,,,,,0,13,13,32,,,,,,,,,,,,,,,,,,,,,,,,,,,,1874.6659355014563,None,1874.6659355014563,None,1875.0557741001248,None,1875.0557741001248,None,50,1875.0557741001248,None,return,2.957463899627328,1875.0557741001248,None,,,YEERASILI,M,001,2023_Apr_18_1601,untitled,2021.1.4,48.04696296045182,
36,36,0,9,72,36,81,0.56,0.5,0.5,0.0,0.5,0.5,,stimuli/P_36_36_00_09.png,,,,,0,14,14,241,,,,,,,,,,,,,,,,,,,,,,,,,,,,1878.0438741017133,None,1878.0438741017133,None,1878.4118788000196,None,1878.4118788000196,None,40,1878.4118788000196,None,return,3.5420814994722605,1878.4118788000196,None,,,YEERASILI,M,001,2023_Apr_18_1601,untitled,2021.1.4,48.04696296045182,
0,18,9,36,18,9,63,0.71,1.0,0.0,0.2,-0.2,-0.25,,stimuli/P_00_18_09_36.png,,,,,0,15,15,39,,,,,,,,,,,,,,,,,,,,,,,,,,,,1881.9713264014572,None,1881.9713264014572,None,1882.3440278004855,None,1882.3440278004855,None,50,1882.3440278004855,None,return,5.218709800392389,1882.3440278004855,None,,,YEERASILI,M,001,2023_Apr_18_1601,untitled,2021.1.4,48.04696296045182,
9,9,36,0,18,45,54,0.83,0.5,0.5,1.0,-0.5,#NAME?,,stimuli/P_09_09_36_00.png,,,,,0,16,16,92,,,,,,,,,,,,,,,,,,,,,,,,,,,,1887.5835578013211,None,1887.5835578013211,None,1887.9580656010658,None,1887.9580656010658,None,10,1887.9580656010658,None,return,4.281117798760533,1887.9580656010658,None,,,YEERASILI,M,001,2023_Apr_18_1601,untitled,2021.1.4,48.04696296045182,
36,0,9,0,36,45,45,1.0,0.0,1.0,1.0,0.0,None,,stimuli/P_36_00_09_00.png,,,,,0,17,17,196,,,,,,,,,,,,,,,,,,,,,,,,,,,,1892.2687796000391,None,1892.2687796000391,None,1892.6396960001439,None,1892.6396960001439,None,80,1892.6396960001439,None,return,3.793360499665141,1892.6396960001439,None,,,YEERASILI,M,001,2023_Apr_18_1601,untitled,2021.1.4,48.04696296045182,
0,18,9,18,18,9,45,0.6,1.0,0.0,0.33,-0.33,-0.5,,stimuli/P_00_18_09_18.png,,,,,0,18,18,38,,,,,,,,,,,,,,,,,,,,,,,,,,,,1896.456576000899,None,1896.456576000899,None,1896.8420432005078,None,1896.8420432005078,None,50,1896.8420432005078,None,return,3.925568800419569,1896.8420432005078,None,,,YEERASILI,M,001,2023_Apr_18_1601,untitled,2021.1.4,48.04696296045182,
9,36,36,9,45,45,90,0.6,0.8,0.2,0.8,-0.6,-3.0,,stimuli/P_09_36_36_09.png,,,,,0,19,19,125,,,,,,,,,,,,,,,,,,,,,,,,,,,,1900.8044699002057,None,1900.8044699002057,None,1901.2153243999928,None,1901.2153243999928,None,50,1901.2153243999928,None,return,2.9267878998070955,1901.2153243999928,None,,,YEERASILI,M,001,2023_Apr_18_1601,untitled,2021.1.4,48.04696296045182,
0,36,18,18,36,18,72,0.5,1.0,0.0,0.5,-0.5,-1.0,,stimuli/P_00_36_18_18.png,,,,,0,20,20,58,,,,,,,,,,,,,,,,,,,,,,,,,,,,1904.1788653004915,None,1904.1788653004915,None,1904.594176100567,None,1904.594176100567,None,50,1904.594176100567,None,return,4.478944199159741,1904.594176100567,None,,,YEERASILI,M,001,2023_Apr_18_1601,untitled,2021.1.4,48.04696296045182,
18,0,18,0,18,36,36,1.0,0.0,1.0,1.0,0.0,None,,stimuli/P_18_00_18_00.png,,,,,0,21,21,136,,,,,,,,,,,,,,,,,,,,,,,,,,,,1909.1042543016374,None,1909.1042543016374,None,1909.4851800017059,None,1909.4851800017059,None,50,1909.4851800017059,None,return,3.4864937998354435,1909.4851800017059,None,,,YEERASILI,M,001,2023_Apr_18_1601,untitled,2021.1.4,48.04696296045182,
18,18,9,0,36,27,45,0.6,0.5,0.5,1.0,-0.5,#NAME?,,stimuli/P_18_18_09_00.png,,,,,0,22,22,164,,,,,,,,,,,,,,,,,,,,,,,,,,,,1912.9964097011834,None,1912.9964097011834,None,1913.3790848013014,None,1913.3790848013014,None,30,1913.3790848013014,None,return,3.8422522991895676,1913.3790848013014,None,,,YEERASILI,M,001,2023_Apr_18_1601,untitled,2021.1.4,48.04696296045182,
0,9,9,36,9,9,54,0.83,1.0,0.0,0.2,-0.2,-0.25,,stimuli/P_00_09_09_36.png,,,,,0,23,23,23,,,,,,,,,,,,,,,,,,,,,,,,,,,,1917.264111701399,None,1917.264111701399,None,1917.6401333007962,None,1917.6401333007962,None,25,1917.6401333007962,None,return,3.6019754987210035,1917.6401333007962,None,,,YEERASILI,M,001,2023_Apr_18_1601,untitled,2021.1.4,48.04696296045182,
9,18,0,0,27,9,27,0.33,0.67,0.33,None,None,None,,stimuli/P_09_18_00_00.png,,,,,0,24,24,96,,,,,,,,,,,,,,,,,,,,,,,,,,,,1921.2719178013504,None,1921.2719178013504,None,1921.6532918009907,None,1921.6532918009907,None,50,1921.6532918009907,None,return,3.4480020999908447,1921.6532918009907,None,,,YEERASILI,M,001,2023_Apr_18_1601,untitled,2021.1.4,48.04696296045182,
36,0,36,36,36,72,108,1.0,0.0,1.0,0.5,0.5,1.0,,stimuli/P_36_00_36_36.png,,,,,0,25,25,207,,,,,,,,,,,,,,,,,,,,,,,,,,,,1925.1212096009403,None,1925.1212096009403,None,1925.5150581002235,None,1925.5150581002235,None,40,1925.5150581002235,None,return,3.5425305999815464,1925.5150581002235,None,,,YEERASILI,M,001,2023_Apr_18_1601,untitled,2021.1.4,48.04696296045182,
18,36,0,18,54,18,72,0.5,0.67,0.33,0.0,0.33,0.33,,stimuli/P_18_36_00_18.png,,,,,0,26,26,178,,,,,,,,,,,,,,,,,,,,,,,,,,,,1929.0795758012682,None,1929.0795758012682,None,1929.4567278008908,None,1929.4567278008908,None,50,1929.4567278008908,None,None,,1929.4567278008908,None,,,YEERASILI,M,001,2023_Apr_18_1601,untitled,2021.1.4,48.04696296045182,
9,18,9,0,27,18,36,0.5,0.67,0.33,1.0,-0.67,#NAME?,,stimuli/P_09_18_09_00.png,,,,,0,27,27,100,,,,,,,,,,,,,,,,,,,,,,,,,,,,1937.4637639001012,None,1937.4637639001012,None,1937.8782590012997,None,1937.8782590012997,None,30,1937.8782590012997,None,return,3.922147300094366,1937.8782590012997,None,,,YEERASILI,M,001,2023_Apr_18_1601,untitled,2021.1.4,48.04696296045182,
36,9,36,9,45,72,90,0.9,0.2,0.8,0.8,0.0,0.0,,stimuli/P_36_09_36_09.png,,,,,0,28,28,221,,,,,,,,,,,,,,,,,,,,,,,,,,,,1941.819086400792,None,1941.819086400792,None,1942.2008746005595,None,1942.2008746005595,None,50,1942.2008746005595,None,return,2.9757857006043196,1942.2008746005595,None,,,YEERASILI,M,001,2023_Apr_18_1601,untitled,2021.1.4,48.04696296045182,
0,0,9,18,0,9,27,1.0,None,None,0.33,None,None,,stimuli/P_00_00_09_18.png,,,,,0,29,29,6,,,,,,,,,,,,,,,,,,,,,,,,,,,,1945.2066344004124,None,1945.2066344004124,None,1945.574453201145,None,1945.574453201145,None,50,1945.574453201145,None,return,2.8991730995476246,1945.574453201145,None,,,YEERASILI,M,001,2023_Apr_18_1601,untitled,2021.1.4,48.04696296045182,
0,36,0,0,36,0,36,0.0,1.0,0.0,None,None,None,,stimuli/P_00_36_00_00.png,,,,,0,30,30,48,,,,,,,,,,,,,,,,,,,,,,,,,,,,1948.4987712018192,None,1948.4987712018192,None,1948.86768040061,None,1948.86768040061,None,25,1948.86768040061,None,return,5.049543200060725,1948.86768040061,None,,,YEERASILI,M,001,2023_Apr_18_1601,untitled,2021.1.4,48.04696296045182,
18,18,9,36,36,27,81,0.78,0.5,0.5,0.2,0.3,0.37,,stimuli/P_18_18_09_36.png,,,,,0,31,31,167,,,,,,,,,,,,,,,,,,,,,,,,,,,,1953.9341440014541,None,1953.9341440014541,None,1954.3149506002665,None,1954.3149506002665,None,30,1954.3149506002665,None,return,4.874888001009822,1954.3149506002665,None,,,YEERASILI,M,001,2023_Apr_18_1601,untitled,2021.1.4,48.04696296045182,
0,36,18,9,36,18,63,0.43,1.0,0.0,0.67,-0.67,-2.0,,stimuli/P_00_36_18_09.png,,,,,0,32,32,57,,,,,,,,,,,,,,,,,,,,,,,,,,,,1959.2271741013974,None,1959.2271741013974,None,1959.6245313007385,None,1959.6245313007385,None,35,1959.6245313007385,None,return,4.277337299659848,1959.6245313007385,None,,,YEERASILI,M,001,2023_Apr_18_1601,untitled,2021.1.4,48.04696296045182,
9,0,9,9,9,18,27,1.0,0.0,1.0,0.5,0.5,1.0,,stimuli/P_09_00_09_09.png,,,,,0,33,33,69,,,,,,,,,,,,,,,,,,,,,,,,,,,,1963.934195401147,None,1963.934195401147,None,1964.311413001269,None,1964.311413001269,None,35,1964.311413001269,None,return,3.167661899700761,1964.311413001269,None,,,YEERASILI,M,001,2023_Apr_18_1601,untitled,2021.1.4,48.04696296045182,
9,36,0,9,45,9,54,0.33,0.8,0.2,0.0,0.2,0.2,,stimuli/P_09_36_00_09.png,,,,,0,34,34,113,,,,,,,,,,,,,,,,,,,,,,,,,,,,1967.4993599001318,None,1967.4993599001318,None,1967.8783689010888,None,1967.8783689010888,None,20,1967.8783689010888,None,return,3.444419600069523,1967.8783689010888,None,,,YEERASILI,M,001,2023_Apr_18_1601,untitled,2021.1.4,48.04696296045182,
0,0,9,9,0,9,18,1.0,None,None,0.5,None,None,,stimuli/P_00_00_09_09.png,,,,,0,35,35,5,,,,,,,,,,,,,,,,,,,,,,,,,,,,1971.3465953003615,None,1971.3465953003615,None,1971.736380301416,None,1971.736380301416,None,25,1971.736380301416,None,return,4.369988199323416,1971.736380301416,None,,,YEERASILI,M,001,2023_Apr_18_1601,untitled,2021.1.4,48.04696296045182,
0,9,0,9,9,0,18,0.5,1.0,0.0,0.0,0.0,0.0,,stimuli/P_00_09_00_09.png,,,,,0,36,36,17,,,,,,,,,,,,,,,,,,,,,,,,,,,,1976.1256593000144,None,1976.1256593000144,None,1976.511650601402,None,1976.511650601402,None,25,1976.511650601402,None,return,2.244071900844574,1976.511650601402,None,,,YEERASILI,M,001,2023_Apr_18_1601,untitled,2021.1.4,48.04696296045182,
18,18,36,9,36,54,81,0.78,0.5,0.5,0.8,-0.3,-1.5,,stimuli/P_18_18_36_09.png,,,,,0,37,37,173,,,,,,,,,,,,,,,,,,,,,,,,,,,,1978.7852166015655,None,1978.7852166015655,None,1979.1624619010836,None,1979.1624619010836,None,25,1979.1624619010836,None,return,3.3555599991232157,1979.1624619010836,None,,,YEERASILI,M,001,2023_Apr_18_1601,untitled,2021.1.4,48.04696296045182,
9,9,9,18,18,18,45,0.8,0.5,0.5,0.33,0.17,0.25,,stimuli/P_09_09_09_18.png,,,,,0,38,38,86,,,,,,,,,,,,,,,,,,,,,,,,,,,,1982.558378200978,None,1982.558378200978,None,1982.9267146009952,None,1982.9267146009952,None,30,1982.9267146009952,None,return,4.036574300378561,1982.9267146009952,None,,,YEERASILI,M,001,2023_Apr_18_1601,untitled,2021.1.4,48.04696296045182,
36,0,18,0,36,54,54,1.0,0.0,1.0,1.0,0.0,None,,stimuli/P_36_00_18_00.png,,,,,0,39,39,200,,,,,,,,,,,,,,,,,,,,,,,,,,,,1986.978697501123,None,1986.978697501123,None,1987.3589239008725,None,1987.3589239008725,None,70,1987.3589239008725,None,return,2.7023913003504276,1987.3589239008725,None,,,YEERASILI,M,001,2023_Apr_18_1601,untitled,2021.1.4,48.04696296045182,
9,36,18,18,45,27,81,0.56,0.8,0.2,0.5,-0.3,-0.6,,stimuli/P_09_36_18_18.png,,,,,0,40,40,122,,,,,,,,,,,,,,,,,,,,,,,,,,,,1990.076749701053,None,1990.076749701053,None,1990.4524768013507,None,1990.4524768013507,None,25,1990.4524768013507,None,return,3.686691800132394,1990.4524768013507,None,,,YEERASILI,M,001,2023_Apr_18_1601,untitled,2021.1.4,48.04696296045182,
9,36,9,36,45,18,90,0.6,0.8,0.2,0.2,0.0,0.0,,stimuli/P_09_36_09_36.png,,,,,0,41,41,119,,,,,,,,,,,,,,,,,,,,,,,,,,,,1994.1606371011585,None,1994.1606371011585,None,1994.5421168003231,None,1994.5421168003231,None,25,1994.5421168003231,None,return,2.9850420989096165,1994.5421168003231,None,,,YEERASILI,M,001,2023_Apr_18_1601,untitled,2021.1.4,48.04696296045182,
18,0,0,0,18,18,18,1.0,0.0,1.0,None,None,None,,stimuli/P_18_00_00_00.png,,,,,0,42,42,128,,,,,,,,,,,,,,,,,,,,,,,,,,,,1997.5611554011703,None,1997.5611554011703,None,1997.9564259015024,None,1997.9564259015024,None,50,1997.9564259015024,None,return,3.164878400042653,1997.9564259015024,None,,,YEERASILI,M,001,2023_Apr_18_1601,untitled,2021.1.4,48.04696296045182,
36,9,36,18,45,72,99,0.91,0.2,0.8,0.67,0.13,0.4,,stimuli/P_36_09_36_18.png,,,,,0,43,43,222,,,,,,,,,,,,,,,,,,,,,,,,,,,,2001.140980700031,None,2001.140980700031,None,2001.5656180009246,None,2001.5656180009246,None,50,2001.5656180009246,None,return,2.3642436005175114,2001.5656180009246,None,,,YEERASILI,M,001,2023_Apr_18_1601,untitled,2021.1.4,48.04696296045182,
18,9,0,18,27,18,45,0.8,0.33,0.67,0.0,0.67,0.67,,stimuli/P_18_09_00_18.png,,,,,0,44,44,146,,,,,,,,,,,,,,,,,,,,,,,,,,,,2003.9486376009881,None,2003.9486376009881,None,2004.3223968017846,None,2004.3223968017846,None,35,2004.3223968017846,None,return,5.427558399736881,2004.3223968017846,None,,,YEERASILI,M,001,2023_Apr_18_1601,untitled,2021.1.4,48.04696296045182,
9,0,0,18,9,9,27,1.0,0.0,1.0,0.0,1.0,1.0,,stimuli/P_09_00_00_18.png,,,,,0,45,45,66,,,,,,,,,,,,,,,,,,,,,,,,,,,,2009.7658707015216,None,2009.7658707015216,None,2010.1353720016778,None,2010.1353720016778,None,20,2010.1353720016778,None,return,4.881943499669433,2010.1353720016778,None,,,YEERASILI,M,001,2023_Apr_18_1601,untitled,2021.1.4,48.04696296045182,
9,0,36,36,9,45,81,1.0,0.0,1.0,0.5,0.5,1.0,,stimuli/P_09_00_36_36.png,,,,,0,46,46,79,,,,,,,,,,,,,,,,,,,,,,,,,,,,2015.042211100459,None,2015.042211100459,None,2015.410656100139,None,2015.410656100139,None,10,2015.410656100139,None,return,2.4450300000607967,2015.410656100139,None,,,YEERASILI,M,001,2023_Apr_18_1601,untitled,2021.1.4,48.04696296045182,
18,0,0,36,18,18,54,1.0,0.0,1.0,0.0,1.0,1.0,,stimuli/P_18_00_00_36.png,,,,,0,47,47,131,,,,,,,,,,,,,,,,,,,,,,,,,,,,2017.8897001016885,None,2017.8897001016885,None,2018.2642245013267,None,2018.2642245013267,None,25,2018.2642245013267,None,return,3.621630100533366,2018.2642245013267,None,,,YEERASILI,M,001,2023_Apr_18_1601,untitled,2021.1.4,48.04696296045182,
9,0,0,36,9,9,45,1.0,0.0,1.0,0.0,1.0,1.0,,stimuli/P_09_00_00_36.png,,,,,0,48,48,67,,,,,,,,,,,,,,,,,,,,,,,,,,,,2021.9159805011004,None,2021.9159805011004,None,2022.2984710000455,None,2022.2984710000455,None,20,2022.2984710000455,None,return,2.2955978997051716,2022.2984710000455,None,,,YEERASILI,M,001,2023_Apr_18_1601,untitled,2021.1.4,48.04696296045182,
0,9,36,18,9,36,63,0.86,1.0,0.0,0.67,-0.67,-2.0,,stimuli/P_00_09_36_18.png,,,,,0,49,49,30,,,,,,,,,,,,,,,,,,,,,,,,,,,,2024.61773510091,None,2024.61773510091,None,2025.0101502016187,None,2025.0101502016187,None,25,2025.0101502016187,None,return,2.4651526995003223,2025.0101502016187,None,,,YEERASILI,M,001,2023_Apr_18_1601,untitled,2021.1.4,48.04696296045182,
0,0,36,36,0,36,72,1.0,None,None,0.5,None,None,,stimuli/P_00_00_36_36.png,,,,,0,50,50,15,,,,,,,,,,,,,,,,,,,,,,,,,,,,2027.496007900685,None,2027.496007900685,None,2027.8687646016479,None,2027.8687646016479,None,25,2027.8687646016479,None,return,2.1230188999325037,2027.8687646016479,None,,,YEERASILI,M,001,2023_Apr_18_1601,untitled,2021.1.4,48.04696296045182,
36,18,0,36,54,36,90,0.8,0.33,0.67,0.0,0.67,0.67,,stimuli/P_36_18_00_36.png,,,,,0,51,51,227,,,,,,,,,,,,,,,,,,,,,,,,,,,,2030.013683900237,None,2030.013683900237,None,2030.385169500485,None,2030.385169500485,None,50,2030.385169500485,None,return,3.0587687995284796,2030.385169500485,None,,,YEERASILI,M,001,2023_Apr_18_1601,untitled,2021.1.4,48.04696296045182,
36,0,0,9,36,36,45,1.0,0.0,1.0,0.0,1.0,1.0,,stimuli/P_36_00_00_09.png,,,,,0,52,52,193,,,,,,,,,,,,,,,,,,,,,,,,,,,,2033.4721249006689,None,2033.4721249006689,None,2033.8452518004924,None,2033.8452518004924,None,80,2033.8452518004924,None,return,2.9545143004506826,2033.8452518004924,None,,,YEERASILI,M,001,2023_Apr_18_1601,untitled,2021.1.4,48.04696296045182,
9,36,0,36,45,9,81,0.56,0.8,0.2,0.0,0.2,0.2,,stimuli/P_09_36_00_36.png,,,,,0,53,53,115,,,,,,,,,,,,,,,,,,,,,,,,,,,,2036.8190395012498,None,2036.8190395012498,None,2037.1989768017083,None,2037.1989768017083,None,25,2037.1989768017083,None,return,5.872683200985193,2037.1989768017083,None,,,YEERASILI,M,001,2023_Apr_18_1601,untitled,2021.1.4,48.04696296045182,
9,18,36,18,27,45,81,0.78,0.67,0.33,0.67,-0.33,-1.0,,stimuli/P_09_18_36_18.png,,,,,0,54,54,110,,,,,,,,,,,,,,,,,,,,,,,,,,,,2043.1064846012741,None,2043.1064846012741,None,2043.48791260086,None,2043.48791260086,None,20,2043.48791260086,None,return,3.619888899847865,2043.48791260086,None,,,YEERASILI,M,001,2023_Apr_18_1601,untitled,2021.1.4,48.04696296045182,
36,9,18,9,45,54,72,0.88,0.2,0.8,0.67,0.13,0.4,,stimuli/P_36_09_18_09.png,,,,,0,55,55,217,,,,,,,,,,,,,,,,,,,,,,,,,,,,2047.1351964008063,None,2047.1351964008063,None,2047.5102678015828,None,2047.5102678015828,None,50,2047.5102678015828,None,return,2.7990547008812428,2047.5102678015828,None,,,YEERASILI,M,001,2023_Apr_18_1601,untitled,2021.1.4,48.04696296045182,
9,9,18,9,18,27,45,0.8,0.5,0.5,0.67,-0.17,-0.5,,stimuli/P_09_09_18_09.png,,,,,0,56,56,89,,,,,,,,,,,,,,,,,,,,,,,,,,,,2050.3470915015787,None,2050.3470915015787,None,2050.721729101613,None,2050.721729101613,None,35,2050.721729101613,None,return,4.12998259998858,2050.721729101613,None,,,YEERASILI,M,001,2023_Apr_18_1601,untitled,2021.1.4,48.04696296045182,
36,0,9,9,36,45,54,1.0,0.0,1.0,0.5,0.5,1.0,,stimuli/P_36_00_09_09.png,,,,,0,57,57,197,,,,,,,,,,,,,,,,,,,,,,,,,,,,2054.890362000093,None,2054.890362000093,None,2055.2598681002855,None,2055.2598681002855,None,80,2055.2598681002855,None,return,4.299862500280142,2055.2598681002855,None,,,YEERASILI,M,001,2023_Apr_18_1601,untitled,2021.1.4,48.04696296045182,
9,9,0,0,18,9,18,0.5,0.5,0.5,None,None,None,,stimuli/P_09_09_00_00.png,,,,,0,58,58,80,,,,,,,,,,,,,,,,,,,,,,,,,,,,2059.582480100915,None,2059.582480100915,None,2059.9598869010806,None,2059.9598869010806,None,25,2059.9598869010806,None,return,3.56110779941082,2059.9598869010806,None,,,YEERASILI,M,001,2023_Apr_18_1601,untitled,2021.1.4,48.04696296045182,
36,18,9,9,54,45,72,0.75,0.33,0.67,0.5,0.17,0.33,,stimuli/P_36_18_09_09.png,,,,,0,59,59,229,,,,,,,,,,,,,,,,,,,,,,,,,,,,2063.5373613014817,None,2063.5373613014817,None,2063.9107773005962,None,2063.9107773005962,None,50,2063.9107773005962,None,return,4.144630700349808,2063.9107773005962,None,,,YEERASILI,M,001,2023_Apr_18_1601,untitled,2021.1.4,48.04696296045182,
18,18,18,36,36,36,90,0.8,0.5,0.5,0.33,0.17,0.25,,stimuli/P_18_18_18_36.png,,,,,0,60,60,171,,,,,,,,,,,,,,,,,,,,,,,,,,,,2068.0818741004914,None,2068.0818741004914,None,2068.4602900017053,None,2068.4602900017053,None,25,2068.4602900017053,None,return,3.5989680998027325,2068.4602900017053,None,,,YEERASILI,M,001,2023_Apr_18_1601,untitled,2021.1.4,48.04696296045182,
9,0,18,9,9,27,36,1.0,0.0,1.0,0.67,0.33,1.0,,stimuli/P_09_00_18_09.png,,,,,0,61,61,73,,,,,,,,,,,,,,,,,,,,,,,,,,,,2072.0955837015063,None,2072.0955837015063,None,2072.47841290012,None,2072.47841290012,None,30,2072.47841290012,None,return,3.2314269002527,2072.47841290012,None,,,YEERASILI,M,001,2023_Apr_18_1601,untitled,2021.1.4,48.04696296045182,
36,18,36,36,54,72,126,0.86,0.33,0.67,0.5,0.17,0.33,,stimuli/P_36_18_36_36.png,,,,,0,62,62,239,,,,,,,,,,,,,,,,,,,,,,,,,,,,2075.7429032009095,None,2075.7429032009095,None,2076.1172219011933,None,2076.1172219011933,None,25,2076.1172219011933,None,return,2.7460968997329473,2076.1172219011933,None,,,YEERASILI,M,001,2023_Apr_18_1601,untitled,2021.1.4,48.04696296045182,
36,36,36,18,72,72,126,0.71,0.5,0.5,0.67,-0.17,-0.5,,stimuli/P_36_36_36_18.png,,,,,0,63,63,254,,,,,,,,,,,,,,,,,,,,,,,,,,,,2078.896245500073,None,2078.896245500073,None,2079.2741222009063,None,2079.2741222009063,None,25,2079.2741222009063,None,return,1.9799886997789145,2079.2741222009063,None,,,YEERASILI,M,001,2023_Apr_18_1601,untitled,2021.1.4,48.04696296045182,
0,9,36,9,9,36,54,0.83,1.0,0.0,0.8,-0.8,-4.0,,stimuli/P_00_09_36_09.png,,,,,0,64,64,29,,,,,,,,,,,,,,,,,,,,,,,,,,,,2081.2708760015666,None,2081.2708760015666,None,2081.642885800451,None,2081.642885800451,None,20,2081.642885800451,None,return,4.273504000157118,2081.642885800451,None,,,YEERASILI,M,001,2023_Apr_18_1601,untitled,2021.1.4,48.04696296045182,
0,0,36,18,0,36,54,1.0,None,None,0.67,None,None,,stimuli/P_00_00_36_18.png,,,,,0,65,65,14,,,,,,,,,,,,,,,,,,,,,,,,,,,,2085.9504401013255,None,2085.9504401013255,None,2086.3397195003927,None,2086.3397195003927,None,25,2086.3397195003927,None,return,3.7980370987206697,2086.3397195003927,None,,,YEERASILI,M,001,2023_Apr_18_1601,untitled,2021.1.4,48.04696296045182,
0,18,0,18,18,0,36,0.5,1.0,0.0,0.0,0.0,0.0,,stimuli/P_00_18_00_18.png,,,,,0,66,66,34,,,,,,,,,,,,,,,,,,,,,,,,,,,,2090.168714400381,None,2090.168714400381,None,2090.5506023000926,None,2090.5506023000926,None,25,2090.5506023000926,None,return,1.8814875017851591,2090.5506023000926,None,,,YEERASILI,M,001,2023_Apr_18_1601,untitled,2021.1.4,48.04696296045182,
18,0,18,18,18,36,54,1.0,0.0,1.0,0.5,0.5,1.0,,stimuli/P_18_00_18_18.png,,,,,0,67,67,138,,,,,,,,,,,,,,,,,,,,,,,,,,,,2092.464936600998,None,2092.464936600998,None,2092.8448984008282,None,2092.8448984008282,None,30,2092.8448984008282,None,return,7.55278379842639,2092.8448984008282,None,,,YEERASILI,M,001,2023_Apr_18_1601,untitled,2021.1.4,48.04696296045182,
9,36,18,9,45,27,72,0.5,0.8,0.2,0.67,-0.47,-1.4,,stimuli/P_09_36_18_09.png,,,,,0,68,68,121,,,,,,,,,,,,,,,,,,,,,,,,,,,,2100.4167601000518,None,2100.4167601000518,None,2100.7865854017437,None,2100.7865854017437,None,25,2100.7865854017437,None,return,3.8127938006073236,2100.7865854017437,None,,,YEERASILI,M,001,2023_Apr_18_1601,untitled,2021.1.4,48.04696296045182,
18,36,0,0,54,18,54,0.33,0.67,0.33,None,None,None,,stimuli/P_18_36_00_00.png,,,,,0,69,69,176,,,,,,,,,,,,,,,,,,,,,,,,,,,,2104.621776100248,None,2104.621776100248,None,2104.9932525008917,None,2104.9932525008917,None,50,2104.9932525008917,None,return,3.0141669996082783,2104.9932525008917,None,,,YEERASILI,M,001,2023_Apr_18_1601,untitled,2021.1.4,48.04696296045182,
18,18,36,0,36,54,72,0.75,0.5,0.5,1.0,-0.5,#NAME?,,stimuli/P_18_18_36_00.png,,,,,0,70,70,172,,,,,,,,,,,,,,,,,,,,,,,,,,,,2108.039092000574,None,2108.039092000574,None,2108.418167900294,None,2108.418167900294,None,25,2108.418167900294,None,return,3.674899199977517,2108.418167900294,None,,,YEERASILI,M,001,2023_Apr_18_1601,untitled,2021.1.4,48.04696296045182,
18,18,18,18,36,36,72,0.75,0.5,0.5,0.5,0.0,0.0,,stimuli/P_18_18_18_18.png,,,,,0,71,71,170,,,,,,,,,,,,,,,,,,,,,,,,,,,,2112.1280273012817,None,2112.1280273012817,None,2112.5120468009263,None,2112.5120468009263,None,25,2112.5120468009263,None,return,4.42552699893713,2112.5120468009263,None,,,YEERASILI,M,001,2023_Apr_18_1601,untitled,2021.1.4,48.04696296045182,
18,9,36,9,27,54,72,0.88,0.33,0.67,0.8,-0.13,-0.67,,stimuli/P_18_09_36_09.png,,,,,0,72,72,157,,,,,,,,,,,,,,,,,,,,,,,,,,,,2116.9561072010547,None,2116.9561072010547,None,2117.3373492006212,None,2117.3373492006212,None,50,2117.3373492006212,None,return,3.2270248997956514,2117.3373492006212,None,,,YEERASILI,M,001,2023_Apr_18_1601,untitled,2021.1.4,48.04696296045182,
0,36,9,18,36,9,63,0.43,1.0,0.0,0.33,-0.33,-0.5,,stimuli/P_00_36_09_18.png,,,,,0,73,73,54,,,,,,,,,,,,,,,,,,,,,,,,,,,,2120.5983059015125,None,2120.5983059015125,None,2120.9591643009335,None,2120.9591643009335,None,50,2120.9591643009335,None,return,2.5437636002898216,2120.9591643009335,None,,,YEERASILI,M,001,2023_Apr_18_1601,untitled,2021.1.4,48.04696296045182,
0,9,36,36,9,36,81,0.89,1.0,0.0,0.5,-0.5,-1.0,,stimuli/P_00_09_36_36.png,,,,,0,74,74,31,,,,,,,,,,,,,,,,,,,,,,,,,,,,2123.5337513014674,None,2123.5337513014674,None,2123.908664200455,None,2123.908664200455,None,25,2123.908664200455,None,return,3.2525859996676445,2123.908664200455,None,,,YEERASILI,M,001,2023_Apr_18_1601,untitled,2021.1.4,48.04696296045182,
0,9,9,0,9,9,18,0.5,1.0,0.0,1.0,-1.0,#NAME?,,stimuli/P_00_09_09_00.png,,,,,0,75,75,20,,,,,,,,,,,,,,,,,,,,,,,,,,,,2127.190619500354,None,2127.190619500354,None,2127.559616200626,None,2127.559616200626,None,25,2127.559616200626,None,return,2.57669860124588,2127.559616200626,None,,,YEERASILI,M,001,2023_Apr_18_1601,untitled,2021.1.4,48.04696296045182,
0,9,36,0,9,36,45,0.8,1.0,0.0,1.0,-1.0,#NAME?,,stimuli/P_00_09_36_00.png,,,,,0,76,76,28,,,,,,,,,,,,,,,,,,,,,,,,,,,,2130.152707401663,None,2130.152707401663,None,2130.551640599966,None,2130.551640599966,None,20,2130.551640599966,None,return,5.222123298794031,2130.551640599966,None,,,YEERASILI,M,001,2023_Apr_18_1601,untitled,2021.1.4,48.04696296045182,
0,18,36,18,18,36,72,0.75,1.0,0.0,0.67,-0.67,-2.0,,stimuli/P_00_18_36_18.png,,,,,0,77,77,46,,,,,,,,,,,,,,,,,,,,,,,,,,,,2135.804021600634,None,2135.804021600634,None,2136.177972201258,None,2136.177972201258,None,25,2136.177972201258,None,return,3.1448825001716614,2136.177972201258,None,,,YEERASILI,M,001,2023_Apr_18_1601,untitled,2021.1.4,48.04696296045182,
36,18,0,0,54,36,54,0.67,0.33,0.67,None,None,None,,stimuli/P_36_18_00_00.png,,,,,0,78,78,224,,,,,,,,,,,,,,,,,,,,,,,,,,,,2139.344132401049,None,2139.344132401049,None,2139.718619801104,None,2139.718619801104,None,70,2139.718619801104,None,return,3.4798932000994682,2139.718619801104,None,,,YEERASILI,M,001,2023_Apr_18_1601,untitled,2021.1.4,48.04696296045182,
36,9,36,0,45,72,81,0.89,0.2,0.8,1.0,-0.2,#NAME?,,stimuli/P_36_09_36_00.png,,,,,0,79,79,220,,,,,,,,,,,,,,,,,,,,,,,,,,,,2143.230039201677,None,2143.230039201677,None,2143.615077700466,None,2143.615077700466,None,70,2143.615077700466,None,return,2.3096412010490894,2143.615077700466,None,,,YEERASILI,M,001,2023_Apr_18_1601,untitled,2021.1.4,48.04696296045182,
9,0,36,0,9,45,45,1.0,0.0,1.0,1.0,0.0,None,,stimuli/P_09_00_36_00.png,,,,,0,80,80,76,,,,,,,,,,,,,,,,,,,,,,,,,,,,2145.949604000896,None,2145.949604000896,None,2146.32797970064,None,2146.32797970064,None,50,2146.32797970064,None,return,3.6496044993400574,2146.32797970064,None,,,YEERASILI,M,001,2023_Apr_18_1601,untitled,2021.1.4,48.04696296045182,
0,0,18,0,0,18,18,1.0,None,None,1.0,None,None,,stimuli/P_00_00_18_00.png,,,,,0,81,81,8,,,,,,,,,,,,,,,,,,,,,,,,,,,,2150.0131529010832,None,2150.0131529010832,None,2150.3915730006993,None,2150.3915730006993,None,25,2150.3915730006993,None,return,3.0978328995406628,2150.3915730006993,None,,,YEERASILI,M,001,2023_Apr_18_1601,untitled,2021.1.4,48.04696296045182,
9,9,0,36,18,9,54,0.83,0.5,0.5,0.0,0.5,0.5,,stimuli/P_09_09_00_36.png,,,,,0,82,82,83,,,,,,,,,,,,,,,,,,,,,,,,,,,,2153.532179400325,None,2153.532179400325,None,2153.905045401305,None,2153.905045401305,None,20,2153.905045401305,None,return,4.9365186002105474,2153.905045401305,None,,,YEERASILI,M,001,2023_Apr_18_1601,untitled,2021.1.4,48.04696296045182,
0,36,9,36,36,9,81,0.56,1.0,0.0,0.2,-0.2,-0.25,,stimuli/P_00_36_09_36.png,,,,,0,83,83,55,,,,,,,,,,,,,,,,,,,,,,,,,,,,2158.872218001634,None,2158.872218001634,None,2159.2468595001847,None,2159.2468595001847,None,10,2159.2468595001847,None,return,5.122531400993466,2159.2468595001847,None,,,YEERASILI,M,001,2023_Apr_18_1601,untitled,2021.1.4,48.04696296045182,
9,9,18,18,18,27,54,0.83,0.5,0.5,0.5,0.0,0.0,,stimuli/P_09_09_18_18.png,,,,,0,84,84,90,,,,,,,,,,,,,,,,,,,,,,,,,,,,2164.397832201794,None,2164.397832201794,None,2164.766711300239,None,2164.766711300239,None,10,2164.766711300239,None,return,4.3555584996938705,2164.766711300239,None,,,YEERASILI,M,001,2023_Apr_18_1601,untitled,2021.1.4,48.04696296045182,
36,36,36,0,72,72,108,0.67,0.5,0.5,1.0,-0.5,#NAME?,,stimuli/P_36_36_36_00.png,,,,,0,85,85,252,,,,,,,,,,,,,,,,,,,,,,,,,,,,2169.1464602015913,None,2169.1464602015913,None,2169.5244988016784,None,2169.5244988016784,None,33,2169.5244988016784,None,return,3.2573995999991894,2169.5244988016784,None,,,YEERASILI,M,001,2023_Apr_18_1601,untitled,2021.1.4,48.04696296045182,
9,36,36,18,45,45,99,0.64,0.8,0.2,0.67,-0.47,-1.4,,stimuli/P_09_36_36_18.png,,,,,0,86,86,126,,,,,,,,,,,,,,,,,,,,,,,,,,,,2172.7978227008134,None,2172.7978227008134,None,2173.165263801813,None,2173.165263801813,None,33,2173.165263801813,None,return,2.668494099751115,2173.165263801813,None,,,YEERASILI,M,001,2023_Apr_18_1601,untitled,2021.1.4,48.04696296045182,
36,36,9,18,72,45,99,0.64,0.5,0.5,0.33,0.17,0.25,,stimuli/P_36_36_09_18.png,,,,,0,87,87,246,,,,,,,,,,,,,,,,,,,,,,,,,,,,2175.8531569000334,None,2175.8531569000334,None,2176.223692201078,None,2176.223692201078,None,33,2176.223692201078,None,return,3.612704299390316,2176.223692201078,None,,,YEERASILI,M,001,2023_Apr_18_1601,untitled,2021.1.4,48.04696296045182,
9,18,36,0,27,45,63,0.71,0.67,0.33,1.0,-0.67,#NAME?,,stimuli/P_09_18_36_00.png,,,,,0,88,88,108,,,,,,,,,,,,,,,,,,,,,,,,,,,,2179.8609335999936,None,2179.8609335999936,None,2180.2398409005255,None,2180.2398409005255,None,25,2180.2398409005255,None,return,4.479360599070787,2180.2398409005255,None,,,YEERASILI,M,001,2023_Apr_18_1601,untitled,2021.1.4,48.04696296045182,
18,9,18,36,27,36,81,0.89,0.33,0.67,0.33,0.33,0.5,,stimuli/P_18_09_18_36.png,,,,,0,89,89,155,,,,,,,,,,,,,,,,,,,,,,,,,,,,2184.761131800711,None,2184.761131800711,None,2185.1314283013344,None,2185.1314283013344,None,25,2185.1314283013344,None,return,3.824474599212408,2185.1314283013344,None,,,YEERASILI,M,001,2023_Apr_18_1601,untitled,2021.1.4,48.04696296045182,
18,36,0,9,54,18,63,0.43,0.67,0.33,0.0,0.33,0.33,,stimuli/P_18_36_00_09.png,,,,,0,90,90,177,,,,,,,,,,,,,,,,,,,,,,,,,,,,2188.973073700443,None,2188.973073700443,None,2189.343709900975,None,2189.343709900975,None,50,2189.343709900975,None,return,3.01616770029068,2189.343709900975,None,,,YEERASILI,M,001,2023_Apr_18_1601,untitled,2021.1.4,48.04696296045182,
18,18,9,18,36,27,63,0.71,0.5,0.5,0.33,0.17,0.25,,stimuli/P_18_18_09_18.png,,,,,0,91,91,166,,,,,,,,,,,,,,,,,,,,,,,,,,,,2192.395309401676,None,2192.395309401676,None,2192.763249600306,None,2192.763249600306,None,25,2192.763249600306,None,return,4.404983900487423,2192.763249600306,None,,,YEERASILI,M,001,2023_Apr_18_1601,untitled,2021.1.4,48.04696296045182,
36,9,0,9,45,36,54,0.83,0.2,0.8,0.0,0.8,0.8,,stimuli/P_36_09_00_09.png,,,,,0,92,92,209,,,,,,,,,,,,,,,,,,,,,,,,,,,,2197.187032300979,None,2197.187032300979,None,2197.562863700092,None,2197.562863700092,None,25,2197.562863700092,None,return,3.7952900007367134,2197.562863700092,None,,,YEERASILI,M,001,2023_Apr_18_1601,untitled,2021.1.4,48.04696296045182,
9,36,18,0,45,27,63,0.43,0.8,0.2,1.0,-0.8,#NAME?,,stimuli/P_09_36_18_00.png,,,,,0,93,93,120,,,,,,,,,,,,,,,,,,,,,,,,,,,,2201.3954935017973,None,2201.3954935017973,None,2201.7754776012152,None,2201.7754776012152,None,25,2201.7754776012152,None,return,3.3557032998651266,2201.7754776012152,None,,,YEERASILI,M,001,2023_Apr_18_1601,untitled,2021.1.4,48.04696296045182,
36,18,9,18,54,45,81,0.78,0.33,0.67,0.33,0.33,0.5,,stimuli/P_36_18_09_18.png,,,,,0,94,94,230,,,,,,,,,,,,,,,,,,,,,,,,,,,,2205.158825300634,None,2205.158825300634,None,2205.546281401068,None,2205.546281401068,None,50,2205.546281401068,None,return,6.733971299603581,2205.546281401068,None,,,YEERASILI,M,001,2023_Apr_18_1601,untitled,2021.1.4,48.04696296045182,
9,18,18,0,27,27,45,0.6,0.67,0.33,1.0,-0.67,#NAME?,,stimuli/P_09_18_18_00.png,,,,,0,95,95,104,,,,,,,,,,,,,,,,,,,,,,,,,,,,2212.304195800796,None,2212.304195800796,None,2212.6754566002637,None,2212.6754566002637,None,20,2212.6754566002637,None,return,5.07123770006001,2212.6754566002637,None,,,YEERASILI,M,001,2023_Apr_18_1601,untitled,2021.1.4,48.04696296045182,
9,9,9,9,18,18,36,0.75,0.5,0.5,0.5,0.0,0.0,,stimuli/P_09_09_09_09.png,,,,,0,96,96,85,,,,,,,,,,,,,,,,,,,,,,,,,,,,2217.769445201382,None,2217.769445201382,None,2218.1554255001247,None,2218.1554255001247,None,25,2218.1554255001247,None,return,2.1919794008135796,2218.1554255001247,None,,,YEERASILI,M,001,2023_Apr_18_1601,untitled,2021.1.4,48.04696296045182,
0,9,9,9,9,9,27,0.67,1.0,0.0,0.5,-0.5,-1.0,,stimuli/P_00_09_09_09.png,,,,,0,97,97,21,,,,,,,,,,,,,,,,,,,,,,,,,,,,2220.373734800145,None,2220.373734800145,None,2220.7553710006177,None,2220.7553710006177,None,15,2220.7553710006177,None,return,3.6710376013070345,2220.7553710006177,None,,,YEERASILI,M,001,2023_Apr_18_1601,untitled,2021.1.4,48.04696296045182,
18,18,0,36,36,18,72,0.75,0.5,0.5,0.0,0.5,0.5,,stimuli/P_18_18_00_36.png,,,,,0,98,98,163,,,,,,,,,,,,,,,,,,,,,,,,,,,,2224.4591938015074,None,2224.4591938015074,None,2224.8233357015997,None,2224.8233357015997,None,25,2224.8233357015997,None,return,3.8965966012328863,2224.8233357015997,None,,,YEERASILI,M,001,2023_Apr_18_1601,untitled,2021.1.4,48.04696296045182,
0,36,0,9,36,0,45,0.2,1.0,0.0,0.0,0.0,0.0,,stimuli/P_00_36_00_09.png,,,,,0,99,99,49,,,,,,,,,,,,,,,,,,,,,,,,,,,,2228.7507650014013,None,2228.7507650014013,None,2229.1163097005337,None,2229.1163097005337,None,,2229.1163097005337,None,None,,2229.1163097005337,None,,,YEERASILI,M,001,2023_Apr_18_1601,untitled,2021.1.4,48.04696296045182,
36,36,0,36,72,36,108,0.67,0.5,0.5,0.0,0.5,0.5,,stimuli/P_36_36_00_36.png,,,,,0,100,100,243,,,,,,,,,,,,,,,,,,,,,,,,,,,,2237.128535401076,None,2237.128535401076,None,2237.522757900879,None,2237.522757900879,None,33,2237.522757900879,None,return,3.313707400113344,2237.522757900879,None,,,YEERASILI,M,001,2023_Apr_18_1601,untitled,2021.1.4,48.04696296045182,
9,0,9,0,9,18,18,1.0,0.0,1.0,1.0,0.0,None,,stimuli/P_09_00_09_00.png,,,,,0,101,101,68,,,,,,,,,,,,,,,,,,,,,,,,,,,,2240.854274701327,None,2240.854274701327,None,2241.2194087002426,None,2241.2194087002426,None,25,2241.2194087002426,None,return,3.5460034012794495,2241.2194087002426,None,,,YEERASILI,M,001,2023_Apr_18_1601,untitled,2021.1.4,48.04696296045182,
18,18,36,18,36,54,90,0.8,0.5,0.5,0.67,-0.17,-0.5,,stimuli/P_18_18_36_18.png,,,,,0,102,102,174,,,,,,,,,,,,,,,,,,,,,,,,,,,,2244.7839997000992,None,2244.7839997000992,None,2245.1565350014716,None,2245.1565350014716,None,25,2245.1565350014716,None,return,3.648580700159073,2245.1565350014716,None,,,YEERASILI,M,001,2023_Apr_18_1601,untitled,2021.1.4,48.04696296045182,
0,0,18,36,0,18,54,1.0,None,None,0.33,None,None,,stimuli/P_00_00_18_36.png,,,,,0,103,103,11,,,,,,,,,,,,,,,,,,,,,,,,,,,,2248.832083201036,None,2248.832083201036,None,2249.203423500061,None,2249.203423500061,None,25,2249.203423500061,None,return,5.567576700821519,2249.203423500061,None,,,YEERASILI,M,001,2023_Apr_18_1601,untitled,2021.1.4,48.04696296045182,
18,36,36,0,54,54,90,0.6,0.67,0.33,1.0,-0.67,#NAME?,,stimuli/P_18_36_36_00.png,,,,,0,104,104,188,,,,,,,,,,,,,,,,,,,,,,,,,,,,2254.806435601786,None,2254.806435601786,None,2255.1835028007627,None,2255.1835028007627,None,25,2255.1835028007627,None,return,5.426128000020981,2255.1835028007627,None,,,YEERASILI,M,001,2023_Apr_18_1601,untitled,2021.1.4,48.04696296045182,
36,18,0,9,54,36,63,0.71,0.33,0.67,0.0,0.67,0.67,,stimuli/P_36_18_00_09.png,,,,,0,105,105,225,,,,,,,,,,,,,,,,,,,,,,,,,,,,2260.626911500469,None,2260.626911500469,None,2261.0135630015284,None,2261.0135630015284,None,50,2261.0135630015284,None,return,2.6669728998094797,2261.0135630015284,None,,,YEERASILI,M,001,2023_Apr_18_1601,untitled,2021.1.4,48.04696296045182,
18,0,9,36,18,27,63,1.0,0.0,1.0,0.2,0.8,1.0,,stimuli/P_18_00_09_36.png,,,,,0,106,106,135,,,,,,,,,,,,,,,,,,,,,,,,,,,,2263.7106533013284,None,2263.7106533013284,None,2264.082888001576,None,2264.082888001576,None,25,2264.082888001576,None,return,2.9517698995769024,2264.082888001576,None,,,YEERASILI,M,001,2023_Apr_18_1601,untitled,2021.1.4,48.04696296045182,
18,9,36,36,27,54,99,0.91,0.33,0.67,0.5,0.17,0.33,,stimuli/P_18_09_36_36.png,,,,,0,107,107,159,,,,,,,,,,,,,,,,,,,,,,,,,,,,2267.0672741010785,None,2267.0672741010785,None,2267.4493836015463,None,2267.4493836015463,None,25,2267.4493836015463,None,return,2.1164534986019135,2267.4493836015463,None,,,YEERASILI,M,001,2023_Apr_18_1601,untitled,2021.1.4,48.04696296045182,
36,9,18,36,45,54,99,0.91,0.2,0.8,0.33,0.47,0.7,,stimuli/P_36_09_18_36.png,,,,,0,108,108,219,,,,,,,,,,,,,,,,,,,,,,,,,,,,2269.581389600411,None,2269.581389600411,None,2269.948661200702,None,2269.948661200702,None,33,2269.948661200702,None,return,2.811344498768449,2269.948661200702,None,,,YEERASILI,M,001,2023_Apr_18_1601,untitled,2021.1.4,48.04696296045182,
0,9,0,0,9,0,9,0.0,1.0,0.0,None,None,None,,stimuli/P_00_09_00_00.png,,,,,0,109,109,16,,,,,,,,,,,,,,,,,,,,,,,,,,,,2272.7915456015617,None,2272.7915456015617,None,2273.1614072006196,None,2273.1614072006196,None,25,2273.1614072006196,None,return,6.441078200936317,2273.1614072006196,None,,,YEERASILI,M,001,2023_Apr_18_1601,untitled,2021.1.4,48.04696296045182,
36,0,9,18,36,45,63,1.0,0.0,1.0,0.33,0.67,1.0,,stimuli/P_36_00_09_18.png,,,,,0,110,110,198,,,,,,,,,,,,,,,,,,,,,,,,,,,,2279.6373936012387,None,2279.6373936012387,None,2280.002480700612,None,2280.002480700612,None,50,2280.002480700612,None,return,2.9069275986403227,2280.002480700612,None,,,YEERASILI,M,001,2023_Apr_18_1601,untitled,2021.1.4,48.04696296045182,
9,18,18,9,27,27,54,0.67,0.67,0.33,0.67,-0.33,-1.0,,stimuli/P_09_18_18_09.png,,,,,0,111,111,105,,,,,,,,,,,,,,,,,,,,,,,,,,,,2282.939073100686,None,2282.939073100686,None,2283.304632201791,None,2283.304632201791,None,20,2283.304632201791,None,return,6.330751400440931,2283.304632201791,None,,,YEERASILI,M,001,2023_Apr_18_1601,untitled,2021.1.4,48.04696296045182,
9,18,9,18,27,18,54,0.67,0.67,0.33,0.33,0.0,0.0,,stimuli/P_09_18_09_18.png,,,,,0,112,112,102,,,,,,,,,,,,,,,,,,,,,,,,,,,,2289.652118800208,None,2289.652118800208,None,2290.0174074005336,None,2290.0174074005336,None,20,2290.0174074005336,None,return,2.109204100444913,2290.0174074005336,None,,,YEERASILI,M,001,2023_Apr_18_1601,untitled,2021.1.4,48.04696296045182,
36,36,9,36,72,45,117,0.69,0.5,0.5,0.2,0.3,0.37,,stimuli/P_36_36_09_36.png,,,,,0,113,113,247,,,,,,,,,,,,,,,,,,,,,,,,,,,,2292.1606797017157,None,2292.1606797017157,None,2292.5248291008174,None,2292.5248291008174,None,50,2292.5248291008174,None,return,4.250852398574352,2292.5248291008174,None,,,YEERASILI,M,001,2023_Apr_18_1601,untitled,2021.1.4,48.04696296045182,
9,18,0,36,27,9,63,0.71,0.67,0.33,0.0,0.33,0.33,,stimuli/P_09_18_00_36.png,,,,,0,114,114,99,,,,,,,,,,,,,,,,,,,,,,,,,,,,2296.8046663012356,None,2296.8046663012356,None,2297.1815998014063,None,2297.1815998014063,None,33,2297.1815998014063,None,return,5.3454021997749805,2297.1815998014063,None,,,YEERASILI,M,001,2023_Apr_18_1601,untitled,2021.1.4,48.04696296045182,
9,0,36,9,9,45,54,1.0,0.0,1.0,0.8,0.2,1.0,,stimuli/P_09_00_36_09.png,,,,,0,115,115,77,,,,,,,,,,,,,,,,,,,,,,,,,,,,2302.5466222018003,None,2302.5466222018003,None,2302.927543701604,None,2302.927543701604,None,20,2302.927543701604,None,return,2.3955697007477283,2302.927543701604,None,,,YEERASILI,M,001,2023_Apr_18_1601,untitled,2021.1.4,48.04696296045182,
36,18,0,18,54,36,72,0.75,0.33,0.67,0.0,0.67,0.67,,stimuli/P_36_18_00_18.png,,,,,0,116,116,226,,,,,,,,,,,,,,,,,,,,,,,,,,,,2305.3583409003913,None,2305.3583409003913,None,2305.737673100084,None,2305.737673100084,None,50,2305.737673100084,None,return,2.414054999127984,2305.737673100084,None,,,YEERASILI,M,001,2023_Apr_18_1601,untitled,2021.1.4,48.04696296045182,
36,18,18,9,54,54,81,0.78,0.33,0.67,0.67,0.0,0.0,,stimuli/P_36_18_18_09.png,,,,,0,117,117,233,,,,,,,,,,,,,,,,,,,,,,,,,,,,2308.179410800338,None,2308.179410800338,None,2308.561492200941,None,2308.561492200941,None,50,2308.561492200941,None,return,2.2139127999544144,2308.561492200941,None,,,YEERASILI,M,001,2023_Apr_18_1601,untitled,2021.1.4,48.04696296045182,
9,9,36,36,18,45,90,0.9,0.5,0.5,0.5,0.0,0.0,,stimuli/P_09_09_36_36.png,,,,,0,118,118,95,,,,,,,,,,,,,,,,,,,,,,,,,,,,2310.8119699005038,None,2310.8119699005038,None,2311.1859013009816,None,2311.1859013009816,None,10,2311.1859013009816,None,return,2.3244443014264107,2311.1859013009816,None,,,YEERASILI,M,001,2023_Apr_18_1601,untitled,2021.1.4,48.04696296045182,
0,18,36,0,18,36,54,0.67,1.0,0.0,1.0,-1.0,#NAME?,,stimuli/P_00_18_36_00.png,,,,,0,119,119,44,,,,,,,,,,,,,,,,,,,,,,,,,,,,2313.536757500842,None,2313.536757500842,None,2313.9086820017546,None,2313.9086820017546,None,25,2313.9086820017546,None,return,3.974482199177146,2313.9086820017546,None,,,YEERASILI,M,001,2023_Apr_18_1601,untitled,2021.1.4,48.04696296045182,
18,18,18,9,36,36,63,0.71,0.5,0.5,0.67,-0.17,-0.5,,stimuli/P_18_18_18_09.png,,,,,0,120,120,169,,,,,,,,,,,,,,,,,,,,,,,,,,,,2317.9066213015467,None,2317.9066213015467,None,2318.267706600949,None,2318.267706600949,None,25,2318.267706600949,None,return,5.025754500180483,2318.267706600949,None,,,YEERASILI,M,001,2023_Apr_18_1601,untitled,2021.1.4,48.04696296045182,
9,9,0,18,18,9,36,0.75,0.5,0.5,0.0,0.5,0.5,,stimuli/P_09_09_00_18.png,,,,,0,121,121,82,,,,,,,,,,,,,,,,,,,,,,,,,,,,2323.3279542010278,None,2323.3279542010278,None,2323.698912801221,None,2323.698912801221,None,20,2323.698912801221,None,return,5.06102479994297,2323.698912801221,None,,,YEERASILI,M,001,2023_Apr_18_1601,untitled,2021.1.4,48.04696296045182,
18,0,36,9,18,54,63,1.0,0.0,1.0,0.8,0.2,1.0,,stimuli/P_18_00_36_09.png,,,,,0,122,122,141,,,,,,,,,,,,,,,,,,,,,,,,,,,,2328.799232600257,None,2328.799232600257,None,2329.2215316016227,None,2329.2215316016227,None,50,2329.2215316016227,None,return,5.0969386994838715,2329.2215316016227,None,,,YEERASILI,M,001,2023_Apr_18_1601,untitled,2021.1.4,48.04696296045182,
0,36,9,0,36,9,45,0.2,1.0,0.0,1.0,-1.0,#NAME?,,stimuli/P_00_36_09_00.png,,,,,0,123,123,52,,,,,,,,,,,,,,,,,,,,,,,,,,,,2334.355098400265,None,2334.355098400265,None,2334.7327455002815,None,2334.7327455002815,None,33,2334.7327455002815,None,return,5.135364200919867,2334.7327455002815,None,,,YEERASILI,M,001,2023_Apr_18_1601,untitled,2021.1.4,48.04696296045182,
0,18,18,9,18,18,45,0.6,1.0,0.0,0.67,-0.67,-2.0,,stimuli/P_00_18_18_09.png,,,,,0,124,124,41,,,,,,,,,,,,,,,,,,,,,,,,,,,,2339.902754800394,None,2339.902754800394,None,2340.271649701521,None,2340.271649701521,None,15,2340.271649701521,None,return,5.6042504999786615,2340.271649701521,None,,,YEERASILI,M,001,2023_Apr_18_1601,untitled,2021.1.4,48.04696296045182,
9,9,18,0,18,27,36,0.75,0.5,0.5,1.0,-0.5,#NAME?,,stimuli/P_09_09_18_00.png,,,,,0,125,125,88,,,,,,,,,,,,,,,,,,,,,,,,,,,,2345.913627900183,None,2345.913627900183,None,2346.282394900918,None,2346.282394900918,None,8,2346.282394900918,None,return,2.8810671009123325,2346.282394900918,None,,,YEERASILI,M,001,2023_Apr_18_1601,untitled,2021.1.4,48.04696296045182,
36,36,9,9,72,45,90,0.6,0.5,0.5,0.5,0.0,0.0,,stimuli/P_36_36_09_09.png,,,,,0,126,126,245,,,,,,,,,,,,,,,,,,,,,,,,,,,,2349.1833335012197,None,2349.1833335012197,None,2349.556063901633,None,2349.556063901633,None,50,2349.556063901633,None,return,2.472207199782133,2349.556063901633,None,,,YEERASILI,M,001,2023_Apr_18_1601,untitled,2021.1.4,48.04696296045182,
9,9,36,18,18,45,72,0.88,0.5,0.5,0.67,-0.17,-0.5,,stimuli/P_09_09_36_18.png,,,,,0,127,127,94,,,,,,,,,,,,,,,,,,,,,,,,,,,,2352.0630042999983,None,2352.0630042999983,None,2352.433978801593,None,2352.433978801593,None,20,2352.433978801593,None,return,4.612208800390363,2352.433978801593,None,,,YEERASILI,M,001,2023_Apr_18_1601,untitled,2021.1.4,48.04696296045182,
0,18,0,9,18,0,27,0.33,1.0,0.0,0.0,0.0,0.0,,stimuli/P_00_18_00_09.png,,,,,0,128,128,33,,,,,,,,,,,,,,,,,,,,,,,,,,,,2357.0754228010774,None,2357.0754228010774,None,2357.4586869999766,None,2357.4586869999766,None,30,2357.4586869999766,None,return,5.816925900056958,2357.4586869999766,None,,,YEERASILI,M,001,2023_Apr_18_1601,untitled,2021.1.4,48.04696296045182,
18,9,18,0,27,36,45,0.8,0.33,0.67,1.0,-0.33,#NAME?,,stimuli/P_18_09_18_00.png,,,,,0,129,129,152,,,,,,,,,,,,,,,,,,,,,,,,,,,,2363.292988501489,None,2363.292988501489,None,2363.6690916009247,None,2363.6690916009247,None,66,2363.6690916009247,None,return,6.003299199044704,2363.6690916009247,None,,,YEERASILI,M,001,2023_Apr_18_1601,untitled,2021.1.4,48.04696296045182,
9,18,36,9,27,45,72,0.75,0.67,0.33,0.8,-0.47,-2.33,,stimuli/P_09_18_36_09.png,,,,,0,130,130,109,,,,,,,,,,,,,,,,,,,,,,,,,,,,2369.6941638011485,None,2369.6941638011485,None,2370.073948500678,None,2370.073948500678,None,20,2370.073948500678,None,return,2.696746999397874,2370.073948500678,None,,,YEERASILI,M,001,2023_Apr_18_1601,untitled,2021.1.4,48.04696296045182,
0,9,9,18,9,9,36,0.75,1.0,0.0,0.33,-0.33,-0.5,,stimuli/P_00_09_09_18.png,,,,,0,131,131,22,,,,,,,,,,,,,,,,,,,,,,,,,,,,2372.7905560005456,None,2372.7905560005456,None,2373.1699940003455,None,2373.1699940003455,None,20,2373.1699940003455,None,return,1.981598800048232,2373.1699940003455,None,,,YEERASILI,M,001,2023_Apr_18_1601,untitled,2021.1.4,48.04696296045182,
36,0,9,36,36,45,81,1.0,0.0,1.0,0.2,0.8,1.0,,stimuli/P_36_00_09_36.png,,,,,0,132,132,199,,,,,,,,,,,,,,,,,,,,,,,,,,,,2375.185105001554,None,2375.185105001554,None,2375.564896300435,None,2375.564896300435,None,66,2375.564896300435,None,return,3.4122094996273518,2375.564896300435,None,,,YEERASILI,M,001,2023_Apr_18_1601,untitled,2021.1.4,48.04696296045182,
18,9,9,36,27,27,72,0.88,0.33,0.67,0.2,0.47,0.58,,stimuli/P_18_09_09_36.png,,,,,0,133,133,151,,,,,,,,,,,,,,,,,,,,,,,,,,,,2379.0128557011485,None,2379.0128557011485,None,2379.3861154001206,None,2379.3861154001206,None,20,2379.3861154001206,None,return,3.293272700160742,2379.3861154001206,None,,,YEERASILI,M,001,2023_Apr_18_1601,untitled,2021.1.4,48.04696296045182,
18,36,9,18,54,27,81,0.56,0.67,0.33,0.33,0.0,0.0,,stimuli/P_18_36_09_18.png,,,,,0,134,134,182,,,,,,,,,,,,,,,,,,,,,,,,,,,,2382.710304301232,None,2382.710304301232,None,2383.0764850005507,None,2383.0764850005507,None,25,2383.0764850005507,None,return,4.4090817999094725,2383.0764850005507,None,,,YEERASILI,M,001,2023_Apr_18_1601,untitled,2021.1.4,48.04696296045182,
0,18,18,36,18,18,72,0.75,1.0,0.0,0.33,-0.33,-0.5,,stimuli/P_00_18_18_36.png,,,,,0,135,135,43,,,,,,,,,,,,,,,,,,,,,,,,,,,,2387.5051578003913,None,2387.5051578003913,None,2387.872359400615,None,2387.872359400615,None,33,2387.872359400615,None,return,4.420828899368644,2387.872359400615,None,,,YEERASILI,M,001,2023_Apr_18_1601,untitled,2021.1.4,48.04696296045182,
9,36,0,18,45,9,63,0.43,0.8,0.2,0.0,0.2,0.2,,stimuli/P_09_36_00_18.png,,,,,0,136,136,114,,,,,,,,,,,,,,,,,,,,,,,,,,,,2392.32683160156,None,2392.32683160156,None,2392.701508000493,None,2392.701508000493,None,15,2392.701508000493,None,return,2.524660799652338,2392.701508000493,None,,,YEERASILI,M,001,2023_Apr_18_1601,untitled,2021.1.4,48.04696296045182,
18,9,0,0,27,18,27,0.67,0.33,0.67,None,None,None,,stimuli/P_18_09_00_00.png,,,,,0,137,137,144,,,,,,,,,,,,,,,,,,,,,,,,,,,,2395.2664686013013,None,2395.2664686013013,None,2395.6519642006606,None,2395.6519642006606,None,66,2395.6519642006606,None,return,3.6047932989895344,2395.6519642006606,None,,,YEERASILI,M,001,2023_Apr_18_1601,untitled,2021.1.4,48.04696296045182,
18,18,9,9,36,27,54,0.67,0.5,0.5,0.5,0.0,0.0,,stimuli/P_18_18_09_09.png,,,,,0,138,138,165,,,,,,,,,,,,,,,,,,,,,,,,,,,,2399.2889690008014,None,2399.2889690008014,None,2399.6624168008566,None,2399.6624168008566,None,66,2399.6624168008566,None,return,4.115829199552536,2399.6624168008566,None,,,YEERASILI,M,001,2023_Apr_18_1601,untitled,2021.1.4,48.04696296045182,
0,9,18,9,9,18,36,0.75,1.0,0.0,0.67,-0.67,-2.0,,stimuli/P_00_09_18_09.png,,,,,0,139,139,25,,,,,,,,,,,,,,,,,,,,,,,,,,,,2403.807509601116,None,2403.807509601116,None,2404.1966981012374,None,2404.1966981012374,None,33,2404.1966981012374,None,return,4.1770338006317616,2404.1966981012374,None,,,YEERASILI,M,001,2023_Apr_18_1601,untitled,2021.1.4,48.04696296045182,
9,18,9,36,27,18,72,0.75,0.67,0.33,0.2,0.13,0.17,,stimuli/P_09_18_09_36.png,,,,,0,140,140,103,,,,,,,,,,,,,,,,,,,,,,,,,,,,2408.404375500977,None,2408.404375500977,None,2408.752553600818,None,2408.752553600818,None,25,2408.752553600818,None,return,4.921980200335383,2408.752553600818,None,,,YEERASILI,M,001,2023_Apr_18_1601,untitled,2021.1.4,48.04696296045182,
18,9,18,18,27,36,63,0.86,0.33,0.67,0.5,0.17,0.33,,stimuli/P_18_09_18_18.png,,,,,0,141,141,154,,,,,,,,,,,,,,,,,,,,,,,,,,,,2413.690559601411,None,2413.690559601411,None,2414.0931609012187,None,2414.0931609012187,None,50,2414.0931609012187,None,return,5.597170799970627,2414.0931609012187,None,,,YEERASILI,M,001,2023_Apr_18_1601,untitled,2021.1.4,48.04696296045182,
18,0,9,0,18,27,27,1.0,0.0,1.0,1.0,0.0,None,,stimuli/P_18_00_09_00.png,,,,,0,142,142,132,,,,,,,,,,,,,,,,,,,,,,,,,,,,2419.711115401238,None,2419.711115401238,None,2420.1015044003725,None,2420.1015044003725,None,70,2420.1015044003725,None,return,4.114742899313569,2420.1015044003725,None,,,YEERASILI,M,001,2023_Apr_18_1601,untitled,2021.1.4,48.04696296045182,
0,0,0,18,0,0,18,1.0,None,None,0.0,None,None,,stimuli/P_00_00_00_18.png,,,,,0,143,143,2,,,,,,,,,,,,,,,,,,,,,,,,,,,,2424.2404752001166,None,2424.2404752001166,None,2424.5992544014007,None,2424.5992544014007,None,25,2424.5992544014007,None,return,3.6020430997014046,2424.5992544014007,None,,,YEERASILI,M,001,2023_Apr_18_1601,untitled,2021.1.4,48.04696296045182,
0,9,18,18,9,18,45,0.8,1.0,0.0,0.5,-0.5,-1.0,,stimuli/P_00_09_18_18.png,,,,,0,144,144,26,,,,,,,,,,,,,,,,,,,,,,,,,,,,2428.2410330008715,None,2428.2410330008715,None,2428.6078804004937,None,2428.6078804004937,None,22,2428.6078804004937,None,return,5.637833399698138,2428.6078804004937,None,,,YEERASILI,M,001,2023_Apr_18_1601,untitled,2021.1.4,48.04696296045182,
36,18,18,36,54,54,108,0.83,0.33,0.67,0.33,0.33,0.5,,stimuli/P_36_18_18_36.png,,,,,0,145,145,235,,,,,,,,,,,,,,,,,,,,,,,,,,,,2434.2820800002664,None,2434.2820800002664,None,2434.6487945001572,None,2434.6487945001572,None,33,2434.6487945001572,None,return,4.242901498451829,2434.6487945001572,None,,,YEERASILI,M,001,2023_Apr_18_1601,untitled,2021.1.4,48.04696296045182,
0,9,18,36,9,18,63,0.86,1.0,0.0,0.33,-0.33,-0.5,,stimuli/P_00_09_18_36.png,,,,,0,146,146,27,,,,,,,,,,,,,,,,,,,,,,,,,,,,2438.9280748013407,None,2438.9280748013407,None,2439.295034101233,None,2439.295034101233,None,25,2439.295034101233,None,return,5.001384099945426,2439.295034101233,None,,,YEERASILI,M,001,2023_Apr_18_1601,untitled,2021.1.4,48.04696296045182,
9,36,9,0,45,18,54,0.33,0.8,0.2,1.0,-0.8,#NAME?,,stimuli/P_09_36_09_00.png,,,,,0,147,147,116,,,,,,,,,,,,,,,,,,,,,,,,,,,,2444.3251239005476,None,2444.3251239005476,None,2444.698745800182,None,2444.698745800182,None,15,2444.698745800182,None,return,4.448099501430988,2444.698745800182,None,,,YEERASILI,M,001,2023_Apr_18_1601,untitled,2021.1.4,48.04696296045182,
9,18,18,18,27,27,63,0.71,0.67,0.33,0.5,-0.17,-0.33,,stimuli/P_09_18_18_18.png,,,,,0,148,148,106,,,,,,,,,,,,,,,,,,,,,,,,,,,,2449.1710671000183,None,2449.1710671000183,None,2449.5470781009644,None,2449.5470781009644,None,20,2449.5470781009644,None,return,4.602152099832892,2449.5470781009644,None,,,YEERASILI,M,001,2023_Apr_18_1601,untitled,2021.1.4,48.04696296045182,
36,9,0,0,45,36,45,0.8,0.2,0.8,None,None,None,,stimuli/P_36_09_00_00.png,,,,,0,149,149,208,,,,,,,,,,,,,,,,,,,,,,,,,,,,2454.18005400151,None,2454.18005400151,None,2454.545332800597,None,2454.545332800597,None,25,2454.545332800597,None,return,4.756228601559997,2454.545332800597,None,,,YEERASILI,M,001,2023_Apr_18_1601,untitled,2021.1.4,48.04696296045182,
36,0,18,18,36,54,72,1.0,0.0,1.0,0.5,0.5,1.0,,stimuli/P_36_00_18_18.png,,,,,0,150,150,202,,,,,,,,,,,,,,,,,,,,,,,,,,,,2459.3255799002945,None,2459.3255799002945,None,2459.696087701246,None,2459.696087701246,None,66,2459.696087701246,None,return,3.487017199397087,2459.696087701246,None,,,YEERASILI,M,001,2023_Apr_18_1601,untitled,2021.1.4,48.04696296045182,
9,9,18,36,18,27,72,0.88,0.5,0.5,0.33,0.17,0.25,,stimuli/P_09_09_18_36.png,,,,,0,151,151,91,,,,,,,,,,,,,,,,,,,,,,,,,,,,2463.223366400227,None,2463.223366400227,None,2463.586771801114,None,2463.586771801114,None,20,2463.586771801114,None,return,2.2754116002470255,2463.586771801114,None,,,YEERASILI,M,001,2023_Apr_18_1601,untitled,2021.1.4,48.04696296045182,
18,18,18,0,36,36,54,0.67,0.5,0.5,1.0,-0.5,#NAME?,,stimuli/P_18_18_18_00.png,,,,,0,152,152,168,,,,,,,,,,,,,,,,,,,,,,,,,,,,2465.897445300594,None,2465.897445300594,None,2466.2663683015853,None,2466.2663683015853,None,33,2466.2663683015853,None,return,3.0184332001954317,2466.2663683015853,None,,,YEERASILI,M,001,2023_Apr_18_1601,untitled,2021.1.4,48.04696296045182,
18,18,0,18,36,18,54,0.67,0.5,0.5,0.0,0.5,0.5,,stimuli/P_18_18_00_18.png,,,,,0,153,153,162,,,,,,,,,,,,,,,,,,,,,,,,,,,,2469.3133380003273,None,2469.3133380003273,None,2469.681556100026,None,2469.681556100026,None,33,2469.681556100026,None,return,1.0760583002120256,2469.681556100026,None,,,YEERASILI,M,001,2023_Apr_18_1601,untitled,2021.1.4,48.04696296045182,
0,0,36,0,0,36,36,1.0,None,None,1.0,None,None,,stimuli/P_00_00_36_00.png,,,,,0,154,154,12,,,,,,,,,,,,,,,,,,,,,,,,,,,,2470.7750454004854,None,2470.7750454004854,None,2471.1401681005955,None,2471.1401681005955,None,25,2471.1401681005955,None,return,2.22152560018003,2471.1401681005955,None,,,YEERASILI,M,001,2023_Apr_18_1601,untitled,2021.1.4,48.04696296045182,
18,0,0,9,18,18,27,1.0,0.0,1.0,0.0,1.0,1.0,,stimuli/P_18_00_00_09.png,,,,,0,155,155,129,,,,,,,,,,,,,,,,,,,,,,,,,,,,2473.388279000297,None,2473.388279000297,None,2473.764722701162,None,2473.764722701162,None,66,2473.764722701162,None,return,4.033686200156808,2473.764722701162,None,,,YEERASILI,M,001,2023_Apr_18_1601,untitled,2021.1.4,48.04696296045182,
9,9,0,9,18,9,27,0.67,0.5,0.5,0.0,0.5,0.5,,stimuli/P_09_09_00_09.png,,,,,0,156,156,81,,,,,,,,,,,,,,,,,,,,,,,,,,,,2477.8369008004665,None,2477.8369008004665,None,2478.2085566017777,None,2478.2085566017777,None,33,2478.2085566017777,None,return,1.4540289007127285,2478.2085566017777,None,,,YEERASILI,M,001,2023_Apr_18_1601,untitled,2021.1.4,48.04696296045182,
0,9,0,18,9,0,27,0.67,1.0,0.0,0.0,0.0,0.0,,stimuli/P_00_09_00_18.png,,,,,0,157,157,18,,,,,,,,,,,,,,,,,,,,,,,,,,,,2479.6802577003837,None,2479.6802577003837,None,2480.053103301674,None,2480.053103301674,None,20,2480.053103301674,None,return,4.338238500058651,2480.053103301674,None,,,YEERASILI,M,001,2023_Apr_18_1601,untitled,2021.1.4,48.04696296045182,
0,18,9,0,18,9,27,0.33,1.0,0.0,1.0,-1.0,#NAME?,,stimuli/P_00_18_09_00.png,,,,,0,158,158,36,,,,,,,,,,,,,,,,,,,,,,,,,,,,2484.4168188013136,None,2484.4168188013136,None,2484.7836547009647,None,2484.7836547009647,None,20,2484.7836547009647,None,return,1.8586919996887445,2484.7836547009647,None,,,YEERASILI,M,001,2023_Apr_18_1601,untitled,2021.1.4,48.04696296045182,
18,0,18,36,18,36,72,1.0,0.0,1.0,0.33,0.67,1.0,,stimuli/P_18_00_18_36.png,,,,,0,159,159,139,,,,,,,,,,,,,,,,,,,,,,,,,,,,2486.6585508007556,None,2486.6585508007556,None,2487.033053100109,None,2487.033053100109,None,33,2487.033053100109,None,return,3.102581599727273,2487.033053100109,None,,,YEERASILI,M,001,2023_Apr_18_1601,untitled,2021.1.4,48.04696296045182,
0,36,18,36,36,18,90,0.6,1.0,0.0,0.33,-0.33,-0.5,,stimuli/P_00_36_18_36.png,,,,,0,160,160,59,,,,,,,,,,,,,,,,,,,,,,,,,,,,2490.1695141009986,None,2490.1695141009986,None,2490.549815000966,None,2490.549815000966,None,33,2490.549815000966,None,return,3.0443715006113052,2490.549815000966,None,,,YEERASILI,M,001,2023_Apr_18_1601,untitled,2021.1.4,48.04696296045182,
18,18,36,36,36,54,108,0.83,0.5,0.5,0.5,0.0,0.0,,stimuli/P_18_18_36_36.png,,,,,0,161,161,175,,,,,,,,,,,,,,,,,,,,,,,,,,,,2493.633416701108,None,2493.633416701108,None,2494.003791600466,None,2494.003791600466,None,33,2494.003791600466,None,return,2.460358699783683,2494.003791600466,None,,,YEERASILI,M,001,2023_Apr_18_1601,untitled,2021.1.4,48.04696296045182,
18,36,36,9,54,54,99,0.64,0.67,0.33,0.8,-0.47,-2.33,,stimuli/P_18_36_36_09.png,,,,,0,162,162,189,,,,,,,,,,,,,,,,,,,,,,,,,,,,2496.495777601376,None,2496.495777601376,None,2496.8708164002746,None,2496.8708164002746,None,33,2496.8708164002746,None,return,1.5114178992807865,2496.8708164002746,None,,,YEERASILI,M,001,2023_Apr_18_1601,untitled,2021.1.4,48.04696296045182,
36,0,36,9,36,72,81,1.0,0.0,1.0,0.8,0.2,1.0,,stimuli/P_36_00_36_09.png,,,,,0,163,163,205,,,,,,,,,,,,,,,,,,,,,,,,,,,,2498.41796320118,None,2498.41796320118,None,2498.792696300894,None,2498.792696300894,None,40,2498.792696300894,None,return,7.4291812013834715,2498.792696300894,None,,,YEERASILI,M,001,2023_Apr_18_1601,untitled,2021.1.4,48.04696296045182,
36,36,36,36,72,72,144,0.75,0.5,0.5,0.5,0.0,0.0,,stimuli/P_36_36_36_36.png,,,,,0,164,164,255,,,,,,,,,,,,,,,,,,,,,,,,,,,,2506.2528216000646,None,2506.2528216000646,None,2506.6262779012322,None,2506.6262779012322,None,25,2506.6262779012322,None,return,6.399769000709057,2506.6262779012322,None,,,YEERASILI,M,001,2023_Apr_18_1601,untitled,2021.1.4,48.04696296045182,
0,0,18,18,0,18,36,1.0,None,None,0.5,None,None,,stimuli/P_00_00_18_18.png,,,,,0,165,165,10,,,,,,,,,,,,,,,,,,,,,,,,,,,,2513.042602101341,None,2513.042602101341,None,2513.4107315000147,None,2513.4107315000147,None,25,2513.4107315000147,None,return,1.9695697985589504,2513.4107315000147,None,,,YEERASILI,M,001,2023_Apr_18_1601,untitled,2021.1.4,48.04696296045182,
18,0,18,9,18,36,45,1.0,0.0,1.0,0.67,0.33,1.0,,stimuli/P_18_00_18_09.png,,,,,0,166,166,137,,,,,,,,,,,,,,,,,,,,,,,,,,,,2515.3986774012446,None,2515.3986774012446,None,2515.7645846009254,None,2515.7645846009254,None,33,2515.7645846009254,None,return,1.6893466990441084,2515.7645846009254,None,,,YEERASILI,M,001,2023_Apr_18_1601,untitled,2021.1.4,48.04696296045182,
36,18,36,18,54,72,108,0.83,0.33,0.67,0.67,0.0,0.0,,stimuli/P_36_18_36_18.png,,,,,0,167,167,238,,,,,,,,,,,,,,,,,,,,,,,,,,,,2517.484148500487,None,2517.484148500487,None,2517.8543433006853,None,2517.8543433006853,None,40,2517.8543433006853,None,return,4.254557799547911,2517.8543433006853,None,,,YEERASILI,M,001,2023_Apr_18_1601,untitled,2021.1.4,48.04696296045182,
0,36,36,36,36,36,108,0.67,1.0,0.0,0.5,-0.5,-1.0,,stimuli/P_00_36_36_36.png,,,,,0,168,168,63,,,,,,,,,,,,,,,,,,,,,,,,,,,,2522.1364500001073,None,2522.1364500001073,None,2522.504064001143,None,2522.504064001143,None,33,2522.504064001143,None,return,2.219252899289131,2522.504064001143,None,,,YEERASILI,M,001,2023_Apr_18_1601,untitled,2021.1.4,48.04696296045182,
36,9,9,36,45,45,90,0.9,0.2,0.8,0.2,0.6,0.75,,stimuli/P_36_09_09_36.png,,,,,0,169,169,215,,,,,,,,,,,,,,,,,,,,,,,,,,,,2524.7493349015713,None,2524.7493349015713,None,2525.094814600423,None,2525.094814600423,None,50,2525.094814600423,None,return,4.304186498746276,2525.094814600423,None,,,YEERASILI,M,001,2023_Apr_18_1601,untitled,2021.1.4,48.04696296045182,
0,36,0,18,36,0,54,0.33,1.0,0.0,0.0,0.0,0.0,,stimuli/P_00_36_00_18.png,,,,,0,170,170,50,,,,,,,,,,,,,,,,,,,,,,,,,,,,2529.4366485010833,None,2529.4366485010833,None,2529.8021142017096,None,2529.8021142017096,None,25,2529.8021142017096,None,return,4.461020600050688,2529.8021142017096,None,,,YEERASILI,M,001,2023_Apr_18_1601,untitled,2021.1.4,48.04696296045182,
9,9,36,9,18,45,63,0.86,0.5,0.5,0.8,-0.3,-1.5,,stimuli/P_09_09_36_09.png,,,,,0,171,171,93,,,,,,,,,,,,,,,,,,,,,,,,,,,,2534.2954528015107,None,2534.2954528015107,None,2534.657701300457,None,2534.657701300457,None,14,2534.657701300457,None,return,2.673496998846531,2534.657701300457,None,,,YEERASILI,M,001,2023_Apr_18_1601,untitled,2021.1.4,48.04696296045182,
18,36,9,9,54,27,72,0.5,0.67,0.33,0.5,-0.17,-0.33,,stimuli/P_18_36_09_09.png,,,,,0,172,172,181,,,,,,,,,,,,,,,,,,,,,,,,,,,,2537.3668898008764,None,2537.3668898008764,None,2537.733813000843,None,2537.733813000843,None,35,2537.733813000843,None,return,4.079840401187539,2537.733813000843,None,,,YEERASILI,M,001,2023_Apr_18_1601,untitled,2021.1.4,48.04696296045182,
36,9,36,36,45,72,117,0.92,0.2,0.8,0.5,0.3,0.6,,stimuli/P_36_09_36_36.png,,,,,0,173,173,223,,,,,,,,,,,,,,,,,,,,,,,,,,,,2541.846521301195,None,2541.846521301195,None,2542.2238068003207,None,2542.2238068003207,None,40,2542.2238068003207,None,return,5.036338500678539,2542.2238068003207,None,,,YEERASILI,M,001,2023_Apr_18_1601,untitled,2021.1.4,48.04696296045182,
18,18,0,0,36,18,36,0.5,0.5,0.5,None,None,None,,stimuli/P_18_18_00_00.png,,,,,0,174,174,160,,,,,,,,,,,,,,,,,,,,,,,,,,,,2547.294996801764,None,2547.294996801764,None,2547.7100142017007,None,2547.7100142017007,None,50,2547.7100142017007,None,return,4.625780100002885,2547.7100142017007,None,,,YEERASILI,M,001,2023_Apr_18_1601,untitled,2021.1.4,48.04696296045182,
18,0,36,36,18,54,90,1.0,0.0,1.0,0.5,0.5,1.0,,stimuli/P_18_00_36_36.png,,,,,0,175,175,143,,,,,,,,,,,,,,,,,,,,,,,,,,,,2552.365924300626,None,2552.365924300626,None,2552.7374125011265,None,2552.7374125011265,None,33,2552.7374125011265,None,return,3.904525298625231,2552.7374125011265,None,,,YEERASILI,M,001,2023_Apr_18_1601,untitled,2021.1.4,48.04696296045182,
9,0,36,18,9,45,63,1.0,0.0,1.0,0.67,0.33,1.0,,stimuli/P_09_00_36_18.png,,,,,0,176,176,78,,,,,,,,,,,,,,,,,,,,,,,,,,,,2556.672524701804,None,2556.672524701804,None,2557.1451709009707,None,2557.1451709009707,None,22,2557.1451709009707,None,return,3.534891501069069,2557.1451709009707,None,,,YEERASILI,M,001,2023_Apr_18_1601,untitled,2021.1.4,48.04696296045182,
18,0,36,18,18,54,72,1.0,0.0,1.0,0.67,0.33,1.0,,stimuli/P_18_00_36_18.png,,,,,0,177,177,142,,,,,,,,,,,,,,,,,,,,,,,,,,,,2560.7064830008894,None,2560.7064830008894,None,2561.2463982012123,None,2561.2463982012123,None,23,2561.2463982012123,None,return,1.553014799952507,2561.2463982012123,None,,,YEERASILI,M,001,2023_Apr_18_1601,untitled,2021.1.4,48.04696296045182,
36,9,0,18,45,36,63,0.86,0.2,0.8,0.0,0.8,0.8,,stimuli/P_36_09_00_18.png,,,,,0,178,178,210,,,,,,,,,,,,,,,,,,,,,,,,,,,,2562.8325165007263,None,2562.8325165007263,None,2563.241609301418,None,2563.241609301418,None,50,2563.241609301418,None,return,4.699313599616289,2563.241609301418,None,,,YEERASILI,M,001,2023_Apr_18_1601,untitled,2021.1.4,48.04696296045182,
36,36,0,18,72,36,90,0.6,0.5,0.5,0.0,0.5,0.5,,stimuli/P_36_36_00_18.png,,,,,0,179,179,242,,,,,,,,,,,,,,,,,,,,,,,,,,,,2567.9749642014503,None,2567.9749642014503,None,2568.3459076005965,None,2568.3459076005965,None,45,2568.3459076005965,None,return,4.487482300028205,2568.3459076005965,None,,,YEERASILI,M,001,2023_Apr_18_1601,untitled,2021.1.4,48.04696296045182,
9,18,9,9,27,18,45,0.6,0.67,0.33,0.5,-0.17,-0.33,,stimuli/P_09_18_09_09.png,,,,,0,180,180,101,,,,,,,,,,,,,,,,,,,,,,,,,,,,2572.8535394016653,None,2572.8535394016653,None,2573.244525000453,None,2573.244525000453,None,22,2573.244525000453,None,return,3.8285036999732256,2573.244525000453,None,,,YEERASILI,M,001,2023_Apr_18_1601,untitled,2021.1.4,48.04696296045182,
18,0,36,0,18,54,54,1.0,0.0,1.0,1.0,0.0,None,,stimuli/P_18_00_36_00.png,,,,,0,181,181,140,,,,,,,,,,,,,,,,,,,,,,,,,,,,2577.097166100517,None,2577.097166100517,None,2577.4908089004457,None,2577.4908089004457,None,33,2577.4908089004457,None,return,3.335460901260376,2577.4908089004457,None,,,YEERASILI,M,001,2023_Apr_18_1601,untitled,2021.1.4,48.04696296045182,
9,0,18,36,9,27,63,1.0,0.0,1.0,0.33,0.67,1.0,,stimuli/P_09_00_18_36.png,,,,,0,182,182,75,,,,,,,,,,,,,,,,,,,,,,,,,,,,2580.858478201553,None,2580.858478201553,None,2581.2421959005296,None,2581.2421959005296,None,20,2581.2421959005296,None,return,2.903446899726987,2581.2421959005296,None,,,YEERASILI,M,001,2023_Apr_18_1601,untitled,2021.1.4,48.04696296045182,
9,0,9,36,9,18,54,1.0,0.0,1.0,0.2,0.8,1.0,,stimuli/P_09_00_09_36.png,,,,,0,183,183,71,,,,,,,,,,,,,,,,,,,,,,,,,,,,2584.1633159015328,None,2584.1633159015328,None,2584.5315460003912,None,2584.5315460003912,None,15,2584.5315460003912,None,return,2.5892465990036726,2584.5315460003912,None,,,YEERASILI,M,001,2023_Apr_18_1601,untitled,2021.1.4,48.04696296045182,
18,36,18,9,54,36,81,0.56,0.67,0.33,0.67,-0.33,-1.0,,stimuli/P_18_36_18_09.png,,,,,0,184,184,185,,,,,,,,,,,,,,,,,,,,,,,,,,,,2587.159579500556,None,2587.159579500556,None,2587.5801550000906,None,2587.5801550000906,None,22,2587.5801550000906,None,return,1.9162431005388498,2587.5801550000906,None,,,YEERASILI,M,001,2023_Apr_18_1601,untitled,2021.1.4,48.04696296045182,
18,9,9,18,27,27,54,0.83,0.33,0.67,0.33,0.33,0.5,,stimuli/P_18_09_09_18.png,,,,,0,185,185,150,,,,,,,,,,,,,,,,,,,,,,,,,,,,2589.5174529012293,None,2589.5174529012293,None,2589.8890398014337,None,2589.8890398014337,None,40,2589.8890398014337,None,return,4.9067126996815205,2589.8890398014337,None,,,YEERASILI,M,001,2023_Apr_18_1601,untitled,2021.1.4,48.04696296045182,
18,9,18,9,27,36,54,0.83,0.33,0.67,0.67,0.0,0.0,,stimuli/P_18_09_18_09.png,,,,,0,186,186,153,,,,,,,,,,,,,,,,,,,,,,,,,,,,2594.8302749004215,None,2594.8302749004215,None,2595.210992800072,None,2595.210992800072,None,40,2595.210992800072,None,return,2.3663263004273176,2595.210992800072,None,,,YEERASILI,M,001,2023_Apr_18_1601,untitled,2021.1.4,48.04696296045182,
9,18,36,36,27,45,99,0.82,0.67,0.33,0.5,-0.17,-0.33,,stimuli/P_09_18_36_36.png,,,,,0,187,187,111,,,,,,,,,,,,,,,,,,,,,,,,,,,,2597.6090793013573,None,2597.6090793013573,None,2597.9754489008337,None,2597.9754489008337,None,10,2597.9754489008337,None,return,2.593411199748516,2597.9754489008337,None,,,YEERASILI,M,001,2023_Apr_18_1601,untitled,2021.1.4,48.04696296045182,
18,9,0,9,27,18,36,0.75,0.33,0.67,0.0,0.67,0.67,,stimuli/P_18_09_00_09.png,,,,,0,188,188,145,,,,,,,,,,,,,,,,,,,,,,,,,,,,2600.6010174006224,None,2600.6010174006224,None,2600.9699531011283,None,2600.9699531011283,None,60,2600.9699531011283,None,return,3.9894562009721994,2600.9699531011283,None,,,YEERASILI,M,001,2023_Apr_18_1601,untitled,2021.1.4,48.04696296045182,
18,36,9,0,54,27,63,0.43,0.67,0.33,1.0,-0.67,#NAME?,,stimuli/P_18_36_09_00.png,,,,,0,189,189,180,,,,,,,,,,,,,,,,,,,,,,,,,,,,2604.978328600526,None,2604.978328600526,None,2605.3551638014615,None,2605.3551638014615,None,30,2605.3551638014615,None,return,4.027174800634384,2605.3551638014615,None,,,YEERASILI,M,001,2023_Apr_18_1601,untitled,2021.1.4,48.04696296045182,
36,18,9,0,54,45,63,0.71,0.33,0.67,1.0,-0.33,#NAME?,,stimuli/P_36_18_09_00.png,,,,,0,190,190,228,,,,,,,,,,,,,,,,,,,,,,,,,,,,2609.4149646013975,None,2609.4149646013975,None,2609.782062601298,None,2609.782062601298,None,60,2609.782062601298,None,return,6.323617599904537,2609.782062601298,None,,,YEERASILI,M,001,2023_Apr_18_1601,untitled,2021.1.4,48.04696296045182,
36,0,18,36,36,54,90,1.0,0.0,1.0,0.33,0.67,1.0,,stimuli/P_36_00_18_36.png,,,,,0,191,191,203,,,,,,,,,,,,,,,,,,,,,,,,,,,,2616.126288700849,None,2616.126288700849,None,2616.500830400735,None,2616.500830400735,None,40,2616.500830400735,None,return,5.258711999282241,2616.500830400735,None,,,YEERASILI,M,001,2023_Apr_18_1601,untitled,2021.1.4,48.04696296045182,
0,36,18,0,36,18,54,0.33,1.0,0.0,1.0,-1.0,#NAME?,,stimuli/P_00_36_18_00.png,,,,,0,192,192,56,,,,,,,,,,,,,,,,,,,,,,,,,,,,2621.7851307000965,None,2621.7851307000965,None,2622.1550991013646,None,2622.1550991013646,None,20,2622.1550991013646,None,return,3.3927084002643824,2622.1550991013646,None,,,YEERASILI,M,001,2023_Apr_18_1601,untitled,2021.1.4,48.04696296045182,
18,9,9,0,27,27,36,0.75,0.33,0.67,1.0,-0.33,#NAME?,,stimuli/P_18_09_09_00.png,,,,,0,193,193,148,,,,,,,,,,,,,,,,,,,,,,,,,,,,2625.5762258004397,None,2625.5762258004397,None,2625.9595417007804,None,2625.9595417007804,None,60,2625.9595417007804,None,return,3.9664209000766277,2625.9595417007804,None,,,YEERASILI,M,001,2023_Apr_18_1601,untitled,2021.1.4,48.04696296045182,
18,18,0,9,36,18,45,0.6,0.5,0.5,0.0,0.5,0.5,,stimuli/P_18_18_00_09.png,,,,,0,194,194,161,,,,,,,,,,,,,,,,,,,,,,,,,,,,2629.9425710011274,None,2629.9425710011274,None,2630.3070237003267,None,2630.3070237003267,None,45,2630.3070237003267,None,return,4.427725998684764,2630.3070237003267,None,,,YEERASILI,M,001,2023_Apr_18_1601,untitled,2021.1.4,48.04696296045182,
0,36,36,18,36,36,90,0.6,1.0,0.0,0.67,-0.67,-2.0,,stimuli/P_00_36_36_18.png,,,,,0,195,195,62,,,,,,,,,,,,,,,,,,,,,,,,,,,,2634.7619588002563,None,2634.7619588002563,None,2635.129639601335,None,2635.129639601335,None,10,2635.129639601335,None,return,3.85125569999218,2635.129639601335,None,,,YEERASILI,M,001,2023_Apr_18_1601,untitled,2021.1.4,48.04696296045182,
18,9,9,9,27,27,45,0.8,0.33,0.67,0.5,0.17,0.33,,stimuli/P_18_09_09_09.png,,,,,0,196,196,149,,,,,,,,,,,,,,,,,,,,,,,,,,,,2639.0166531000286,None,2639.0166531000286,None,2639.3878202009946,None,2639.3878202009946,None,50,2639.3878202009946,None,return,5.113094700500369,2639.3878202009946,None,,,YEERASILI,M,001,2023_Apr_18_1601,untitled,2021.1.4,48.04696296045182,
0,0,9,36,0,9,45,1.0,None,None,0.2,None,None,,stimuli/P_00_00_09_36.png,,,,,0,197,197,7,,,,,,,,,,,,,,,,,,,,,,,,,,,,2644.518736401573,None,2644.518736401573,None,2644.884716000408,None,2644.884716000408,None,22,2644.884716000408,None,return,2.9057091996073723,2644.884716000408,None,,,YEERASILI,M,001,2023_Apr_18_1601,untitled,2021.1.4,48.04696296045182,
36,18,9,36,54,45,99,0.82,0.33,0.67,0.2,0.47,0.58,,stimuli/P_36_18_09_36.png,,,,,0,198,198,231,,,,,,,,,,,,,,,,,,,,,,,,,,,,2647.824460800737,None,2647.824460800737,None,2648.1935014016926,None,2648.1935014016926,None,50,2648.1935014016926,None,return,2.77372619882226,2648.1935014016926,None,,,YEERASILI,M,001,2023_Apr_18_1601,untitled,2021.1.4,48.04696296045182,
9,9,9,0,18,18,27,0.67,0.5,0.5,1.0,-0.5,#NAME?,,stimuli/P_09_09_09_00.png,,,,,0,199,199,84,,,,,,,,,,,,,,,,,,,,,,,,,,,,2650.9841653015465,None,2650.9841653015465,None,2651.3528147004545,None,2651.3528147004545,None,33,2651.3528147004545,None,return,2.0061425995081663,2651.3528147004545,None,,,YEERASILI,M,001,2023_Apr_18_1601,untitled,2021.1.4,48.04696296045182,
0,0,0,9,0,0,9,1.0,None,None,0.0,None,None,,stimuli/P_00_00_00_09.png,,,,,0,200,200,1,,,,,,,,,,,,,,,,,,,,,,,,,,,,2653.3799868002534,None,2653.3799868002534,None,2653.7497514002025,None,2653.7497514002025,None,25,2653.7497514002025,None,return,2.183917999267578,2653.7497514002025,None,,,YEERASILI,M,001,2023_Apr_18_1601,untitled,2021.1.4,48.04696296045182,
36,0,36,18,36,72,90,1.0,0.0,1.0,0.67,0.33,1.0,,stimuli/P_36_00_36_18.png,,,,,0,201,201,206,,,,,,,,,,,,,,,,,,,,,,,,,,,,2655.9616984017193,None,2655.9616984017193,None,2656.334431901574,None,2656.334431901574,None,45,2656.334431901574,None,return,2.562610698863864,2656.334431901574,None,,,YEERASILI,M,001,2023_Apr_18_1601,untitled,2021.1.4,48.04696296045182,
36,18,36,9,54,72,99,0.82,0.33,0.67,0.8,-0.13,-0.67,,stimuli/P_36_18_36_09.png,,,,,0,202,202,237,,,,,,,,,,,,,,,,,,,,,,,,,,,,2658.913877401501,None,2658.913877401501,None,2659.2967149000615,None,2659.2967149000615,None,45,2659.2967149000615,None,return,1.971517799422145,2659.2967149000615,None,,,YEERASILI,M,001,2023_Apr_18_1601,untitled,2021.1.4,48.04696296045182,
9,36,9,18,45,18,72,0.5,0.8,0.2,0.33,-0.13,-0.2,,stimuli/P_09_36_09_18.png,,,,,0,203,203,118,,,,,,,,,,,,,,,,,,,,,,,,,,,,2661.2940796017647,None,2661.2940796017647,None,2661.6640927009284,None,2661.6640927009284,None,60,2661.6640927009284,None,return,2.319667600095272,2661.6640927009284,None,,,YEERASILI,M,001,2023_Apr_18_1601,untitled,2021.1.4,48.04696296045182,
36,18,18,0,54,54,72,0.75,0.33,0.67,1.0,-0.33,#NAME?,,stimuli/P_36_18_18_00.png,,,,,0,204,204,232,,,,,,,,,,,,,,,,,,,,,,,,,,,,2664.001636400819,None,2664.001636400819,None,2664.3701133001596,None,2664.3701133001596,None,60,2664.3701133001596,None,return,2.58148929849267,2664.3701133001596,None,,,YEERASILI,M,001,2023_Apr_18_1601,untitled,2021.1.4,48.04696296045182,
36,0,0,36,36,36,72,1.0,0.0,1.0,0.0,1.0,1.0,,stimuli/P_36_00_00_36.png,,,,,0,205,205,195,,,,,,,,,,,,,,,,,,,,,,,,,,,,2667.0096122007817,None,2667.0096122007817,None,2667.3659227006137,None,2667.3659227006137,None,50,2667.3659227006137,None,return,3.7908510006964207,2667.3659227006137,None,,,YEERASILI,M,001,2023_Apr_18_1601,untitled,2021.1.4,48.04696296045182,
18,36,0,36,54,18,90,0.6,0.67,0.33,0.0,0.33,0.33,,stimuli/P_18_36_00_36.png,,,,,0,206,206,179,,,,,,,,,,,,,,,,,,,,,,,,,,,,2671.1834034007043,None,2671.1834034007043,None,2671.566683301702,None,2671.566683301702,None,33,2671.566683301702,None,return,2.3001313004642725,2671.566683301702,None,,,YEERASILI,M,001,2023_Apr_18_1601,untitled,2021.1.4,48.04696296045182,
36,18,36,0,54,72,90,0.8,0.33,0.67,1.0,-0.33,#NAME?,,stimuli/P_36_18_36_00.png,,,,,0,207,207,236,,,,,,,,,,,,,,,,,,,,,,,,,,,,2673.897537201643,None,2673.897537201643,None,2674.2762140017003,None,2674.2762140017003,None,40,2674.2762140017003,None,return,2.438996698707342,2674.2762140017003,None,,,YEERASILI,M,001,2023_Apr_18_1601,untitled,2021.1.4,48.04696296045182,
36,36,18,0,72,54,90,0.6,0.5,0.5,1.0,-0.5,#NAME?,,stimuli/P_36_36_18_00.png,,,,,0,208,208,248,,,,,,,,,,,,,,,,,,,,,,,,,,,,2676.730530101806,None,2676.730530101806,None,2677.1001055017114,None,2677.1001055017114,None,40,2677.1001055017114,None,return,2.054236499592662,2677.1001055017114,None,,,YEERASILI,M,001,2023_Apr_18_1601,untitled,2021.1.4,48.04696296045182,
9,18,18,36,27,27,81,0.78,0.67,0.33,0.33,0.0,0.0,,stimuli/P_09_18_18_36.png,,,,,0,209,209,107,,,,,,,,,,,,,,,,,,,,,,,,,,,,2679.1877107005566,None,2679.1877107005566,None,2679.555088000372,None,2679.555088000372,None,20,2679.555088000372,None,return,2.4543260987848043,2679.555088000372,None,,,YEERASILI,M,001,2023_Apr_18_1601,untitled,2021.1.4,48.04696296045182,
0,36,36,0,36,36,72,0.5,1.0,0.0,1.0,-1.0,#NAME?,,stimuli/P_00_36_36_00.png,,,,,0,210,210,60,,,,,,,,,,,,,,,,,,,,,,,,,,,,2682.0430010017008,None,2682.0430010017008,None,2682.4165952000767,None,2682.4165952000767,None,25,2682.4165952000767,None,return,2.241764400154352,2682.4165952000767,None,,,YEERASILI,M,001,2023_Apr_18_1601,untitled,2021.1.4,48.04696296045182,
36,9,18,18,45,54,81,0.89,0.2,0.8,0.5,0.3,0.6,,stimuli/P_36_09_18_18.png,,,,,0,211,211,218,,,,,,,,,,,,,,,,,,,,,,,,,,,,2684.68730940111,None,2684.68730940111,None,2685.0578623004258,None,2685.0578623004258,None,60,2685.0578623004258,None,return,2.1969444006681442,2685.0578623004258,None,,,YEERASILI,M,001,2023_Apr_18_1601,untitled,2021.1.4,48.04696296045182,
9,36,9,9,45,18,63,0.43,0.8,0.2,0.5,-0.3,-0.6,,stimuli/P_09_36_09_09.png,,,,,0,212,212,117,,,,,,,,,,,,,,,,,,,,,,,,,,,,2687.274476200342,None,2687.274476200342,None,2687.6483892016113,None,2687.6483892016113,None,10,2687.6483892016113,None,return,4.244793400168419,2687.6483892016113,None,,,YEERASILI,M,001,2023_Apr_18_1601,untitled,2021.1.4,48.04696296045182,
9,0,0,9,9,9,18,1.0,0.0,1.0,0.0,1.0,1.0,,stimuli/P_09_00_00_09.png,,,,,0,213,213,65,,,,,,,,,,,,,,,,,,,,,,,,,,,,2691.912180200219,None,2691.912180200219,None,2692.2757529001683,None,2692.2757529001683,None,50,2692.2757529001683,None,return,3.3224579002708197,2692.2757529001683,None,,,YEERASILI,M,001,2023_Apr_18_1601,untitled,2021.1.4,48.04696296045182,
36,36,18,9,72,54,99,0.64,0.5,0.5,0.67,-0.17,-0.5,,stimuli/P_36_36_18_09.png,,,,,0,214,214,249,,,,,,,,,,,,,,,,,,,,,,,,,,,,2695.6376325003803,None,2695.6376325003803,None,2695.993990201503,None,2695.993990201503,None,50,2695.993990201503,None,return,2.4082140997052193,2695.993990201503,None,,,YEERASILI,M,001,2023_Apr_18_1601,untitled,2021.1.4,48.04696296045182,
0,0,9,0,0,9,9,1.0,None,None,1.0,None,None,,stimuli/P_00_00_09_00.png,,,,,0,215,215,4,,,,,,,,,,,,,,,,,,,,,,,,,,,,2698.4193492010236,None,2698.4193492010236,None,2698.8091075010598,None,2698.8091075010598,None,25,2698.8091075010598,None,return,2.6700982991605997,2698.8091075010598,None,,,YEERASILI,M,001,2023_Apr_18_1601,untitled,2021.1.4,48.04696296045182,
0,18,9,9,18,9,36,0.5,1.0,0.0,0.5,-0.5,-1.0,,stimuli/P_00_18_09_09.png,,,,,0,216,216,37,,,,,,,,,,,,,,,,,,,,,,,,,,,,2701.51408050023,None,2701.51408050023,None,2701.8862131014466,None,2701.8862131014466,None,15,2701.8862131014466,None,return,2.708371600136161,2701.8862131014466,None,,,YEERASILI,M,001,2023_Apr_18_1601,untitled,2021.1.4,48.04696296045182,
18,9,0,36,27,18,63,0.86,0.33,0.67,0.0,0.67,0.67,,stimuli/P_18_09_00_36.png,,,,,0,217,217,147,,,,,,,,,,,,,,,,,,,,,,,,,,,,2704.626031400636,None,2704.626031400636,None,2704.9918057005852,None,2704.9918057005852,None,25,2704.9918057005852,None,return,2.459593201056123,2704.9918057005852,None,,,YEERASILI,M,001,2023_Apr_18_1601,untitled,2021.1.4,48.04696296045182,
0,36,36,9,36,36,81,0.56,1.0,0.0,0.8,-0.8,-4.0,,stimuli/P_00_36_36_09.png,,,,,0,218,218,61,,,,,,,,,,,,,,,,,,,,,,,,,,,,2707.480871401727,None,2707.480871401727,None,2707.8611343000084,None,2707.8611343000084,None,22,2707.8611343000084,None,return,2.7045051995664835,2707.8611343000084,None,,,YEERASILI,M,001,2023_Apr_18_1601,untitled,2021.1.4,48.04696296045182,
9,36,36,36,45,45,117,0.69,0.8,0.2,0.5,-0.3,-0.6,,stimuli/P_09_36_36_36.png,,,,,0,219,219,127,,,,,,,,,,,,,,,,,,,,,,,,,,,,2710.587400201708,None,2710.587400201708,None,2710.955776201561,None,2710.955776201561,None,25,2710.955776201561,None,return,4.76416239887476,2710.955776201561,None,,,YEERASILI,M,001,2023_Apr_18_1601,untitled,2021.1.4,48.04696296045182,
18,9,36,0,27,54,63,0.86,0.33,0.67,1.0,-0.33,#NAME?,,stimuli/P_18_09_36_00.png,,,,,0,220,220,156,,,,,,,,,,,,,,,,,,,,,,,,,,,,2715.735928600654,None,2715.735928600654,None,2716.116578301415,None,2716.116578301415,None,45,2716.116578301415,None,return,3.2677000984549522,2716.116578301415,None,,,YEERASILI,M,001,2023_Apr_18_1601,untitled,2021.1.4,48.04696296045182,
0,36,0,36,36,0,72,0.5,1.0,0.0,0.0,0.0,0.0,,stimuli/P_00_36_00_36.png,,,,,0,221,221,51,,,,,,,,,,,,,,,,,,,,,,,,,,,,2719.4097353015095,None,2719.4097353015095,None,2719.7662047017366,None,2719.7662047017366,None,25,2719.7662047017366,None,return,2.892417399212718,2719.7662047017366,None,,,YEERASILI,M,001,2023_Apr_18_1601,untitled,2021.1.4,48.04696296045182,
18,0,0,18,18,18,36,1.0,0.0,1.0,0.0,1.0,1.0,,stimuli/P_18_00_00_18.png,,,,,0,222,222,130,,,,,,,,,,,,,,,,,,,,,,,,,,,,2722.6784878000617,None,2722.6784878000617,None,2723.0563891008496,None,2723.0563891008496,None,25,2723.0563891008496,None,return,2.053669400513172,2723.0563891008496,None,,,YEERASILI,M,001,2023_Apr_18_1601,untitled,2021.1.4,48.04696296045182,
9,18,0,18,27,9,45,0.6,0.67,0.33,0.0,0.33,0.33,,stimuli/P_09_18_00_18.png,,,,,0,223,223,98,,,,,,,,,,,,,,,,,,,,,,,,,,,,2725.147753501311,None,2725.147753501311,None,2725.5177260003984,None,2725.5177260003984,None,20,2725.5177260003984,None,return,2.638580299913883,2725.5177260003984,None,,,YEERASILI,M,001,2023_Apr_18_1601,untitled,2021.1.4,48.04696296045182,
36,0,18,9,36,54,63,1.0,0.0,1.0,0.67,0.33,1.0,,stimuli/P_36_00_18_09.png,,,,,0,224,224,201,,,,,,,,,,,,,,,,,,,,,,,,,,,,2728.1868483014405,None,2728.1868483014405,None,2728.5736543014646,None,2728.5736543014646,None,60,2728.5736543014646,None,return,2.2132934015244246,2728.5736543014646,None,,,YEERASILI,M,001,2023_Apr_18_1601,untitled,2021.1.4,48.04696296045182,
36,9,9,18,45,45,72,0.88,0.2,0.8,0.33,0.47,0.7,,stimuli/P_36_09_09_18.png,,,,,0,225,225,214,,,,,,,,,,,,,,,,,,,,,,,,,,,,2730.808089800179,None,2730.808089800179,None,2731.1786370016634,None,2731.1786370016634,None,60,2731.1786370016634,None,return,1.9818513002246618,2731.1786370016634,None,,,YEERASILI,M,001,2023_Apr_18_1601,untitled,2021.1.4,48.04696296045182,
9,36,18,36,45,27,99,0.64,0.8,0.2,0.33,-0.13,-0.2,,stimuli/P_09_36_18_36.png,,,,,0,226,226,123,,,,,,,,,,,,,,,,,,,,,,,,,,,,2733.195789700374,None,2733.195789700374,None,2733.597932100296,None,2733.597932100296,None,10,2733.597932100296,None,return,3.2268665991723537,2733.597932100296,None,,,YEERASILI,M,001,2023_Apr_18_1601,untitled,2021.1.4,48.04696296045182,
36,0,0,18,36,36,54,1.0,0.0,1.0,0.0,1.0,1.0,,stimuli/P_36_00_00_18.png,,,,,0,227,227,194,,,,,,,,,,,,,,,,,,,,,,,,,,,,2736.849093100056,None,2736.849093100056,None,2737.220301900059,None,2737.220301900059,None,80,2737.220301900059,None,return,2.981190700083971,2737.220301900059,None,,,YEERASILI,M,001,2023_Apr_18_1601,untitled,2021.1.4,48.04696296045182,
0,36,9,9,36,9,54,0.33,1.0,0.0,0.5,-0.5,-1.0,,stimuli/P_00_36_09_09.png,,,,,0,228,228,53,,,,,,,,,,,,,,,,,,,,,,,,,,,,2740.2343046013266,None,2740.2343046013266,None,2740.607569999993,None,2740.607569999993,None,20,2740.607569999993,None,return,4.502360001206398,2740.607569999993,None,,,YEERASILI,M,001,2023_Apr_18_1601,untitled,2021.1.4,48.04696296045182,
0,0,36,9,0,36,45,1.0,None,None,0.8,None,None,,stimuli/P_00_00_36_09.png,,,,,0,229,229,13,,,,,,,,,,,,,,,,,,,,,,,,,,,,2745.1274642013013,None,2745.1274642013013,None,2745.511767100543,None,2745.511767100543,None,20,2745.511767100543,None,return,1.8753001987934113,2745.511767100543,None,,,YEERASILI,M,001,2023_Apr_18_1601,untitled,2021.1.4,48.04696296045182,
36,36,36,9,72,72,117,0.69,0.5,0.5,0.8,-0.3,-1.5,,stimuli/P_36_36_36_09.png,,,,,0,230,230,253,,,,,,,,,,,,,,,,,,,,,,,,,,,,2747.417545299977,None,2747.417545299977,None,2747.782999901101,None,2747.782999901101,None,30,2747.782999901101,None,return,7.375209100544453,2747.782999901101,None,,,YEERASILI,M,001,2023_Apr_18_1601,untitled,2021.1.4,48.04696296045182,
0,18,18,0,18,18,36,0.5,1.0,0.0,1.0,-1.0,#NAME?,,stimuli/P_00_18_18_00.png,,,,,0,231,231,40,,,,,,,,,,,,,,,,,,,,,,,,,,,,2755.1882338002324,None,2755.1882338002324,None,2755.5684846006334,None,2755.5684846006334,None,25,2755.5684846006334,None,return,1.8411631006747484,2755.5684846006334,None,,,YEERASILI,M,001,2023_Apr_18_1601,untitled,2021.1.4,48.04696296045182,
18,36,18,36,54,36,108,0.67,0.67,0.33,0.33,0.0,0.0,,stimuli/P_18_36_18_36.png,,,,,0,232,232,187,,,,,,,,,,,,,,,,,,,,,,,,,,,,2757.4525050017983,None,2757.4525050017983,None,2757.814856901765,None,2757.814856901765,None,25,2757.814856901765,None,return,2.879764299839735,2757.814856901765,None,,,YEERASILI,M,001,2023_Apr_18_1601,untitled,2021.1.4,48.04696296045182,
0,9,18,0,9,18,27,0.67,1.0,0.0,1.0,-1.0,#NAME?,,stimuli/P_00_09_18_00.png,,,,,0,233,233,24,,,,,,,,,,,,,,,,,,,,,,,,,,,,2760.7218214012682,None,2760.7218214012682,None,2761.0958232004195,None,2761.0958232004195,None,20,2761.0958232004195,None,return,4.509933399036527,2761.0958232004195,None,,,YEERASILI,M,001,2023_Apr_18_1601,untitled,2021.1.4,48.04696296045182,
9,18,0,9,27,9,36,0.5,0.67,0.33,0.0,0.33,0.33,,stimuli/P_09_18_00_09.png,,,,,0,234,234,97,,,,,,,,,,,,,,,,,,,,,,,,,,,,2765.638284601271,None,2765.638284601271,None,2766.0041100010276,None,2766.0041100010276,None,35,2766.0041100010276,None,return,4.03808450140059,2766.0041100010276,None,,,YEERASILI,M,001,2023_Apr_18_1601,untitled,2021.1.4,48.04696296045182,
18,36,36,36,54,54,126,0.71,0.67,0.33,0.5,-0.17,-0.33,,stimuli/P_18_36_36_36.png,,,,,0,235,235,191,,,,,,,,,,,,,,,,,,,,,,,,,,,,2770.0754165016115,None,2770.0754165016115,None,2770.43737960048,None,2770.43737960048,None,20,2770.43737960048,None,return,2.498122999444604,2770.43737960048,None,,,YEERASILI,M,001,2023_Apr_18_1601,untitled,2021.1.4,48.04696296045182,
0,18,0,36,18,0,54,0.67,1.0,0.0,0.0,0.0,0.0,,stimuli/P_00_18_00_36.png,,,,,0,236,236,35,,,,,,,,,,,,,,,,,,,,,,,,,,,,2772.952019000426,None,2772.952019000426,None,2773.3243468999863,None,2773.3243468999863,None,20,2773.3243468999863,None,return,4.491162199527025,2773.3243468999863,None,,,YEERASILI,M,001,2023_Apr_18_1601,untitled,2021.1.4,48.04696296045182,
36,0,0,0,36,36,36,1.0,0.0,1.0,None,None,None,,stimuli/P_36_00_00_00.png,,,,,0,237,237,192,,,,,,,,,,,,,,,,,,,,,,,,,,,,2777.8339010011405,None,2777.8339010011405,None,2778.202246701345,None,2778.202246701345,None,100,2778.202246701345,None,return,5.285917401313782,2778.202246701345,None,,,YEERASILI,M,001,2023_Apr_18_1601,untitled,2021.1.4,48.04696296045182,
18,36,9,36,54,27,99,0.64,0.67,0.33,0.2,0.13,0.17,,stimuli/P_18_36_09_36.png,,,,,0,238,238,183,,,,,,,,,,,,,,,,,,,,,,,,,,,,2783.522284300998,None,2783.522284300998,None,2783.8925348017365,None,2783.8925348017365,None,25,2783.8925348017365,None,return,4.877977499738336,2783.8925348017365,None,,,YEERASILI,M,001,2023_Apr_18_1601,untitled,2021.1.4,48.04696296045182,
36,9,9,0,45,45,54,0.83,0.2,0.8,1.0,-0.2,#NAME?,,stimuli/P_36_09_09_00.png,,,,,0,239,239,212,,,,,,,,,,,,,,,,,,,,,,,,,,,,2788.7910017017275,None,2788.7910017017275,None,2789.1600827015936,None,2789.1600827015936,None,70,2789.1600827015936,None,return,3.740004999563098,2789.1600827015936,None,,,YEERASILI,M,001,2023_Apr_18_1601,untitled,2021.1.4,48.04696296045182,
36,9,0,36,45,36,81,0.89,0.2,0.8,0.0,0.8,0.8,,stimuli/P_36_09_00_36.png,,,,,0,240,240,211,,,,,,,,,,,,,,,,,,,,,,,,,,,,2792.91750610061,None,2792.91750610061,None,2793.290763201192,None,2793.290763201192,None,70,2793.290763201192,None,return,2.1737546995282173,2793.290763201192,None,,,YEERASILI,M,001,2023_Apr_18_1601,untitled,2021.1.4,48.04696296045182,
9,36,0,0,45,9,45,0.2,0.8,0.2,None,None,None,,stimuli/P_09_36_00_00.png,,,,,0,241,241,112,,,,,,,,,,,,,,,,,,,,,,,,,,,,2795.4930289015174,None,2795.4930289015174,None,2795.878037000075,None,2795.878037000075,None,20,2795.878037000075,None,return,4.652842201292515,2795.878037000075,None,,,YEERASILI,M,001,2023_Apr_18_1601,untitled,2021.1.4,48.04696296045182,
9,9,9,36,18,18,63,0.86,0.5,0.5,0.2,0.3,0.37,,stimuli/P_09_09_09_36.png,,,,,0,242,242,87,,,,,,,,,,,,,,,,,,,,,,,,,,,,2800.5641393009573,None,2800.5641393009573,None,2800.941546201706,None,2800.941546201706,None,10,2800.941546201706,None,return,3.2022515013813972,2800.941546201706,None,,,YEERASILI,M,001,2023_Apr_18_1601,untitled,2021.1.4,48.04696296045182,
18,0,9,18,18,27,45,1.0,0.0,1.0,0.33,0.67,1.0,,stimuli/P_18_00_09_18.png,,,,,0,243,243,134,,,,,,,,,,,,,,,,,,,,,,,,,,,,2804.160165000707,None,2804.160165000707,None,2804.53137130104,None,2804.53137130104,None,40,2804.53137130104,None,return,4.847173700109124,2804.53137130104,None,,,YEERASILI,M,001,2023_Apr_18_1601,untitled,2021.1.4,48.04696296045182,
0,0,18,9,0,18,27,1.0,None,None,0.67,None,None,,stimuli/P_00_00_18_09.png,,,,,0,244,244,9,,,,,,,,,,,,,,,,,,,,,,,,,,,,2809.4090933017433,None,2809.4090933017433,None,2809.786760300398,None,2809.786760300398,None,33,2809.786760300398,None,return,2.6717015001922846,2809.786760300398,None,,,YEERASILI,M,001,2023_Apr_18_1601,untitled,2021.1.4,48.04696296045182,
0,18,18,18,18,18,54,0.67,1.0,0.0,0.5,-0.5,-1.0,,stimuli/P_00_18_18_18.png,,,,,0,245,245,42,,,,,,,,,,,,,,,,,,,,,,,,,,,,2812.492802500725,None,2812.492802500725,None,2812.857539700344,None,2812.857539700344,None,0,2812.857539700344,None,return,2.6750473994761705,2812.857539700344,None,,,YEERASILI,M,001,2023_Apr_18_1601,untitled,2021.1.4,48.04696296045182,
0,0,0,0,0,0,0,None,None,None,None,None,None,,stimuli/P_00_00_00_00.png,,,,,0,246,246,0,,,,,,,,,,,,,,,,,,,,,,,,,,,,2815.554347300902,None,2815.554347300902,None,2815.915122900158,None,2815.915122900158,None,0,2815.915122900158,None,return,3.0447509996593,2815.915122900158,None,,,YEERASILI,M,001,2023_Apr_18_1601,untitled,2021.1.4,48.04696296045182,
36,18,18,18,54,54,90,0.8,0.33,0.67,0.5,0.17,0.33,,stimuli/P_36_18_18_18.png,,,,,0,247,247,234,,,,,,,,,,,,,,,,,,,,,,,,,,,,2818.979705400765,None,2818.979705400765,None,2819.351103000343,None,2819.351103000343,None,70,2819.351103000343,None,return,6.110680500045419,2819.351103000343,None,,,YEERASILI,M,001,2023_Apr_18_1601,untitled,2021.1.4,48.04696296045182,
9,0,9,18,9,18,36,1.0,0.0,1.0,0.33,0.67,1.0,,stimuli/P_09_00_09_18.png,,,,,0,248,248,70,,,,,,,,,,,,,,,,,,,,,,,,,,,,2825.4810323007405,None,2825.4810323007405,None,2825.855098001659,None,2825.855098001659,None,25,2825.855098001659,None,return,2.577342299744487,2825.855098001659,None,,,YEERASILI,M,001,2023_Apr_18_1601,untitled,2021.1.4,48.04696296045182,
18,36,18,18,54,36,90,0.6,0.67,0.33,0.5,-0.17,-0.33,,stimuli/P_18_36_18_18.png,,,,,0,249,249,186,,,,,,,,,,,,,,,,,,,,,,,,,,,,2828.463496800512,None,2828.463496800512,None,2828.843443401158,None,2828.843443401158,None,10,2828.843443401158,None,return,5.433914599940181,2828.843443401158,None,,,YEERASILI,M,001,2023_Apr_18_1601,untitled,2021.1.4,48.04696296045182,
36,36,18,36,72,54,126,0.71,0.5,0.5,0.33,0.17,0.25,,stimuli/P_36_36_18_36.png,,,,,0,250,250,251,,,,,,,,,,,,,,,,,,,,,,,,,,,,2834.322236901149,None,2834.322236901149,None,2834.722569901496,None,2834.722569901496,None,30,2834.722569901496,None,return,6.323948100209236,2834.722569901496,None,,,YEERASILI,M,001,2023_Apr_18_1601,untitled,2021.1.4,48.04696296045182,
18,0,9,9,18,27,36,1.0,0.0,1.0,0.5,0.5,1.0,,stimuli/P_18_00_09_09.png,,,,,0,251,251,133,,,,,,,,,,,,,,,,,,,,,,,,,,,,2841.0850037001073,None,2841.0850037001073,None,2841.4606231004,None,2841.4606231004,None,60,2841.4606231004,None,return,4.043107699602842,2841.4606231004,None,,,YEERASILI,M,001,2023_Apr_18_1601,untitled,2021.1.4,48.04696296045182,
18,9,36,18,27,54,81,0.89,0.33,0.67,0.67,0.0,0.0,,stimuli/P_18_09_36_18.png,,,,,0,252,252,158,,,,,,,,,,,,,,,,,,,,,,,,,,,,2845.522849600762,None,2845.522849600762,None,2845.8764350004494,None,2845.8764350004494,None,25,2845.8764350004494,None,return,5.279175000265241,2845.8764350004494,None,,,YEERASILI,M,001,2023_Apr_18_1601,untitled,2021.1.4,48.04696296045182,
36,36,0,0,72,36,72,0.5,0.5,0.5,None,None,None,,stimuli/P_36_36_00_00.png,,,,,0,253,253,240,,,,,,,,,,,,,,,,,,,,,,,,,,,,2851.172680201009,None,2851.172680201009,None,2851.5555038005114,None,2851.5555038005114,None,50,2851.5555038005114,None,return,4.196999000385404,2851.5555038005114,None,,,YEERASILI,M,001,2023_Apr_18_1601,untitled,2021.1.4,48.04696296045182,
36,0,36,0,36,72,72,1.0,0.0,1.0,1.0,0.0,None,,stimuli/P_36_00_36_00.png,,,,,0,254,254,204,,,,,,,,,,,,,,,,,,,,,,,,,,,,2855.7747793011367,None,2855.7747793011367,None,2856.142606301233,None,2856.142606301233,None,25,2856.142606301233,None,return,2.9231095984578133,2856.142606301233,None,,,YEERASILI,M,001,2023_Apr_18_1601,untitled,2021.1.4,48.04696296045182,
0,18,36,9,18,36,63,0.71,1.0,0.0,0.8,-0.8,-4.0,,stimuli/P_00_18_36_09.png,,,,,0,255,255,45,,,,,,,,,,,,,,,,,,,,,,,,,,,,2859.089640000835,None,2859.089640000835,None,2859.460815800354,None,2859.460815800354,None,20,2859.460815800354,None,return,2.976980099454522,2859.460815800354,None,,,YEERASILI,M,001,2023_Apr_18_1601,untitled,2021.1.4,48.04696296045182,
,,,,,,,,,,,,,,,,,,,,,,,,,,,,,,,,,,,,,,,,,,,,,,,,,,,,,,,,,,,,,,,,,2862.476186301559,None,,,,,,,,
