A1C1,A1C0,A0C1,A0C0,A1,C1,Total,MI,C0GvA1,C1GvA1,C1GvA0,dltP,dltPp,Image_practice,Image,trials_2.thisRepN,trials_2.thisTrialN,trials_2.thisN,trials_2.thisIndex,trials.thisRepN,trials.thisTrialN,trials.thisN,trials.thisIndex,image.started,image.stopped,key_resp.keys,key_resp.rt,key_resp.started,key_resp.stopped,betweenTrial.started,betweenTrial.stopped,ISI.started,ISI.stopped,image_card.started,image_card.stopped,textbox.text,textbox.started,textbox.stopped,key_resp_3.keys,key_resp_3.started,key_resp_3.stopped,text_2.started,text_2.stopped,key_resp_2.keys,key_resp_2.rt,key_resp_2.started,key_resp_2.stopped,image_endPractice.started,image_endPractice.stopped,polygon_2.started,polygon_2.stopped,ISI_2.started,ISI_2.stopped,Cards.started,Cards.stopped,TextNote.started,TextNote.stopped,Estimation.text,Estimation.started,Estimation.stopped,key_resp_4.keys,key_resp_4.rt,key_resp_4.started,key_resp_4.stopped,text.started,text.stopped,participant,gender,session,date,expName,psychopyVersion,frameRate,
,,,,,,,,,,,,,,,,,,,,,,,748.2293928709182,None,space,178.69223364929394,748.2293928709182,None,,,,,,,,,,,,,,,,,,,,,,,,,,,,,,,,,,,,,,YUESHUAIHUA,F,002,2023_Apr_18_1734,untitled,2021.1.4,60.02971067947418,
0,0,0,9,0,0,9,1.0,None,None,0.0,None,None,practice_stimuli/P_00_00_00_09.png,,0,0,0,0,,,,,,,,,,,927.0717083832533,None,927.0717083832533,None,927.6520274613813,None,,927.6520274613813,None,None,927.6520274613813,None,927.6520274613813,None,,,,,,,,,,,,,,,,,,,,,,,,YUESHUAIHUA,F,002,2023_Apr_18_1734,untitled,2021.1.4,60.02971067947418,
18,0,36,0,18,54,54,1.0,0.0,1.0,1.0,0.0,None,practice_stimuli/P_18_00_36_00.png,,0,1,1,1,,,,,,,,,,,935.6687743982015,None,935.6687743982015,None,936.1656193431158,None,,936.1656193431158,None,None,936.1656193431158,None,936.1656193431158,None,,,,,,,,,,,,,,,,,,,,,,,,YUESHUAIHUA,F,002,2023_Apr_18_1734,untitled,2021.1.4,60.02971067947418,
9,18,18,0,27,27,45,0.6,0.67,0.33,1.0,-0.67,#NAME?,practice_stimuli/P_09_18_18_00.png,,0,2,2,2,,,,,,,,,,,944.1973638849163,None,944.1973638849163,None,944.7130765826191,None,5,944.7130765826191,None,None,944.7130765826191,None,944.7130765826191,None,,,,,,,,,,,,,,,,,,,,,,,,YUESHUAIHUA,F,002,2023_Apr_18_1734,untitled,2021.1.4,60.02971067947418,
36,18,18,36,54,54,108,0.83,0.33,0.67,0.33,0.33,0.5,practice_stimuli/P_36_18_18_36.png,,0,3,3,3,,,,,,,,,,,952.7392790135932,None,952.7392790135932,None,953.2414112073293,None,25,953.2414112073293,None,None,953.2414112073293,None,953.2414112073293,None,,,,,,,,,,,,,,,,,,,,,,,,YUESHUAIHUA,F,002,2023_Apr_18_1734,untitled,2021.1.4,60.02971067947418,
,,,,,,,,,,,,,,,,,,,,,,,,,,,,,,,,,,,,,,,,,,,space,47.488275778893694,961.2614281146925,None,,,,,,,,,,,,,,,,,,,,YUESHUAIHUA,F,002,2023_Apr_18_1734,untitled,2021.1.4,60.02971067947418,
9,9,0,36,18,9,54,0.83,0.5,0.5,0.0,0.5,0.5,,stimuli/P_09_09_00_36.png,,,,,0,0,0,83,,,,,,,,,,,,,,,,,,,,,,,,,961.2614281146925,None,1016.0880121560076,None,1016.0880121560076,None,1016.726030740454,None,1016.726030740454,None,33,1016.726030740454,None,return,7.041449209074472,1016.726030740454,None,,,YUESHUAIHUA,F,002,2023_Apr_18_1734,untitled,2021.1.4,60.02971067947418,
36,0,0,18,36,36,54,1.0,0.0,1.0,0.0,1.0,1.0,,stimuli/P_36_00_00_18.png,,,,,0,1,1,194,,,,,,,,,,,,,,,,,,,,,,,,,,,1023.7995117799724,None,1023.7995117799724,None,1024.2844049484188,None,1024.2844049484188,None,50,1024.2844049484188,None,return,3.4680631739192904,1024.2844049484188,None,,,YUESHUAIHUA,F,002,2023_Apr_18_1734,untitled,2021.1.4,60.02971067947418,
18,0,9,0,18,27,27,1.0,0.0,1.0,1.0,0.0,None,,stimuli/P_18_00_09_00.png,,,,,0,2,2,132,,,,,,,,,,,,,,,,,,,,,,,,,,,1027.7742849926103,None,1027.7742849926103,None,1028.2529676063568,None,1028.2529676063568,None,50,1028.2529676063568,None,return,4.010639350920883,1028.2529676063568,None,,,YUESHUAIHUA,F,002,2023_Apr_18_1734,untitled,2021.1.4,60.02971067947418,
18,36,0,18,54,18,72,0.5,0.67,0.33,0.0,0.33,0.33,,stimuli/P_18_36_00_18.png,,,,,0,3,3,178,,,,,,,,,,,,,,,,,,,,,,,,,,,1032.2952872146884,None,1032.2952872146884,None,1032.772545900761,None,1032.772545900761,None,25,1032.772545900761,None,return,3.398626362060895,1032.772545900761,None,,,YUESHUAIHUA,F,002,2023_Apr_18_1734,untitled,2021.1.4,60.02971067947418,
0,18,18,9,18,18,45,0.6,1.0,0.0,0.67,-0.67,-2.0,,stimuli/P_00_18_18_09.png,,,,,0,4,4,41,,,,,,,,,,,,,,,,,,,,,,,,,,,1036.2147525278556,None,1036.2147525278556,None,1036.6885387191137,None,1036.6885387191137,None,10,1036.6885387191137,None,return,4.809540144748098,1036.6885387191137,None,,,YUESHUAIHUA,F,002,2023_Apr_18_1734,untitled,2021.1.4,60.02971067947418,
9,9,9,0,18,18,27,0.67,0.5,0.5,1.0,-0.5,#NAME?,,stimuli/P_09_09_09_00.png,,,,,0,5,5,84,,,,,,,,,,,,,,,,,,,,,,,,,,,1041.5210084798505,None,1041.5210084798505,None,1041.9987541343967,None,1041.9987541343967,None,25,1041.9987541343967,None,return,2.530872435877427,1041.9987541343967,None,,,YUESHUAIHUA,F,002,2023_Apr_18_1734,untitled,2021.1.4,60.02971067947418,
36,18,0,0,54,36,54,0.67,0.33,0.67,None,None,None,,stimuli/P_36_18_00_00.png,,,,,0,6,6,224,,,,,,,,,,,,,,,,,,,,,,,,,,,1044.554778264367,None,1044.554778264367,None,1045.0440478913015,None,1045.0440478913015,None,50,1045.0440478913015,None,return,3.3301617804841044,1045.0440478913015,None,,,YUESHUAIHUA,F,002,2023_Apr_18_1734,untitled,2021.1.4,60.02971067947418,
18,9,18,9,27,36,54,0.83,0.33,0.67,0.67,0.0,0.0,,stimuli/P_18_09_18_09.png,,,,,0,7,7,153,,,,,,,,,,,,,,,,,,,,,,,,,,,1048.4092327174549,None,1048.4092327174549,None,1048.8854355466506,None,1048.8854355466506,None,25,1048.8854355466506,None,return,2.354208693297551,1048.8854355466506,None,,,YUESHUAIHUA,F,002,2023_Apr_18_1734,untitled,2021.1.4,60.02971067947418,
18,36,36,0,54,54,90,0.6,0.67,0.33,1.0,-0.67,#NAME?,,stimuli/P_18_36_36_00.png,,,,,0,8,8,188,,,,,,,,,,,,,,,,,,,,,,,,,,,1051.2662448928045,None,1051.2662448928045,None,1051.7399059286136,None,1051.7399059286136,None,25,1051.7399059286136,None,return,2.338949968540419,1051.7399059286136,None,,,YUESHUAIHUA,F,002,2023_Apr_18_1734,untitled,2021.1.4,60.02971067947418,
0,9,9,36,9,9,54,0.83,1.0,0.0,0.2,-0.2,-0.25,,stimuli/P_00_09_09_36.png,,,,,0,9,9,23,,,,,,,,,,,,,,,,,,,,,,,,,,,1054.0977373032642,None,1054.0977373032642,None,1054.571546818947,None,1054.571546818947,None,25,1054.571546818947,None,return,4.853744480360092,1054.571546818947,None,,,YUESHUAIHUA,F,002,2023_Apr_18_1734,untitled,2021.1.4,60.02971067947418,
0,36,0,0,36,0,36,0.0,1.0,0.0,None,None,None,,stimuli/P_00_36_00_00.png,,,,,0,10,10,48,,,,,,,,,,,,,,,,,,,,,,,,,,,1059.45762634727,None,1059.45762634727,None,1059.934118740663,None,1059.934118740663,None,0,1059.934118740663,None,return,2.2488357698821346,1059.934118740663,None,,,YUESHUAIHUA,F,002,2023_Apr_18_1734,untitled,2021.1.4,60.02971067947418,
9,0,9,36,9,18,54,1.0,0.0,1.0,0.2,0.8,1.0,,stimuli/P_09_00_09_36.png,,,,,0,11,11,71,,,,,,,,,,,,,,,,,,,,,,,,,,,1062.2066856902952,None,1062.2066856902952,None,1062.6913598367064,None,1062.6913598367064,None,25,1062.6913598367064,None,return,3.9547978341279304,1062.6913598367064,None,,,YUESHUAIHUA,F,002,2023_Apr_18_1734,untitled,2021.1.4,60.02971067947418,
0,0,18,9,0,18,27,1.0,None,None,0.67,None,None,,stimuli/P_00_00_18_09.png,,,,,0,12,12,9,,,,,,,,,,,,,,,,,,,,,,,,,,,1066.6866852806952,None,1066.6866852806952,None,1067.1745981087874,None,1067.1745981087874,None,0,1067.1745981087874,None,return,2.0737728792691996,1067.1745981087874,None,,,YUESHUAIHUA,F,002,2023_Apr_18_1734,untitled,2021.1.4,60.02971067947418,
0,0,0,0,0,0,0,None,None,None,None,None,None,,stimuli/P_00_00_00_00.png,,,,,0,13,13,0,,,,,,,,,,,,,,,,,,,,,,,,,,,1069.284423152848,None,1069.284423152848,None,1069.766943487764,None,1069.766943487764,None,0,1069.766943487764,None,return,4.9595196078767,1069.766943487764,None,,,YUESHUAIHUA,F,002,2023_Apr_18_1734,untitled,2021.1.4,60.02971067947418,
36,36,0,36,72,36,108,0.67,0.5,0.5,0.0,0.5,0.5,,stimuli/P_36_36_00_36.png,,,,,0,14,14,243,,,,,,,,,,,,,,,,,,,,,,,,,,,1074.7653028136083,None,1074.7653028136083,None,1075.2588965612972,None,1075.2588965612972,None,25,1075.2588965612972,None,return,2.060013175455424,1075.2588965612972,None,,,YUESHUAIHUA,F,002,2023_Apr_18_1734,untitled,2021.1.4,60.02971067947418,
36,18,36,0,54,72,90,0.8,0.33,0.67,1.0,-0.33,#NAME?,,stimuli/P_36_18_36_00.png,,,,,0,15,15,236,,,,,,,,,,,,,,,,,,,,,,,,,,,1077.3539913779273,None,1077.3539913779273,None,1077.8362369397446,None,1077.8362369397446,None,60,1077.8362369397446,None,return,4.9948487155070325,1077.8362369397446,None,,,YUESHUAIHUA,F,002,2023_Apr_18_1734,untitled,2021.1.4,60.02971067947418,
18,36,36,36,54,54,126,0.71,0.67,0.33,0.5,-0.17,-0.33,,stimuli/P_18_36_36_36.png,,,,,0,16,16,191,,,,,,,,,,,,,,,,,,,,,,,,,,,1082.8656331102156,None,1082.8656331102156,None,1083.359896439555,None,1083.359896439555,None,25,1083.359896439555,None,return,4.697751297918785,1083.359896439555,None,,,YUESHUAIHUA,F,002,2023_Apr_18_1734,untitled,2021.1.4,60.02971067947418,
18,9,36,9,27,54,72,0.88,0.33,0.67,0.8,-0.13,-0.67,,stimuli/P_18_09_36_09.png,,,,,0,17,17,157,,,,,,,,,,,,,,,,,,,,,,,,,,,1088.0855903980741,None,1088.0855903980741,None,1088.6074635882978,None,1088.6074635882978,None,23,1088.6074635882978,None,return,3.1689689580352933,1088.6074635882978,None,,,YUESHUAIHUA,F,002,2023_Apr_18_1734,untitled,2021.1.4,60.02971067947418,
9,18,18,9,27,27,54,0.67,0.67,0.33,0.67,-0.33,-1.0,,stimuli/P_09_18_18_09.png,,,,,0,18,18,105,,,,,,,,,,,,,,,,,,,,,,,,,,,1091.8010199031296,None,1091.8010199031296,None,1092.2896626150437,None,1092.2896626150437,None,20,1092.2896626150437,None,return,5.334834060941375,1092.2896626150437,None,,,YUESHUAIHUA,F,002,2023_Apr_18_1734,untitled,2021.1.4,60.02971067947418,
9,18,36,0,27,45,63,0.71,0.67,0.33,1.0,-0.67,#NAME?,,stimuli/P_09_18_36_00.png,,,,,0,19,19,108,,,,,,,,,,,,,,,,,,,,,,,,,,,1097.6477619361322,None,1097.6477619361322,None,1098.1243368183436,None,1098.1243368183436,None,20,1098.1243368183436,None,return,2.6516514261466,1098.1243368183436,None,,,YUESHUAIHUA,F,002,2023_Apr_18_1734,untitled,2021.1.4,60.02971067947418,
36,18,18,18,54,54,90,0.8,0.33,0.67,0.5,0.17,0.33,,stimuli/P_36_18_18_18.png,,,,,0,20,20,234,,,,,,,,,,,,,,,,,,,,,,,,,,,1100.7970137909929,None,1100.7970137909929,None,1101.2810894668037,None,1101.2810894668037,None,50,1101.2810894668037,None,return,6.218255173755551,1101.2810894668037,None,,,YUESHUAIHUA,F,002,2023_Apr_18_1734,untitled,2021.1.4,60.02971067947418,
36,36,9,9,72,45,90,0.6,0.5,0.5,0.5,0.0,0.0,,stimuli/P_36_36_09_09.png,,,,,0,21,21,245,,,,,,,,,,,,,,,,,,,,,,,,,,,1107.5412256359318,None,1107.5412256359318,None,1108.057515186476,None,1108.057515186476,None,45,1108.057515186476,None,return,3.8380579515237514,1108.057515186476,None,,,YUESHUAIHUA,F,002,2023_Apr_18_1734,untitled,2021.1.4,60.02971067947418,
18,0,9,9,18,27,36,1.0,0.0,1.0,0.5,0.5,1.0,,stimuli/P_18_00_09_09.png,,,,,0,22,22,133,,,,,,,,,,,,,,,,,,,,,,,,,,,1111.930595614781,None,1111.930595614781,None,1112.4227426792595,None,1112.4227426792595,None,40,1112.4227426792595,None,return,5.457700871651014,1112.4227426792595,None,,,YUESHUAIHUA,F,002,2023_Apr_18_1734,untitled,2021.1.4,60.02971067947418,
36,18,0,9,54,36,63,0.71,0.33,0.67,0.0,0.67,0.67,,stimuli/P_36_18_00_09.png,,,,,0,23,23,225,,,,,,,,,,,,,,,,,,,,,,,,,,,1117.9074077234568,None,1117.9074077234568,None,1118.391719487955,None,1118.391719487955,None,50,1118.391719487955,None,return,4.802929092611976,1118.391719487955,None,,,YUESHUAIHUA,F,002,2023_Apr_18_1734,untitled,2021.1.4,60.02971067947418,
18,36,36,18,54,54,108,0.67,0.67,0.33,0.67,-0.33,-1.0,,stimuli/P_18_36_36_18.png,,,,,0,24,24,190,,,,,,,,,,,,,,,,,,,,,,,,,,,1123.2153231229245,None,1123.2153231229245,None,1123.7001366469945,None,1123.7001366469945,None,33,1123.7001366469945,None,return,4.680569161469975,1123.7001366469945,None,,,YUESHUAIHUA,F,002,2023_Apr_18_1734,untitled,2021.1.4,60.02971067947418,
9,0,36,9,9,45,54,1.0,0.0,1.0,0.8,0.2,1.0,,stimuli/P_09_00_36_09.png,,,,,0,25,25,77,,,,,,,,,,,,,,,,,,,,,,,,,,,1128.4130294786596,None,1128.4130294786596,None,1128.8919277011105,None,1128.8919277011105,None,20,1128.8919277011105,None,return,4.515606315571404,1128.8919277011105,None,,,YUESHUAIHUA,F,002,2023_Apr_18_1734,untitled,2021.1.4,60.02971067947418,
9,0,36,18,9,45,63,1.0,0.0,1.0,0.67,0.33,1.0,,stimuli/P_09_00_36_18.png,,,,,0,26,26,78,,,,,,,,,,,,,,,,,,,,,,,,,,,1133.44446738961,None,1133.44446738961,None,1133.9359704724166,None,1133.9359704724166,None,20,1133.9359704724166,None,return,3.916980977509411,1133.9359704724166,None,,,YUESHUAIHUA,F,002,2023_Apr_18_1734,untitled,2021.1.4,60.02971067947418,
0,36,18,9,36,18,63,0.43,1.0,0.0,0.67,-0.67,-2.0,,stimuli/P_00_36_18_09.png,,,,,0,27,27,57,,,,,,,,,,,,,,,,,,,,,,,,,,,1137.8817980741992,None,1137.8817980741992,None,1138.3750265955332,None,1138.3750265955332,None,0,1138.3750265955332,None,return,2.9111959513347756,1138.3750265955332,None,,,YUESHUAIHUA,F,002,2023_Apr_18_1734,untitled,2021.1.4,60.02971067947418,
18,36,18,18,54,36,90,0.6,0.67,0.33,0.5,-0.17,-0.33,,stimuli/P_18_36_18_18.png,,,,,0,28,28,186,,,,,,,,,,,,,,,,,,,,,,,,,,,1141.3235194394856,None,1141.3235194394856,None,1141.803957642845,None,1141.803957642845,None,30,1141.803957642845,None,return,7.014905445058503,1141.803957642845,None,,,YUESHUAIHUA,F,002,2023_Apr_18_1734,untitled,2021.1.4,60.02971067947418,
0,0,0,9,0,0,9,1.0,None,None,0.0,None,None,,stimuli/P_00_00_00_09.png,,,,,0,29,29,1,,,,,,,,,,,,,,,,,,,,,,,,,,,1148.8406253448888,None,1148.8406253448888,None,1149.324352860997,None,1149.324352860997,None,0,1149.324352860997,None,return,1.7956154632970538,1149.324352860997,None,,,YUESHUAIHUA,F,002,2023_Apr_18_1734,untitled,2021.1.4,60.02971067947418,
36,9,36,0,45,72,81,0.89,0.2,0.8,1.0,-0.2,#NAME?,,stimuli/P_36_09_36_00.png,,,,,0,30,30,220,,,,,,,,,,,,,,,,,,,,,,,,,,,1151.1423808207242,None,1151.1423808207242,None,1151.6277643709745,None,1151.6277643709745,None,45,1151.6277643709745,None,return,6.695834143999491,1151.6277643709745,None,,,YUESHUAIHUA,F,002,2023_Apr_18_1734,untitled,2021.1.4,60.02971067947418,
18,0,0,0,18,18,18,1.0,0.0,1.0,None,None,None,,stimuli/P_18_00_00_00.png,,,,,0,31,31,128,,,,,,,,,,,,,,,,,,,,,,,,,,,1158.357400157241,None,1158.357400157241,None,1158.837680209624,None,1158.837680209624,None,100,1158.837680209624,None,return,2.646876176887872,1158.837680209624,None,,,YUESHUAIHUA,F,002,2023_Apr_18_1734,untitled,2021.1.4,60.02971067947418,
0,36,18,0,36,18,54,0.33,1.0,0.0,1.0,-1.0,#NAME?,,stimuli/P_00_36_18_00.png,,,,,0,32,32,56,,,,,,,,,,,,,,,,,,,,,,,,,,,1161.5219249590687,None,1161.5219249590687,None,1162.0033240149414,None,1162.0033240149414,None,0,1162.0033240149414,None,return,2.103353938471173,1162.0033240149414,None,,,YUESHUAIHUA,F,002,2023_Apr_18_1734,untitled,2021.1.4,60.02971067947418,
18,36,18,9,54,36,81,0.56,0.67,0.33,0.67,-0.33,-1.0,,stimuli/P_18_36_18_09.png,,,,,0,33,33,185,,,,,,,,,,,,,,,,,,,,,,,,,,,1164.1403459069052,None,1164.1403459069052,None,1164.6211965543566,None,1164.6211965543566,None,40,1164.6211965543566,None,return,2.9342370694507736,1164.6211965543566,None,,,YUESHUAIHUA,F,002,2023_Apr_18_1734,untitled,2021.1.4,60.02971067947418,
36,9,36,9,45,72,90,0.9,0.2,0.8,0.8,0.0,0.0,,stimuli/P_36_09_36_09.png,,,,,0,34,34,221,,,,,,,,,,,,,,,,,,,,,,,,,,,1167.5747229229032,None,1167.5747229229032,None,1168.06706682277,None,1168.06706682277,None,40,1168.06706682277,None,return,3.4425234979353263,1168.06706682277,None,,,YUESHUAIHUA,F,002,2023_Apr_18_1734,untitled,2021.1.4,60.02971067947418,
18,18,9,0,36,27,45,0.6,0.5,0.5,1.0,-0.5,#NAME?,,stimuli/P_18_18_09_00.png,,,,,0,35,35,164,,,,,,,,,,,,,,,,,,,,,,,,,,,1171.529292063893,None,1171.529292063893,None,1172.0038490989377,None,1172.0038490989377,None,33,1172.0038490989377,None,return,4.841512810798122,1172.0038490989377,None,,,YUESHUAIHUA,F,002,2023_Apr_18_1734,untitled,2021.1.4,60.02971067947418,
0,0,9,18,0,9,27,1.0,None,None,0.33,None,None,,stimuli/P_00_00_09_18.png,,,,,0,36,36,6,,,,,,,,,,,,,,,,,,,,,,,,,,,1176.8675917929886,None,1176.8675917929886,None,1177.3541995910832,None,1177.3541995910832,None,0,1177.3541995910832,None,return,1.5241407793996586,1177.3541995910832,None,,,YUESHUAIHUA,F,002,2023_Apr_18_1734,untitled,2021.1.4,60.02971067947418,
0,18,0,18,18,0,36,0.5,1.0,0.0,0.0,0.0,0.0,,stimuli/P_00_18_00_18.png,,,,,0,37,37,34,,,,,,,,,,,,,,,,,,,,,,,,,,,1178.9185340428512,None,1178.9185340428512,None,1179.405235138644,None,1179.405235138644,None,0,1179.405235138644,None,return,1.3574741127331436,1179.405235138644,None,,,YUESHUAIHUA,F,002,2023_Apr_18_1734,untitled,2021.1.4,60.02971067947418,
9,0,18,9,9,27,36,1.0,0.0,1.0,0.67,0.33,1.0,,stimuli/P_09_00_18_09.png,,,,,0,38,38,73,,,,,,,,,,,,,,,,,,,,,,,,,,,1180.787559434616,None,1180.787559434616,None,1181.2642071345435,None,1181.2642071345435,None,20,1181.2642071345435,None,return,3.484023906965831,1181.2642071345435,None,,,YUESHUAIHUA,F,002,2023_Apr_18_1734,untitled,2021.1.4,60.02971067947418,
0,0,36,36,0,36,72,1.0,None,None,0.5,None,None,,stimuli/P_00_00_36_36.png,,,,,0,39,39,15,,,,,,,,,,,,,,,,,,,,,,,,,,,1184.7846706193036,None,1184.7846706193036,None,1185.2538061478635,None,1185.2538061478635,None,0,1185.2538061478635,None,return,1.2929280344787912,1185.2538061478635,None,,,YUESHUAIHUA,F,002,2023_Apr_18_1734,untitled,2021.1.4,60.02971067947418,
0,36,0,36,36,0,72,0.5,1.0,0.0,0.0,0.0,0.0,,stimuli/P_00_36_00_36.png,,,,,0,40,40,51,,,,,,,,,,,,,,,,,,,,,,,,,,,1186.5849054564364,None,1186.5849054564364,None,1187.0652788065177,None,1187.0652788065177,None,0,1187.0652788065177,None,return,1.390149355961512,1187.0652788065177,None,,,YUESHUAIHUA,F,002,2023_Apr_18_1734,untitled,2021.1.4,60.02971067947418,
18,18,36,18,36,54,90,0.8,0.5,0.5,0.67,-0.17,-0.5,,stimuli/P_18_18_36_18.png,,,,,0,41,41,174,,,,,,,,,,,,,,,,,,,,,,,,,,,1188.4889482049866,None,1188.4889482049866,None,1188.9647641900679,None,1188.9647641900679,None,30,1188.9647641900679,None,return,3.3039895005958897,1188.9647641900679,None,,,YUESHUAIHUA,F,002,2023_Apr_18_1734,untitled,2021.1.4,60.02971067947418,
18,9,9,18,27,27,54,0.83,0.33,0.67,0.33,0.33,0.5,,stimuli/P_18_09_09_18.png,,,,,0,42,42,150,,,,,,,,,,,,,,,,,,,,,,,,,,,1192.2961530628386,None,1192.2961530628386,None,1192.785964271533,None,1192.785964271533,None,30,1192.785964271533,None,return,2.998593138978322,1192.785964271533,None,,,YUESHUAIHUA,F,002,2023_Apr_18_1734,untitled,2021.1.4,60.02971067947418,
18,0,0,36,18,18,54,1.0,0.0,1.0,0.0,1.0,1.0,,stimuli/P_18_00_00_36.png,,,,,0,43,43,131,,,,,,,,,,,,,,,,,,,,,,,,,,,1195.8204178599103,None,1195.8204178599103,None,1196.309343878249,None,1196.309343878249,None,45,1196.309343878249,None,return,3.485769825476382,1196.309343878249,None,,,YUESHUAIHUA,F,002,2023_Apr_18_1734,untitled,2021.1.4,60.02971067947418,
18,36,36,9,54,54,99,0.64,0.67,0.33,0.8,-0.47,-2.33,,stimuli/P_18_36_36_09.png,,,,,0,44,44,189,,,,,,,,,,,,,,,,,,,,,,,,,,,1199.8316181347973,None,1199.8316181347973,None,1200.317917595377,None,1200.317917595377,None,45,1200.317917595377,None,return,1.7801678675900803,1200.317917595377,None,,,YUESHUAIHUA,F,002,2023_Apr_18_1734,untitled,2021.1.4,60.02971067947418,
18,9,36,36,27,54,99,0.91,0.33,0.67,0.5,0.17,0.33,,stimuli/P_18_09_36_36.png,,,,,0,45,45,159,,,,,,,,,,,,,,,,,,,,,,,,,,,1202.1337780902873,None,1202.1337780902873,None,1202.6147043998967,None,1202.6147043998967,None,33,1202.6147043998967,None,return,2.3559153585079002,1202.6147043998967,None,,,YUESHUAIHUA,F,002,2023_Apr_18_1734,untitled,2021.1.4,60.02971067947418,
9,0,0,0,9,9,9,1.0,0.0,1.0,None,None,None,,stimuli/P_09_00_00_00.png,,,,,0,46,46,64,,,,,,,,,,,,,,,,,,,,,,,,,,,1205.0098423382678,None,1205.0098423382678,None,1205.4893936446065,None,1205.4893936446065,None,100,1205.4893936446065,None,return,2.2925377770343403,1205.4893936446065,None,,,YUESHUAIHUA,F,002,2023_Apr_18_1734,untitled,2021.1.4,60.02971067947418,
9,9,9,36,18,18,63,0.86,0.5,0.5,0.2,0.3,0.37,,stimuli/P_09_09_09_36.png,,,,,0,47,47,87,,,,,,,,,,,,,,,,,,,,,,,,,,,1207.815255197649,None,1207.815255197649,None,1208.2936601938545,None,1208.2936601938545,None,25,1208.2936601938545,None,return,2.7230821918583388,1208.2936601938545,None,,,YUESHUAIHUA,F,002,2023_Apr_18_1734,untitled,2021.1.4,60.02971067947418,
36,18,18,9,54,54,81,0.78,0.33,0.67,0.67,0.0,0.0,,stimuli/P_36_18_18_09.png,,,,,0,48,48,233,,,,,,,,,,,,,,,,,,,,,,,,,,,1211.0533093945096,None,1211.0533093945096,None,1211.5217554303244,None,1211.5217554303244,None,45,1211.5217554303244,None,return,3.0457790187124374,1211.5217554303244,None,,,YUESHUAIHUA,F,002,2023_Apr_18_1734,untitled,2021.1.4,60.02971067947418,
0,18,9,9,18,9,36,0.5,1.0,0.0,0.5,-0.5,-1.0,,stimuli/P_00_18_09_09.png,,,,,0,49,49,37,,,,,,,,,,,,,,,,,,,,,,,,,,,1214.6076917125479,None,1214.6076917125479,None,1215.0904287939452,None,1215.0904287939452,None,0,1215.0904287939452,None,return,1.802858550449855,1215.0904287939452,None,,,YUESHUAIHUA,F,002,2023_Apr_18_1734,untitled,2021.1.4,60.02971067947418,
36,36,18,18,72,54,108,0.67,0.5,0.5,0.5,0.0,0.0,,stimuli/P_36_36_18_18.png,,,,,0,50,50,250,,,,,,,,,,,,,,,,,,,,,,,,,,,1216.928099901355,None,1216.928099901355,None,1217.404052988542,None,1217.404052988542,None,45,1217.404052988542,None,return,3.720664985032272,1217.404052988542,None,,,YUESHUAIHUA,F,002,2023_Apr_18_1734,untitled,2021.1.4,60.02971067947418,
36,36,18,0,72,54,90,0.6,0.5,0.5,1.0,-0.5,#NAME?,,stimuli/P_36_36_18_00.png,,,,,0,51,51,248,,,,,,,,,,,,,,,,,,,,,,,,,,,1221.1599526457298,None,1221.1599526457298,None,1221.6412919683203,None,1221.6412919683203,None,35,1221.6412919683203,None,return,2.7651344226405854,1221.6412919683203,None,,,YUESHUAIHUA,F,002,2023_Apr_18_1734,untitled,2021.1.4,60.02971067947418,
36,9,0,9,45,36,54,0.83,0.2,0.8,0.0,0.8,0.8,,stimuli/P_36_09_00_09.png,,,,,0,52,52,209,,,,,,,,,,,,,,,,,,,,,,,,,,,1224.4424176846928,None,1224.4424176846928,None,1224.9280754391534,None,1224.9280754391534,None,45,1224.9280754391534,None,return,3.1142145869816886,1224.9280754391534,None,,,YUESHUAIHUA,F,002,2023_Apr_18_1734,untitled,2021.1.4,60.02971067947418,
18,9,18,0,27,36,45,0.8,0.33,0.67,1.0,-0.33,#NAME?,,stimuli/P_18_09_18_00.png,,,,,0,53,53,152,,,,,,,,,,,,,,,,,,,,,,,,,,,1228.0753339090484,None,1228.0753339090484,None,1228.5538640607024,None,1228.5538640607024,None,35,1228.5538640607024,None,return,2.6852846774463615,1228.5538640607024,None,,,YUESHUAIHUA,F,002,2023_Apr_18_1734,untitled,2021.1.4,60.02971067947418,
0,18,9,18,18,9,45,0.6,1.0,0.0,0.33,-0.33,-0.5,,stimuli/P_00_18_09_18.png,,,,,0,54,54,38,,,,,,,,,,,,,,,,,,,,,,,,,,,1231.2656179777837,None,1231.2656179777837,None,1231.7424465842237,None,1231.7424465842237,None,0,1231.7424465842237,None,return,1.6464278928260683,1231.7424465842237,None,,,YUESHUAIHUA,F,002,2023_Apr_18_1734,untitled,2021.1.4,60.02971067947418,
9,18,0,18,27,9,45,0.6,0.67,0.33,0.0,0.33,0.33,,stimuli/P_09_18_00_18.png,,,,,0,55,55,98,,,,,,,,,,,,,,,,,,,,,,,,,,,1233.4252253082527,None,1233.4252253082527,None,1233.904975725532,None,1233.904975725532,None,25,1233.904975725532,None,return,2.132039567326501,1233.904975725532,None,,,YUESHUAIHUA,F,002,2023_Apr_18_1734,untitled,2021.1.4,60.02971067947418,
0,9,0,18,9,0,27,0.67,1.0,0.0,0.0,0.0,0.0,,stimuli/P_00_09_00_18.png,,,,,0,56,56,18,,,,,,,,,,,,,,,,,,,,,,,,,,,1236.0758578552682,None,1236.0758578552682,None,1236.5549830641926,None,1236.5549830641926,None,0,1236.5549830641926,None,return,1.7490320363813225,1236.5549830641926,None,,,YUESHUAIHUA,F,002,2023_Apr_18_1734,untitled,2021.1.4,60.02971067947418,
18,18,9,18,36,27,63,0.71,0.5,0.5,0.33,0.17,0.25,,stimuli/P_18_18_09_18.png,,,,,0,57,57,166,,,,,,,,,,,,,,,,,,,,,,,,,,,1238.3461697312682,None,1238.3461697312682,None,1238.830111149416,None,1238.830111149416,None,35,1238.830111149416,None,return,2.9212584494152907,1238.830111149416,None,,,YUESHUAIHUA,F,002,2023_Apr_18_1734,untitled,2021.1.4,60.02971067947418,
36,9,0,18,45,36,63,0.86,0.2,0.8,0.0,0.8,0.8,,stimuli/P_36_09_00_18.png,,,,,0,58,58,210,,,,,,,,,,,,,,,,,,,,,,,,,,,1241.7859454982158,None,1241.7859454982158,None,1242.2658330176005,None,1242.2658330176005,None,45,1242.2658330176005,None,return,3.2097110388240253,1242.2658330176005,None,,,YUESHUAIHUA,F,002,2023_Apr_18_1734,untitled,2021.1.4,60.02971067947418,
36,9,9,18,45,45,72,0.88,0.2,0.8,0.33,0.47,0.7,,stimuli/P_36_09_09_18.png,,,,,0,59,59,214,,,,,,,,,,,,,,,,,,,,,,,,,,,1245.5172998963485,None,1245.5172998963485,None,1246.0065450610814,None,1246.0065450610814,None,45,1246.0065450610814,None,return,3.362666926079328,1246.0065450610814,None,,,YUESHUAIHUA,F,002,2023_Apr_18_1734,untitled,2021.1.4,60.02971067947418,
36,9,9,36,45,45,90,0.9,0.2,0.8,0.2,0.6,0.75,,stimuli/P_36_09_09_36.png,,,,,0,60,60,215,,,,,,,,,,,,,,,,,,,,,,,,,,,1249.4044978592733,None,1249.4044978592733,None,1249.8801795866916,None,1249.8801795866916,None,45,1249.8801795866916,None,return,2.4416252231467297,1249.8801795866916,None,,,YUESHUAIHUA,F,002,2023_Apr_18_1734,untitled,2021.1.4,60.02971067947418,
18,0,0,18,18,18,36,1.0,0.0,1.0,0.0,1.0,1.0,,stimuli/P_18_00_00_18.png,,,,,0,61,61,130,,,,,,,,,,,,,,,,,,,,,,,,,,,1252.3542342932756,None,1252.3542342932756,None,1252.827181943027,None,1252.827181943027,None,35,1252.827181943027,None,return,2.2321201219247087,1252.827181943027,None,,,YUESHUAIHUA,F,002,2023_Apr_18_1734,untitled,2021.1.4,60.02971067947418,
0,9,9,18,9,9,36,0.75,1.0,0.0,0.33,-0.33,-0.5,,stimuli/P_00_09_09_18.png,,,,,0,62,62,22,,,,,,,,,,,,,,,,,,,,,,,,,,,1255.0824131563409,None,1255.0824131563409,None,1255.5585505633703,None,1255.5585505633703,None,0,1255.5585505633703,None,return,1.9245790510267398,1255.5585505633703,None,,,YUESHUAIHUA,F,002,2023_Apr_18_1734,untitled,2021.1.4,60.02971067947418,
36,18,36,9,54,72,99,0.82,0.33,0.67,0.8,-0.13,-0.67,,stimuli/P_36_18_36_09.png,,,,,0,63,63,237,,,,,,,,,,,,,,,,,,,,,,,,,,,1257.5131418910082,None,1257.5131418910082,None,1257.9939561296019,None,1257.9939561296019,None,45,1257.9939561296019,None,return,3.6361361327190025,1257.9939561296019,None,,,YUESHUAIHUA,F,002,2023_Apr_18_1734,untitled,2021.1.4,60.02971067947418,
9,9,18,0,18,27,36,0.75,0.5,0.5,1.0,-0.5,#NAME?,,stimuli/P_09_09_18_00.png,,,,,0,64,64,88,,,,,,,,,,,,,,,,,,,,,,,,,,,1261.6469006390894,None,1261.6469006390894,None,1262.1258910214624,None,1262.1258910214624,None,20,1262.1258910214624,None,return,3.030462267339317,1262.1258910214624,None,,,YUESHUAIHUA,F,002,2023_Apr_18_1734,untitled,2021.1.4,60.02971067947418,
18,9,0,36,27,18,63,0.86,0.33,0.67,0.0,0.67,0.67,,stimuli/P_18_09_00_36.png,,,,,0,65,65,147,,,,,,,,,,,,,,,,,,,,,,,,,,,1265.1776194750978,None,1265.1776194750978,None,1265.6493275170183,None,1265.6493275170183,None,35,1265.6493275170183,None,return,2.8826872467734574,1265.6493275170183,None,,,YUESHUAIHUA,F,002,2023_Apr_18_1734,untitled,2021.1.4,60.02971067947418,
0,0,9,9,0,9,18,1.0,None,None,0.5,None,None,,stimuli/P_00_00_09_09.png,,,,,0,66,66,5,,,,,,,,,,,,,,,,,,,,,,,,,,,1268.561247663291,None,1268.561247663291,None,1269.0562824053054,None,1269.0562824053054,None,0,1269.0562824053054,None,return,1.5507579300201542,1269.0562824053054,None,,,YUESHUAIHUA,F,002,2023_Apr_18_1734,untitled,2021.1.4,60.02971067947418,
9,18,9,36,27,18,72,0.75,0.67,0.33,0.2,0.13,0.17,,stimuli/P_09_18_09_36.png,,,,,0,67,67,103,,,,,,,,,,,,,,,,,,,,,,,,,,,1270.6473972786657,None,1270.6473972786657,None,1271.139913551718,None,1271.139913551718,None,34,1271.139913551718,None,return,3.0417808710144527,1271.139913551718,None,,,YUESHUAIHUA,F,002,2023_Apr_18_1734,untitled,2021.1.4,60.02971067947418,
36,0,0,36,36,36,72,1.0,0.0,1.0,0.0,1.0,1.0,,stimuli/P_36_00_00_36.png,,,,,0,68,68,195,,,,,,,,,,,,,,,,,,,,,,,,,,,1274.2009239885451,None,1274.2009239885451,None,1274.6866261163018,None,1274.6866261163018,None,50,1274.6866261163018,None,return,2.4990806763398723,1274.6866261163018,None,,,YUESHUAIHUA,F,002,2023_Apr_18_1734,untitled,2021.1.4,60.02971067947418,
9,18,18,18,27,27,63,0.71,0.67,0.33,0.5,-0.17,-0.33,,stimuli/P_09_18_18_18.png,,,,,0,69,69,106,,,,,,,,,,,,,,,,,,,,,,,,,,,1277.2228375698455,None,1277.2228375698455,None,1277.7033656575727,None,1277.7033656575727,None,33,1277.7033656575727,None,return,2.803987793930901,1277.7033656575727,None,,,YUESHUAIHUA,F,002,2023_Apr_18_1734,untitled,2021.1.4,60.02971067947418,
9,36,36,18,45,45,99,0.64,0.8,0.2,0.67,-0.47,-1.4,,stimuli/P_09_36_36_18.png,,,,,0,70,70,126,,,,,,,,,,,,,,,,,,,,,,,,,,,1280.5394751663148,None,1280.5394751663148,None,1281.0184308464945,None,1281.0184308464945,None,25,1281.0184308464945,None,return,2.5237300419730673,1281.0184308464945,None,,,YUESHUAIHUA,F,002,2023_Apr_18_1734,untitled,2021.1.4,60.02971067947418,
0,0,18,0,0,18,18,1.0,None,None,1.0,None,None,,stimuli/P_00_00_18_00.png,,,,,0,71,71,8,,,,,,,,,,,,,,,,,,,,,,,,,,,1283.5758584241562,None,1283.5758584241562,None,1284.056611791691,None,1284.056611791691,None,0,1284.056611791691,None,return,1.4540213014579422,1284.056611791691,None,,,YUESHUAIHUA,F,002,2023_Apr_18_1734,untitled,2021.1.4,60.02971067947418,
9,18,9,9,27,18,45,0.6,0.67,0.33,0.5,-0.17,-0.33,,stimuli/P_09_18_09_09.png,,,,,0,72,72,101,,,,,,,,,,,,,,,,,,,,,,,,,,,1285.5306721871598,None,1285.5306721871598,None,1286.0135270284568,None,1286.0135270284568,None,25,1286.0135270284568,None,return,4.2316126734685895,1286.0135270284568,None,,,YUESHUAIHUA,F,002,2023_Apr_18_1734,untitled,2021.1.4,60.02971067947418,
0,9,18,9,9,18,36,0.75,1.0,0.0,0.67,-0.67,-2.0,,stimuli/P_00_09_18_09.png,,,,,0,73,73,25,,,,,,,,,,,,,,,,,,,,,,,,,,,1290.2836261401949,None,1290.2836261401949,None,1290.7532514816698,None,1290.7532514816698,None,0,1290.7532514816698,None,return,1.5676556222670115,1290.7532514816698,None,,,YUESHUAIHUA,F,002,2023_Apr_18_1734,untitled,2021.1.4,60.02971067947418,
9,0,18,36,9,27,63,1.0,0.0,1.0,0.33,0.67,1.0,,stimuli/P_09_00_18_36.png,,,,,0,74,74,75,,,,,,,,,,,,,,,,,,,,,,,,,,,1292.3553823100742,None,1292.3553823100742,None,1292.8450319544613,None,1292.8450319544613,None,23,1292.8450319544613,None,return,3.1014868467309498,1292.8450319544613,None,,,YUESHUAIHUA,F,002,2023_Apr_18_1734,untitled,2021.1.4,60.02971067947418,
9,18,0,36,27,9,63,0.71,0.67,0.33,0.0,0.33,0.33,,stimuli/P_09_18_00_36.png,,,,,0,75,75,99,,,,,,,,,,,,,,,,,,,,,,,,,,,1295.987153930962,None,1295.987153930962,None,1296.4653433184626,None,1296.4653433184626,None,23,1296.4653433184626,None,return,2.7827665498170973,1296.4653433184626,None,,,YUESHUAIHUA,F,002,2023_Apr_18_1734,untitled,2021.1.4,60.02971067947418,
0,0,0,36,0,0,36,1.0,None,None,0.0,None,None,,stimuli/P_00_00_00_36.png,,,,,0,76,76,3,,,,,,,,,,,,,,,,,,,,,,,,,,,1299.2830851273234,None,1299.2830851273234,None,1299.7674088384779,None,1299.7674088384779,None,0,1299.7674088384779,None,return,1.8578268235432915,1299.7674088384779,None,,,YUESHUAIHUA,F,002,2023_Apr_18_1734,untitled,2021.1.4,60.02971067947418,
9,0,0,9,9,9,18,1.0,0.0,1.0,0.0,1.0,1.0,,stimuli/P_09_00_00_09.png,,,,,0,77,77,65,,,,,,,,,,,,,,,,,,,,,,,,,,,1301.6536607399871,None,1301.6536607399871,None,1302.142281834142,None,1302.142281834142,None,25,1302.142281834142,None,return,2.7485729434401946,1302.142281834142,None,,,YUESHUAIHUA,F,002,2023_Apr_18_1734,untitled,2021.1.4,60.02971067947418,
9,36,0,0,45,9,45,0.2,0.8,0.2,None,None,None,,stimuli/P_09_36_00_00.png,,,,,0,78,78,112,,,,,,,,,,,,,,,,,,,,,,,,,,,1304.9150575658173,None,1304.9150575658173,None,1305.3965698304823,None,1305.3965698304823,None,25,1305.3965698304823,None,return,2.2959852407593644,1305.3965698304823,None,,,YUESHUAIHUA,F,002,2023_Apr_18_1734,untitled,2021.1.4,60.02971067947418,
9,36,18,36,45,27,99,0.64,0.8,0.2,0.33,-0.13,-0.2,,stimuli/P_09_36_18_36.png,,,,,0,79,79,123,,,,,,,,,,,,,,,,,,,,,,,,,,,1307.7282818318658,None,1307.7282818318658,None,1308.217819974127,None,1308.217819974127,None,25,1308.217819974127,None,return,2.1902442465470813,1308.217819974127,None,,,YUESHUAIHUA,F,002,2023_Apr_18_1734,untitled,2021.1.4,60.02971067947418,
9,9,18,9,18,27,45,0.8,0.5,0.5,0.67,-0.17,-0.5,,stimuli/P_09_09_18_09.png,,,,,0,80,80,89,,,,,,,,,,,,,,,,,,,,,,,,,,,1310.4437807413074,None,1310.4437807413074,None,1310.9296347622671,None,1310.9296347622671,None,25,1310.9296347622671,None,return,2.276608332849719,1310.9296347622671,None,,,YUESHUAIHUA,F,002,2023_Apr_18_1734,untitled,2021.1.4,60.02971067947418,
18,0,9,18,18,27,45,1.0,0.0,1.0,0.33,0.67,1.0,,stimuli/P_18_00_09_18.png,,,,,0,81,81,134,,,,,,,,,,,,,,,,,,,,,,,,,,,1313.233474645213,None,1313.233474645213,None,1313.7121225567666,None,1313.7121225567666,None,25,1313.7121225567666,None,return,2.4981016193978576,1313.7121225567666,None,,,YUESHUAIHUA,F,002,2023_Apr_18_1734,untitled,2021.1.4,60.02971067947418,
9,36,9,36,45,18,90,0.6,0.8,0.2,0.2,0.0,0.0,,stimuli/P_09_36_09_36.png,,,,,0,82,82,119,,,,,,,,,,,,,,,,,,,,,,,,,,,1316.2281982052714,None,1316.2281982052714,None,1316.7169677792986,None,1316.7169677792986,None,25,1316.7169677792986,None,return,2.8421118502865284,1316.7169677792986,None,,,YUESHUAIHUA,F,002,2023_Apr_18_1734,untitled,2021.1.4,60.02971067947418,
18,0,9,36,18,27,63,1.0,0.0,1.0,0.2,0.8,1.0,,stimuli/P_18_00_09_36.png,,,,,0,83,83,135,,,,,,,,,,,,,,,,,,,,,,,,,,,1319.5912371843665,None,1319.5912371843665,None,1320.0677483510767,None,1320.0677483510767,None,35,1320.0677483510767,None,return,2.190455873032988,1320.0677483510767,None,,,YUESHUAIHUA,F,002,2023_Apr_18_1734,untitled,2021.1.4,60.02971067947418,
36,18,0,18,54,36,72,0.75,0.33,0.67,0.0,0.67,0.67,,stimuli/P_36_18_00_18.png,,,,,0,84,84,226,,,,,,,,,,,,,,,,,,,,,,,,,,,1322.2969944487872,None,1322.2969944487872,None,1322.7760582177639,None,1322.7760582177639,None,45,1322.7760582177639,None,return,2.5615702230161332,1322.7760582177639,None,,,YUESHUAIHUA,F,002,2023_Apr_18_1734,untitled,2021.1.4,60.02971067947418,
18,36,9,9,54,27,72,0.5,0.67,0.33,0.5,-0.17,-0.33,,stimuli/P_18_36_09_09.png,,,,,0,85,85,181,,,,,,,,,,,,,,,,,,,,,,,,,,,1325.3711809099254,None,1325.3711809099254,None,1325.863634036366,None,1325.863634036366,None,45,1325.863634036366,None,return,1.7006389754542397,1325.863634036366,None,,,YUESHUAIHUA,F,002,2023_Apr_18_1734,untitled,2021.1.4,60.02971067947418,
0,18,0,9,18,0,27,0.33,1.0,0.0,0.0,0.0,0.0,,stimuli/P_00_18_00_09.png,,,,,0,86,86,33,,,,,,,,,,,,,,,,,,,,,,,,,,,1327.6035928716005,None,1327.6035928716005,None,1328.089669896815,None,1328.089669896815,None,0,1328.089669896815,None,return,1.83039559361805,1328.089669896815,None,,,YUESHUAIHUA,F,002,2023_Apr_18_1734,untitled,2021.1.4,60.02971067947418,
36,0,36,36,36,72,108,1.0,0.0,1.0,0.5,0.5,1.0,,stimuli/P_36_00_36_36.png,,,,,0,87,87,207,,,,,,,,,,,,,,,,,,,,,,,,,,,1329.9533170176142,None,1329.9533170176142,None,1330.4360620634493,None,1330.4360620634493,None,25,1330.4360620634493,None,return,3.999473209338248,1330.4360620634493,None,,,YUESHUAIHUA,F,002,2023_Apr_18_1734,untitled,2021.1.4,60.02971067947418,
0,36,36,9,36,36,81,0.56,1.0,0.0,0.8,-0.8,-4.0,,stimuli/P_00_36_36_09.png,,,,,0,88,88,61,,,,,,,,,,,,,,,,,,,,,,,,,,,1334.4574670585175,None,1334.4574670585175,None,1334.9310467432847,None,1334.9310467432847,None,0,1334.9310467432847,None,return,2.3624735040230007,1334.9310467432847,None,,,YUESHUAIHUA,F,002,2023_Apr_18_1734,untitled,2021.1.4,60.02971067947418,
9,0,9,9,9,18,27,1.0,0.0,1.0,0.5,0.5,1.0,,stimuli/P_09_00_09_09.png,,,,,0,89,89,69,,,,,,,,,,,,,,,,,,,,,,,,,,,1337.3338578484413,None,1337.3338578484413,None,1337.8121046936708,None,1337.8121046936708,None,20,1337.8121046936708,None,return,2.636075261660153,1337.8121046936708,None,,,YUESHUAIHUA,F,002,2023_Apr_18_1734,untitled,2021.1.4,60.02971067947418,
9,36,36,0,45,45,81,0.56,0.8,0.2,1.0,-0.8,#NAME?,,stimuli/P_09_36_36_00.png,,,,,0,90,90,124,,,,,,,,,,,,,,,,,,,,,,,,,,,1340.4735301914766,None,1340.4735301914766,None,1340.9577179383027,None,1340.9577179383027,None,20,1340.9577179383027,None,return,1.822891386687843,1340.9577179383027,None,,,YUESHUAIHUA,F,002,2023_Apr_18_1734,untitled,2021.1.4,60.02971067947418,
9,0,36,0,9,45,45,1.0,0.0,1.0,1.0,0.0,None,,stimuli/P_09_00_36_00.png,,,,,0,91,91,76,,,,,,,,,,,,,,,,,,,,,,,,,,,1342.8046499800325,None,1342.8046499800325,None,1343.283154531708,None,1343.283154531708,None,20,1343.283154531708,None,return,1.656669021864218,1343.283154531708,None,,,YUESHUAIHUA,F,002,2023_Apr_18_1734,untitled,2021.1.4,60.02971067947418,
36,18,0,36,54,36,90,0.8,0.33,0.67,0.0,0.67,0.67,,stimuli/P_36_18_00_36.png,,,,,0,92,92,227,,,,,,,,,,,,,,,,,,,,,,,,,,,1344.9638533997345,None,1344.9638533997345,None,1345.4551095849733,None,1345.4551095849733,None,45,1345.4551095849733,None,return,5.060577512751479,1345.4551095849733,None,,,YUESHUAIHUA,F,002,2023_Apr_18_1734,untitled,2021.1.4,60.02971067947418,
9,9,36,9,18,45,63,0.86,0.5,0.5,0.8,-0.3,-1.5,,stimuli/P_09_09_36_09.png,,,,,0,93,93,93,,,,,,,,,,,,,,,,,,,,,,,,,,,1350.5548738376187,None,1350.5548738376187,None,1351.0387794157973,None,1351.0387794157973,None,25,1351.0387794157973,None,return,3.0243438725601663,1351.0387794157973,None,,,YUESHUAIHUA,F,002,2023_Apr_18_1734,untitled,2021.1.4,60.02971067947418,
0,0,36,9,0,36,45,1.0,None,None,0.8,None,None,,stimuli/P_00_00_36_09.png,,,,,0,94,94,13,,,,,,,,,,,,,,,,,,,,,,,,,,,1354.104030346783,None,1354.104030346783,None,1354.6016734421278,None,1354.6016734421278,None,0,1354.6016734421278,None,return,1.4781700452949735,1354.6016734421278,None,,,YUESHUAIHUA,F,002,2023_Apr_18_1734,untitled,2021.1.4,60.02971067947418,
36,9,18,9,45,54,72,0.88,0.2,0.8,0.67,0.13,0.4,,stimuli/P_36_09_18_09.png,,,,,0,95,95,217,,,,,,,,,,,,,,,,,,,,,,,,,,,1356.1116324025184,None,1356.1116324025184,None,1356.5915989973914,None,1356.5915989973914,None,35,1356.5915989973914,None,return,2.2795705347671174,1356.5915989973914,None,,,YUESHUAIHUA,F,002,2023_Apr_18_1734,untitled,2021.1.4,60.02971067947418,
9,18,36,18,27,45,81,0.78,0.67,0.33,0.67,-0.33,-1.0,,stimuli/P_09_18_36_18.png,,,,,0,96,96,110,,,,,,,,,,,,,,,,,,,,,,,,,,,1358.9076830654435,None,1358.9076830654435,None,1359.4272920798217,None,1359.4272920798217,None,20,1359.4272920798217,None,return,2.0475237994469353,1359.4272920798217,None,,,YUESHUAIHUA,F,002,2023_Apr_18_1734,untitled,2021.1.4,60.02971067947418,
0,18,18,18,18,18,54,0.67,1.0,0.0,0.5,-0.5,-1.0,,stimuli/P_00_18_18_18.png,,,,,0,97,97,42,,,,,,,,,,,,,,,,,,,,,,,,,,,1361.5118943187395,None,1361.5118943187395,None,1361.9984361257789,None,1361.9984361257789,None,0,1361.9984361257789,None,return,1.4900359196135469,1361.9984361257789,None,,,YUESHUAIHUA,F,002,2023_Apr_18_1734,untitled,2021.1.4,60.02971067947418,
0,0,18,36,0,18,54,1.0,None,None,0.33,None,None,,stimuli/P_00_00_18_36.png,,,,,0,98,98,11,,,,,,,,,,,,,,,,,,,,,,,,,,,1363.5068357630557,None,1363.5068357630557,None,1363.986536687044,None,1363.986536687044,None,0,1363.986536687044,None,return,1.3170932760804135,1363.986536687044,None,,,YUESHUAIHUA,F,002,2023_Apr_18_1734,untitled,2021.1.4,60.02971067947418,
18,36,9,18,54,27,81,0.56,0.67,0.33,0.33,0.0,0.0,,stimuli/P_18_36_09_18.png,,,,,0,99,99,182,,,,,,,,,,,,,,,,,,,,,,,,,,,1365.3392969904667,None,1365.3392969904667,None,1365.826312112658,None,1365.826312112658,None,35,1365.826312112658,None,return,2.061912124945593,1365.826312112658,None,,,YUESHUAIHUA,F,002,2023_Apr_18_1734,untitled,2021.1.4,60.02971067947418,
9,18,18,0,27,27,45,0.6,0.67,0.33,1.0,-0.67,#NAME?,,stimuli/P_09_18_18_00.png,,,,,0,100,100,104,,,,,,,,,,,,,,,,,,,,,,,,,,,1367.9135665093122,None,1367.9135665093122,None,1368.4032525625576,None,1368.4032525625576,None,20,1368.4032525625576,None,return,2.2363805271770616,1368.4032525625576,None,,,YUESHUAIHUA,F,002,2023_Apr_18_1734,untitled,2021.1.4,60.02971067947418,
18,36,18,36,54,36,108,0.67,0.67,0.33,0.33,0.0,0.0,,stimuli/P_18_36_18_36.png,,,,,0,101,101,187,,,,,,,,,,,,,,,,,,,,,,,,,,,1370.674719850906,None,1370.674719850906,None,1371.1636350603653,None,1371.1636350603653,None,25,1371.1636350603653,None,return,1.9454760287499084,1371.1636350603653,None,,,YUESHUAIHUA,F,002,2023_Apr_18_1734,untitled,2021.1.4,60.02971067947418,
36,9,36,18,45,72,99,0.91,0.2,0.8,0.67,0.13,0.4,,stimuli/P_36_09_36_18.png,,,,,0,102,102,222,,,,,,,,,,,,,,,,,,,,,,,,,,,1373.1416981546395,None,1373.1416981546395,None,1373.6507889913269,None,1373.6507889913269,None,45,1373.6507889913269,None,return,2.859142662420709,1373.6507889913269,None,,,YUESHUAIHUA,F,002,2023_Apr_18_1734,untitled,2021.1.4,60.02971067947418,
36,36,9,18,72,45,99,0.64,0.5,0.5,0.33,0.17,0.25,,stimuli/P_36_36_09_18.png,,,,,0,103,103,246,,,,,,,,,,,,,,,,,,,,,,,,,,,1376.5431456342935,None,1376.5431456342935,None,1377.027980207235,None,1377.027980207235,None,45,1377.027980207235,None,return,1.8146032515378465,1377.027980207235,None,,,YUESHUAIHUA,F,002,2023_Apr_18_1734,untitled,2021.1.4,60.02971067947418,
36,9,36,36,45,72,117,0.92,0.2,0.8,0.5,0.3,0.6,,stimuli/P_36_09_36_36.png,,,,,0,104,104,223,,,,,,,,,,,,,,,,,,,,,,,,,,,1378.8787994634245,None,1378.8787994634245,None,1379.3618522778866,None,1379.3618522778866,None,45,1379.3618522778866,None,return,1.5311932889380842,1379.3618522778866,None,,,YUESHUAIHUA,F,002,2023_Apr_18_1734,untitled,2021.1.4,60.02971067947418,
36,18,36,18,54,72,108,0.83,0.33,0.67,0.67,0.0,0.0,,stimuli/P_36_18_36_18.png,,,,,0,105,105,238,,,,,,,,,,,,,,,,,,,,,,,,,,,1380.9335162878438,None,1380.9335162878438,None,1381.4232381810593,None,1381.4232381810593,None,45,1381.4232381810593,None,return,1.5560901210255906,1381.4232381810593,None,,,YUESHUAIHUA,F,002,2023_Apr_18_1734,untitled,2021.1.4,60.02971067947418,
18,0,18,18,18,36,54,1.0,0.0,1.0,0.5,0.5,1.0,,stimuli/P_18_00_18_18.png,,,,,0,106,106,138,,,,,,,,,,,,,,,,,,,,,,,,,,,1383.0015371364666,None,1383.0015371364666,None,1383.4805747365767,None,1383.4805747365767,None,35,1383.4805747365767,None,return,3.134713342822579,1383.4805747365767,None,,,YUESHUAIHUA,F,002,2023_Apr_18_1734,untitled,2021.1.4,60.02971067947418,
0,36,18,18,36,18,72,0.5,1.0,0.0,0.5,-0.5,-1.0,,stimuli/P_00_36_18_18.png,,,,,0,107,107,58,,,,,,,,,,,,,,,,,,,,,,,,,,,1386.6501296496676,None,1386.6501296496676,None,1387.1297827870299,None,1387.1297827870299,None,0,1387.1297827870299,None,return,2.092140010262483,1387.1297827870299,None,,,YUESHUAIHUA,F,002,2023_Apr_18_1734,untitled,2021.1.4,60.02971067947418,
18,9,18,36,27,36,81,0.89,0.33,0.67,0.33,0.33,0.5,,stimuli/P_18_09_18_36.png,,,,,0,108,108,155,,,,,,,,,,,,,,,,,,,,,,,,,,,1389.2594825163528,None,1389.2594825163528,None,1389.7464088919537,None,1389.7464088919537,None,35,1389.7464088919537,None,return,2.3148416157800966,1389.7464088919537,None,,,YUESHUAIHUA,F,002,2023_Apr_18_1734,untitled,2021.1.4,60.02971067947418,
36,0,18,0,36,54,54,1.0,0.0,1.0,1.0,0.0,None,,stimuli/P_36_00_18_00.png,,,,,0,109,109,200,,,,,,,,,,,,,,,,,,,,,,,,,,,1392.0821167654826,None,1392.0821167654826,None,1392.558462954556,None,1392.558462954556,None,40,1392.558462954556,None,return,4.218701751152366,1392.558462954556,None,,,YUESHUAIHUA,F,002,2023_Apr_18_1734,untitled,2021.1.4,60.02971067947418,
0,0,36,0,0,36,36,1.0,None,None,1.0,None,None,,stimuli/P_00_00_36_00.png,,,,,0,110,110,12,,,,,,,,,,,,,,,,,,,,,,,,,,,1396.8111523744833,None,1396.8111523744833,None,1397.2917123199609,None,1397.2917123199609,None,0,1397.2917123199609,None,return,1.5688457368078161,1397.2917123199609,None,,,YUESHUAIHUA,F,002,2023_Apr_18_1734,untitled,2021.1.4,60.02971067947418,
0,36,18,36,36,18,90,0.6,1.0,0.0,0.33,-0.33,-0.5,,stimuli/P_00_36_18_36.png,,,,,0,111,111,59,,,,,,,,,,,,,,,,,,,,,,,,,,,1398.8938932105443,None,1398.8938932105443,None,1399.377282806941,None,1399.377282806941,None,0,1399.377282806941,None,return,2.1325464468936843,1399.377282806941,None,,,YUESHUAIHUA,F,002,2023_Apr_18_1734,untitled,2021.1.4,60.02971067947418,
0,18,36,18,18,36,72,0.75,1.0,0.0,0.67,-0.67,-2.0,,stimuli/P_00_18_36_18.png,,,,,0,112,112,46,,,,,,,,,,,,,,,,,,,,,,,,,,,1401.5464321026006,None,1401.5464321026006,None,1402.032979598524,None,1402.032979598524,None,0,1402.032979598524,None,return,1.3488571600864816,1402.032979598524,None,,,YUESHUAIHUA,F,002,2023_Apr_18_1734,untitled,2021.1.4,60.02971067947418,
0,9,36,36,9,36,81,0.89,1.0,0.0,0.5,-0.5,-1.0,,stimuli/P_00_09_36_36.png,,,,,0,113,113,31,,,,,,,,,,,,,,,,,,,,,,,,,,,1403.4145165529458,None,1403.4145165529458,None,1403.8928908291778,None,1403.8928908291778,None,0,1403.8928908291778,None,return,1.3453095720033161,1403.8928908291778,None,,,YUESHUAIHUA,F,002,2023_Apr_18_1734,untitled,2021.1.4,60.02971067947418,
0,18,9,0,18,9,27,0.33,1.0,0.0,1.0,-1.0,#NAME?,,stimuli/P_00_18_09_00.png,,,,,0,114,114,36,,,,,,,,,,,,,,,,,,,,,,,,,,,1405.2742098993408,None,1405.2742098993408,None,1405.7565237277663,None,1405.7565237277663,None,0,1405.7565237277663,None,return,1.2027074536899818,1405.7565237277663,None,,,YUESHUAIHUA,F,002,2023_Apr_18_1734,untitled,2021.1.4,60.02971067947418,
0,18,36,0,18,36,54,0.67,1.0,0.0,1.0,-1.0,#NAME?,,stimuli/P_00_18_36_00.png,,,,,0,115,115,44,,,,,,,,,,,,,,,,,,,,,,,,,,,1406.999609742555,None,1406.999609742555,None,1407.5211245330852,None,1407.5211245330852,None,0,1407.5211245330852,None,return,1.19316548849838,1407.5211245330852,None,,,YUESHUAIHUA,F,002,2023_Apr_18_1734,untitled,2021.1.4,60.02971067947418,
36,36,18,9,72,54,99,0.64,0.5,0.5,0.67,-0.17,-0.5,,stimuli/P_36_36_18_09.png,,,,,0,116,116,249,,,,,,,,,,,,,,,,,,,,,,,,,,,1408.7456295148409,None,1408.7456295148409,None,1409.2298798393917,None,1409.2298798393917,None,45,1409.2298798393917,None,return,3.130187835572542,1409.2298798393917,None,,,YUESHUAIHUA,F,002,2023_Apr_18_1734,untitled,2021.1.4,60.02971067947418,
0,9,36,9,9,36,54,0.83,1.0,0.0,0.8,-0.8,-4.0,,stimuli/P_00_09_36_09.png,,,,,0,117,117,29,,,,,,,,,,,,,,,,,,,,,,,,,,,1412.3932088377956,None,1412.3932088377956,None,1412.879645969369,None,1412.879645969369,None,0,1412.879645969369,None,return,1.6821762712097552,1412.879645969369,None,,,YUESHUAIHUA,F,002,2023_Apr_18_1734,untitled,2021.1.4,60.02971067947418,
18,36,18,0,54,36,72,0.5,0.67,0.33,1.0,-0.67,#NAME?,,stimuli/P_18_36_18_00.png,,,,,0,118,118,184,,,,,,,,,,,,,,,,,,,,,,,,,,,1414.5953138386653,None,1414.5953138386653,None,1415.0779820845669,None,1415.0779820845669,None,35,1415.0779820845669,None,return,2.6753410770425035,1415.0779820845669,None,,,YUESHUAIHUA,F,002,2023_Apr_18_1734,untitled,2021.1.4,60.02971067947418,
36,36,36,9,72,72,117,0.69,0.5,0.5,0.8,-0.3,-1.5,,stimuli/P_36_36_36_09.png,,,,,0,119,119,253,,,,,,,,,,,,,,,,,,,,,,,,,,,1417.7778797984315,None,1417.7778797984315,None,1418.261793909936,None,1418.261793909936,None,45,1418.261793909936,None,return,2.533933055487978,1418.261793909936,None,,,YUESHUAIHUA,F,002,2023_Apr_18_1734,untitled,2021.1.4,60.02971067947418,
36,36,9,0,72,45,81,0.56,0.5,0.5,1.0,-0.5,#NAME?,,stimuli/P_36_36_09_00.png,,,,,0,120,120,244,,,,,,,,,,,,,,,,,,,,,,,,,,,1420.8342429858908,None,1420.8342429858908,None,1421.3222542316767,None,1421.3222542316767,None,45,1421.3222542316767,None,return,4.98280648578293,1421.3222542316767,None,,,YUESHUAIHUA,F,002,2023_Apr_18_1734,untitled,2021.1.4,60.02971067947418,
36,0,18,36,36,54,90,1.0,0.0,1.0,0.33,0.67,1.0,,stimuli/P_36_00_18_36.png,,,,,0,121,121,203,,,,,,,,,,,,,,,,,,,,,,,,,,,1426.337994236023,None,1426.337994236023,None,1426.8271398452848,None,1426.8271398452848,None,455,1426.8271398452848,None,return,2.3401013986695034,1426.8271398452848,None,,,YUESHUAIHUA,F,002,2023_Apr_18_1734,untitled,2021.1.4,60.02971067947418,
36,18,9,18,54,45,81,0.78,0.33,0.67,0.33,0.33,0.5,,stimuli/P_36_18_09_18.png,,,,,0,122,122,230,,,,,,,,,,,,,,,,,,,,,,,,,,,1429.2031545999748,None,1429.2031545999748,None,1429.6837259232211,None,1429.6837259232211,None,45,1429.6837259232211,None,return,2.7102201939451334,1429.6837259232211,None,,,YUESHUAIHUA,F,002,2023_Apr_18_1734,untitled,2021.1.4,60.02971067947418,
0,36,0,18,36,0,54,0.33,1.0,0.0,0.0,0.0,0.0,,stimuli/P_00_36_00_18.png,,,,,0,123,123,50,,,,,,,,,,,,,,,,,,,,,,,,,,,1432.4298657309596,None,1432.4298657309596,None,1432.9078383719784,None,1432.9078383719784,None,0,1432.9078383719784,None,return,1.3231553509076548,1432.9078383719784,None,,,YUESHUAIHUA,F,002,2023_Apr_18_1734,untitled,2021.1.4,60.02971067947418,
36,0,36,9,36,72,81,1.0,0.0,1.0,0.8,0.2,1.0,,stimuli/P_36_00_36_09.png,,,,,0,124,124,205,,,,,,,,,,,,,,,,,,,,,,,,,,,1434.2639460147661,None,1434.2639460147661,None,1434.7427964505919,None,1434.7427964505919,None,45,1434.7427964505919,None,return,2.002096922655255,1434.7427964505919,None,,,YUESHUAIHUA,F,002,2023_Apr_18_1734,untitled,2021.1.4,60.02971067947418,
9,9,0,18,18,9,36,0.75,0.5,0.5,0.0,0.5,0.5,,stimuli/P_09_09_00_18.png,,,,,0,125,125,82,,,,,,,,,,,,,,,,,,,,,,,,,,,1436.7644454987844,None,1436.7644454987844,None,1437.2454446261095,None,1437.2454446261095,None,25,1437.2454446261095,None,return,3.0303672629752327,1437.2454446261095,None,,,YUESHUAIHUA,F,002,2023_Apr_18_1734,untitled,2021.1.4,60.02971067947418,
18,0,18,9,18,36,45,1.0,0.0,1.0,0.67,0.33,1.0,,stimuli/P_18_00_18_09.png,,,,,0,126,126,137,,,,,,,,,,,,,,,,,,,,,,,,,,,1440.3109942235074,None,1440.3109942235074,None,1440.7868033819282,None,1440.7868033819282,None,25,1440.7868033819282,None,return,1.4328393106434305,1440.7868033819282,None,,,YUESHUAIHUA,F,002,2023_Apr_18_1734,untitled,2021.1.4,60.02971067947418,
18,18,9,36,36,27,81,0.78,0.5,0.5,0.2,0.3,0.37,,stimuli/P_18_18_09_36.png,,,,,0,127,127,167,,,,,,,,,,,,,,,,,,,,,,,,,,,1442.2600735914043,None,1442.2600735914043,None,1442.7499928888951,None,1442.7499928888951,None,35,1442.7499928888951,None,return,2.426516684928174,1442.7499928888951,None,,,YUESHUAIHUA,F,002,2023_Apr_18_1734,untitled,2021.1.4,60.02971067947418,
18,36,0,0,54,18,54,0.33,0.67,0.33,None,None,None,,stimuli/P_18_36_00_00.png,,,,,0,128,128,176,,,,,,,,,,,,,,,,,,,,,,,,,,,1445.2081175824064,None,1445.2081175824064,None,1445.6831627237011,None,1445.6831627237011,None,35,1445.6831627237011,None,return,2.348391809372515,1445.6831627237011,None,,,YUESHUAIHUA,F,002,2023_Apr_18_1734,untitled,2021.1.4,60.02971067947418,
9,36,18,0,45,27,63,0.43,0.8,0.2,1.0,-0.8,#NAME?,,stimuli/P_09_36_18_00.png,,,,,0,129,129,120,,,,,,,,,,,,,,,,,,,,,,,,,,,1448.0748088250525,None,1448.0748088250525,None,1448.555012077501,None,1448.555012077501,None,25,1448.555012077501,None,return,1.875141510990943,1448.555012077501,None,,,YUESHUAIHUA,F,002,2023_Apr_18_1734,untitled,2021.1.4,60.02971067947418,
0,36,9,0,36,9,45,0.2,1.0,0.0,1.0,-1.0,#NAME?,,stimuli/P_00_36_09_00.png,,,,,0,130,130,52,,,,,,,,,,,,,,,,,,,,,,,,,,,1450.4667040995241,None,1450.4667040995241,None,1450.9464954767686,None,1450.9464954767686,None,0,1450.9464954767686,None,return,1.6396285386281306,1450.9464954767686,None,,,YUESHUAIHUA,F,002,2023_Apr_18_1734,untitled,2021.1.4,60.02971067947418,
9,9,0,9,18,9,27,0.67,0.5,0.5,0.0,0.5,0.5,,stimuli/P_09_09_00_09.png,,,,,0,131,131,81,,,,,,,,,,,,,,,,,,,,,,,,,,,1452.6083675519708,None,1452.6083675519708,None,1453.08368917303,None,1453.08368917303,None,25,1453.08368917303,None,return,3.4821499885647427,1453.08368917303,None,,,YUESHUAIHUA,F,002,2023_Apr_18_1734,untitled,2021.1.4,60.02971067947418,
36,18,9,36,54,45,99,0.82,0.33,0.67,0.2,0.47,0.58,,stimuli/P_36_18_09_36.png,,,,,0,132,132,231,,,,,,,,,,,,,,,,,,,,,,,,,,,1456.5901574341765,None,1456.5901574341765,None,1457.0694242963132,None,1457.0694242963132,None,35,1457.0694242963132,None,return,3.780845413678435,1457.0694242963132,None,,,YUESHUAIHUA,F,002,2023_Apr_18_1734,untitled,2021.1.4,60.02971067947418,
9,36,36,9,45,45,90,0.6,0.8,0.2,0.8,-0.6,-3.0,,stimuli/P_09_36_36_09.png,,,,,0,133,133,125,,,,,,,,,,,,,,,,,,,,,,,,,,,1460.872079184715,None,1460.872079184715,None,1461.3559318562716,None,1461.3559318562716,None,25,1461.3559318562716,None,return,1.7160029445667533,1461.3559318562716,None,,,YUESHUAIHUA,F,002,2023_Apr_18_1734,untitled,2021.1.4,60.02971067947418,
9,36,18,9,45,27,72,0.5,0.8,0.2,0.67,-0.47,-1.4,,stimuli/P_09_36_18_09.png,,,,,0,134,134,121,,,,,,,,,,,,,,,,,,,,,,,,,,,1463.0953218031032,None,1463.0953218031032,None,1463.5759960951505,None,1463.5759960951505,None,25,1463.5759960951505,None,return,1.7822864080044383,1463.5759960951505,None,,,YUESHUAIHUA,F,002,2023_Apr_18_1734,untitled,2021.1.4,60.02971067947418,
18,18,18,0,36,36,54,0.67,0.5,0.5,1.0,-0.5,#NAME?,,stimuli/P_18_18_18_00.png,,,,,0,135,135,168,,,,,,,,,,,,,,,,,,,,,,,,,,,1465.3898512584378,None,1465.3898512584378,None,1465.8674774464193,None,1465.8674774464193,None,25,1465.8674774464193,None,return,2.0700768113129016,1465.8674774464193,None,,,YUESHUAIHUA,F,002,2023_Apr_18_1734,untitled,2021.1.4,60.02971067947418,
18,9,36,0,27,54,63,0.86,0.33,0.67,1.0,-0.33,#NAME?,,stimuli/P_18_09_36_00.png,,,,,0,136,136,156,,,,,,,,,,,,,,,,,,,,,,,,,,,1467.9662927932081,None,1467.9662927932081,None,1468.4464095746193,None,1468.4464095746193,None,35,1468.4464095746193,None,return,2.261865589875015,1468.4464095746193,None,,,YUESHUAIHUA,F,002,2023_Apr_18_1734,untitled,2021.1.4,60.02971067947418,
18,18,18,9,36,36,63,0.71,0.5,0.5,0.67,-0.17,-0.5,,stimuli/P_18_18_18_09.png,,,,,0,137,137,169,,,,,,,,,,,,,,,,,,,,,,,,,,,1470.7483908991512,None,1470.7483908991512,None,1471.2345674798357,None,1471.2345674798357,None,35,1471.2345674798357,None,return,1.463420475658495,1471.2345674798357,None,,,YUESHUAIHUA,F,002,2023_Apr_18_1734,untitled,2021.1.4,60.02971067947418,
18,9,0,18,27,18,45,0.8,0.33,0.67,0.0,0.67,0.67,,stimuli/P_18_09_00_18.png,,,,,0,138,138,146,,,,,,,,,,,,,,,,,,,,,,,,,,,1472.7241460131731,None,1472.7241460131731,None,1473.2026175693222,None,1473.2026175693222,None,35,1473.2026175693222,None,return,1.1974679914937951,1473.2026175693222,None,,,YUESHUAIHUA,F,002,2023_Apr_18_1734,untitled,2021.1.4,60.02971067947418,
9,9,36,36,18,45,90,0.9,0.5,0.5,0.5,0.0,0.0,,stimuli/P_09_09_36_36.png,,,,,0,139,139,95,,,,,,,,,,,,,,,,,,,,,,,,,,,1474.4319706180518,None,1474.4319706180518,None,1474.9252372549086,None,1474.9252372549086,None,25,1474.9252372549086,None,return,4.152629345311652,1474.9252372549086,None,,,YUESHUAIHUA,F,002,2023_Apr_18_1734,untitled,2021.1.4,60.02971067947418,
9,0,0,36,9,9,45,1.0,0.0,1.0,0.0,1.0,1.0,,stimuli/P_09_00_00_36.png,,,,,0,140,140,67,,,,,,,,,,,,,,,,,,,,,,,,,,,1479.1185301744104,None,1479.1185301744104,None,1479.6285147347785,None,1479.6285147347785,None,25,1479.6285147347785,None,return,1.6412237017111693,1479.6285147347785,None,,,YUESHUAIHUA,F,002,2023_Apr_18_1734,untitled,2021.1.4,60.02971067947418,
0,36,9,18,36,9,63,0.43,1.0,0.0,0.33,-0.33,-0.5,,stimuli/P_00_36_09_18.png,,,,,0,141,141,54,,,,,,,,,,,,,,,,,,,,,,,,,,,1481.30338932333,None,1481.30338932333,None,1481.7950255260225,None,1481.7950255260225,None,0,1481.7950255260225,None,return,1.5809186865044467,1481.7950255260225,None,,,YUESHUAIHUA,F,002,2023_Apr_18_1734,untitled,2021.1.4,60.02971067947418,
0,9,0,9,9,0,18,0.5,1.0,0.0,0.0,0.0,0.0,,stimuli/P_00_09_00_09.png,,,,,0,142,142,17,,,,,,,,,,,,,,,,,,,,,,,,,,,1483.3973748075737,None,1483.3973748075737,None,1483.86630496742,None,1483.86630496742,None,0,1483.86630496742,None,return,1.853208587484005,1483.86630496742,None,,,YUESHUAIHUA,F,002,2023_Apr_18_1734,untitled,2021.1.4,60.02971067947418,
0,18,18,0,18,18,36,0.5,1.0,0.0,1.0,-1.0,#NAME?,,stimuli/P_00_18_18_00.png,,,,,0,143,143,40,,,,,,,,,,,,,,,,,,,,,,,,,,,1485.743665712072,None,1485.743665712072,None,1486.2236010180827,None,1486.2236010180827,None,0,1486.2236010180827,None,return,1.2586365792967626,1486.2236010180827,None,,,YUESHUAIHUA,F,002,2023_Apr_18_1734,untitled,2021.1.4,60.02971067947418,
18,0,36,9,18,54,63,1.0,0.0,1.0,0.8,0.2,1.0,,stimuli/P_18_00_36_09.png,,,,,0,144,144,141,,,,,,,,,,,,,,,,,,,,,,,,,,,1487.519432658973,None,1487.519432658973,None,1487.994255933791,None,1487.994255933791,None,35,1487.994255933791,None,return,1.9136831314353913,1487.994255933791,None,,,YUESHUAIHUA,F,002,2023_Apr_18_1734,untitled,2021.1.4,60.02971067947418,
36,18,18,0,54,54,72,0.75,0.33,0.67,1.0,-0.33,#NAME?,,stimuli/P_36_18_18_00.png,,,,,0,145,145,232,,,,,,,,,,,,,,,,,,,,,,,,,,,1489.9477464623674,None,1489.9477464623674,None,1490.4236068207442,None,1490.4236068207442,None,40,1490.4236068207442,None,return,2.7619640075681673,1490.4236068207442,None,,,YUESHUAIHUA,F,002,2023_Apr_18_1734,untitled,2021.1.4,60.02971067947418,
18,18,0,18,36,18,54,0.67,0.5,0.5,0.0,0.5,0.5,,stimuli/P_18_18_00_18.png,,,,,0,146,146,162,,,,,,,,,,,,,,,,,,,,,,,,,,,1493.2039453548555,None,1493.2039453548555,None,1493.6925471068048,None,1493.6925471068048,None,40,1493.6925471068048,None,return,1.947080862934854,1493.6925471068048,None,,,YUESHUAIHUA,F,002,2023_Apr_18_1734,untitled,2021.1.4,60.02971067947418,
36,9,18,18,45,54,81,0.89,0.2,0.8,0.5,0.3,0.6,,stimuli/P_36_09_18_18.png,,,,,0,147,147,218,,,,,,,,,,,,,,,,,,,,,,,,,,,1495.6739706248786,None,1495.6739706248786,None,1496.1526708741653,None,1496.1526708741653,None,45,1496.1526708741653,None,return,2.746780944969032,1496.1526708741653,None,,,YUESHUAIHUA,F,002,2023_Apr_18_1734,untitled,2021.1.4,60.02971067947418,
18,18,0,9,36,18,45,0.6,0.5,0.5,0.0,0.5,0.5,,stimuli/P_18_18_00_09.png,,,,,0,148,148,161,,,,,,,,,,,,,,,,,,,,,,,,,,,1498.9246621087327,None,1498.9246621087327,None,1499.4024447410252,None,1499.4024447410252,None,30,1499.4024447410252,None,return,1.7200238478017127,1499.4024447410252,None,,,YUESHUAIHUA,F,002,2023_Apr_18_1734,untitled,2021.1.4,60.02971067947418,
0,0,0,18,0,0,18,1.0,None,None,0.0,None,None,,stimuli/P_00_00_00_18.png,,,,,0,149,149,2,,,,,,,,,,,,,,,,,,,,,,,,,,,1501.158705642349,None,1501.158705642349,None,1501.6346075295792,None,1501.6346075295792,None,0,1501.6346075295792,None,return,1.4446733272116035,1501.6346075295792,None,,,YUESHUAIHUA,F,002,2023_Apr_18_1734,untitled,2021.1.4,60.02971067947418,
0,36,0,9,36,0,45,0.2,1.0,0.0,0.0,0.0,0.0,,stimuli/P_00_36_00_09.png,,,,,0,150,150,49,,,,,,,,,,,,,,,,,,,,,,,,,,,1503.1201020130688,None,1503.1201020130688,None,1503.6157420523446,None,1503.6157420523446,None,0,1503.6157420523446,None,return,1.1831729636924138,1503.6157420523446,None,,,YUESHUAIHUA,F,002,2023_Apr_18_1734,untitled,2021.1.4,60.02971067947418,
18,18,18,18,36,36,72,0.75,0.5,0.5,0.5,0.0,0.0,,stimuli/P_18_18_18_18.png,,,,,0,151,151,170,,,,,,,,,,,,,,,,,,,,,,,,,,,1504.838719568737,None,1504.838719568737,None,1505.3259821573843,None,1505.3259821573843,None,35,1505.3259821573843,None,return,1.7801684364785615,1505.3259821573843,None,,,YUESHUAIHUA,F,002,2023_Apr_18_1734,untitled,2021.1.4,60.02971067947418,
0,36,9,9,36,9,54,0.33,1.0,0.0,0.5,-0.5,-1.0,,stimuli/P_00_36_09_09.png,,,,,0,152,152,53,,,,,,,,,,,,,,,,,,,,,,,,,,,1507.125298808634,None,1507.125298808634,None,1507.609997417247,None,1507.609997417247,None,0,1507.609997417247,None,return,1.2164461086322262,1507.609997417247,None,,,YUESHUAIHUA,F,002,2023_Apr_18_1734,untitled,2021.1.4,60.02971067947418,
0,18,0,0,18,0,18,0.0,1.0,0.0,None,None,None,,stimuli/P_00_18_00_00.png,,,,,0,153,153,32,,,,,,,,,,,,,,,,,,,,,,,,,,,1508.846385339974,None,1508.846385339974,None,1509.3399165099377,None,1509.3399165099377,None,0,1509.3399165099377,None,return,1.1416901902020982,1509.3399165099377,None,,,YUESHUAIHUA,F,002,2023_Apr_18_1734,untitled,2021.1.4,60.02971067947418,
36,9,9,9,45,45,63,0.86,0.2,0.8,0.5,0.3,0.6,,stimuli/P_36_09_09_09.png,,,,,0,154,154,213,,,,,,,,,,,,,,,,,,,,,,,,,,,1510.5013311988646,None,1510.5013311988646,None,1510.9897930042657,None,1510.9897930042657,None,35,1510.9897930042657,None,return,2.329366474496055,1510.9897930042657,None,,,YUESHUAIHUA,F,002,2023_Apr_18_1734,untitled,2021.1.4,60.02971067947418,
0,36,9,36,36,9,81,0.56,1.0,0.0,0.2,-0.2,-0.25,,stimuli/P_00_36_09_36.png,,,,,0,155,155,55,,,,,,,,,,,,,,,,,,,,,,,,,,,1513.3546558395824,None,1513.3546558395824,None,1513.8247869228485,None,1513.8247869228485,None,0,1513.8247869228485,None,return,1.1845172469902536,1513.8247869228485,None,,,YUESHUAIHUA,F,002,2023_Apr_18_1734,untitled,2021.1.4,60.02971067947418,
9,36,36,36,45,45,117,0.69,0.8,0.2,0.5,-0.3,-0.6,,stimuli/P_09_36_36_36.png,,,,,0,156,156,127,,,,,,,,,,,,,,,,,,,,,,,,,,,1515.0442123000498,None,1515.0442123000498,None,1515.5172054608734,None,1515.5172054608734,None,35,1515.5172054608734,None,return,1.558041408248755,1515.5172054608734,None,,,YUESHUAIHUA,F,002,2023_Apr_18_1734,untitled,2021.1.4,60.02971067947418,
36,36,9,36,72,45,117,0.69,0.5,0.5,0.2,0.3,0.37,,stimuli/P_36_36_09_36.png,,,,,0,157,157,247,,,,,,,,,,,,,,,,,,,,,,,,,,,1517.115104897333,None,1517.115104897333,None,1517.5948416612905,None,1517.5948416612905,None,45,1517.5948416612905,None,return,1.6496210634350064,1517.5948416612905,None,,,YUESHUAIHUA,F,002,2023_Apr_18_1734,untitled,2021.1.4,60.02971067947418,
18,18,9,9,36,27,54,0.67,0.5,0.5,0.5,0.0,0.0,,stimuli/P_18_18_09_09.png,,,,,0,158,158,165,,,,,,,,,,,,,,,,,,,,,,,,,,,1519.2709251376996,None,1519.2709251376996,None,1519.753805578975,None,1519.753805578975,None,35,1519.753805578975,None,return,3.208357653312305,1519.753805578975,None,,,YUESHUAIHUA,F,002,2023_Apr_18_1734,untitled,2021.1.4,60.02971067947418,
36,0,9,9,36,45,54,1.0,0.0,1.0,0.5,0.5,1.0,,stimuli/P_36_00_09_09.png,,,,,0,159,159,197,,,,,,,,,,,,,,,,,,,,,,,,,,,1522.9970099225516,None,1522.9970099225516,None,1523.4754917186915,None,1523.4754917186915,None,45,1523.4754917186915,None,return,1.5445342908860766,1523.4754917186915,None,,,YUESHUAIHUA,F,002,2023_Apr_18_1734,untitled,2021.1.4,60.02971067947418,
9,9,0,0,18,9,18,0.5,0.5,0.5,None,None,None,,stimuli/P_09_09_00_00.png,,,,,0,160,160,80,,,,,,,,,,,,,,,,,,,,,,,,,,,1525.0612766765994,None,1525.0612766765994,None,1525.5446958551934,None,1525.5446958551934,None,25,1525.5446958551934,None,return,1.9540861547347959,1525.5446958551934,None,,,YUESHUAIHUA,F,002,2023_Apr_18_1734,untitled,2021.1.4,60.02971067947418,
9,36,9,9,45,18,63,0.43,0.8,0.2,0.5,-0.3,-0.6,,stimuli/P_09_36_09_09.png,,,,,0,161,161,117,,,,,,,,,,,,,,,,,,,,,,,,,,,1527.517893815842,None,1527.517893815842,None,1527.9955569815697,None,1527.9955569815697,None,35,1527.9955569815697,None,return,2.128362841574017,1527.9955569815697,None,,,YUESHUAIHUA,F,002,2023_Apr_18_1734,untitled,2021.1.4,60.02971067947418,
9,18,0,9,27,9,36,0.5,0.67,0.33,0.0,0.33,0.33,,stimuli/P_09_18_00_09.png,,,,,0,162,162,97,,,,,,,,,,,,,,,,,,,,,,,,,,,1530.1601221744736,None,1530.1601221744736,None,1530.646043324265,None,1530.646043324265,None,35,1530.646043324265,None,return,1.684412571523353,1530.646043324265,None,,,YUESHUAIHUA,F,002,2023_Apr_18_1734,untitled,2021.1.4,60.02971067947418,
9,9,36,0,18,45,54,0.83,0.5,0.5,1.0,-0.5,#NAME?,,stimuli/P_09_09_36_00.png,,,,,0,163,163,92,,,,,,,,,,,,,,,,,,,,,,,,,,,1532.363735298502,None,1532.363735298502,None,1532.839225310528,None,1532.839225310528,None,35,1532.839225310528,None,return,1.7193684883613969,1532.839225310528,None,,,YUESHUAIHUA,F,002,2023_Apr_18_1734,untitled,2021.1.4,60.02971067947418,
36,0,0,0,36,36,36,1.0,0.0,1.0,None,None,None,,stimuli/P_36_00_00_00.png,,,,,0,164,164,192,,,,,,,,,,,,,,,,,,,,,,,,,,,1534.5771759696986,None,1534.5771759696986,None,1535.0636551990142,None,1535.0636551990142,None,100,1535.0636551990142,None,return,3.913541478222214,1535.0636551990142,None,,,YUESHUAIHUA,F,002,2023_Apr_18_1734,untitled,2021.1.4,60.02971067947418,
9,36,9,0,45,18,54,0.33,0.8,0.2,1.0,-0.8,#NAME?,,stimuli/P_09_36_09_00.png,,,,,0,165,165,116,,,,,,,,,,,,,,,,,,,,,,,,,,,1539.0171832742258,None,1539.0171832742258,None,1539.505434590918,None,1539.505434590918,None,25,1539.505434590918,None,return,2.0046870715559635,1539.505434590918,None,,,YUESHUAIHUA,F,002,2023_Apr_18_1734,untitled,2021.1.4,60.02971067947418,
36,0,9,18,36,45,63,1.0,0.0,1.0,0.33,0.67,1.0,,stimuli/P_36_00_09_18.png,,,,,0,166,166,198,,,,,,,,,,,,,,,,,,,,,,,,,,,1541.5449655082962,None,1541.5449655082962,None,1542.0278027140525,None,1542.0278027140525,None,45,1542.0278027140525,None,return,2.347129446005056,1542.0278027140525,None,,,YUESHUAIHUA,F,002,2023_Apr_18_1734,untitled,2021.1.4,60.02971067947418,
0,18,36,36,18,36,90,0.8,1.0,0.0,0.5,-0.5,-1.0,,stimuli/P_00_18_36_36.png,,,,,0,167,167,47,,,,,,,,,,,,,,,,,,,,,,,,,,,1544.3985848332081,None,1544.3985848332081,None,1544.8834165617068,None,1544.8834165617068,None,0,1544.8834165617068,None,return,1.4446784472074796,1544.8834165617068,None,,,YUESHUAIHUA,F,002,2023_Apr_18_1734,untitled,2021.1.4,60.02971067947418,
18,9,18,18,27,36,63,0.86,0.33,0.67,0.5,0.17,0.33,,stimuli/P_18_09_18_18.png,,,,,0,168,168,154,,,,,,,,,,,,,,,,,,,,,,,,,,,1546.364458355662,None,1546.364458355662,None,1546.8482968050089,None,1546.8482968050089,None,45,1546.8482968050089,None,return,2.2168864282566574,1546.8482968050089,None,,,YUESHUAIHUA,F,002,2023_Apr_18_1734,untitled,2021.1.4,60.02971067947418,
9,18,9,0,27,18,36,0.5,0.67,0.33,1.0,-0.67,#NAME?,,stimuli/P_09_18_09_00.png,,,,,0,169,169,100,,,,,,,,,,,,,,,,,,,,,,,,,,,1549.0929512451262,None,1549.0929512451262,None,1549.5785014796788,None,1549.5785014796788,None,25,1549.5785014796788,None,return,3.686573209679409,1549.5785014796788,None,,,YUESHUAIHUA,F,002,2023_Apr_18_1734,untitled,2021.1.4,60.02971067947418,
18,18,36,9,36,54,81,0.78,0.5,0.5,0.8,-0.3,-1.5,,stimuli/P_18_18_36_09.png,,,,,0,170,170,173,,,,,,,,,,,,,,,,,,,,,,,,,,,1553.2926930835688,None,1553.2926930835688,None,1553.775534840433,None,1553.775534840433,None,35,1553.775534840433,None,return,1.6396484497217898,1553.775534840433,None,,,YUESHUAIHUA,F,002,2023_Apr_18_1734,untitled,2021.1.4,60.02971067947418,
0,36,36,0,36,36,72,0.5,1.0,0.0,1.0,-1.0,#NAME?,,stimuli/P_00_36_36_00.png,,,,,0,171,171,60,,,,,,,,,,,,,,,,,,,,,,,,,,,1555.4512314727267,None,1555.4512314727267,None,1555.929075544967,None,1555.929075544967,None,0,1555.929075544967,None,return,1.6351786935365453,1555.929075544967,None,,,YUESHUAIHUA,F,002,2023_Apr_18_1734,untitled,2021.1.4,60.02971067947418,
9,36,0,36,45,9,81,0.56,0.8,0.2,0.0,0.2,0.2,,stimuli/P_09_36_00_36.png,,,,,0,172,172,115,,,,,,,,,,,,,,,,,,,,,,,,,,,1557.5996686793937,None,1557.5996686793937,None,1558.0788399682792,None,1558.0788399682792,None,25,1558.0788399682792,None,return,1.6323370959617023,1558.0788399682792,None,,,YUESHUAIHUA,F,002,2023_Apr_18_1734,untitled,2021.1.4,60.02971067947418,
9,0,9,18,9,18,36,1.0,0.0,1.0,0.33,0.67,1.0,,stimuli/P_09_00_09_18.png,,,,,0,173,173,70,,,,,,,,,,,,,,,,,,,,,,,,,,,1559.7396760976985,None,1559.7396760976985,None,1560.2232500139376,None,1560.2232500139376,None,25,1560.2232500139376,None,return,1.4051327387314814,1560.2232500139376,None,,,YUESHUAIHUA,F,002,2023_Apr_18_1734,untitled,2021.1.4,60.02971067947418,
18,18,36,0,36,54,72,0.75,0.5,0.5,1.0,-0.5,#NAME?,,stimuli/P_18_18_36_00.png,,,,,0,174,174,172,,,,,,,,,,,,,,,,,,,,,,,,,,,1561.664678401697,None,1561.664678401697,None,1562.1493639258765,None,1562.1493639258765,None,45,1562.1493639258765,None,return,1.8074284309941504,1562.1493639258765,None,,,YUESHUAIHUA,F,002,2023_Apr_18_1734,untitled,2021.1.4,60.02971067947418,
18,18,0,0,36,18,36,0.5,0.5,0.5,None,None,None,,stimuli/P_18_18_00_00.png,,,,,0,175,175,160,,,,,,,,,,,,,,,,,,,,,,,,,,,1563.9964637896842,None,1563.9964637896842,None,1564.4778099389355,None,1564.4778099389355,None,35,1564.4778099389355,None,return,1.8164993565869736,1564.4778099389355,None,,,YUESHUAIHUA,F,002,2023_Apr_18_1734,untitled,2021.1.4,60.02971067947418,
18,36,0,9,54,18,63,0.43,0.67,0.33,0.0,0.33,0.33,,stimuli/P_18_36_00_09.png,,,,,0,176,176,177,,,,,,,,,,,,,,,,,,,,,,,,,,,1566.3293590789467,None,1566.3293590789467,None,1566.8069585291737,None,1566.8069585291737,None,35,1566.8069585291737,None,return,1.528120722670792,1566.8069585291737,None,,,YUESHUAIHUA,F,002,2023_Apr_18_1734,untitled,2021.1.4,60.02971067947418,
9,36,0,18,45,9,63,0.43,0.8,0.2,0.0,0.2,0.2,,stimuli/P_09_36_00_18.png,,,,,0,177,177,114,,,,,,,,,,,,,,,,,,,,,,,,,,,1568.3621623220656,None,1568.3621623220656,None,1568.8721582602025,None,1568.8721582602025,None,35,1568.8721582602025,None,return,1.5109710128599545,1568.8721582602025,None,,,YUESHUAIHUA,F,002,2023_Apr_18_1734,untitled,2021.1.4,60.02971067947418,
18,9,9,36,27,27,72,0.88,0.33,0.67,0.2,0.47,0.58,,stimuli/P_18_09_09_36.png,,,,,0,178,178,151,,,,,,,,,,,,,,,,,,,,,,,,,,,1570.4053807740752,None,1570.4053807740752,None,1570.8923230785508,None,1570.8923230785508,None,25,1570.8923230785508,None,return,1.6701476948073832,1570.8923230785508,None,,,YUESHUAIHUA,F,002,2023_Apr_18_1734,untitled,2021.1.4,60.02971067947418,
9,0,0,18,9,9,27,1.0,0.0,1.0,0.0,1.0,1.0,,stimuli/P_09_00_00_18.png,,,,,0,179,179,66,,,,,,,,,,,,,,,,,,,,,,,,,,,1572.5811957351575,None,1572.5811957351575,None,1573.057124929031,None,1573.057124929031,None,30,1573.057124929031,None,return,2.833502293188758,1573.057124929031,None,,,YUESHUAIHUA,F,002,2023_Apr_18_1734,untitled,2021.1.4,60.02971067947418,
9,9,18,36,18,27,72,0.88,0.5,0.5,0.33,0.17,0.25,,stimuli/P_09_09_18_36.png,,,,,0,180,180,91,,,,,,,,,,,,,,,,,,,,,,,,,,,1575.925311210401,None,1575.925311210401,None,1576.415124694649,None,1576.415124694649,None,30,1576.415124694649,None,return,1.758061433120929,1576.415124694649,None,,,YUESHUAIHUA,F,002,2023_Apr_18_1734,untitled,2021.1.4,60.02971067947418,
0,9,18,36,9,18,63,0.86,1.0,0.0,0.33,-0.33,-0.5,,stimuli/P_00_09_18_36.png,,,,,0,181,181,27,,,,,,,,,,,,,,,,,,,,,,,,,,,1578.2077148094172,None,1578.2077148094172,None,1578.6885415635556,None,1578.6885415635556,None,0,1578.6885415635556,None,return,1.5628587552500903,1578.6885415635556,None,,,YUESHUAIHUA,F,002,2023_Apr_18_1734,untitled,2021.1.4,60.02971067947418,
9,18,9,18,27,18,54,0.67,0.67,0.33,0.33,0.0,0.0,,stimuli/P_09_18_09_18.png,,,,,0,182,182,102,,,,,,,,,,,,,,,,,,,,,,,,,,,1580.291186667076,None,1580.291186667076,None,1580.7814973597892,None,1580.7814973597892,None,30,1580.7814973597892,None,return,2.7939838913553103,1580.7814973597892,None,,,YUESHUAIHUA,F,002,2023_Apr_18_1734,untitled,2021.1.4,60.02971067947418,
36,0,0,9,36,36,45,1.0,0.0,1.0,0.0,1.0,1.0,,stimuli/P_36_00_00_09.png,,,,,0,183,183,193,,,,,,,,,,,,,,,,,,,,,,,,,,,1583.606861704367,None,1583.606861704367,None,1584.0711611126094,None,1584.0711611126094,None,50,1584.0711611126094,None,return,2.936626969633835,1584.0711611126094,None,,,YUESHUAIHUA,F,002,2023_Apr_18_1734,untitled,2021.1.4,60.02971067947418,
36,36,36,18,72,72,126,0.71,0.5,0.5,0.67,-0.17,-0.5,,stimuli/P_36_36_36_18.png,,,,,0,184,184,254,,,,,,,,,,,,,,,,,,,,,,,,,,,1587.0467142712482,None,1587.0467142712482,None,1587.528449540168,None,1587.528449540168,None,45,1587.528449540168,None,return,2.3564831091343876,1587.528449540168,None,,,YUESHUAIHUA,F,002,2023_Apr_18_1734,untitled,2021.1.4,60.02971067947418,
36,36,18,36,72,54,126,0.71,0.5,0.5,0.33,0.17,0.25,,stimuli/P_36_36_18_36.png,,,,,0,185,185,251,,,,,,,,,,,,,,,,,,,,,,,,,,,1589.921298840492,None,1589.921298840492,None,1590.4092776596385,None,1590.4092776596385,None,45,1590.4092776596385,None,return,1.6485122999356463,1590.4092776596385,None,,,YUESHUAIHUA,F,002,2023_Apr_18_1734,untitled,2021.1.4,60.02971067947418,
18,18,36,36,36,54,108,0.83,0.5,0.5,0.5,0.0,0.0,,stimuli/P_18_18_36_36.png,,,,,0,186,186,175,,,,,,,,,,,,,,,,,,,,,,,,,,,1592.0917935572256,None,1592.0917935572256,None,1592.5629241774163,None,1592.5629241774163,None,30,1592.5629241774163,None,return,2.4796013685181606,1592.5629241774163,None,,,YUESHUAIHUA,F,002,2023_Apr_18_1734,untitled,2021.1.4,60.02971067947418,
9,0,18,18,9,27,45,1.0,0.0,1.0,0.5,0.5,1.0,,stimuli/P_09_00_18_18.png,,,,,0,187,187,74,,,,,,,,,,,,,,,,,,,,,,,,,,,1595.0789838970454,None,1595.0789838970454,None,1595.5592008028157,None,1595.5592008028157,None,30,1595.5592008028157,None,return,1.7506180972504808,1595.5592008028157,None,,,YUESHUAIHUA,F,002,2023_Apr_18_1734,untitled,2021.1.4,60.02971067947418,
36,36,36,36,72,72,144,0.75,0.5,0.5,0.5,0.0,0.0,,stimuli/P_36_36_36_36.png,,,,,0,188,188,255,,,,,,,,,,,,,,,,,,,,,,,,,,,1597.342416774471,None,1597.342416774471,None,1597.8178265732327,None,1597.8178265732327,None,25,1597.8178265732327,None,return,3.803355758914222,1597.8178265732327,None,,,YUESHUAIHUA,F,002,2023_Apr_18_1734,untitled,2021.1.4,60.02971067947418,
18,0,0,9,18,18,27,1.0,0.0,1.0,0.0,1.0,1.0,,stimuli/P_18_00_00_09.png,,,,,0,189,189,129,,,,,,,,,,,,,,,,,,,,,,,,,,,1601.6555386406076,None,1601.6555386406076,None,1602.1433934420825,None,1602.1433934420825,None,50,1602.1433934420825,None,return,2.8342845147435582,1602.1433934420825,None,,,YUESHUAIHUA,F,002,2023_Apr_18_1734,untitled,2021.1.4,60.02971067947418,
18,18,0,36,36,18,72,0.75,0.5,0.5,0.0,0.5,0.5,,stimuli/P_18_18_00_36.png,,,,,0,190,190,163,,,,,,,,,,,,,,,,,,,,,,,,,,,1605.0144088054826,None,1605.0144088054826,None,1605.492298388794,None,1605.492298388794,None,45,1605.492298388794,None,return,3.001868229516731,1605.492298388794,None,,,YUESHUAIHUA,F,002,2023_Apr_18_1734,untitled,2021.1.4,60.02971067947418,
0,18,18,36,18,18,72,0.75,1.0,0.0,0.33,-0.33,-0.5,,stimuli/P_00_18_18_36.png,,,,,0,191,191,43,,,,,,,,,,,,,,,,,,,,,,,,,,,1608.5312552977734,None,1608.5312552977734,None,1609.0239883173076,None,1609.0239883173076,None,0,1609.0239883173076,None,return,1.7076152539457325,1609.0239883173076,None,,,YUESHUAIHUA,F,002,2023_Apr_18_1734,untitled,2021.1.4,60.02971067947418,
36,9,9,0,45,45,54,0.83,0.2,0.8,1.0,-0.2,#NAME?,,stimuli/P_36_09_09_00.png,,,,,0,192,192,212,,,,,,,,,,,,,,,,,,,,,,,,,,,1610.7647066185614,None,1610.7647066185614,None,1611.2468315760375,None,1611.2468315760375,None,45,1611.2468315760375,None,return,2.874184640695603,1611.2468315760375,None,,,YUESHUAIHUA,F,002,2023_Apr_18_1734,untitled,2021.1.4,60.02971067947418,
9,9,18,18,18,27,54,0.83,0.5,0.5,0.5,0.0,0.0,,stimuli/P_09_09_18_18.png,,,,,0,193,193,90,,,,,,,,,,,,,,,,,,,,,,,,,,,1614.144968694071,None,1614.144968694071,None,1614.6363773414027,None,1614.6363773414027,None,25,1614.6363773414027,None,return,2.3693741203569516,1614.6363773414027,None,,,YUESHUAIHUA,F,002,2023_Apr_18_1734,untitled,2021.1.4,60.02971067947418,
36,9,0,36,45,36,81,0.89,0.2,0.8,0.0,0.8,0.8,,stimuli/P_36_09_00_36.png,,,,,0,194,194,211,,,,,,,,,,,,,,,,,,,,,,,,,,,1617.0432810297339,None,1617.0432810297339,None,1617.5280752115982,None,1617.5280752115982,None,45,1617.5280752115982,None,return,2.1037191648265434,1617.5280752115982,None,,,YUESHUAIHUA,F,002,2023_Apr_18_1734,untitled,2021.1.4,60.02971067947418,
9,36,18,18,45,27,81,0.56,0.8,0.2,0.5,-0.3,-0.6,,stimuli/P_09_36_18_18.png,,,,,0,195,195,122,,,,,,,,,,,,,,,,,,,,,,,,,,,1619.650992653375,None,1619.650992653375,None,1620.1401883248168,None,1620.1401883248168,None,35,1620.1401883248168,None,return,1.9266133959572471,1620.1401883248168,None,,,YUESHUAIHUA,F,002,2023_Apr_18_1734,untitled,2021.1.4,60.02971067947418,
36,0,36,18,36,72,90,1.0,0.0,1.0,0.67,0.33,1.0,,stimuli/P_36_00_36_18.png,,,,,0,196,196,206,,,,,,,,,,,,,,,,,,,,,,,,,,,1622.0916376818027,None,1622.0916376818027,None,1622.568555034833,None,1622.568555034833,None,35,1622.568555034833,None,return,2.810949850210818,1622.568555034833,None,,,YUESHUAIHUA,F,002,2023_Apr_18_1734,untitled,2021.1.4,60.02971067947418,
0,18,0,36,18,0,54,0.67,1.0,0.0,0.0,0.0,0.0,,stimuli/P_00_18_00_36.png,,,,,0,197,197,35,,,,,,,,,,,,,,,,,,,,,,,,,,,1625.4184623629121,None,1625.4184623629121,None,1625.9068917416748,None,1625.9068917416748,None,0,1625.9068917416748,None,return,1.4522281652098172,1625.9068917416748,None,,,YUESHUAIHUA,F,002,2023_Apr_18_1734,untitled,2021.1.4,60.02971067947418,
9,0,36,36,9,45,81,1.0,0.0,1.0,0.5,0.5,1.0,,stimuli/P_09_00_36_36.png,,,,,0,198,198,79,,,,,,,,,,,,,,,,,,,,,,,,,,,1627.3788444056086,None,1627.3788444056086,None,1627.8611741629097,None,1627.8611741629097,None,20,1627.8611741629097,None,return,2.2349719594903945,1627.8611741629097,None,,,YUESHUAIHUA,F,002,2023_Apr_18_1734,untitled,2021.1.4,60.02971067947418,
18,36,0,36,54,18,90,0.6,0.67,0.33,0.0,0.33,0.33,,stimuli/P_18_36_00_36.png,,,,,0,199,199,179,,,,,,,,,,,,,,,,,,,,,,,,,,,1630.1390852502032,None,1630.1390852502032,None,1630.6191974805074,None,1630.6191974805074,None,30,1630.6191974805074,None,return,1.8477080055117767,1630.6191974805074,None,,,YUESHUAIHUA,F,002,2023_Apr_18_1734,untitled,2021.1.4,60.02971067947418,
18,0,36,0,18,54,54,1.0,0.0,1.0,1.0,0.0,None,,stimuli/P_18_00_36_00.png,,,,,0,200,200,140,,,,,,,,,,,,,,,,,,,,,,,,,,,1632.5093348898122,None,1632.5093348898122,None,1632.9905291458595,None,1632.9905291458595,None,35,1632.9905291458595,None,return,4.354775875035557,1632.9905291458595,None,,,YUESHUAIHUA,F,002,2023_Apr_18_1734,untitled,2021.1.4,60.02971067947418,
18,0,36,18,18,54,72,1.0,0.0,1.0,0.67,0.33,1.0,,stimuli/P_18_00_36_18.png,,,,,0,201,201,142,,,,,,,,,,,,,,,,,,,,,,,,,,,1637.3828197977714,None,1637.3828197977714,None,1637.866252629687,None,1637.866252629687,None,35,1637.866252629687,None,return,1.5717231743519733,1637.866252629687,None,,,YUESHUAIHUA,F,002,2023_Apr_18_1734,untitled,2021.1.4,60.02971067947418,
9,36,9,18,45,18,72,0.5,0.8,0.2,0.33,-0.13,-0.2,,stimuli/P_09_36_09_18.png,,,,,0,202,202,118,,,,,,,,,,,,,,,,,,,,,,,,,,,1639.4604121937814,None,1639.4604121937814,None,1639.9422987870162,None,1639.9422987870162,None,20,1639.9422987870162,None,return,1.907823580879267,1639.9422987870162,None,,,YUESHUAIHUA,F,002,2023_Apr_18_1734,untitled,2021.1.4,60.02971067947418,
36,9,0,0,45,36,45,0.8,0.2,0.8,None,None,None,,stimuli/P_36_09_00_00.png,,,,,0,203,203,208,,,,,,,,,,,,,,,,,,,,,,,,,,,1641.8900406982762,None,1641.8900406982762,None,1642.369610777932,None,1642.369610777932,None,50,1642.369610777932,None,return,3.074022621279255,1642.369610777932,None,,,YUESHUAIHUA,F,002,2023_Apr_18_1734,untitled,2021.1.4,60.02971067947418,
9,0,9,0,9,18,18,1.0,0.0,1.0,1.0,0.0,None,,stimuli/P_09_00_09_00.png,,,,,0,204,204,68,,,,,,,,,,,,,,,,,,,,,,,,,,,1645.4834743607685,None,1645.4834743607685,None,1645.9662313532604,None,1645.9662313532604,None,25,1645.9662313532604,None,return,1.8204821442996035,1645.9662313532604,None,,,YUESHUAIHUA,F,002,2023_Apr_18_1734,untitled,2021.1.4,60.02971067947418,
9,18,0,0,27,9,27,0.33,0.67,0.33,None,None,None,,stimuli/P_09_18_00_00.png,,,,,0,205,205,96,,,,,,,,,,,,,,,,,,,,,,,,,,,1647.8112803743738,None,1647.8112803743738,None,1648.2861662269156,None,1648.2861662269156,None,40,1648.2861662269156,None,return,6.789018064482661,1648.2861662269156,None,,,YUESHUAIHUA,F,002,2023_Apr_18_1734,untitled,2021.1.4,60.02971067947418,
0,9,18,0,9,18,27,0.67,1.0,0.0,1.0,-1.0,#NAME?,,stimuli/P_00_09_18_00.png,,,,,0,206,206,24,,,,,,,,,,,,,,,,,,,,,,,,,,,1655.0961364512973,None,1655.0961364512973,None,1655.5724524892853,None,1655.5724524892853,None,0,1655.5724524892853,None,return,1.4098909213380466,1655.5724524892853,None,,,YUESHUAIHUA,F,002,2023_Apr_18_1734,untitled,2021.1.4,60.02971067947418,
36,18,36,36,54,72,126,0.86,0.33,0.67,0.5,0.17,0.33,,stimuli/P_36_18_36_36.png,,,,,0,207,207,239,,,,,,,,,,,,,,,,,,,,,,,,,,,1657.015262706976,None,1657.015262706976,None,1657.5034338104028,None,1657.5034338104028,None,40,1657.5034338104028,None,return,2.952928466834237,1657.5034338104028,None,,,YUESHUAIHUA,F,002,2023_Apr_18_1734,untitled,2021.1.4,60.02971067947418,
18,36,9,0,54,27,63,0.43,0.67,0.33,1.0,-0.67,#NAME?,,stimuli/P_18_36_09_00.png,,,,,0,208,208,180,,,,,,,,,,,,,,,,,,,,,,,,,,,1660.4936284498813,None,1660.4936284498813,None,1660.9734294982295,None,1660.9734294982295,None,35,1660.9734294982295,None,return,1.9414960854783203,1660.9734294982295,None,,,YUESHUAIHUA,F,002,2023_Apr_18_1734,untitled,2021.1.4,60.02971067947418,
36,9,18,0,45,54,63,0.86,0.2,0.8,1.0,-0.2,#NAME?,,stimuli/P_36_09_18_00.png,,,,,0,209,209,216,,,,,,,,,,,,,,,,,,,,,,,,,,,1662.9522583162957,None,1662.9522583162957,None,1663.4430116041854,None,1663.4430116041854,None,45,1663.4430116041854,None,return,1.7774519943523046,1663.4430116041854,None,,,YUESHUAIHUA,F,002,2023_Apr_18_1734,untitled,2021.1.4,60.02971067947418,
36,18,9,9,54,45,72,0.75,0.33,0.67,0.5,0.17,0.33,,stimuli/P_36_18_09_09.png,,,,,0,210,210,229,,,,,,,,,,,,,,,,,,,,,,,,,,,1665.2432680590778,None,1665.2432680590778,None,1665.7269779396452,None,1665.7269779396452,None,45,1665.7269779396452,None,return,2.1075910193003438,1665.7269779396452,None,,,YUESHUAIHUA,F,002,2023_Apr_18_1734,untitled,2021.1.4,60.02971067947418,
18,18,18,36,36,36,90,0.8,0.5,0.5,0.33,0.17,0.25,,stimuli/P_18_18_18_36.png,,,,,0,211,211,171,,,,,,,,,,,,,,,,,,,,,,,,,,,1667.8539452979671,None,1667.8539452979671,None,1668.3441626929812,None,1668.3441626929812,None,36,1668.3441626929812,None,return,2.35173289096565,1668.3441626929812,None,,,YUESHUAIHUA,F,002,2023_Apr_18_1734,untitled,2021.1.4,60.02971067947418,
0,9,9,9,9,9,27,0.67,1.0,0.0,0.5,-0.5,-1.0,,stimuli/P_00_09_09_09.png,,,,,0,212,212,21,,,,,,,,,,,,,,,,,,,,,,,,,,,1670.7255352386542,None,1670.7255352386542,None,1671.2034214086357,None,1671.2034214086357,None,0,1671.2034214086357,None,return,1.7297979194618165,1671.2034214086357,None,,,YUESHUAIHUA,F,002,2023_Apr_18_1734,untitled,2021.1.4,60.02971067947418,
9,0,18,0,9,27,27,1.0,0.0,1.0,1.0,0.0,None,,stimuli/P_09_00_18_00.png,,,,,0,213,213,72,,,,,,,,,,,,,,,,,,,,,,,,,,,1672.9680882050093,None,1672.9680882050093,None,1673.4656237804452,None,1673.4656237804452,None,25,1673.4656237804452,None,return,1.9820606730854706,1673.4656237804452,None,,,YUESHUAIHUA,F,002,2023_Apr_18_1734,untitled,2021.1.4,60.02971067947418,
18,9,9,0,27,27,36,0.75,0.33,0.67,1.0,-0.33,#NAME?,,stimuli/P_18_09_09_00.png,,,,,0,214,214,148,,,,,,,,,,,,,,,,,,,,,,,,,,,1675.48751460621,None,1675.48751460621,None,1675.9678538229869,None,1675.9678538229869,None,34,1675.9678538229869,None,return,5.249064463020659,1675.9678538229869,None,,,YUESHUAIHUA,F,002,2023_Apr_18_1734,untitled,2021.1.4,60.02971067947418,
9,9,9,9,18,18,36,0.75,0.5,0.5,0.5,0.0,0.0,,stimuli/P_09_09_09_09.png,,,,,0,215,215,85,,,,,,,,,,,,,,,,,,,,,,,,,,,1681.2539432499684,None,1681.2539432499684,None,1681.7458075769114,None,1681.7458075769114,None,35,1681.7458075769114,None,return,2.9554526246802197,1681.7458075769114,None,,,YUESHUAIHUA,F,002,2023_Apr_18_1734,untitled,2021.1.4,60.02971067947418,
9,9,9,18,18,18,45,0.8,0.5,0.5,0.33,0.17,0.25,,stimuli/P_09_09_09_18.png,,,,,0,216,216,86,,,,,,,,,,,,,,,,,,,,,,,,,,,1684.7209744603238,None,1684.7209744603238,None,1685.2068927656742,None,1685.2068927656742,None,35,1685.2068927656742,None,return,2.3344927278994874,1685.2068927656742,None,,,YUESHUAIHUA,F,002,2023_Apr_18_1734,untitled,2021.1.4,60.02971067947418,
0,18,36,9,18,36,63,0.71,1.0,0.0,0.8,-0.8,-4.0,,stimuli/P_00_18_36_09.png,,,,,0,217,217,45,,,,,,,,,,,,,,,,,,,,,,,,,,,1687.5803560558738,None,1687.5803560558738,None,1688.0650910733443,None,1688.0650910733443,None,0,1688.0650910733443,None,return,1.6052062391127038,1688.0650910733443,None,,,YUESHUAIHUA,F,002,2023_Apr_18_1734,untitled,2021.1.4,60.02971067947418,
0,9,0,36,9,0,45,0.8,1.0,0.0,0.0,0.0,0.0,,stimuli/P_00_09_00_36.png,,,,,0,218,218,19,,,,,,,,,,,,,,,,,,,,,,,,,,,1689.704120003595,None,1689.704120003595,None,1690.1861209433987,None,1690.1861209433987,None,0,1690.1861209433987,None,return,1.6000287857532385,1690.1861209433987,None,,,YUESHUAIHUA,F,002,2023_Apr_18_1734,untitled,2021.1.4,60.02971067947418,
0,0,9,0,0,9,9,1.0,None,None,1.0,None,None,,stimuli/P_00_00_09_00.png,,,,,0,219,219,4,,,,,,,,,,,,,,,,,,,,,,,,,,,1691.8205959219808,None,1691.8205959219808,None,1692.2941363534478,None,1692.2941363534478,None,0,1692.2941363534478,None,return,1.8584292763625854,1692.2941363534478,None,,,YUESHUAIHUA,F,002,2023_Apr_18_1734,untitled,2021.1.4,60.02971067947418,
36,36,0,18,72,36,90,0.6,0.5,0.5,0.0,0.5,0.5,,stimuli/P_36_36_00_18.png,,,,,0,220,220,242,,,,,,,,,,,,,,,,,,,,,,,,,,,1694.1932286351116,None,1694.1932286351116,None,1694.6776268706476,None,1694.6776268706476,None,45,1694.6776268706476,None,return,2.0213862217506176,1694.6776268706476,None,,,YUESHUAIHUA,F,002,2023_Apr_18_1734,untitled,2021.1.4,60.02971067947418,
18,9,0,0,27,18,27,0.67,0.33,0.67,None,None,None,,stimuli/P_18_09_00_00.png,,,,,0,221,221,144,,,,,,,,,,,,,,,,,,,,,,,,,,,1696.7350772038458,None,1696.7350772038458,None,1697.2144470347835,None,1697.2144470347835,None,40,1697.2144470347835,None,return,2.549789681957918,1697.2144470347835,None,,,YUESHUAIHUA,F,002,2023_Apr_18_1734,untitled,2021.1.4,60.02971067947418,
0,9,9,0,9,9,18,0.5,1.0,0.0,1.0,-1.0,#NAME?,,stimuli/P_00_09_09_00.png,,,,,0,222,222,20,,,,,,,,,,,,,,,,,,,,,,,,,,,1699.781607155251,None,1699.781607155251,None,1700.2667409634919,None,1700.2667409634919,None,0,1700.2667409634919,None,return,1.962941471623708,1700.2667409634919,None,,,YUESHUAIHUA,F,002,2023_Apr_18_1734,untitled,2021.1.4,60.02971067947418,
36,9,18,36,45,54,99,0.91,0.2,0.8,0.33,0.47,0.7,,stimuli/P_36_09_18_36.png,,,,,0,223,223,219,,,,,,,,,,,,,,,,,,,,,,,,,,,1702.2530028774377,None,1702.2530028774377,None,1702.7389200450102,None,1702.7389200450102,None,45,1702.7389200450102,None,return,2.2717830214114656,1702.7389200450102,None,,,YUESHUAIHUA,F,002,2023_Apr_18_1734,untitled,2021.1.4,60.02971067947418,
0,9,18,18,9,18,45,0.8,1.0,0.0,0.5,-0.5,-1.0,,stimuli/P_00_09_18_18.png,,,,,0,224,224,26,,,,,,,,,,,,,,,,,,,,,,,,,,,1705.0520589777984,None,1705.0520589777984,None,1705.5402067568016,None,1705.5402067568016,None,0,1705.5402067568016,None,return,1.6407958976315058,1705.5402067568016,None,,,YUESHUAIHUA,F,002,2023_Apr_18_1734,untitled,2021.1.4,60.02971067947418,
18,0,36,36,18,54,90,1.0,0.0,1.0,0.5,0.5,1.0,,stimuli/P_18_00_36_36.png,,,,,0,225,225,143,,,,,,,,,,,,,,,,,,,,,,,,,,,1707.211277188599,None,1707.211277188599,None,1707.6925510890228,None,1707.6925510890228,None,40,1707.6925510890228,None,return,2.222867152042454,1707.6925510890228,None,,,YUESHUAIHUA,F,002,2023_Apr_18_1734,untitled,2021.1.4,60.02971067947418,
0,9,0,0,9,0,9,0.0,1.0,0.0,None,None,None,,stimuli/P_00_09_00_00.png,,,,,0,226,226,16,,,,,,,,,,,,,,,,,,,,,,,,,,,1709.9415029121396,None,1709.9415029121396,None,1710.4219553377093,None,1710.4219553377093,None,0,1710.4219553377093,None,return,1.4305990281109189,1710.4219553377093,None,,,YUESHUAIHUA,F,002,2023_Apr_18_1734,untitled,2021.1.4,60.02971067947418,
9,9,36,18,18,45,72,0.88,0.5,0.5,0.67,-0.17,-0.5,,stimuli/P_09_09_36_18.png,,,,,0,227,227,94,,,,,,,,,,,,,,,,,,,,,,,,,,,1711.8868156699177,None,1711.8868156699177,None,1712.3719386692787,None,1712.3719386692787,None,35,1712.3719386692787,None,return,2.05144514721178,1712.3719386692787,None,,,YUESHUAIHUA,F,002,2023_Apr_18_1734,untitled,2021.1.4,60.02971067947418,
36,0,9,36,36,45,81,1.0,0.0,1.0,0.2,0.8,1.0,,stimuli/P_36_00_09_36.png,,,,,0,228,228,199,,,,,,,,,,,,,,,,,,,,,,,,,,,1714.4599479808444,None,1714.4599479808444,None,1714.9365786141193,None,1714.9365786141193,None,40,1714.9365786141193,None,return,2.2029486623732737,1714.9365786141193,None,,,YUESHUAIHUA,F,002,2023_Apr_18_1734,untitled,2021.1.4,60.02971067947418,
0,18,9,36,18,9,63,0.71,1.0,0.0,0.2,-0.2,-0.25,,stimuli/P_00_18_09_36.png,,,,,0,229,229,39,,,,,,,,,,,,,,,,,,,,,,,,,,,1717.1780506925084,None,1717.1780506925084,None,1717.6581407361641,None,1717.6581407361641,None,0,1717.6581407361641,None,return,1.2611453771560264,1717.6581407361641,None,,,YUESHUAIHUA,F,002,2023_Apr_18_1734,untitled,2021.1.4,60.02971067947418,
36,0,18,18,36,54,72,1.0,0.0,1.0,0.5,0.5,1.0,,stimuli/P_36_00_18_18.png,,,,,0,230,230,202,,,,,,,,,,,,,,,,,,,,,,,,,,,1718.9427083866672,None,1718.9427083866672,None,1719.4190670912853,None,1719.4190670912853,None,35,1719.4190670912853,None,return,2.252069331567327,1719.4190670912853,None,,,YUESHUAIHUA,F,002,2023_Apr_18_1734,untitled,2021.1.4,60.02971067947418,
36,0,9,0,36,45,45,1.0,0.0,1.0,1.0,0.0,None,,stimuli/P_36_00_09_00.png,,,,,0,231,231,196,,,,,,,,,,,,,,,,,,,,,,,,,,,1721.7067903657612,None,1721.7067903657612,None,1722.1940563677385,None,1722.1940563677385,None,45,1722.1940563677385,None,return,1.7739800684257716,1722.1940563677385,None,,,YUESHUAIHUA,F,002,2023_Apr_18_1734,untitled,2021.1.4,60.02971067947418,
0,0,36,18,0,36,54,1.0,None,None,0.67,None,None,,stimuli/P_00_00_36_18.png,,,,,0,232,232,14,,,,,,,,,,,,,,,,,,,,,,,,,,,1723.9867665179595,None,1723.9867665179595,None,1724.463165044766,None,1724.463165044766,None,0,1724.463165044766,None,return,1.3881650732100752,1724.463165044766,None,,,YUESHUAIHUA,F,002,2023_Apr_18_1734,untitled,2021.1.4,60.02971067947418,
0,0,18,18,0,18,36,1.0,None,None,0.5,None,None,,stimuli/P_00_00_18_18.png,,,,,0,233,233,10,,,,,,,,,,,,,,,,,,,,,,,,,,,1725.8716274873227,None,1725.8716274873227,None,1726.3639315650012,None,1726.3639315650012,None,0,1726.3639315650012,None,return,1.2516711096850486,1726.3639315650012,None,,,YUESHUAIHUA,F,002,2023_Apr_18_1734,untitled,2021.1.4,60.02971067947418,
18,9,9,9,27,27,45,0.8,0.33,0.67,0.5,0.17,0.33,,stimuli/P_18_09_09_09.png,,,,,0,234,234,149,,,,,,,,,,,,,,,,,,,,,,,,,,,1727.6520018614033,None,1727.6520018614033,None,1728.1416896213136,None,1728.1416896213136,None,35,1728.1416896213136,None,return,1.739157271475051,1728.1416896213136,None,,,YUESHUAIHUA,F,002,2023_Apr_18_1734,untitled,2021.1.4,60.02971067947418,
9,36,0,9,45,9,54,0.33,0.8,0.2,0.0,0.2,0.2,,stimuli/P_09_36_00_09.png,,,,,0,235,235,113,,,,,,,,,,,,,,,,,,,,,,,,,,,1729.9168507020654,None,1729.9168507020654,None,1730.3943471834905,None,1730.3943471834905,None,30,1730.3943471834905,None,return,1.795571090001431,1730.3943471834905,None,,,YUESHUAIHUA,F,002,2023_Apr_18_1734,untitled,2021.1.4,60.02971067947418,
9,18,36,36,27,45,99,0.82,0.67,0.33,0.5,-0.17,-0.33,,stimuli/P_09_18_36_36.png,,,,,0,236,236,111,,,,,,,,,,,,,,,,,,,,,,,,,,,1732.2089925327714,None,1732.2089925327714,None,1732.6929100576058,None,1732.6929100576058,None,24,1732.6929100576058,None,return,1.5130474555326145,1732.6929100576058,None,,,YUESHUAIHUA,F,002,2023_Apr_18_1734,untitled,2021.1.4,60.02971067947418,
36,18,9,0,54,45,63,0.71,0.33,0.67,1.0,-0.33,#NAME?,,stimuli/P_36_18_09_00.png,,,,,0,237,237,228,,,,,,,,,,,,,,,,,,,,,,,,,,,1734.2495491559407,None,1734.2495491559407,None,1734.7295965329663,None,1734.7295965329663,None,40,1734.7295965329663,None,return,2.7534431970616424,1734.7295965329663,None,,,YUESHUAIHUA,F,002,2023_Apr_18_1734,untitled,2021.1.4,60.02971067947418,
18,36,9,36,54,27,99,0.64,0.67,0.33,0.2,0.13,0.17,,stimuli/P_18_36_09_36.png,,,,,0,238,238,183,,,,,,,,,,,,,,,,,,,,,,,,,,,1737.518966739371,None,1737.518966739371,None,1738.0058146083716,None,1738.0058146083716,None,35,1738.0058146083716,None,return,1.7685500286152092,1738.0058146083716,None,,,YUESHUAIHUA,F,002,2023_Apr_18_1734,untitled,2021.1.4,60.02971067947418,
0,36,36,36,36,36,108,0.67,1.0,0.0,0.5,-0.5,-1.0,,stimuli/P_00_36_36_36.png,,,,,0,239,239,63,,,,,,,,,,,,,,,,,,,,,,,,,,,1739.797063284284,None,1739.797063284284,None,1740.2774872654331,None,1740.2774872654331,None,0,1740.2774872654331,None,return,1.554300398108353,1740.2774872654331,None,,,YUESHUAIHUA,F,002,2023_Apr_18_1734,untitled,2021.1.4,60.02971067947418,
36,36,36,0,72,72,108,0.67,0.5,0.5,1.0,-0.5,#NAME?,,stimuli/P_36_36_36_00.png,,,,,0,240,240,252,,,,,,,,,,,,,,,,,,,,,,,,,,,1741.8496189016582,None,1741.8496189016582,None,1742.3284528397203,None,1742.3284528397203,None,25,1742.3284528397203,None,return,1.8387326531701547,1742.3284528397203,None,,,YUESHUAIHUA,F,002,2023_Apr_18_1734,untitled,2021.1.4,60.02971067947418,
36,0,18,9,36,54,63,1.0,0.0,1.0,0.67,0.33,1.0,,stimuli/P_36_00_18_09.png,,,,,0,241,241,201,,,,,,,,,,,,,,,,,,,,,,,,,,,1744.1881985238483,None,1744.1881985238483,None,1744.667359003854,None,1744.667359003854,None,35,1744.667359003854,None,return,1.837499303112054,1744.667359003854,None,,,YUESHUAIHUA,F,002,2023_Apr_18_1734,untitled,2021.1.4,60.02971067947418,
36,36,0,0,72,36,72,0.5,0.5,0.5,None,None,None,,stimuli/P_36_36_00_00.png,,,,,0,242,242,240,,,,,,,,,,,,,,,,,,,,,,,,,,,1746.5279682605783,None,1746.5279682605783,None,1747.0187056195932,None,1747.0187056195932,None,50,1747.0187056195932,None,return,2.282990691847772,1747.0187056195932,None,,,YUESHUAIHUA,F,002,2023_Apr_18_1734,untitled,2021.1.4,60.02971067947418,
18,0,18,0,18,36,36,1.0,0.0,1.0,1.0,0.0,None,,stimuli/P_18_00_18_00.png,,,,,0,243,243,136,,,,,,,,,,,,,,,,,,,,,,,,,,,1749.335879108939,None,1749.335879108939,None,1749.8314366593963,None,1749.8314366593963,None,45,1749.8314366593963,None,return,2.4028082607146644,1749.8314366593963,None,,,YUESHUAIHUA,F,002,2023_Apr_18_1734,untitled,2021.1.4,60.02971067947418,
0,9,36,0,9,36,45,0.8,1.0,0.0,1.0,-1.0,#NAME?,,stimuli/P_00_09_36_00.png,,,,,0,244,244,28,,,,,,,,,,,,,,,,,,,,,,,,,,,1752.2616095900935,None,1752.2616095900935,None,1752.7403001682774,None,1752.7403001682774,None,0,1752.7403001682774,None,return,1.5036698990907098,1752.7403001682774,None,,,YUESHUAIHUA,F,002,2023_Apr_18_1734,untitled,2021.1.4,60.02971067947418,
9,18,18,36,27,27,81,0.78,0.67,0.33,0.33,0.0,0.0,,stimuli/P_09_18_18_36.png,,,,,0,245,245,107,,,,,,,,,,,,,,,,,,,,,,,,,,,1754.2697628986912,None,1754.2697628986912,None,1754.7562904835208,None,1754.7562904835208,None,35,1754.7562904835208,None,return,2.189217971867947,1754.7562904835208,None,,,YUESHUAIHUA,F,002,2023_Apr_18_1734,untitled,2021.1.4,60.02971067947418,
36,36,0,9,72,36,81,0.56,0.5,0.5,0.0,0.5,0.5,,stimuli/P_36_36_00_09.png,,,,,0,246,246,241,,,,,,,,,,,,,,,,,,,,,,,,,,,1756.981950877624,None,1756.981950877624,None,1757.4703540875203,None,1757.4703540875203,None,35,1757.4703540875203,None,return,3.20303285785576,1757.4703540875203,None,,,YUESHUAIHUA,F,002,2023_Apr_18_1734,untitled,2021.1.4,60.02971067947418,
0,36,36,18,36,36,90,0.6,1.0,0.0,0.67,-0.67,-2.0,,stimuli/P_00_36_36_18.png,,,,,0,247,247,62,,,,,,,,,,,,,,,,,,,,,,,,,,,1760.7065628103996,None,1760.7065628103996,None,1761.197690995748,None,1761.197690995748,None,0,1761.197690995748,None,return,1.6967301432341628,1761.197690995748,None,,,YUESHUAIHUA,F,002,2023_Apr_18_1734,untitled,2021.1.4,60.02971067947418,
36,0,36,0,36,72,72,1.0,0.0,1.0,1.0,0.0,None,,stimuli/P_36_00_36_00.png,,,,,0,248,248,204,,,,,,,,,,,,,,,,,,,,,,,,,,,1762.9233923498164,None,1762.9233923498164,None,1763.4014838885118,None,1763.4014838885118,None,50,1763.4014838885118,None,return,1.9163887646818694,1763.4014838885118,None,,,YUESHUAIHUA,F,002,2023_Apr_18_1734,untitled,2021.1.4,60.02971067947418,
9,18,36,9,27,45,72,0.75,0.67,0.33,0.8,-0.47,-2.33,,stimuli/P_09_18_36_09.png,,,,,0,249,249,109,,,,,,,,,,,,,,,,,,,,,,,,,,,1765.3548754305061,None,1765.3548754305061,None,1765.8364081751538,None,1765.8364081751538,None,35,1765.8364081751538,None,return,1.8412283665966243,1765.8364081751538,None,,,YUESHUAIHUA,F,002,2023_Apr_18_1734,untitled,2021.1.4,60.02971067947418,
18,9,36,18,27,54,81,0.89,0.33,0.67,0.67,0.0,0.0,,stimuli/P_18_09_36_18.png,,,,,0,250,250,158,,,,,,,,,,,,,,,,,,,,,,,,,,,1767.7097474476827,None,1767.7097474476827,None,1768.185487770606,None,1768.185487770606,None,35,1768.185487770606,None,return,3.9053261607878085,1768.185487770606,None,,,YUESHUAIHUA,F,002,2023_Apr_18_1734,untitled,2021.1.4,60.02971067947418,
0,0,9,36,0,9,45,1.0,None,None,0.2,None,None,,stimuli/P_00_00_09_36.png,,,,,0,251,251,7,,,,,,,,,,,,,,,,,,,,,,,,,,,1772.109496226563,None,1772.109496226563,None,1772.5929717251088,None,1772.5929717251088,None,0,1772.5929717251088,None,return,1.4146957527927952,1772.5929717251088,None,,,YUESHUAIHUA,F,002,2023_Apr_18_1734,untitled,2021.1.4,60.02971067947418,
0,9,36,18,9,36,63,0.86,1.0,0.0,0.67,-0.67,-2.0,,stimuli/P_00_09_36_18.png,,,,,0,252,252,30,,,,,,,,,,,,,,,,,,,,,,,,,,,1774.0342049841452,None,1774.0342049841452,None,1774.51320901984,None,1774.51320901984,None,0,1774.51320901984,None,return,1.5225211541155659,1774.51320901984,None,,,YUESHUAIHUA,F,002,2023_Apr_18_1734,untitled,2021.1.4,60.02971067947418,
18,9,0,9,27,18,36,0.75,0.33,0.67,0.0,0.67,0.67,,stimuli/P_18_09_00_09.png,,,,,0,253,253,145,,,,,,,,,,,,,,,,,,,,,,,,,,,1776.0668665740518,None,1776.0668665740518,None,1776.5475858082823,None,1776.5475858082823,None,35,1776.5475858082823,None,return,1.893522864193983,1776.5475858082823,None,,,YUESHUAIHUA,F,002,2023_Apr_18_1734,untitled,2021.1.4,60.02971067947418,
36,18,18,36,54,54,108,0.83,0.33,0.67,0.33,0.33,0.5,,stimuli/P_36_18_18_36.png,,,,,0,254,254,235,,,,,,,,,,,,,,,,,,,,,,,,,,,1778.467073876986,None,1778.467073876986,None,1778.9425445468064,None,1778.9425445468064,None,35,1778.9425445468064,None,return,2.583007075833848,1778.9425445468064,None,,,YUESHUAIHUA,F,002,2023_Apr_18_1734,untitled,2021.1.4,60.02971067947418,
18,0,18,36,18,36,72,1.0,0.0,1.0,0.33,0.67,1.0,,stimuli/P_18_00_18_36.png,,,,,0,255,255,139,,,,,,,,,,,,,,,,,,,,,,,,,,,1781.5480500212193,None,1781.5480500212193,None,1782.0247665566435,None,1782.0247665566435,None,35,1782.0247665566435,None,return,1.7301921591251812,1782.0247665566435,None,,,YUESHUAIHUA,F,002,2023_Apr_18_1734,untitled,2021.1.4,60.02971067947418,
,,,,,,,,,,,,,,,,,,,,,,,,,,,,,,,,,,,,,,,,,,,,,,,,,,,,,,,,,,,,,,,,1783.7919472708722,None,,,,,,,,
