A1C1,A1C0,A0C1,A0C0,A1,C1,Total,MI,C0GvA1,C1GvA1,C1GvA0,dltP,dltPp,Image_practice,Image,trials_2.thisRepN,trials_2.thisTrialN,trials_2.thisN,trials_2.thisIndex,trials.thisRepN,trials.thisTrialN,trials.thisN,trials.thisIndex,image.started,image.stopped,key_resp.keys,key_resp.rt,key_resp.started,key_resp.stopped,betweenTrial.started,betweenTrial.stopped,ISI.started,ISI.stopped,image_card.started,image_card.stopped,textbox.text,textbox.started,textbox.stopped,key_resp_3.keys,key_resp_3.rt,key_resp_3.started,key_resp_3.stopped,text_2.started,text_2.stopped,key_resp_2.keys,key_resp_2.rt,key_resp_2.started,key_resp_2.stopped,image_endPractice.started,image_endPractice.stopped,polygon_2.started,polygon_2.stopped,ISI_2.started,ISI_2.stopped,Cards.started,Cards.stopped,TextNote.started,TextNote.stopped,Estimation.text,Estimation.started,Estimation.stopped,key_resp_4.keys,key_resp_4.rt,key_resp_4.started,key_resp_4.stopped,text.started,text.stopped,participant,gender,session,date,expName,psychopyVersion,frameRate,
,,,,,,,,,,,,,,,,,,,,,,,1414.1925740018487,None,space,228.5141474995762,1414.1925740018487,None,,,,,,,,,,,,,,,,,,,,,,,,,,,,,,,,,,,,,,,YULONG,F,001,2023_Apr_17_1453,untitled,2021.1.4,60.35152344817445,
0,0,0,9,0,0,9,1.0,None,None,0.0,None,None,practice_stimuli/P_00_00_00_09.png,,0,0,0,0,,,,,,,,,,,1642.809912700206,None,1642.809912700206,None,1643.194288700819,None,0,1643.194288700819,None,return,6.094742299988866,1643.194288700819,None,1643.194288700819,None,,,,,,,,,,,,,,,,,,,,,,,,YULONG,F,001,2023_Apr_17_1453,untitled,2021.1.4,60.35152344817445,
18,0,36,0,18,54,54,1.0,0.0,1.0,1.0,0.0,None,practice_stimuli/P_18_00_36_00.png,,0,1,1,1,,,,,,,,,,,1649.3056748006493,None,1649.3056748006493,None,1649.6614710018039,None,100,1649.6614710018039,None,None,,1649.6614710018039,None,1649.6614710018039,None,,,,,,,,,,,,,,,,,,,,,,,,YULONG,F,001,2023_Apr_17_1453,untitled,2021.1.4,60.35152344817445,
9,18,18,0,27,27,45,0.6,0.67,0.33,1.0,-0.67,#NAME?,practice_stimuli/P_09_18_18_00.png,,0,2,2,2,,,,,,,,,,,1657.6694396007806,None,1657.6694396007806,None,1658.0100799016654,None,20,1658.0100799016654,None,None,,1658.0100799016654,None,1658.0100799016654,None,,,,,,,,,,,,,,,,,,,,,,,,YULONG,F,001,2023_Apr_17_1453,untitled,2021.1.4,60.35152344817445,
36,18,18,36,54,54,108,0.83,0.33,0.67,0.33,0.33,0.5,practice_stimuli/P_36_18_18_36.png,,0,3,3,3,,,,,,,,,,,1666.0133853014559,None,1666.0133853014559,None,1666.3521474003792,None,60,1666.3521474003792,None,return,7.714383600279689,1666.3521474003792,None,1666.3521474003792,None,,,,,,,,,,,,,,,,,,,,,,,,YULONG,F,001,2023_Apr_17_1453,untitled,2021.1.4,60.35152344817445,
,,,,,,,,,,,,,,,,,,,,,,,,,,,,,,,,,,,,,,,,,,,,space,25.059364400804043,1674.0865983013064,None,,,,,,,,,,,,,,,,,,,,YULONG,F,001,2023_Apr_17_1453,untitled,2021.1.4,60.35152344817445,
9,9,9,0,18,18,27,0.67,0.5,0.5,1.0,-0.5,#NAME?,,stimuli/P_09_09_09_00.png,,,,,0,0,0,84,,,,,,,,,,,,,,,,,,,,,,,,,,1674.0865983013064,None,1705.2438488006592,None,1705.2438488006592,None,1705.6149981003255,None,1705.6149981003255,None,50,1705.6149981003255,None,return,3.804238000884652,1705.6149981003255,None,,,YULONG,F,001,2023_Apr_17_1453,untitled,2021.1.4,60.35152344817445,
0,18,0,9,18,0,27,0.33,1.0,0.0,0.0,0.0,0.0,,stimuli/P_00_18_00_09.png,,,,,0,1,1,33,,,,,,,,,,,,,,,,,,,,,,,,,,,,1709.4429120011628,None,1709.4429120011628,None,1709.7828041017056,None,1709.7828041017056,None,0,1709.7828041017056,None,return,2.314987700432539,1709.7828041017056,None,,,YULONG,F,001,2023_Apr_17_1453,untitled,2021.1.4,60.35152344817445,
36,36,36,18,72,72,126,0.71,0.5,0.5,0.67,-0.17,-0.5,,stimuli/P_36_36_36_18.png,,,,,0,2,2,254,,,,,,,,,,,,,,,,,,,,,,,,,,,,1712.1123738009483,None,1712.1123738009483,None,1712.447811100632,None,1712.447811100632,None,50,1712.447811100632,None,return,4.430150201544166,1712.447811100632,None,,,YULONG,F,001,2023_Apr_17_1453,untitled,2021.1.4,60.35152344817445,
36,0,18,9,36,54,63,1.0,0.0,1.0,0.67,0.33,1.0,,stimuli/P_36_00_18_09.png,,,,,0,3,3,201,,,,,,,,,,,,,,,,,,,,,,,,,,,,1716.9111105017364,None,1716.9111105017364,None,1717.2553750015795,None,1717.2553750015795,None,100,1717.2553750015795,None,return,3.131859801709652,1717.2553750015795,None,,,YULONG,F,001,2023_Apr_17_1453,untitled,2021.1.4,60.35152344817445,
0,18,9,18,18,9,45,0.6,1.0,0.0,0.33,-0.33,-0.5,,stimuli/P_00_18_09_18.png,,,,,0,4,4,38,,,,,,,,,,,,,,,,,,,,,,,,,,,,1720.4198756013066,None,1720.4198756013066,None,1720.7700148001313,None,1720.7700148001313,None,0,1720.7700148001313,None,return,3.4846170004457235,1720.7700148001313,None,,,YULONG,F,001,2023_Apr_17_1453,untitled,2021.1.4,60.35152344817445,
9,9,0,18,18,9,36,0.75,0.5,0.5,0.0,0.5,0.5,,stimuli/P_09_09_00_18.png,,,,,0,5,5,82,,,,,,,,,,,,,,,,,,,,,,,,,,,,1724.2694504000247,None,1724.2694504000247,None,1724.6082753017545,None,1724.6082753017545,None,30,1724.6082753017545,None,return,6.704050900414586,1724.6082753017545,None,,,YULONG,F,001,2023_Apr_17_1453,untitled,2021.1.4,60.35152344817445,
0,0,18,9,0,18,27,1.0,None,None,0.67,None,None,,stimuli/P_00_00_18_09.png,,,,,0,6,6,9,,,,,,,,,,,,,,,,,,,,,,,,,,,,1731.339859701693,None,1731.339859701693,None,1731.6809867005795,None,1731.6809867005795,None,0,1731.6809867005795,None,return,1.9181829988956451,1731.6809867005795,None,,,YULONG,F,001,2023_Apr_17_1453,untitled,2021.1.4,60.35152344817445,
36,0,0,0,36,36,36,1.0,0.0,1.0,None,None,None,,stimuli/P_36_00_00_00.png,,,,,0,7,7,192,,,,,,,,,,,,,,,,,,,,,,,,,,,,1733.6155837010592,None,1733.6155837010592,None,1733.9581652004272,None,1733.9581652004272,None,100,1733.9581652004272,None,return,2.7185752987861633,1733.9581652004272,None,,,YULONG,F,001,2023_Apr_17_1453,untitled,2021.1.4,60.35152344817445,
9,0,36,36,9,45,81,1.0,0.0,1.0,0.5,0.5,1.0,,stimuli/P_09_00_36_36.png,,,,,0,8,8,79,,,,,,,,,,,,,,,,,,,,,,,,,,,,1736.6881431005895,None,1736.6881431005895,None,1737.0254182014614,None,1737.0254182014614,None,100,1737.0254182014614,None,return,4.690573699772358,1737.0254182014614,None,,,YULONG,F,001,2023_Apr_17_1453,untitled,2021.1.4,60.35152344817445,
9,0,18,0,9,27,27,1.0,0.0,1.0,1.0,0.0,None,,stimuli/P_09_00_18_00.png,,,,,0,9,9,72,,,,,,,,,,,,,,,,,,,,,,,,,,,,1741.7323165014386,None,1741.7323165014386,None,1742.0746901016682,None,1742.0746901016682,None,100,1742.0746901016682,None,return,3.42348749935627,1742.0746901016682,None,,,YULONG,F,001,2023_Apr_17_1453,untitled,2021.1.4,60.35152344817445,
9,0,9,36,9,18,54,1.0,0.0,1.0,0.2,0.8,1.0,,stimuli/P_09_00_09_36.png,,,,,0,10,10,71,,,,,,,,,,,,,,,,,,,,,,,,,,,,1745.526206601411,None,1745.526206601411,None,1745.8616524003446,None,1745.8616524003446,None,100,1745.8616524003446,None,return,6.377908900380135,1745.8616524003446,None,,,YULONG,F,001,2023_Apr_17_1453,untitled,2021.1.4,60.35152344817445,
9,36,9,9,45,18,63,0.43,0.8,0.2,0.5,-0.3,-0.6,,stimuli/P_09_36_09_09.png,,,,,0,11,11,117,,,,,,,,,,,,,,,,,,,,,,,,,,,,1752.2585816010833,None,1752.2585816010833,None,1752.599593501538,None,1752.599593501538,None,20,1752.599593501538,None,None,,1752.599593501538,None,,,YULONG,F,001,2023_Apr_17_1453,untitled,2021.1.4,60.35152344817445,
18,0,18,18,18,36,54,1.0,0.0,1.0,0.5,0.5,1.0,,stimuli/P_18_00_18_18.png,,,,,0,12,12,138,,,,,,,,,,,,,,,,,,,,,,,,,,,,1760.5965891014785,None,1760.5965891014785,None,1760.932398300618,None,1760.932398300618,None,100,1760.932398300618,None,return,3.4972104001790285,1760.932398300618,None,,,YULONG,F,001,2023_Apr_17_1453,untitled,2021.1.4,60.35152344817445,
0,9,0,9,9,0,18,0.5,1.0,0.0,0.0,0.0,0.0,,stimuli/P_00_09_00_09.png,,,,,0,13,13,17,,,,,,,,,,,,,,,,,,,,,,,,,,,,1764.4478308018297,None,1764.4478308018297,None,1764.782844601199,None,1764.782844601199,None,0,1764.782844601199,None,return,1.9500032998621464,1764.782844601199,None,,,YULONG,F,001,2023_Apr_17_1453,untitled,2021.1.4,60.35152344817445,
9,18,18,0,27,27,45,0.6,0.67,0.33,1.0,-0.67,#NAME?,,stimuli/P_09_18_18_00.png,,,,,0,14,14,104,,,,,,,,,,,,,,,,,,,,,,,,,,,,1766.7606160007417,None,1766.7606160007417,None,1767.0978489015251,None,1767.0978489015251,None,40,1767.0978489015251,None,return,7.320674998685718,1767.0978489015251,None,,,YULONG,F,001,2023_Apr_17_1453,untitled,2021.1.4,60.35152344817445,
18,0,36,18,18,54,72,1.0,0.0,1.0,0.67,0.33,1.0,,stimuli/P_18_00_36_18.png,,,,,0,15,15,142,,,,,,,,,,,,,,,,,,,,,,,,,,,,1774.4404875002801,None,1774.4404875002801,None,1774.7779229003936,None,1774.7779229003936,None,100,1774.7779229003936,None,return,4.357607901096344,1774.7779229003936,None,,,YULONG,F,001,2023_Apr_17_1453,untitled,2021.1.4,60.35152344817445,
18,9,18,9,27,36,54,0.83,0.33,0.67,0.67,0.0,0.0,,stimuli/P_18_09_18_09.png,,,,,0,16,16,153,,,,,,,,,,,,,,,,,,,,,,,,,,,,1779.1507243011147,None,1779.1507243011147,None,1779.4899310003966,None,1779.4899310003966,None,60,1779.4899310003966,None,return,4.624863101169467,1779.4899310003966,None,,,YULONG,F,001,2023_Apr_17_1453,untitled,2021.1.4,60.35152344817445,
36,9,9,36,45,45,90,0.9,0.2,0.8,0.2,0.6,0.75,,stimuli/P_36_09_09_36.png,,,,,0,17,17,215,,,,,,,,,,,,,,,,,,,,,,,,,,,,1784.1426689010113,None,1784.1426689010113,None,1784.4966628011316,None,1784.4966628011316,None,70,1784.4966628011316,None,return,4.96964099816978,1784.4966628011316,None,,,YULONG,F,001,2023_Apr_17_1453,untitled,2021.1.4,60.35152344817445,
9,18,0,9,27,9,36,0.5,0.67,0.33,0.0,0.33,0.33,,stimuli/P_09_18_00_09.png,,,,,0,18,18,97,,,,,,,,,,,,,,,,,,,,,,,,,,,,1789.4822951015085,None,1789.4822951015085,None,1789.8229863010347,None,1789.8229863010347,None,60,1789.8229863010347,None,return,7.800378600135446,1789.8229863010347,None,,,YULONG,F,001,2023_Apr_17_1453,untitled,2021.1.4,60.35152344817445,
18,36,9,36,54,27,99,0.64,0.67,0.33,0.2,0.13,0.17,,stimuli/P_18_36_09_36.png,,,,,0,19,19,183,,,,,,,,,,,,,,,,,,,,,,,,,,,,1797.6393312010914,None,1797.6393312010914,None,1797.976128300652,None,1797.976128300652,None,30,1797.976128300652,None,None,,1797.976128300652,None,,,YULONG,F,001,2023_Apr_17_1453,untitled,2021.1.4,60.35152344817445,
18,9,9,18,27,27,54,0.83,0.33,0.67,0.33,0.33,0.5,,stimuli/P_18_09_09_18.png,,,,,0,20,20,150,,,,,,,,,,,,,,,,,,,,,,,,,,,,1805.9999020006508,None,1805.9999020006508,None,1806.3408653009683,None,1806.3408653009683,None,60,1806.3408653009683,None,None,,1806.3408653009683,None,,,YULONG,F,001,2023_Apr_17_1453,untitled,2021.1.4,60.35152344817445,
9,18,9,9,27,18,45,0.6,0.67,0.33,0.5,-0.17,-0.33,,stimuli/P_09_18_09_09.png,,,,,0,21,21,101,,,,,,,,,,,,,,,,,,,,,,,,,,,,1814.3501505013555,None,1814.3501505013555,None,1814.6880864016712,None,1814.6880864016712,None,30,1814.6880864016712,None,return,7.716456098482013,1814.6880864016712,None,,,YULONG,F,001,2023_Apr_17_1453,untitled,2021.1.4,60.35152344817445,
9,9,36,18,18,45,72,0.88,0.5,0.5,0.67,-0.17,-0.5,,stimuli/P_09_09_36_18.png,,,,,0,22,22,94,,,,,,,,,,,,,,,,,,,,,,,,,,,,1822.4220816008747,None,1822.4220816008747,None,1822.762489600107,None,1822.762489600107,None,50,1822.762489600107,None,return,3.4376977998763323,1822.762489600107,None,,,YULONG,F,001,2023_Apr_17_1453,untitled,2021.1.4,60.35152344817445,
18,18,18,0,36,36,54,0.67,0.5,0.5,1.0,-0.5,#NAME?,,stimuli/P_18_18_18_00.png,,,,,0,23,23,168,,,,,,,,,,,,,,,,,,,,,,,,,,,,1826.2211624011397,None,1826.2211624011397,None,1826.5625382009894,None,1826.5625382009894,None,50,1826.5625382009894,None,return,4.352098301053047,1826.5625382009894,None,,,YULONG,F,001,2023_Apr_17_1453,untitled,2021.1.4,60.35152344817445,
18,9,36,9,27,54,72,0.88,0.33,0.67,0.8,-0.13,-0.67,,stimuli/P_18_09_36_09.png,,,,,0,24,24,157,,,,,,,,,,,,,,,,,,,,,,,,,,,,1830.930728400126,None,1830.930728400126,None,1831.2717860005796,None,1831.2717860005796,None,60,1831.2717860005796,None,return,4.216804400086403,1831.2717860005796,None,,,YULONG,F,001,2023_Apr_17_1453,untitled,2021.1.4,60.35152344817445,
0,36,0,9,36,0,45,0.2,1.0,0.0,0.0,0.0,0.0,,stimuli/P_00_36_00_09.png,,,,,0,25,25,49,,,,,,,,,,,,,,,,,,,,,,,,,,,,1835.517506601289,None,1835.517506601289,None,1835.8532277010381,None,1835.8532277010381,None,0,1835.8532277010381,None,return,3.253286398947239,1835.8532277010381,None,,,YULONG,F,001,2023_Apr_17_1453,untitled,2021.1.4,60.35152344817445,
18,0,0,9,18,18,27,1.0,0.0,1.0,0.0,1.0,1.0,,stimuli/P_18_00_00_09.png,,,,,0,26,26,129,,,,,,,,,,,,,,,,,,,,,,,,,,,,1839.135569801554,None,1839.135569801554,None,1839.4724211003631,None,1839.4724211003631,None,100,1839.4724211003631,None,return,4.61266740038991,1839.4724211003631,None,,,YULONG,F,001,2023_Apr_17_1453,untitled,2021.1.4,60.35152344817445,
0,9,0,0,9,0,9,0.0,1.0,0.0,None,None,None,,stimuli/P_00_09_00_00.png,,,,,0,27,27,16,,,,,,,,,,,,,,,,,,,,,,,,,,,,1844.1135498005897,None,1844.1135498005897,None,1844.451207300648,None,1844.451207300648,None,0,1844.451207300648,None,return,2.7170372996479273,1844.451207300648,None,,,YULONG,F,001,2023_Apr_17_1453,untitled,2021.1.4,60.35152344817445,
0,0,36,36,0,36,72,1.0,None,None,0.5,None,None,,stimuli/P_00_00_36_36.png,,,,,0,28,28,15,,,,,,,,,,,,,,,,,,,,,,,,,,,,1847.186713701114,None,1847.186713701114,None,1847.5255169011652,None,1847.5255169011652,None,0,1847.5255169011652,None,return,3.46067619882524,1847.5255169011652,None,,,YULONG,F,001,2023_Apr_17_1453,untitled,2021.1.4,60.35152344817445,
18,9,9,0,27,27,36,0.75,0.33,0.67,1.0,-0.33,#NAME?,,stimuli/P_18_09_09_00.png,,,,,0,29,29,148,,,,,,,,,,,,,,,,,,,,,,,,,,,,1851.0096324011683,None,1851.0096324011683,None,1851.347202701494,None,1851.347202701494,None,60,1851.347202701494,None,return,4.772831900045276,1851.347202701494,None,,,YULONG,F,001,2023_Apr_17_1453,untitled,2021.1.4,60.35152344817445,
18,0,36,9,18,54,63,1.0,0.0,1.0,0.8,0.2,1.0,,stimuli/P_18_00_36_09.png,,,,,0,30,30,141,,,,,,,,,,,,,,,,,,,,,,,,,,,,1856.1432100012898,None,1856.1432100012898,None,1856.481101701036,None,1856.481101701036,None,100,1856.481101701036,None,return,2.632661398500204,1856.481101701036,None,,,YULONG,F,001,2023_Apr_17_1453,untitled,2021.1.4,60.35152344817445,
36,36,18,36,72,54,126,0.71,0.5,0.5,0.33,0.17,0.25,,stimuli/P_36_36_18_36.png,,,,,0,31,31,251,,,,,,,,,,,,,,,,,,,,,,,,,,,,1859.132714400068,None,1859.132714400068,None,1859.4742356017232,None,1859.4742356017232,None,50,1859.4742356017232,None,return,4.221918700262904,1859.4742356017232,None,,,YULONG,F,001,2023_Apr_17_1453,untitled,2021.1.4,60.35152344817445,
18,36,9,0,54,27,63,0.43,0.67,0.33,1.0,-0.67,#NAME?,,stimuli/P_18_36_09_00.png,,,,,0,32,32,180,,,,,,,,,,,,,,,,,,,,,,,,,,,,1863.717405501753,None,1863.717405501753,None,1864.0546177010983,None,1864.0546177010983,None,30,1864.0546177010983,None,return,2.954201400279999,1864.0546177010983,None,,,YULONG,F,001,2023_Apr_17_1453,untitled,2021.1.4,60.35152344817445,
36,0,9,0,36,45,45,1.0,0.0,1.0,1.0,0.0,None,,stimuli/P_36_00_09_00.png,,,,,0,33,33,196,,,,,,,,,,,,,,,,,,,,,,,,,,,,1867.025319101289,None,1867.025319101289,None,1867.363323001191,None,1867.363323001191,None,100,1867.363323001191,None,return,2.7635293006896973,1867.363323001191,None,,,YULONG,F,001,2023_Apr_17_1453,untitled,2021.1.4,60.35152344817445,
9,18,9,18,27,18,54,0.67,0.67,0.33,0.33,0.0,0.0,,stimuli/P_09_18_09_18.png,,,,,0,34,34,102,,,,,,,,,,,,,,,,,,,,,,,,,,,,1870.147142700851,None,1870.147142700851,None,1870.484262401238,None,1870.484262401238,None,30,1870.484262401238,None,return,3.886736599728465,1870.484262401238,None,,,YULONG,F,001,2023_Apr_17_1453,untitled,2021.1.4,60.35152344817445,
0,18,9,36,18,9,63,0.71,1.0,0.0,0.2,-0.2,-0.25,,stimuli/P_00_18_09_36.png,,,,,0,35,35,39,,,,,,,,,,,,,,,,,,,,,,,,,,,,1874.3961368016899,None,1874.3961368016899,None,1874.7291835006326,None,1874.7291835006326,None,0,1874.7291835006326,None,return,2.2046895008534193,1874.7291835006326,None,,,YULONG,F,001,2023_Apr_17_1453,untitled,2021.1.4,60.35152344817445,
0,18,18,9,18,18,45,0.6,1.0,0.0,0.67,-0.67,-2.0,,stimuli/P_00_18_18_09.png,,,,,0,36,36,41,,,,,,,,,,,,,,,,,,,,,,,,,,,,1876.9539103005081,None,1876.9539103005081,None,1877.2917813006788,None,1877.2917813006788,None,0,1877.2917813006788,None,return,4.434759000316262,1877.2917813006788,None,,,YULONG,F,001,2023_Apr_17_1453,untitled,2021.1.4,60.35152344817445,
36,36,0,36,72,36,108,0.67,0.5,0.5,0.0,0.5,0.5,,stimuli/P_36_36_00_36.png,,,,,0,37,37,243,,,,,,,,,,,,,,,,,,,,,,,,,,,,1881.7395112011582,None,1881.7395112011582,None,1882.0762517005205,None,1882.0762517005205,None,50,1882.0762517005205,None,return,3.655569300055504,1882.0762517005205,None,,,YULONG,F,001,2023_Apr_17_1453,untitled,2021.1.4,60.35152344817445,
18,9,0,18,27,18,45,0.8,0.33,0.67,0.0,0.67,0.67,,stimuli/P_18_09_00_18.png,,,,,0,38,38,146,,,,,,,,,,,,,,,,,,,,,,,,,,,,1885.7447165008634,None,1885.7447165008634,None,1886.0821296013892,None,1886.0821296013892,None,60,1886.0821296013892,None,return,5.802477499470115,1886.0821296013892,None,,,YULONG,F,001,2023_Apr_17_1453,untitled,2021.1.4,60.35152344817445,
36,0,0,18,36,36,54,1.0,0.0,1.0,0.0,1.0,1.0,,stimuli/P_36_00_00_18.png,,,,,0,39,39,194,,,,,,,,,,,,,,,,,,,,,,,,,,,,1891.9040990006179,None,1891.9040990006179,None,1892.2458264008164,None,1892.2458264008164,None,100,1892.2458264008164,None,return,2.7162677999585867,1892.2458264008164,None,,,YULONG,F,001,2023_Apr_17_1453,untitled,2021.1.4,60.35152344817445,
18,36,0,0,54,18,54,0.33,0.67,0.33,None,None,None,,stimuli/P_18_36_00_00.png,,,,,0,40,40,176,,,,,,,,,,,,,,,,,,,,,,,,,,,,1894.9806685000658,None,1894.9806685000658,None,1895.3184545002878,None,1895.3184545002878,None,30,1895.3184545002878,None,return,3.2367838993668556,1895.3184545002878,None,,,YULONG,F,001,2023_Apr_17_1453,untitled,2021.1.4,60.35152344817445,
0,0,9,9,0,9,18,1.0,None,None,0.5,None,None,,stimuli/P_00_00_09_09.png,,,,,0,41,41,5,,,,,,,,,,,,,,,,,,,,,,,,,,,,1898.5910447016358,None,1898.5910447016358,None,1898.9307685010135,None,1898.9307685010135,None,0,1898.9307685010135,None,return,2.179228300228715,1898.9307685010135,None,,,YULONG,F,001,2023_Apr_17_1453,untitled,2021.1.4,60.35152344817445,
36,18,9,0,54,45,63,0.71,0.33,0.67,1.0,-0.33,#NAME?,,stimuli/P_36_18_09_00.png,,,,,0,42,42,228,,,,,,,,,,,,,,,,,,,,,,,,,,,,1901.1324784010649,None,1901.1324784010649,None,1901.4692971017212,None,1901.4692971017212,None,60,1901.4692971017212,None,return,5.179627899080515,1901.4692971017212,None,,,YULONG,F,001,2023_Apr_17_1453,untitled,2021.1.4,60.35152344817445,
36,36,36,36,72,72,144,0.75,0.5,0.5,0.5,0.0,0.0,,stimuli/P_36_36_36_36.png,,,,,0,43,43,255,,,,,,,,,,,,,,,,,,,,,,,,,,,,1906.6647051014006,None,1906.6647051014006,None,1907.0024541001767,None,1907.0024541001767,None,50,1907.0024541001767,None,return,5.439462400972843,1907.0024541001767,None,,,YULONG,F,001,2023_Apr_17_1453,untitled,2021.1.4,60.35152344817445,
36,18,36,0,54,72,90,0.8,0.33,0.67,1.0,-0.33,#NAME?,,stimuli/P_36_18_36_00.png,,,,,0,44,44,236,,,,,,,,,,,,,,,,,,,,,,,,,,,,1912.4636630006135,None,1912.4636630006135,None,1912.8017192017287,None,1912.8017192017287,None,60,1912.8017192017287,None,return,5.602862998843193,1912.8017192017287,None,,,YULONG,F,001,2023_Apr_17_1453,untitled,2021.1.4,60.35152344817445,
0,9,9,36,9,9,54,0.83,1.0,0.0,0.2,-0.2,-0.25,,stimuli/P_00_09_09_36.png,,,,,0,45,45,23,,,,,,,,,,,,,,,,,,,,,,,,,,,,1918.4292540010065,None,1918.4292540010065,None,1918.7669159006327,None,1918.7669159006327,None,0,1918.7669159006327,None,return,4.482200199738145,1918.7669159006327,None,,,YULONG,F,001,2023_Apr_17_1453,untitled,2021.1.4,60.35152344817445,
36,0,36,36,36,72,108,1.0,0.0,1.0,0.5,0.5,1.0,,stimuli/P_36_00_36_36.png,,,,,0,46,46,207,,,,,,,,,,,,,,,,,,,,,,,,,,,,1923.2623566016555,None,1923.2623566016555,None,1923.5996976010501,None,1923.5996976010501,None,100,1923.5996976010501,None,return,4.942712301388383,1923.5996976010501,None,,,YULONG,F,001,2023_Apr_17_1453,untitled,2021.1.4,60.35152344817445,
0,9,18,36,9,18,63,0.86,1.0,0.0,0.33,-0.33,-0.5,,stimuli/P_00_09_18_36.png,,,,,0,47,47,27,,,,,,,,,,,,,,,,,,,,,,,,,,,,1928.5735641010106,None,1928.5735641010106,None,1928.919769300148,None,1928.919769300148,None,0,1928.919769300148,None,return,7.506360400468111,1928.919769300148,None,,,YULONG,F,001,2023_Apr_17_1453,untitled,2021.1.4,60.35152344817445,
9,9,36,9,18,45,63,0.86,0.5,0.5,0.8,-0.3,-1.5,,stimuli/P_09_09_36_09.png,,,,,0,48,48,93,,,,,,,,,,,,,,,,,,,,,,,,,,,,1936.4555630013347,None,1936.4555630013347,None,1936.7953940015286,None,1936.7953940015286,None,50,1936.7953940015286,None,return,2.695686599239707,1936.7953940015286,None,,,YULONG,F,001,2023_Apr_17_1453,untitled,2021.1.4,60.35152344817445,
9,36,18,9,45,27,72,0.5,0.8,0.2,0.67,-0.47,-1.4,,stimuli/P_09_36_18_09.png,,,,,0,49,49,121,,,,,,,,,,,,,,,,,,,,,,,,,,,,1939.5096716005355,None,1939.5096716005355,None,1939.848500000313,None,1939.848500000313,None,10,1939.848500000313,None,None,,1939.848500000313,None,,,YULONG,F,001,2023_Apr_17_1453,untitled,2021.1.4,60.35152344817445,
9,18,0,0,27,9,27,0.33,0.67,0.33,None,None,None,,stimuli/P_09_18_00_00.png,,,,,0,50,50,96,,,,,,,,,,,,,,,,,,,,,,,,,,,,1947.8448953013867,None,1947.8448953013867,None,1948.1804695017636,None,1948.1804695017636,None,30,1948.1804695017636,None,return,3.382287200540304,1948.1804695017636,None,,,YULONG,F,001,2023_Apr_17_1453,untitled,2021.1.4,60.35152344817445,
0,9,18,0,9,18,27,0.67,1.0,0.0,1.0,-1.0,#NAME?,,stimuli/P_00_09_18_00.png,,,,,0,51,51,24,,,,,,,,,,,,,,,,,,,,,,,,,,,,1951.5810023006052,None,1951.5810023006052,None,1951.9155579004437,None,1951.9155579004437,None,0,1951.9155579004437,None,return,5.103156099095941,1951.9155579004437,None,,,YULONG,F,001,2023_Apr_17_1453,untitled,2021.1.4,60.35152344817445,
18,18,0,18,36,18,54,0.67,0.5,0.5,0.0,0.5,0.5,,stimuli/P_18_18_00_18.png,,,,,0,52,52,162,,,,,,,,,,,,,,,,,,,,,,,,,,,,1957.0383404009044,None,1957.0383404009044,None,1957.3762830011547,None,1957.3762830011547,None,50,1957.3762830011547,None,return,3.5912330001592636,1957.3762830011547,None,,,YULONG,F,001,2023_Apr_17_1453,untitled,2021.1.4,60.35152344817445,
18,36,9,9,54,27,72,0.5,0.67,0.33,0.5,-0.17,-0.33,,stimuli/P_18_36_09_09.png,,,,,0,53,53,181,,,,,,,,,,,,,,,,,,,,,,,,,,,,1960.9959000013769,None,1960.9959000013769,None,1961.3328151013702,None,1961.3328151013702,None,30,1961.3328151013702,None,return,5.572164800018072,1961.3328151013702,None,,,YULONG,F,001,2023_Apr_17_1453,untitled,2021.1.4,60.35152344817445,
36,9,0,18,45,36,63,0.86,0.2,0.8,0.0,0.8,0.8,,stimuli/P_36_09_00_18.png,,,,,0,54,54,210,,,,,,,,,,,,,,,,,,,,,,,,,,,,1966.9378973003477,None,1966.9378973003477,None,1967.2759383004159,None,1967.2759383004159,None,70,1967.2759383004159,None,return,5.397640500217676,1967.2759383004159,None,,,YULONG,F,001,2023_Apr_17_1453,untitled,2021.1.4,60.35152344817445,
18,36,18,18,54,36,90,0.6,0.67,0.33,0.5,-0.17,-0.33,,stimuli/P_18_36_18_18.png,,,,,0,55,55,186,,,,,,,,,,,,,,,,,,,,,,,,,,,,1972.7003395017236,None,1972.7003395017236,None,1973.0424510017037,None,1973.0424510017037,None,30,1973.0424510017037,None,return,6.444152599200606,1973.0424510017037,None,,,YULONG,F,001,2023_Apr_17_1453,untitled,2021.1.4,60.35152344817445,
18,36,0,36,54,18,90,0.6,0.67,0.33,0.0,0.33,0.33,,stimuli/P_18_36_00_36.png,,,,,0,56,56,179,,,,,,,,,,,,,,,,,,,,,,,,,,,,1979.515675401315,None,1979.515675401315,None,1979.8496785014868,None,1979.8496785014868,None,30,1979.8496785014868,None,return,3.0472950004041195,1979.8496785014868,None,,,YULONG,F,001,2023_Apr_17_1453,untitled,2021.1.4,60.35152344817445,
18,18,18,36,36,36,90,0.8,0.5,0.5,0.33,0.17,0.25,,stimuli/P_18_18_18_36.png,,,,,0,57,57,171,,,,,,,,,,,,,,,,,,,,,,,,,,,,1982.9177251011133,None,1982.9177251011133,None,1983.251459101215,None,1983.251459101215,None,50,1983.251459101215,None,return,7.235943300649524,1983.251459101215,None,,,YULONG,F,001,2023_Apr_17_1453,untitled,2021.1.4,60.35152344817445,
9,36,0,18,45,9,63,0.43,0.8,0.2,0.0,0.2,0.2,,stimuli/P_09_36_00_18.png,,,,,0,58,58,114,,,,,,,,,,,,,,,,,,,,,,,,,,,,1990.5184447001666,None,1990.5184447001666,None,1990.855901101604,None,1990.855901101604,None,10,1990.855901101604,None,None,,1990.855901101604,None,,,YULONG,F,001,2023_Apr_17_1453,untitled,2021.1.4,60.35152344817445,
9,18,36,9,27,45,72,0.75,0.67,0.33,0.8,-0.47,-2.33,,stimuli/P_09_18_36_09.png,,,,,0,59,59,109,,,,,,,,,,,,,,,,,,,,,,,,,,,,1998.8632126003504,None,1998.8632126003504,None,1999.200565200299,None,1999.200565200299,None,30,1999.200565200299,None,None,,1999.200565200299,None,,,YULONG,F,001,2023_Apr_17_1453,untitled,2021.1.4,60.35152344817445,
36,18,0,0,54,36,54,0.67,0.33,0.67,None,None,None,,stimuli/P_36_18_00_00.png,,,,,0,60,60,224,,,,,,,,,,,,,,,,,,,,,,,,,,,,2007.2116394005716,None,2007.2116394005716,None,2007.547487700358,None,2007.547487700358,None,70,2007.547487700358,None,return,6.917205099016428,2007.547487700358,None,,,YULONG,F,001,2023_Apr_17_1453,untitled,2021.1.4,60.35152344817445,
36,36,9,0,72,45,81,0.56,0.5,0.5,1.0,-0.5,#NAME?,,stimuli/P_36_36_09_00.png,,,,,0,61,61,244,,,,,,,,,,,,,,,,,,,,,,,,,,,,2014.4930992014706,None,2014.4930992014706,None,2014.8313203006983,None,2014.8313203006983,None,50,2014.8313203006983,None,None,,2014.8313203006983,None,,,YULONG,F,001,2023_Apr_17_1453,untitled,2021.1.4,60.35152344817445,
36,0,0,9,36,36,45,1.0,0.0,1.0,0.0,1.0,1.0,,stimuli/P_36_00_00_09.png,,,,,0,62,62,193,,,,,,,,,,,,,,,,,,,,,,,,,,,,2022.8283675014973,None,2022.8283675014973,None,2023.16305870004,None,2023.16305870004,None,100,2023.16305870004,None,None,,2023.16305870004,None,,,YULONG,F,001,2023_Apr_17_1453,untitled,2021.1.4,60.35152344817445,
9,0,9,18,9,18,36,1.0,0.0,1.0,0.33,0.67,1.0,,stimuli/P_09_00_09_18.png,,,,,0,63,63,70,,,,,,,,,,,,,,,,,,,,,,,,,,,,2031.1739501003176,None,2031.1739501003176,None,2031.511224700138,None,2031.511224700138,None,100,2031.511224700138,None,return,3.0459634009748697,2031.511224700138,None,,,YULONG,F,001,2023_Apr_17_1453,untitled,2021.1.4,60.35152344817445,
9,36,36,36,45,45,117,0.69,0.8,0.2,0.5,-0.3,-0.6,,stimuli/P_09_36_36_36.png,,,,,0,64,64,127,,,,,,,,,,,,,,,,,,,,,,,,,,,,2034.5843549016863,None,2034.5843549016863,None,2034.9238476008177,None,2034.9238476008177,None,,2034.9238476008177,None,None,,2034.9238476008177,None,,,YULONG,F,001,2023_Apr_17_1453,untitled,2021.1.4,60.35152344817445,
9,18,36,0,27,45,63,0.71,0.67,0.33,1.0,-0.67,#NAME?,,stimuli/P_09_18_36_00.png,,,,,0,65,65,108,,,,,,,,,,,,,,,,,,,,,,,,,,,,2042.9227065015584,None,2042.9227065015584,None,2043.2630172017962,None,2043.2630172017962,None,40,2043.2630172017962,None,return,6.6490873992443085,2043.2630172017962,None,,,YULONG,F,001,2023_Apr_17_1453,untitled,2021.1.4,60.35152344817445,
0,0,18,18,0,18,36,1.0,None,None,0.5,None,None,,stimuli/P_00_00_18_18.png,,,,,0,66,66,10,,,,,,,,,,,,,,,,,,,,,,,,,,,,2049.92828820087,None,2049.92828820087,None,2050.2660032007843,None,2050.2660032007843,None,0,2050.2660032007843,None,return,2.057769199833274,2050.2660032007843,None,,,YULONG,F,001,2023_Apr_17_1453,untitled,2021.1.4,60.35152344817445,
18,18,36,18,36,54,90,0.8,0.5,0.5,0.67,-0.17,-0.5,,stimuli/P_18_18_36_18.png,,,,,0,67,67,174,,,,,,,,,,,,,,,,,,,,,,,,,,,,2052.343821901828,None,2052.343821901828,None,2052.678382501006,None,2052.678382501006,None,50,2052.678382501006,None,return,2.786946300417185,2052.678382501006,None,,,YULONG,F,001,2023_Apr_17_1453,untitled,2021.1.4,60.35152344817445,
36,9,36,9,45,72,90,0.9,0.2,0.8,0.8,0.0,0.0,,stimuli/P_36_09_36_09.png,,,,,0,68,68,221,,,,,,,,,,,,,,,,,,,,,,,,,,,,2055.4793549012393,None,2055.4793549012393,None,2055.8191484007984,None,2055.8191484007984,None,80,2055.8191484007984,None,return,3.360732799395919,2055.8191484007984,None,,,YULONG,F,001,2023_Apr_17_1453,untitled,2021.1.4,60.35152344817445,
36,36,0,0,72,36,72,0.5,0.5,0.5,None,None,None,,stimuli/P_36_36_00_00.png,,,,,0,69,69,240,,,,,,,,,,,,,,,,,,,,,,,,,,,,2059.2047031000257,None,2059.2047031000257,None,2059.54147240147,None,2059.54147240147,None,50,2059.54147240147,None,return,2.7427169997245073,2059.54147240147,None,,,YULONG,F,001,2023_Apr_17_1453,untitled,2021.1.4,60.35152344817445,
0,9,36,0,9,36,45,0.8,1.0,0.0,1.0,-1.0,#NAME?,,stimuli/P_00_09_36_00.png,,,,,0,70,70,28,,,,,,,,,,,,,,,,,,,,,,,,,,,,2062.313039701432,None,2062.313039701432,None,2062.653518501669,None,2062.653518501669,None,0,2062.653518501669,None,return,5.810223599895835,2062.653518501669,None,,,YULONG,F,001,2023_Apr_17_1453,untitled,2021.1.4,60.35152344817445,
18,9,0,0,27,18,27,0.67,0.33,0.67,None,None,None,,stimuli/P_18_09_00_00.png,,,,,0,71,71,144,,,,,,,,,,,,,,,,,,,,,,,,,,,,2068.47542290017,None,2068.47542290017,None,2068.8120289016515,None,2068.8120289016515,None,60,2068.8120289016515,None,return,4.174589600414038,2068.8120289016515,None,,,YULONG,F,001,2023_Apr_17_1453,untitled,2021.1.4,60.35152344817445,
18,0,36,36,18,54,90,1.0,0.0,1.0,0.5,0.5,1.0,,stimuli/P_18_00_36_36.png,,,,,0,72,72,143,,,,,,,,,,,,,,,,,,,,,,,,,,,,2073.002714600414,None,2073.002714600414,None,2073.3395876009017,None,2073.3395876009017,None,100,2073.3395876009017,None,return,5.399746900424361,2073.3395876009017,None,,,YULONG,F,001,2023_Apr_17_1453,untitled,2021.1.4,60.35152344817445,
0,36,36,18,36,36,90,0.6,1.0,0.0,0.67,-0.67,-2.0,,stimuli/P_00_36_36_18.png,,,,,0,73,73,62,,,,,,,,,,,,,,,,,,,,,,,,,,,,2078.7544050011784,None,2078.7544050011784,None,2079.092001900077,None,2079.092001900077,None,0,2079.092001900077,None,return,2.7882099002599716,2079.092001900077,None,,,YULONG,F,001,2023_Apr_17_1453,untitled,2021.1.4,60.35152344817445,
36,9,36,0,45,72,81,0.89,0.2,0.8,1.0,-0.2,#NAME?,,stimuli/P_36_09_36_00.png,,,,,0,74,74,220,,,,,,,,,,,,,,,,,,,,,,,,,,,,2081.8936859015375,None,2081.8936859015375,None,2082.2347839009017,None,2082.2347839009017,None,70,2082.2347839009017,None,return,3.68474050052464,2082.2347839009017,None,,,YULONG,F,001,2023_Apr_17_1453,untitled,2021.1.4,60.35152344817445,
0,36,9,9,36,9,54,0.33,1.0,0.0,0.5,-0.5,-1.0,,stimuli/P_00_36_09_09.png,,,,,0,75,75,53,,,,,,,,,,,,,,,,,,,,,,,,,,,,2085.950085900724,None,2085.950085900724,None,2086.2868292015046,None,2086.2868292015046,None,0,2086.2868292015046,None,return,7.323162499815226,2086.2868292015046,None,,,YULONG,F,001,2023_Apr_17_1453,untitled,2021.1.4,60.35152344817445,
9,0,9,9,9,18,27,1.0,0.0,1.0,0.5,0.5,1.0,,stimuli/P_09_00_09_09.png,,,,,0,76,76,69,,,,,,,,,,,,,,,,,,,,,,,,,,,,2093.634861001745,None,2093.634861001745,None,2093.9681420009583,None,2093.9681420009583,None,100,2093.9681420009583,None,return,5.095378698781133,2093.9681420009583,None,,,YULONG,F,001,2023_Apr_17_1453,untitled,2021.1.4,60.35152344817445,
0,0,0,9,0,0,9,1.0,None,None,0.0,None,None,,stimuli/P_00_00_00_09.png,,,,,0,77,77,1,,,,,,,,,,,,,,,,,,,,,,,,,,,,2099.0986243002117,None,2099.0986243002117,None,2099.446306500584,None,2099.446306500584,None,0,2099.446306500584,None,return,1.8119594007730484,2099.446306500584,None,,,YULONG,F,001,2023_Apr_17_1453,untitled,2021.1.4,60.35152344817445,
18,18,36,9,36,54,81,0.78,0.5,0.5,0.8,-0.3,-1.5,,stimuli/P_18_18_36_09.png,,,,,0,78,78,173,,,,,,,,,,,,,,,,,,,,,,,,,,,,2101.28386490047,None,2101.28386490047,None,2101.6222915016115,None,2101.6222915016115,None,50,2101.6222915016115,None,None,,2101.6222915016115,None,,,YULONG,F,001,2023_Apr_17_1453,untitled,2021.1.4,60.35152344817445,
18,9,0,36,27,18,63,0.86,0.33,0.67,0.0,0.67,0.67,,stimuli/P_18_09_00_36.png,,,,,0,79,79,147,,,,,,,,,,,,,,,,,,,,,,,,,,,,2109.6247470006347,None,2109.6247470006347,None,2109.9560570009053,None,2109.9560570009053,None,,2109.9560570009053,None,None,,2109.9560570009053,None,,,YULONG,F,001,2023_Apr_17_1453,untitled,2021.1.4,60.35152344817445,
0,9,18,9,9,18,36,0.75,1.0,0.0,0.67,-0.67,-2.0,,stimuli/P_00_09_18_09.png,,,,,0,80,80,25,,,,,,,,,,,,,,,,,,,,,,,,,,,,2117.962998300791,None,2117.962998300791,None,2118.3017554003745,None,2118.3017554003745,None,0,2118.3017554003745,None,return,4.972539100795984,2118.3017554003745,None,,,YULONG,F,001,2023_Apr_17_1453,untitled,2021.1.4,60.35152344817445,
18,9,18,18,27,36,63,0.86,0.33,0.67,0.5,0.17,0.33,,stimuli/P_18_09_18_18.png,,,,,0,81,81,154,,,,,,,,,,,,,,,,,,,,,,,,,,,,2123.2953989002854,None,2123.2953989002854,None,2123.6370490007102,None,2123.6370490007102,None,,2123.6370490007102,None,None,,2123.6370490007102,None,,,YULONG,F,001,2023_Apr_17_1453,untitled,2021.1.4,60.35152344817445,
18,0,18,36,18,36,72,1.0,0.0,1.0,0.33,0.67,1.0,,stimuli/P_18_00_18_36.png,,,,,0,82,82,139,,,,,,,,,,,,,,,,,,,,,,,,,,,,2131.645256601274,None,2131.645256601274,None,2131.986983301118,None,2131.986983301118,None,100,2131.986983301118,None,return,6.209001498296857,2131.986983301118,None,,,YULONG,F,001,2023_Apr_17_1453,untitled,2021.1.4,60.35152344817445,
36,36,18,18,72,54,108,0.67,0.5,0.5,0.5,0.0,0.0,,stimuli/P_36_36_18_18.png,,,,,0,83,83,250,,,,,,,,,,,,,,,,,,,,,,,,,,,,2138.220429800451,None,2138.220429800451,None,2138.5524390004575,None,2138.5524390004575,None,50,2138.5524390004575,None,return,6.297247899696231,2138.5524390004575,None,,,YULONG,F,001,2023_Apr_17_1453,untitled,2021.1.4,60.35152344817445,
36,0,36,9,36,72,81,1.0,0.0,1.0,0.8,0.2,1.0,,stimuli/P_36_00_36_09.png,,,,,0,84,84,205,,,,,,,,,,,,,,,,,,,,,,,,,,,,2144.875367000699,None,2144.875367000699,None,2145.212705101818,None,2145.212705101818,None,100,2145.212705101818,None,None,,2145.212705101818,None,,,YULONG,F,001,2023_Apr_17_1453,untitled,2021.1.4,60.35152344817445,
18,9,18,36,27,36,81,0.89,0.33,0.67,0.33,0.33,0.5,,stimuli/P_18_09_18_36.png,,,,,0,85,85,155,,,,,,,,,,,,,,,,,,,,,,,,,,,,2153.2086992003024,None,2153.2086992003024,None,2153.5491049010307,None,2153.5491049010307,None,60,2153.5491049010307,None,return,5.196471398696303,2153.5491049010307,None,,,YULONG,F,001,2023_Apr_17_1453,untitled,2021.1.4,60.35152344817445,
36,9,9,18,45,45,72,0.88,0.2,0.8,0.33,0.47,0.7,,stimuli/P_36_09_09_18.png,,,,,0,86,86,214,,,,,,,,,,,,,,,,,,,,,,,,,,,,2158.7664055004716,None,2158.7664055004716,None,2159.096527401358,None,2159.096527401358,None,70,2159.096527401358,None,return,3.2024259008467197,2159.096527401358,None,,,YULONG,F,001,2023_Apr_17_1453,untitled,2021.1.4,60.35152344817445,
9,0,0,0,9,9,9,1.0,0.0,1.0,None,None,None,,stimuli/P_09_00_00_00.png,,,,,0,87,87,64,,,,,,,,,,,,,,,,,,,,,,,,,,,,2162.3244412001222,None,2162.3244412001222,None,2162.656929401681,None,2162.656929401681,None,100,2162.656929401681,None,return,2.525730200111866,2162.656929401681,None,,,YULONG,F,001,2023_Apr_17_1453,untitled,2021.1.4,60.35152344817445,
9,0,0,18,9,9,27,1.0,0.0,1.0,0.0,1.0,1.0,,stimuli/P_09_00_00_18.png,,,,,0,88,88,66,,,,,,,,,,,,,,,,,,,,,,,,,,,,2165.199728200212,None,2165.199728200212,None,2165.530418301001,None,2165.530418301001,None,100,2165.530418301001,None,return,3.9321790989488363,2165.530418301001,None,,,YULONG,F,001,2023_Apr_17_1453,untitled,2021.1.4,60.35152344817445,
9,36,9,36,45,18,90,0.6,0.8,0.2,0.2,0.0,0.0,,stimuli/P_09_36_09_36.png,,,,,0,89,89,119,,,,,,,,,,,,,,,,,,,,,,,,,,,,2169.48263990134,None,2169.48263990134,None,2169.819946400821,None,2169.819946400821,None,20,2169.819946400821,None,None,,2169.819946400821,None,,,YULONG,F,001,2023_Apr_17_1453,untitled,2021.1.4,60.35152344817445,
18,0,0,0,18,18,18,1.0,0.0,1.0,None,None,None,,stimuli/P_18_00_00_00.png,,,,,0,90,90,128,,,,,,,,,,,,,,,,,,,,,,,,,,,,2177.8309545014054,None,2177.8309545014054,None,2178.1564900018275,None,2178.1564900018275,None,100,2178.1564900018275,None,return,4.4708002004772425,2178.1564900018275,None,,,YULONG,F,001,2023_Apr_17_1453,untitled,2021.1.4,60.35152344817445,
9,36,36,18,45,45,99,0.64,0.8,0.2,0.67,-0.47,-1.4,,stimuli/P_09_36_36_18.png,,,,,0,91,91,126,,,,,,,,,,,,,,,,,,,,,,,,,,,,2182.6450577005744,None,2182.6450577005744,None,2182.9840481001884,None,2182.9840481001884,None,30,2182.9840481001884,None,return,2.622129000723362,2182.9840481001884,None,,,YULONG,F,001,2023_Apr_17_1453,untitled,2021.1.4,60.35152344817445,
9,9,9,36,18,18,63,0.86,0.5,0.5,0.2,0.3,0.37,,stimuli/P_09_09_09_36.png,,,,,0,92,92,87,,,,,,,,,,,,,,,,,,,,,,,,,,,,2185.623498901725,None,2185.623498901725,None,2185.9528377000242,None,2185.9528377000242,None,50,2185.9528377000242,None,return,3.0717773996293545,2185.9528377000242,None,,,YULONG,F,001,2023_Apr_17_1453,untitled,2021.1.4,60.35152344817445,
9,0,18,18,9,27,45,1.0,0.0,1.0,0.5,0.5,1.0,,stimuli/P_09_00_18_18.png,,,,,0,93,93,74,,,,,,,,,,,,,,,,,,,,,,,,,,,,2189.042617600411,None,2189.042617600411,None,2189.3799958005548,None,2189.3799958005548,None,100,2189.3799958005548,None,return,6.9267533998936415,2189.3799958005548,None,,,YULONG,F,001,2023_Apr_17_1453,untitled,2021.1.4,60.35152344817445,
18,36,36,9,54,54,99,0.64,0.67,0.33,0.8,-0.47,-2.33,,stimuli/P_18_36_36_09.png,,,,,0,94,94,189,,,,,,,,,,,,,,,,,,,,,,,,,,,,2196.3203975018114,None,2196.3203975018114,None,2196.657565500587,None,2196.657565500587,None,30,2196.657565500587,None,None,,2196.657565500587,None,,,YULONG,F,001,2023_Apr_17_1453,untitled,2021.1.4,60.35152344817445,
36,0,18,0,36,54,54,1.0,0.0,1.0,1.0,0.0,None,,stimuli/P_36_00_18_00.png,,,,,0,95,95,200,,,,,,,,,,,,,,,,,,,,,,,,,,,,2204.6712568011135,None,2204.6712568011135,None,2204.9968953002244,None,2204.9968953002244,None,100,2204.9968953002244,None,return,2.745786799117923,2204.9968953002244,None,,,YULONG,F,001,2023_Apr_17_1453,untitled,2021.1.4,60.35152344817445,
0,18,36,9,18,36,63,0.71,1.0,0.0,0.8,-0.8,-4.0,,stimuli/P_00_18_36_09.png,,,,,0,96,96,45,,,,,,,,,,,,,,,,,,,,,,,,,,,,2207.7705822009593,None,2207.7705822009593,None,2208.1064799018204,None,2208.1064799018204,None,0,2208.1064799018204,None,return,2.3083359990268946,2208.1064799018204,None,,,YULONG,F,001,2023_Apr_17_1453,untitled,2021.1.4,60.35152344817445,
18,0,18,0,18,36,36,1.0,0.0,1.0,1.0,0.0,None,,stimuli/P_18_00_18_00.png,,,,,0,97,97,136,,,,,,,,,,,,,,,,,,,,,,,,,,,,2210.4418226014823,None,2210.4418226014823,None,2210.7687141001225,None,2210.7687141001225,None,100,2210.7687141001225,None,return,3.755595499649644,2210.7687141001225,None,,,YULONG,F,001,2023_Apr_17_1453,untitled,2021.1.4,60.35152344817445,
18,36,36,0,54,54,90,0.6,0.67,0.33,1.0,-0.67,#NAME?,,stimuli/P_18_36_36_00.png,,,,,0,98,98,188,,,,,,,,,,,,,,,,,,,,,,,,,,,,2214.5438910014927,None,2214.5438910014927,None,2214.8770924005657,None,2214.8770924005657,None,30,2214.8770924005657,None,return,5.199015801772475,2214.8770924005657,None,,,YULONG,F,001,2023_Apr_17_1453,untitled,2021.1.4,60.35152344817445,
9,36,18,0,45,27,63,0.43,0.8,0.2,1.0,-0.8,#NAME?,,stimuli/P_09_36_18_00.png,,,,,0,99,99,120,,,,,,,,,,,,,,,,,,,,,,,,,,,,2220.112562900409,None,2220.112562900409,None,2220.4429483003914,None,2220.4429483003914,None,20,2220.4429483003914,None,return,3.300890700891614,2220.4429483003914,None,,,YULONG,F,001,2023_Apr_17_1453,untitled,2021.1.4,60.35152344817445,
0,18,18,36,18,18,72,0.75,1.0,0.0,0.33,-0.33,-0.5,,stimuli/P_00_18_18_36.png,,,,,0,100,100,43,,,,,,,,,,,,,,,,,,,,,,,,,,,,2223.760291101411,None,2223.760291101411,None,2224.0943249017,None,2224.0943249017,None,0,2224.0943249017,None,return,4.217020399868488,2224.0943249017,None,,,YULONG,F,001,2023_Apr_17_1453,untitled,2021.1.4,60.35152344817445,
0,18,36,36,18,36,90,0.8,1.0,0.0,0.5,-0.5,-1.0,,stimuli/P_00_18_36_36.png,,,,,0,101,101,47,,,,,,,,,,,,,,,,,,,,,,,,,,,,2228.3383603002876,None,2228.3383603002876,None,2228.666258301586,None,2228.666258301586,None,0,2228.666258301586,None,return,2.0457045994699,2228.666258301586,None,,,YULONG,F,001,2023_Apr_17_1453,untitled,2021.1.4,60.35152344817445,
18,18,0,36,36,18,72,0.75,0.5,0.5,0.0,0.5,0.5,,stimuli/P_18_18_00_36.png,,,,,0,102,102,163,,,,,,,,,,,,,,,,,,,,,,,,,,,,2230.7243549004197,None,2230.7243549004197,None,2231.060264201835,None,2231.060264201835,None,50,2231.060264201835,None,return,2.621831400319934,2231.060264201835,None,,,YULONG,F,001,2023_Apr_17_1453,untitled,2021.1.4,60.35152344817445,
0,36,36,9,36,36,81,0.56,1.0,0.0,0.8,-0.8,-4.0,,stimuli/P_00_36_36_09.png,,,,,0,103,103,61,,,,,,,,,,,,,,,,,,,,,,,,,,,,2233.708664400503,None,2233.708664400503,None,2234.0481167007238,None,2234.0481167007238,None,0,2234.0481167007238,None,return,5.124994900077581,2234.0481167007238,None,,,YULONG,F,001,2023_Apr_17_1453,untitled,2021.1.4,60.35152344817445,
18,18,18,9,36,36,63,0.71,0.5,0.5,0.67,-0.17,-0.5,,stimuli/P_18_18_18_09.png,,,,,0,104,104,169,,,,,,,,,,,,,,,,,,,,,,,,,,,,2239.1944521013647,None,2239.1944521013647,None,2239.520221300423,None,2239.520221300423,None,50,2239.520221300423,None,return,6.407457500696182,2239.520221300423,None,,,YULONG,F,001,2023_Apr_17_1453,untitled,2021.1.4,60.35152344817445,
18,18,18,18,36,36,72,0.75,0.5,0.5,0.5,0.0,0.0,,stimuli/P_18_18_18_18.png,,,,,0,105,105,170,,,,,,,,,,,,,,,,,,,,,,,,,,,,2245.9477054011077,None,2245.9477054011077,None,2246.281870700419,None,2246.281870700419,None,50,2246.281870700419,None,return,1.8309396002441645,2246.281870700419,None,,,YULONG,F,001,2023_Apr_17_1453,untitled,2021.1.4,60.35152344817445,
36,9,36,36,45,72,117,0.92,0.2,0.8,0.5,0.3,0.6,,stimuli/P_36_09_36_36.png,,,,,0,106,106,223,,,,,,,,,,,,,,,,,,,,,,,,,,,,2248.130759701133,None,2248.130759701133,None,2248.460709700361,None,2248.460709700361,None,70,2248.460709700361,None,return,4.822790799662471,2248.460709700361,None,,,YULONG,F,001,2023_Apr_17_1453,untitled,2021.1.4,60.35152344817445,
36,18,0,36,54,36,90,0.8,0.33,0.67,0.0,0.67,0.67,,stimuli/P_36_18_00_36.png,,,,,0,107,107,227,,,,,,,,,,,,,,,,,,,,,,,,,,,,2253.3053047005087,None,2253.3053047005087,None,2253.647655600682,None,2253.647655600682,None,60,2253.647655600682,None,return,3.9736735988408327,2253.647655600682,None,,,YULONG,F,001,2023_Apr_17_1453,untitled,2021.1.4,60.35152344817445,
18,18,0,9,36,18,45,0.6,0.5,0.5,0.0,0.5,0.5,,stimuli/P_18_18_00_09.png,,,,,0,108,108,161,,,,,,,,,,,,,,,,,,,,,,,,,,,,2257.6414886005223,None,2257.6414886005223,None,2257.968566801399,None,2257.968566801399,None,50,2257.968566801399,None,return,2.18276010081172,2257.968566801399,None,,,YULONG,F,001,2023_Apr_17_1453,untitled,2021.1.4,60.35152344817445,
18,36,18,0,54,36,72,0.5,0.67,0.33,1.0,-0.67,#NAME?,,stimuli/P_18_36_18_00.png,,,,,0,109,109,184,,,,,,,,,,,,,,,,,,,,,,,,,,,,2260.1824908014387,None,2260.1824908014387,None,2260.520453000441,None,2260.520453000441,None,60,2260.520453000441,None,return,2.770115800201893,2260.520453000441,None,,,YULONG,F,001,2023_Apr_17_1453,untitled,2021.1.4,60.35152344817445,
0,9,9,0,9,9,18,0.5,1.0,0.0,1.0,-1.0,#NAME?,,stimuli/P_00_09_09_00.png,,,,,0,110,110,20,,,,,,,,,,,,,,,,,,,,,,,,,,,,2263.3129716012627,None,2263.3129716012627,None,2263.645353101194,None,2263.645353101194,None,0,2263.645353101194,None,return,3.293581498786807,2263.645353101194,None,,,YULONG,F,001,2023_Apr_17_1453,untitled,2021.1.4,60.35152344817445,
0,0,0,18,0,0,18,1.0,None,None,0.0,None,None,,stimuli/P_00_00_00_18.png,,,,,0,111,111,2,,,,,,,,,,,,,,,,,,,,,,,,,,,,2266.960230000317,None,2266.960230000317,None,2267.294576101005,None,2267.294576101005,None,0,2267.294576101005,None,return,2.3008184004575014,2267.294576101005,None,,,YULONG,F,001,2023_Apr_17_1453,untitled,2021.1.4,60.35152344817445,
9,0,36,0,9,45,45,1.0,0.0,1.0,1.0,0.0,None,,stimuli/P_09_00_36_00.png,,,,,0,112,112,76,,,,,,,,,,,,,,,,,,,,,,,,,,,,2269.6250439006835,None,2269.6250439006835,None,2269.961504401639,None,2269.961504401639,None,100,2269.961504401639,None,return,3.2547963988035917,2269.961504401639,None,,,YULONG,F,001,2023_Apr_17_1453,untitled,2021.1.4,60.35152344817445,
36,18,0,18,54,36,72,0.75,0.33,0.67,0.0,0.67,0.67,,stimuli/P_36_18_00_18.png,,,,,0,113,113,226,,,,,,,,,,,,,,,,,,,,,,,,,,,,2273.232414500788,None,2273.232414500788,None,2273.560628000647,None,2273.560628000647,None,60,2273.560628000647,None,return,2.3509039003401995,2273.560628000647,None,,,YULONG,F,001,2023_Apr_17_1453,untitled,2021.1.4,60.35152344817445,
9,9,18,18,18,27,54,0.83,0.5,0.5,0.5,0.0,0.0,,stimuli/P_09_09_18_18.png,,,,,0,114,114,90,,,,,,,,,,,,,,,,,,,,,,,,,,,,2275.932280700654,None,2275.932280700654,None,2276.272307701409,None,2276.272307701409,None,50,2276.272307701409,None,return,4.302157199010253,2276.272307701409,None,,,YULONG,F,001,2023_Apr_17_1453,untitled,2021.1.4,60.35152344817445,
36,36,18,0,72,54,90,0.6,0.5,0.5,1.0,-0.5,#NAME?,,stimuli/P_36_36_18_00.png,,,,,0,115,115,248,,,,,,,,,,,,,,,,,,,,,,,,,,,,2280.59668620117,None,2280.59668620117,None,2280.9245508015156,None,2280.9245508015156,None,50,2280.9245508015156,None,return,4.946363599970937,2280.9245508015156,None,,,YULONG,F,001,2023_Apr_17_1453,untitled,2021.1.4,60.35152344817445,
18,0,9,18,18,27,45,1.0,0.0,1.0,0.33,0.67,1.0,,stimuli/P_18_00_09_18.png,,,,,0,116,116,134,,,,,,,,,,,,,,,,,,,,,,,,,,,,2285.8814780004323,None,2285.8814780004323,None,2286.21517900005,None,2286.21517900005,None,100,2286.21517900005,None,return,6.337616501376033,2286.21517900005,None,,,YULONG,F,001,2023_Apr_17_1453,untitled,2021.1.4,60.35152344817445,
0,18,36,18,18,36,72,0.75,1.0,0.0,0.67,-0.67,-2.0,,stimuli/P_00_18_36_18.png,,,,,0,117,117,46,,,,,,,,,,,,,,,,,,,,,,,,,,,,2292.565845100209,None,2292.565845100209,None,2292.8937586005777,None,2292.8937586005777,None,0,2292.8937586005777,None,return,2.2432620991021395,2292.8937586005777,None,,,YULONG,F,001,2023_Apr_17_1453,untitled,2021.1.4,60.35152344817445,
0,9,9,18,9,9,36,0.75,1.0,0.0,0.33,-0.33,-0.5,,stimuli/P_00_09_09_18.png,,,,,0,118,118,22,,,,,,,,,,,,,,,,,,,,,,,,,,,,2295.1547918003052,None,2295.1547918003052,None,2295.490604300052,None,2295.490604300052,None,,2295.490604300052,None,None,,2295.490604300052,None,,,YULONG,F,001,2023_Apr_17_1453,untitled,2021.1.4,60.35152344817445,
36,18,18,9,54,54,81,0.78,0.33,0.67,0.67,0.0,0.0,,stimuli/P_36_18_18_09.png,,,,,0,119,119,233,,,,,,,,,,,,,,,,,,,,,,,,,,,,2303.50387680158,None,2303.50387680158,None,2303.831609401852,None,2303.831609401852,None,60,2303.831609401852,None,return,3.0435246992856264,2303.831609401852,None,,,YULONG,F,001,2023_Apr_17_1453,untitled,2021.1.4,60.35152344817445,
9,0,0,36,9,9,45,1.0,0.0,1.0,0.0,1.0,1.0,,stimuli/P_09_00_00_36.png,,,,,0,120,120,67,,,,,,,,,,,,,,,,,,,,,,,,,,,,2306.8922445010394,None,2306.8922445010394,None,2307.2287350017577,None,2307.2287350017577,None,100,2307.2287350017577,None,return,2.3223570995032787,2307.2287350017577,None,,,YULONG,F,001,2023_Apr_17_1453,untitled,2021.1.4,60.35152344817445,
9,36,9,18,45,18,72,0.5,0.8,0.2,0.33,-0.13,-0.2,,stimuli/P_09_36_09_18.png,,,,,0,121,121,118,,,,,,,,,,,,,,,,,,,,,,,,,,,,2309.5762437004596,None,2309.5762437004596,None,2309.9035128001124,None,2309.9035128001124,None,20,2309.9035128001124,None,return,2.559451300650835,2309.9035128001124,None,,,YULONG,F,001,2023_Apr_17_1453,untitled,2021.1.4,60.35152344817445,
9,0,36,9,9,45,54,1.0,0.0,1.0,0.8,0.2,1.0,,stimuli/P_09_00_36_09.png,,,,,0,122,122,77,,,,,,,,,,,,,,,,,,,,,,,,,,,,2312.479222100228,None,2312.479222100228,None,2312.8086074013263,None,2312.8086074013263,None,100,2312.8086074013263,None,return,2.1561259999871254,2312.8086074013263,None,,,YULONG,F,001,2023_Apr_17_1453,untitled,2021.1.4,60.35152344817445,
0,9,36,18,9,36,63,0.86,1.0,0.0,0.67,-0.67,-2.0,,stimuli/P_00_09_36_18.png,,,,,0,123,123,30,,,,,,,,,,,,,,,,,,,,,,,,,,,,2314.9855348002166,None,2314.9855348002166,None,2315.323551600799,None,2315.323551600799,None,0,2315.323551600799,None,return,1.4213474988937378,2315.323551600799,None,,,YULONG,F,001,2023_Apr_17_1453,untitled,2021.1.4,60.35152344817445,
36,18,36,9,54,72,99,0.82,0.33,0.67,0.8,-0.13,-0.67,,stimuli/P_36_18_36_09.png,,,,,0,124,124,237,,,,,,,,,,,,,,,,,,,,,,,,,,,,2316.767844900489,None,2316.767844900489,None,2317.0993926003575,None,2317.0993926003575,None,60,2317.0993926003575,None,return,2.291295200586319,2317.0993926003575,None,,,YULONG,F,001,2023_Apr_17_1453,untitled,2021.1.4,60.35152344817445,
9,9,0,0,18,9,18,0.5,0.5,0.5,None,None,None,,stimuli/P_09_09_00_00.png,,,,,0,125,125,80,,,,,,,,,,,,,,,,,,,,,,,,,,,,2319.4203175008297,None,2319.4203175008297,None,2319.7555282004178,None,2319.7555282004178,None,50,2319.7555282004178,None,return,2.2403506003320217,2319.7555282004178,None,,,YULONG,F,001,2023_Apr_17_1453,untitled,2021.1.4,60.35152344817445,
18,18,0,0,36,18,36,0.5,0.5,0.5,None,None,None,,stimuli/P_18_18_00_00.png,,,,,0,126,126,160,,,,,,,,,,,,,,,,,,,,,,,,,,,,2322.0257285013795,None,2322.0257285013795,None,2322.352464200929,None,2322.352464200929,None,50,2322.352464200929,None,return,2.0013044010847807,2322.352464200929,None,,,YULONG,F,001,2023_Apr_17_1453,untitled,2021.1.4,60.35152344817445,
18,9,18,0,27,36,45,0.8,0.33,0.67,1.0,-0.33,#NAME?,,stimuli/P_18_09_18_00.png,,,,,0,127,127,152,,,,,,,,,,,,,,,,,,,,,,,,,,,,2324.3819760009646,None,2324.3819760009646,None,2324.716972000897,None,2324.716972000897,None,60,2324.716972000897,None,return,7.685681998729706,2324.716972000897,None,,,YULONG,F,001,2023_Apr_17_1453,untitled,2021.1.4,60.35152344817445,
9,18,18,18,27,27,63,0.71,0.67,0.33,0.5,-0.17,-0.33,,stimuli/P_09_18_18_18.png,,,,,0,128,128,106,,,,,,,,,,,,,,,,,,,,,,,,,,,,2332.4251343011856,None,2332.4251343011856,None,2332.7528867013752,None,2332.7528867013752,None,40,2332.7528867013752,None,return,4.190084198489785,2332.7528867013752,None,,,YULONG,F,001,2023_Apr_17_1453,untitled,2021.1.4,60.35152344817445,
36,18,9,18,54,45,81,0.78,0.33,0.67,0.33,0.33,0.5,,stimuli/P_36_18_09_18.png,,,,,0,129,129,230,,,,,,,,,,,,,,,,,,,,,,,,,,,,2336.9701024014503,None,2336.9701024014503,None,2337.3070986010134,None,2337.3070986010134,None,60,2337.3070986010134,None,return,5.498097900301218,2337.3070986010134,None,,,YULONG,F,001,2023_Apr_17_1453,untitled,2021.1.4,60.35152344817445,
36,9,18,0,45,54,63,0.86,0.2,0.8,1.0,-0.2,#NAME?,,stimuli/P_36_09_18_00.png,,,,,0,130,130,216,,,,,,,,,,,,,,,,,,,,,,,,,,,,2342.845236500725,None,2342.845236500725,None,2343.1758483015,None,2343.1758483015,None,80,2343.1758483015,None,return,5.666586799547076,2343.1758483015,None,,,YULONG,F,001,2023_Apr_17_1453,untitled,2021.1.4,60.35152344817445,
0,36,9,18,36,9,63,0.43,1.0,0.0,0.33,-0.33,-0.5,,stimuli/P_00_36_09_18.png,,,,,0,131,131,54,,,,,,,,,,,,,,,,,,,,,,,,,,,,2348.876093901694,None,2348.876093901694,None,2349.204602500424,None,2349.204602500424,None,0,2349.204602500424,None,return,2.6556077990680933,2349.204602500424,None,,,YULONG,F,001,2023_Apr_17_1453,untitled,2021.1.4,60.35152344817445,
36,0,9,36,36,45,81,1.0,0.0,1.0,0.2,0.8,1.0,,stimuli/P_36_00_09_36.png,,,,,0,132,132,199,,,,,,,,,,,,,,,,,,,,,,,,,,,,2351.8859421014786,None,2351.8859421014786,None,2352.223326900974,None,2352.223326900974,None,100,2352.223326900974,None,return,2.649040199816227,2352.223326900974,None,,,YULONG,F,001,2023_Apr_17_1453,untitled,2021.1.4,60.35152344817445,
36,9,18,18,45,54,81,0.89,0.2,0.8,0.5,0.3,0.6,,stimuli/P_36_09_18_18.png,,,,,0,133,133,218,,,,,,,,,,,,,,,,,,,,,,,,,,,,2354.8876608014107,None,2354.8876608014107,None,2355.2144011016935,None,2355.2144011016935,None,7,2355.2144011016935,None,return,3.0580607000738382,2355.2144011016935,None,,,YULONG,F,001,2023_Apr_17_1453,untitled,2021.1.4,60.35152344817445,
18,9,36,36,27,54,99,0.91,0.33,0.67,0.5,0.17,0.33,,stimuli/P_18_09_36_36.png,,,,,0,134,134,159,,,,,,,,,,,,,,,,,,,,,,,,,,,,2358.3009287007153,None,2358.3009287007153,None,2358.6425454001874,None,2358.6425454001874,None,60,2358.6425454001874,None,return,4.840080698952079,2358.6425454001874,None,,,YULONG,F,001,2023_Apr_17_1453,untitled,2021.1.4,60.35152344817445,
0,18,9,9,18,9,36,0.5,1.0,0.0,0.5,-0.5,-1.0,,stimuli/P_00_18_09_09.png,,,,,0,135,135,37,,,,,,,,,,,,,,,,,,,,,,,,,,,,2363.5011619012803,None,2363.5011619012803,None,2363.831664200872,None,2363.831664200872,None,0,2363.831664200872,None,return,7.216318599879742,2363.831664200872,None,,,YULONG,F,001,2023_Apr_17_1453,untitled,2021.1.4,60.35152344817445,
9,9,36,36,18,45,90,0.9,0.5,0.5,0.5,0.0,0.0,,stimuli/P_09_09_36_36.png,,,,,0,136,136,95,,,,,,,,,,,,,,,,,,,,,,,,,,,,2371.067310601473,None,2371.067310601473,None,2371.407612901181,None,2371.407612901181,None,50,2371.407612901181,None,return,1.8153215013444424,2371.407612901181,None,,,YULONG,F,001,2023_Apr_17_1453,untitled,2021.1.4,60.35152344817445,
18,36,18,9,54,36,81,0.56,0.67,0.33,0.67,-0.33,-1.0,,stimuli/P_18_36_18_09.png,,,,,0,137,137,185,,,,,,,,,,,,,,,,,,,,,,,,,,,,2373.2446455005556,None,2373.2446455005556,None,2373.573268800974,None,2373.573268800974,None,30,2373.573268800974,None,return,4.591388700529933,2373.573268800974,None,,,YULONG,F,001,2023_Apr_17_1453,untitled,2021.1.4,60.35152344817445,
9,0,9,0,9,18,18,1.0,0.0,1.0,1.0,0.0,None,,stimuli/P_09_00_09_00.png,,,,,0,138,138,68,,,,,,,,,,,,,,,,,,,,,,,,,,,,2378.192729000002,None,2378.192729000002,None,2378.5283342003822,None,2378.5283342003822,None,100,2378.5283342003822,None,return,2.375643501058221,2378.5283342003822,None,,,YULONG,F,001,2023_Apr_17_1453,untitled,2021.1.4,60.35152344817445,
9,18,18,36,27,27,81,0.78,0.67,0.33,0.33,0.0,0.0,,stimuli/P_09_18_18_36.png,,,,,0,139,139,107,,,,,,,,,,,,,,,,,,,,,,,,,,,,2380.927982600406,None,2380.927982600406,None,2381.255165401846,None,2381.255165401846,None,30,2381.255165401846,None,return,4.464097499847412,2381.255165401846,None,,,YULONG,F,001,2023_Apr_17_1453,untitled,2021.1.4,60.35152344817445,
18,9,0,9,27,18,36,0.75,0.33,0.67,0.0,0.67,0.67,,stimuli/P_18_09_00_09.png,,,,,0,140,140,145,,,,,,,,,,,,,,,,,,,,,,,,,,,,2385.7479279004037,None,2385.7479279004037,None,2386.0831799004227,None,2386.0831799004227,None,60,2386.0831799004227,None,return,7.697143400087953,2386.0831799004227,None,,,YULONG,F,001,2023_Apr_17_1453,untitled,2021.1.4,60.35152344817445,
36,9,18,36,45,54,99,0.91,0.2,0.8,0.33,0.47,0.7,,stimuli/P_36_09_18_36.png,,,,,0,141,141,219,,,,,,,,,,,,,,,,,,,,,,,,,,,,2393.797226700932,None,2393.797226700932,None,2394.137304401025,None,2394.137304401025,None,70,2394.137304401025,None,return,2.9616909995675087,2394.137304401025,None,,,YULONG,F,001,2023_Apr_17_1453,untitled,2021.1.4,60.35152344817445,
0,18,0,36,18,0,54,0.67,1.0,0.0,0.0,0.0,0.0,,stimuli/P_00_18_00_36.png,,,,,0,142,142,35,,,,,,,,,,,,,,,,,,,,,,,,,,,,2397.1330417003483,None,2397.1330417003483,None,2397.4579576011747,None,2397.4579576011747,None,0,2397.4579576011747,None,return,3.8810755014419556,2397.4579576011747,None,,,YULONG,F,001,2023_Apr_17_1453,untitled,2021.1.4,60.35152344817445,
9,18,18,9,27,27,54,0.67,0.67,0.33,0.67,-0.33,-1.0,,stimuli/P_09_18_18_09.png,,,,,0,143,143,105,,,,,,,,,,,,,,,,,,,,,,,,,,,,2401.3598883002996,None,2401.3598883002996,None,2401.707509500906,None,2401.707509500906,None,40,2401.707509500906,None,return,4.962427901104093,2401.707509500906,None,,,YULONG,F,001,2023_Apr_17_1453,untitled,2021.1.4,60.35152344817445,
9,36,0,9,45,9,54,0.33,0.8,0.2,0.0,0.2,0.2,,stimuli/P_09_36_00_09.png,,,,,0,144,144,113,,,,,,,,,,,,,,,,,,,,,,,,,,,,2406.685975501314,None,2406.685975501314,None,2407.016526501626,None,2407.016526501626,None,20,2407.016526501626,None,return,4.192234700545669,2407.016526501626,None,,,YULONG,F,001,2023_Apr_17_1453,untitled,2021.1.4,60.35152344817445,
36,0,18,18,36,54,72,1.0,0.0,1.0,0.5,0.5,1.0,,stimuli/P_36_00_18_18.png,,,,,0,145,145,202,,,,,,,,,,,,,,,,,,,,,,,,,,,,2411.226173600182,None,2411.226173600182,None,2411.5635850001127,None,2411.5635850001127,None,100,2411.5635850001127,None,return,5.055327199399471,2411.5635850001127,None,,,YULONG,F,001,2023_Apr_17_1453,untitled,2021.1.4,60.35152344817445,
18,0,0,36,18,18,54,1.0,0.0,1.0,0.0,1.0,1.0,,stimuli/P_18_00_00_36.png,,,,,0,146,146,131,,,,,,,,,,,,,,,,,,,,,,,,,,,,2416.6372238006443,None,2416.6372238006443,None,2416.9641602002084,None,2416.9641602002084,None,100,2416.9641602002084,None,return,2.2366029005497694,2416.9641602002084,None,,,YULONG,F,001,2023_Apr_17_1453,untitled,2021.1.4,60.35152344817445,
0,0,9,18,0,9,27,1.0,None,None,0.33,None,None,,stimuli/P_00_00_09_18.png,,,,,0,147,147,6,,,,,,,,,,,,,,,,,,,,,,,,,,,,2419.224444301799,None,2419.224444301799,None,2419.561871301383,None,2419.561871301383,None,0,2419.561871301383,None,return,1.7641161009669304,2419.561871301383,None,,,YULONG,F,001,2023_Apr_17_1453,untitled,2021.1.4,60.35152344817445,
36,18,9,9,54,45,72,0.75,0.33,0.67,0.5,0.17,0.33,,stimuli/P_36_18_09_09.png,,,,,0,148,148,229,,,,,,,,,,,,,,,,,,,,,,,,,,,,2421.349018501118,None,2421.349018501118,None,2421.681460801512,None,2421.681460801512,None,60,2421.681460801512,None,return,4.4960653986781836,2421.681460801512,None,,,YULONG,F,001,2023_Apr_17_1453,untitled,2021.1.4,60.35152344817445,
0,36,36,0,36,36,72,0.5,1.0,0.0,1.0,-1.0,#NAME?,,stimuli/P_00_36_36_00.png,,,,,0,149,149,60,,,,,,,,,,,,,,,,,,,,,,,,,,,,2426.2045363001525,None,2426.2045363001525,None,2426.538262501359,None,2426.538262501359,None,0,2426.538262501359,None,return,1.6972246002405882,2426.538262501359,None,,,YULONG,F,001,2023_Apr_17_1453,untitled,2021.1.4,60.35152344817445,
36,9,9,9,45,45,63,0.86,0.2,0.8,0.5,0.3,0.6,,stimuli/P_36_09_09_09.png,,,,,0,150,150,213,,,,,,,,,,,,,,,,,,,,,,,,,,,,2428.261656301096,None,2428.261656301096,None,2428.5988185014576,None,2428.5988185014576,None,70,2428.5988185014576,None,return,4.278906600549817,2428.5988185014576,None,,,YULONG,F,001,2023_Apr_17_1453,untitled,2021.1.4,60.35152344817445,
9,0,0,9,9,9,18,1.0,0.0,1.0,0.0,1.0,1.0,,stimuli/P_09_00_00_09.png,,,,,0,151,151,65,,,,,,,,,,,,,,,,,,,,,,,,,,,,2432.900394000113,None,2432.900394000113,None,2433.2293802015483,None,2433.2293802015483,None,100,2433.2293802015483,None,return,2.363054499030113,2433.2293802015483,None,,,YULONG,F,001,2023_Apr_17_1453,untitled,2021.1.4,60.35152344817445,
0,36,0,36,36,0,72,0.5,1.0,0.0,0.0,0.0,0.0,,stimuli/P_00_36_00_36.png,,,,,0,152,152,51,,,,,,,,,,,,,,,,,,,,,,,,,,,,2435.617947101593,None,2435.617947101593,None,2435.9538406003267,None,2435.9538406003267,None,0,2435.9538406003267,None,return,1.2549472004175186,2435.9538406003267,None,,,YULONG,F,001,2023_Apr_17_1453,untitled,2021.1.4,60.35152344817445,
9,18,36,18,27,45,81,0.78,0.67,0.33,0.67,-0.33,-1.0,,stimuli/P_09_18_36_18.png,,,,,0,153,153,110,,,,,,,,,,,,,,,,,,,,,,,,,,,,2437.226752800867,None,2437.226752800867,None,2437.556989200413,None,2437.556989200413,None,60,2437.556989200413,None,return,5.726385600864887,2437.556989200413,None,,,YULONG,F,001,2023_Apr_17_1453,untitled,2021.1.4,60.35152344817445,
0,36,18,36,36,18,90,0.6,1.0,0.0,0.33,-0.33,-0.5,,stimuli/P_00_36_18_36.png,,,,,0,154,154,59,,,,,,,,,,,,,,,,,,,,,,,,,,,,2443.3124336004257,None,2443.3124336004257,None,2443.648724300787,None,2443.648724300787,None,0,2443.648724300787,None,return,3.685112699866295,2443.648724300787,None,,,YULONG,F,001,2023_Apr_17_1453,untitled,2021.1.4,60.35152344817445,
36,36,36,0,72,72,108,0.67,0.5,0.5,1.0,-0.5,#NAME?,,stimuli/P_36_36_36_00.png,,,,,0,155,155,252,,,,,,,,,,,,,,,,,,,,,,,,,,,,2447.361849501729,None,2447.361849501729,None,2447.6922542005777,None,2447.6922542005777,None,50,2447.6922542005777,None,return,2.1474740989506245,2447.6922542005777,None,,,YULONG,F,001,2023_Apr_17_1453,untitled,2021.1.4,60.35152344817445,
0,9,0,18,9,0,27,0.67,1.0,0.0,0.0,0.0,0.0,,stimuli/P_00_09_00_18.png,,,,,0,156,156,18,,,,,,,,,,,,,,,,,,,,,,,,,,,,2449.8671137001365,None,2449.8671137001365,None,2450.198511501774,None,2450.198511501774,None,0,2450.198511501774,None,return,2.7068982999771833,2450.198511501774,None,,,YULONG,F,001,2023_Apr_17_1453,untitled,2021.1.4,60.35152344817445,
18,36,9,18,54,27,81,0.56,0.67,0.33,0.33,0.0,0.0,,stimuli/P_18_36_09_18.png,,,,,0,157,157,182,,,,,,,,,,,,,,,,,,,,,,,,,,,,2452.9253413006663,None,2452.9253413006663,None,2453.2580422014,None,2453.2580422014,None,30,2453.2580422014,None,return,3.0696898996829987,2453.2580422014,None,,,YULONG,F,001,2023_Apr_17_1453,untitled,2021.1.4,60.35152344817445,
36,18,36,18,54,72,108,0.83,0.33,0.67,0.67,0.0,0.0,,stimuli/P_36_18_36_18.png,,,,,0,158,158,238,,,,,,,,,,,,,,,,,,,,,,,,,,,,2456.3481788001955,None,2456.3481788001955,None,2456.6805110014975,None,2456.6805110014975,None,60,2456.6805110014975,None,return,1.8498937003314495,2456.6805110014975,None,,,YULONG,F,001,2023_Apr_17_1453,untitled,2021.1.4,60.35152344817445,
9,9,18,0,18,27,36,0.75,0.5,0.5,1.0,-0.5,#NAME?,,stimuli/P_09_09_18_00.png,,,,,0,159,159,88,,,,,,,,,,,,,,,,,,,,,,,,,,,,2458.5558652002364,None,2458.5558652002364,None,2458.8914679009467,None,2458.8914679009467,None,50,2458.8914679009467,None,return,3.2047336995601654,2458.8914679009467,None,,,YULONG,F,001,2023_Apr_17_1453,untitled,2021.1.4,60.35152344817445,
36,9,0,0,45,36,45,0.8,0.2,0.8,None,None,None,,stimuli/P_36_09_00_00.png,,,,,0,160,160,208,,,,,,,,,,,,,,,,,,,,,,,,,,,,2462.1253831014037,None,2462.1253831014037,None,2462.4536997005343,None,2462.4536997005343,None,80,2462.4536997005343,None,return,3.199276901781559,2462.4536997005343,None,,,YULONG,F,001,2023_Apr_17_1453,untitled,2021.1.4,60.35152344817445,
18,9,9,36,27,27,72,0.88,0.33,0.67,0.2,0.47,0.58,,stimuli/P_18_09_09_36.png,,,,,0,161,161,151,,,,,,,,,,,,,,,,,,,,,,,,,,,,2465.6779259014875,None,2465.6779259014875,None,2466.017654400319,None,2466.017654400319,None,60,2466.017654400319,None,return,4.340232498943806,2466.017654400319,None,,,YULONG,F,001,2023_Apr_17_1453,untitled,2021.1.4,60.35152344817445,
36,36,0,18,72,36,90,0.6,0.5,0.5,0.0,0.5,0.5,,stimuli/P_36_36_00_18.png,,,,,0,162,162,242,,,,,,,,,,,,,,,,,,,,,,,,,,,,2470.379848400131,None,2470.379848400131,None,2470.7138177007437,None,2470.7138177007437,None,50,2470.7138177007437,None,return,3.2211401015520096,2470.7138177007437,None,,,YULONG,F,001,2023_Apr_17_1453,untitled,2021.1.4,60.35152344817445,
9,36,36,9,45,45,90,0.6,0.8,0.2,0.8,-0.6,-3.0,,stimuli/P_09_36_36_09.png,,,,,0,163,163,125,,,,,,,,,,,,,,,,,,,,,,,,,,,,2473.953304901719,None,2473.953304901719,None,2474.2939995005727,None,2474.2939995005727,None,20,2474.2939995005727,None,return,7.943740498274565,2474.2939995005727,None,,,YULONG,F,001,2023_Apr_17_1453,untitled,2021.1.4,60.35152344817445,
36,0,36,18,36,72,90,1.0,0.0,1.0,0.67,0.33,1.0,,stimuli/P_36_00_36_18.png,,,,,0,164,164,206,,,,,,,,,,,,,,,,,,,,,,,,,,,,2482.254309400916,None,2482.254309400916,None,2482.5830069016665,None,2482.5830069016665,None,100,2482.5830069016665,None,return,2.183330100029707,2482.5830069016665,None,,,YULONG,F,001,2023_Apr_17_1453,untitled,2021.1.4,60.35152344817445,
18,0,36,0,18,54,54,1.0,0.0,1.0,1.0,0.0,None,,stimuli/P_18_00_36_00.png,,,,,0,165,165,140,,,,,,,,,,,,,,,,,,,,,,,,,,,,2484.7794163003564,None,2484.7794163003564,None,2485.118275001645,None,2485.118275001645,None,100,2485.118275001645,None,return,3.519597001373768,2485.118275001645,None,,,YULONG,F,001,2023_Apr_17_1453,untitled,2021.1.4,60.35152344817445,
9,18,9,0,27,18,36,0.5,0.67,0.33,1.0,-0.67,#NAME?,,stimuli/P_09_18_09_00.png,,,,,0,166,166,100,,,,,,,,,,,,,,,,,,,,,,,,,,,,2488.6546282004565,None,2488.6546282004565,None,2488.98643730022,None,2488.98643730022,None,30,2488.98643730022,None,return,6.42500519938767,2488.98643730022,None,,,YULONG,F,001,2023_Apr_17_1453,untitled,2021.1.4,60.35152344817445,
0,18,9,0,18,9,27,0.33,1.0,0.0,1.0,-1.0,#NAME?,,stimuli/P_00_18_09_00.png,,,,,0,167,167,36,,,,,,,,,,,,,,,,,,,,,,,,,,,,2495.4320260006934,None,2495.4320260006934,None,2495.772606400773,None,2495.772606400773,None,0,2495.772606400773,None,return,1.931921400129795,2495.772606400773,None,,,YULONG,F,001,2023_Apr_17_1453,untitled,2021.1.4,60.35152344817445,
18,0,0,18,18,18,36,1.0,0.0,1.0,0.0,1.0,1.0,,stimuli/P_18_00_00_18.png,,,,,0,168,168,130,,,,,,,,,,,,,,,,,,,,,,,,,,,,2497.7187821008265,None,2497.7187821008265,None,2498.0523721016943,None,2498.0523721016943,None,100,2498.0523721016943,None,return,2.7555768992751837,2498.0523721016943,None,,,YULONG,F,001,2023_Apr_17_1453,untitled,2021.1.4,60.35152344817445,
36,18,0,9,54,36,63,0.71,0.33,0.67,0.0,0.67,0.67,,stimuli/P_36_18_00_09.png,,,,,0,169,169,225,,,,,,,,,,,,,,,,,,,,,,,,,,,,2500.82578850165,None,2500.82578850165,None,2501.1593503002077,None,2501.1593503002077,None,60,2501.1593503002077,None,return,5.36701999977231,2501.1593503002077,None,,,YULONG,F,001,2023_Apr_17_1453,untitled,2021.1.4,60.35152344817445,
0,36,0,18,36,0,54,0.33,1.0,0.0,0.0,0.0,0.0,,stimuli/P_00_36_00_18.png,,,,,0,170,170,50,,,,,,,,,,,,,,,,,,,,,,,,,,,,2506.5584132000804,None,2506.5584132000804,None,2506.8889402002096,None,2506.8889402002096,None,0,2506.8889402002096,None,return,1.58374809846282,2506.8889402002096,None,,,YULONG,F,001,2023_Apr_17_1453,untitled,2021.1.4,60.35152344817445,
0,36,18,9,36,18,63,0.43,1.0,0.0,0.67,-0.67,-2.0,,stimuli/P_00_36_18_09.png,,,,,0,171,171,57,,,,,,,,,,,,,,,,,,,,,,,,,,,,2508.485959900543,None,2508.485959900543,None,2508.814248200506,None,2508.814248200506,None,0,2508.814248200506,None,return,2.189764501526952,2508.814248200506,None,,,YULONG,F,001,2023_Apr_17_1453,untitled,2021.1.4,60.35152344817445,
36,18,18,18,54,54,90,0.8,0.33,0.67,0.5,0.17,0.33,,stimuli/P_36_18_18_18.png,,,,,0,172,172,234,,,,,,,,,,,,,,,,,,,,,,,,,,,,2511.0181532017887,None,2511.0181532017887,None,2511.3531758002937,None,2511.3531758002937,None,60,2511.3531758002937,None,return,6.25941089913249,2511.3531758002937,None,,,YULONG,F,001,2023_Apr_17_1453,untitled,2021.1.4,60.35152344817445,
9,9,18,9,18,27,45,0.8,0.5,0.5,0.67,-0.17,-0.5,,stimuli/P_09_09_18_09.png,,,,,0,173,173,89,,,,,,,,,,,,,,,,,,,,,,,,,,,,2517.629830300808,None,2517.629830300808,None,2517.9600037001073,None,2517.9600037001073,None,50,2517.9600037001073,None,return,2.5476019009947777,2517.9600037001073,None,,,YULONG,F,001,2023_Apr_17_1453,untitled,2021.1.4,60.35152344817445,
18,9,9,9,27,27,45,0.8,0.33,0.67,0.5,0.17,0.33,,stimuli/P_18_09_09_09.png,,,,,0,174,174,149,,,,,,,,,,,,,,,,,,,,,,,,,,,,2520.529541200027,None,2520.529541200027,None,2520.8645990006626,None,2520.8645990006626,None,60,2520.8645990006626,None,return,4.696364298462868,2520.8645990006626,None,,,YULONG,F,001,2023_Apr_17_1453,untitled,2021.1.4,60.35152344817445,
36,9,36,18,45,72,99,0.91,0.2,0.8,0.67,0.13,0.4,,stimuli/P_36_09_36_18.png,,,,,0,175,175,222,,,,,,,,,,,,,,,,,,,,,,,,,,,,2525.5950811002403,None,2525.5950811002403,None,2525.9278399012983,None,2525.9278399012983,None,70,2525.9278399012983,None,return,5.4150852002203465,2525.9278399012983,None,,,YULONG,F,001,2023_Apr_17_1453,untitled,2021.1.4,60.35152344817445,
0,36,18,18,36,18,72,0.5,1.0,0.0,0.5,-0.5,-1.0,,stimuli/P_00_36_18_18.png,,,,,0,176,176,58,,,,,,,,,,,,,,,,,,,,,,,,,,,,2531.3616703003645,None,2531.3616703003645,None,2531.702708201483,None,2531.702708201483,None,0,2531.702708201483,None,return,7.877878099679947,2531.702708201483,None,,,YULONG,F,001,2023_Apr_17_1453,untitled,2021.1.4,60.35152344817445,
0,0,36,18,0,36,54,1.0,None,None,0.67,None,None,,stimuli/P_00_00_36_18.png,,,,,0,177,177,14,,,,,,,,,,,,,,,,,,,,,,,,,,,,2539.5983179006726,None,2539.5983179006726,None,2539.9312856011093,None,2539.9312856011093,None,0,2539.9312856011093,None,return,2.679883200675249,2539.9312856011093,None,,,YULONG,F,001,2023_Apr_17_1453,untitled,2021.1.4,60.35152344817445,
9,9,9,18,18,18,45,0.8,0.5,0.5,0.33,0.17,0.25,,stimuli/P_09_09_09_18.png,,,,,0,178,178,86,,,,,,,,,,,,,,,,,,,,,,,,,,,,2542.631678501144,None,2542.631678501144,None,2542.9628734011203,None,2542.9628734011203,None,50,2542.9628734011203,None,return,2.4838890992105007,2542.9628734011203,None,,,YULONG,F,001,2023_Apr_17_1453,untitled,2021.1.4,60.35152344817445,
18,0,9,36,18,27,63,1.0,0.0,1.0,0.2,0.8,1.0,,stimuli/P_18_00_09_36.png,,,,,0,179,179,135,,,,,,,,,,,,,,,,,,,,,,,,,,,,2545.4618313014507,None,2545.4618313014507,None,2545.799524901435,None,2545.799524901435,None,100,2545.799524901435,None,return,4.081532400101423,2545.799524901435,None,,,YULONG,F,001,2023_Apr_17_1453,untitled,2021.1.4,60.35152344817445,
18,36,0,18,54,18,72,0.5,0.67,0.33,0.0,0.33,0.33,,stimuli/P_18_36_00_18.png,,,,,0,180,180,178,,,,,,,,,,,,,,,,,,,,,,,,,,,,2549.908610600978,None,2549.908610600978,None,2550.2348764017224,None,2550.2348764017224,None,30,2550.2348764017224,None,return,3.703318700194359,2550.2348764017224,None,,,YULONG,F,001,2023_Apr_17_1453,untitled,2021.1.4,60.35152344817445,
9,18,9,36,27,18,72,0.75,0.67,0.33,0.2,0.13,0.17,,stimuli/P_09_18_09_36.png,,,,,0,181,181,103,,,,,,,,,,,,,,,,,,,,,,,,,,,,2553.95059110038,None,2553.95059110038,None,2554.2864776011556,None,2554.2864776011556,None,40,2554.2864776011556,None,return,3.558975599706173,2554.2864776011556,None,,,YULONG,F,001,2023_Apr_17_1453,untitled,2021.1.4,60.35152344817445,
0,0,9,36,0,9,45,1.0,None,None,0.2,None,None,,stimuli/P_00_00_09_36.png,,,,,0,182,182,7,,,,,,,,,,,,,,,,,,,,,,,,,,,,2557.869636900723,None,2557.869636900723,None,2558.193771701306,None,2558.193771701306,None,0,2558.193771701306,None,return,1.417356200516224,2558.193771701306,None,,,YULONG,F,001,2023_Apr_17_1453,untitled,2021.1.4,60.35152344817445,
9,18,36,36,27,45,99,0.82,0.67,0.33,0.5,-0.17,-0.33,,stimuli/P_09_18_36_36.png,,,,,0,183,183,111,,,,,,,,,,,,,,,,,,,,,,,,,,,,2559.625785501674,None,2559.625785501674,None,2559.963189901784,None,2559.963189901784,None,30,2559.963189901784,None,return,6.689035000279546,2559.963189901784,None,,,YULONG,F,001,2023_Apr_17_1453,untitled,2021.1.4,60.35152344817445,
36,0,18,36,36,54,90,1.0,0.0,1.0,0.33,0.67,1.0,,stimuli/P_36_00_18_36.png,,,,,0,184,184,203,,,,,,,,,,,,,,,,,,,,,,,,,,,,2566.679782701656,None,2566.679782701656,None,2567.006386101246,None,2567.006386101246,None,100,2567.006386101246,None,return,3.996579699218273,2567.006386101246,None,,,YULONG,F,001,2023_Apr_17_1453,untitled,2021.1.4,60.35152344817445,
18,36,0,9,54,18,63,0.43,0.67,0.33,0.0,0.33,0.33,,stimuli/P_18_36_00_09.png,,,,,0,185,185,177,,,,,,,,,,,,,,,,,,,,,,,,,,,,2571.0359186008573,None,2571.0359186008573,None,2571.36672780104,None,2571.36672780104,None,30,2571.36672780104,None,return,2.854305598884821,2571.36672780104,None,,,YULONG,F,001,2023_Apr_17_1453,untitled,2021.1.4,60.35152344817445,
18,18,36,36,36,54,108,0.83,0.5,0.5,0.5,0.0,0.0,,stimuli/P_18_18_36_36.png,,,,,0,186,186,175,,,,,,,,,,,,,,,,,,,,,,,,,,,,2574.248315900564,None,2574.248315900564,None,2574.5856924001127,None,2574.5856924001127,None,50,2574.5856924001127,None,return,6.692304300144315,2574.5856924001127,None,,,YULONG,F,001,2023_Apr_17_1453,untitled,2021.1.4,60.35152344817445,
0,0,9,0,0,9,9,1.0,None,None,1.0,None,None,,stimuli/P_00_00_09_00.png,,,,,0,187,187,4,,,,,,,,,,,,,,,,,,,,,,,,,,,,2581.2994711007923,None,2581.2994711007923,None,2581.6314247008413,None,2581.6314247008413,None,0,2581.6314247008413,None,return,1.4710447993129492,2581.6314247008413,None,,,YULONG,F,001,2023_Apr_17_1453,untitled,2021.1.4,60.35152344817445,
9,0,18,9,9,27,36,1.0,0.0,1.0,0.67,0.33,1.0,,stimuli/P_09_00_18_09.png,,,,,0,188,188,73,,,,,,,,,,,,,,,,,,,,,,,,,,,,2583.1161328013986,None,2583.1161328013986,None,2583.452366501093,None,2583.452366501093,None,100,2583.452366501093,None,return,2.6646028999239206,2583.452366501093,None,,,YULONG,F,001,2023_Apr_17_1453,untitled,2021.1.4,60.35152344817445,
0,0,36,9,0,36,45,1.0,None,None,0.8,None,None,,stimuli/P_00_00_36_09.png,,,,,0,189,189,13,,,,,,,,,,,,,,,,,,,,,,,,,,,,2586.130839301273,None,2586.130839301273,None,2586.456951800734,None,2586.456951800734,None,0,2586.456951800734,None,return,3.515277499333024,2586.456951800734,None,,,YULONG,F,001,2023_Apr_17_1453,untitled,2021.1.4,60.35152344817445,
18,9,36,0,27,54,63,0.86,0.33,0.67,1.0,-0.33,#NAME?,,stimuli/P_18_09_36_00.png,,,,,0,190,190,156,,,,,,,,,,,,,,,,,,,,,,,,,,,,2589.9985465016216,None,2589.9985465016216,None,2590.3357947003096,None,2590.3357947003096,None,60,2590.3357947003096,None,return,3.8218380995094776,2590.3357947003096,None,,,YULONG,F,001,2023_Apr_17_1453,untitled,2021.1.4,60.35152344817445,
9,18,0,18,27,9,45,0.6,0.67,0.33,0.0,0.33,0.33,,stimuli/P_09_18_00_18.png,,,,,0,191,191,98,,,,,,,,,,,,,,,,,,,,,,,,,,,,2594.1792356017977,None,2594.1792356017977,None,2594.5077661015093,None,2594.5077661015093,None,,2594.5077661015093,None,None,,2594.5077661015093,None,,,YULONG,F,001,2023_Apr_17_1453,untitled,2021.1.4,60.35152344817445,
18,9,36,18,27,54,81,0.89,0.33,0.67,0.67,0.0,0.0,,stimuli/P_18_09_36_18.png,,,,,0,192,192,158,,,,,,,,,,,,,,,,,,,,,,,,,,,,2602.512413000688,None,2602.512413000688,None,2602.8496541008353,None,2602.8496541008353,None,60,2602.8496541008353,None,return,3.4195041991770267,2602.8496541008353,None,,,YULONG,F,001,2023_Apr_17_1453,untitled,2021.1.4,60.35152344817445,
0,0,0,36,0,0,36,1.0,None,None,0.0,None,None,,stimuli/P_00_00_00_36.png,,,,,0,193,193,3,,,,,,,,,,,,,,,,,,,,,,,,,,,,2606.2852622009814,None,2606.2852622009814,None,2606.612809000537,None,2606.612809000537,None,0,2606.612809000537,None,return,1.5453370995819569,2606.612809000537,None,,,YULONG,F,001,2023_Apr_17_1453,untitled,2021.1.4,60.35152344817445,
9,18,0,36,27,9,63,0.71,0.67,0.33,0.0,0.33,0.33,,stimuli/P_09_18_00_36.png,,,,,0,194,194,99,,,,,,,,,,,,,,,,,,,,,,,,,,,,2608.1840713005513,None,2608.1840713005513,None,2608.5218865014613,None,2608.5218865014613,None,30,2608.5218865014613,None,return,2.7175225000828505,2608.5218865014613,None,,,YULONG,F,001,2023_Apr_17_1453,untitled,2021.1.4,60.35152344817445,
36,36,9,18,72,45,99,0.64,0.5,0.5,0.33,0.17,0.25,,stimuli/P_36_36_09_18.png,,,,,0,195,195,246,,,,,,,,,,,,,,,,,,,,,,,,,,,,2611.259239900857,None,2611.259239900857,None,2611.5959608014673,None,2611.5959608014673,None,50,2611.5959608014673,None,return,2.008167300373316,2611.5959608014673,None,,,YULONG,F,001,2023_Apr_17_1453,untitled,2021.1.4,60.35152344817445,
0,9,0,36,9,0,45,0.8,1.0,0.0,0.0,0.0,0.0,,stimuli/P_00_09_00_36.png,,,,,0,196,196,19,,,,,,,,,,,,,,,,,,,,,,,,,,,,2613.6252052001655,None,2613.6252052001655,None,2613.949319900945,None,2613.949319900945,None,0,2613.949319900945,None,return,1.8384984992444515,2613.949319900945,None,,,YULONG,F,001,2023_Apr_17_1453,untitled,2021.1.4,60.35152344817445,
36,9,18,9,45,54,72,0.88,0.2,0.8,0.67,0.13,0.4,,stimuli/P_36_09_18_09.png,,,,,0,197,197,217,,,,,,,,,,,,,,,,,,,,,,,,,,,,2615.8226053006947,None,2615.8226053006947,None,2616.1578973010182,None,2616.1578973010182,None,80,2616.1578973010182,None,return,3.8624210990965366,2616.1578973010182,None,,,YULONG,F,001,2023_Apr_17_1453,untitled,2021.1.4,60.35152344817445,
9,9,18,36,18,27,72,0.88,0.5,0.5,0.33,0.17,0.25,,stimuli/P_09_09_18_36.png,,,,,0,198,198,91,,,,,,,,,,,,,,,,,,,,,,,,,,,,2620.038225101307,None,2620.038225101307,None,2620.3719954006374,None,2620.3719954006374,None,50,2620.3719954006374,None,return,2.552183300256729,2620.3719954006374,None,,,YULONG,F,001,2023_Apr_17_1453,untitled,2021.1.4,60.35152344817445,
0,18,18,0,18,18,36,0.5,1.0,0.0,1.0,-1.0,#NAME?,,stimuli/P_00_18_18_00.png,,,,,0,199,199,40,,,,,,,,,,,,,,,,,,,,,,,,,,,,2622.952401701361,None,2622.952401701361,None,2623.2857080008835,None,2623.2857080008835,None,0,2623.2857080008835,None,return,1.4532664008438587,2623.2857080008835,None,,,YULONG,F,001,2023_Apr_17_1453,untitled,2021.1.4,60.35152344817445,
0,0,18,36,0,18,54,1.0,None,None,0.33,None,None,,stimuli/P_00_00_18_36.png,,,,,0,200,200,11,,,,,,,,,,,,,,,,,,,,,,,,,,,,2624.7641486003995,None,2624.7641486003995,None,2625.090510500595,None,2625.090510500595,None,0,2625.090510500595,None,return,1.5949594005942345,2625.090510500595,None,,,YULONG,F,001,2023_Apr_17_1453,untitled,2021.1.4,60.35152344817445,
0,36,9,0,36,9,45,0.2,1.0,0.0,1.0,-1.0,#NAME?,,stimuli/P_00_36_09_00.png,,,,,0,201,201,52,,,,,,,,,,,,,,,,,,,,,,,,,,,,2626.6990193016827,None,2626.6990193016827,None,2627.0461113005877,None,2627.0461113005877,None,0,2627.0461113005877,None,return,1.3681427985429764,2627.0461113005877,None,,,YULONG,F,001,2023_Apr_17_1453,untitled,2021.1.4,60.35152344817445,
36,9,0,9,45,36,54,0.83,0.2,0.8,0.0,0.8,0.8,,stimuli/P_36_09_00_09.png,,,,,0,202,202,209,,,,,,,,,,,,,,,,,,,,,,,,,,,,2628.4305784013122,None,2628.4305784013122,None,2628.757698200643,None,2628.757698200643,None,70,2628.757698200643,None,return,2.755513099953532,2628.757698200643,None,,,YULONG,F,001,2023_Apr_17_1453,untitled,2021.1.4,60.35152344817445,
9,36,18,18,45,27,81,0.56,0.8,0.2,0.5,-0.3,-0.6,,stimuli/P_09_36_18_18.png,,,,,0,203,203,122,,,,,,,,,,,,,,,,,,,,,,,,,,,,2631.5300817005336,None,2631.5300817005336,None,2631.864297101274,None,2631.864297101274,None,20,2631.864297101274,None,return,4.472377000376582,2631.864297101274,None,,,YULONG,F,001,2023_Apr_17_1453,untitled,2021.1.4,60.35152344817445,
0,18,0,0,18,0,18,0.0,1.0,0.0,None,None,None,,stimuli/P_00_18_00_00.png,,,,,0,204,204,32,,,,,,,,,,,,,,,,,,,,,,,,,,,,2636.367248000577,None,2636.367248000577,None,2636.6965194009244,None,2636.6965194009244,None,0,2636.6965194009244,None,return,1.7255789004266262,2636.6965194009244,None,,,YULONG,F,001,2023_Apr_17_1453,untitled,2021.1.4,60.35152344817445,
18,0,9,9,18,27,36,1.0,0.0,1.0,0.5,0.5,1.0,,stimuli/P_18_00_09_09.png,,,,,0,205,205,133,,,,,,,,,,,,,,,,,,,,,,,,,,,,2638.4522654004395,None,2638.4522654004395,None,2638.780676700175,None,2638.780676700175,None,100,2638.780676700175,None,return,2.1449082996696234,2638.780676700175,None,,,YULONG,F,001,2023_Apr_17_1453,untitled,2021.1.4,60.35152344817445,
9,9,0,36,18,9,54,0.83,0.5,0.5,0.0,0.5,0.5,,stimuli/P_09_09_00_36.png,,,,,0,206,206,83,,,,,,,,,,,,,,,,,,,,,,,,,,,,2640.954293200746,None,2640.954293200746,None,2641.2910646013916,None,2641.2910646013916,None,50,2641.2910646013916,None,return,4.56108820065856,2641.2910646013916,None,,,YULONG,F,001,2023_Apr_17_1453,untitled,2021.1.4,60.35152344817445,
36,9,9,0,45,45,54,0.83,0.2,0.8,1.0,-0.2,#NAME?,,stimuli/P_36_09_09_00.png,,,,,0,207,207,212,,,,,,,,,,,,,,,,,,,,,,,,,,,,2645.8697383012623,None,2645.8697383012623,None,2646.1987092010677,None,2646.1987092010677,None,70,2646.1987092010677,None,return,3.3275762014091015,2646.1987092010677,None,,,YULONG,F,001,2023_Apr_17_1453,untitled,2021.1.4,60.35152344817445,
18,18,9,9,36,27,54,0.67,0.5,0.5,0.5,0.0,0.0,,stimuli/P_18_18_09_09.png,,,,,0,208,208,165,,,,,,,,,,,,,,,,,,,,,,,,,,,,2649.554092500359,None,2649.554092500359,None,2649.8919226005673,None,2649.8919226005673,None,50,2649.8919226005673,None,return,4.332752600312233,2649.8919226005673,None,,,YULONG,F,001,2023_Apr_17_1453,untitled,2021.1.4,60.35152344817445,
36,18,18,36,54,54,108,0.83,0.33,0.67,0.33,0.33,0.5,,stimuli/P_36_18_18_36.png,,,,,0,209,209,235,,,,,,,,,,,,,,,,,,,,,,,,,,,,2654.2410628013313,None,2654.2410628013313,None,2654.570208400488,None,2654.570208400488,None,60,2654.570208400488,None,return,3.029544299468398,2654.570208400488,None,,,YULONG,F,001,2023_Apr_17_1453,untitled,2021.1.4,60.35152344817445,
9,9,36,0,18,45,54,0.83,0.5,0.5,1.0,-0.5,#NAME?,,stimuli/P_09_09_36_00.png,,,,,0,210,210,92,,,,,,,,,,,,,,,,,,,,,,,,,,,,2657.619314800948,None,2657.619314800948,None,2657.9569940008223,None,2657.9569940008223,None,50,2657.9569940008223,None,return,4.295119799673557,2657.9569940008223,None,,,YULONG,F,001,2023_Apr_17_1453,untitled,2021.1.4,60.35152344817445,
0,18,18,18,18,18,54,0.67,1.0,0.0,0.5,-0.5,-1.0,,stimuli/P_00_18_18_18.png,,,,,0,211,211,42,,,,,,,,,,,,,,,,,,,,,,,,,,,,2662.277694201097,None,2662.277694201097,None,2662.6037532016635,None,2662.6037532016635,None,0,2662.6037532016635,None,return,2.4907881002873182,2662.6037532016635,None,,,YULONG,F,001,2023_Apr_17_1453,untitled,2021.1.4,60.35152344817445,
18,36,18,36,54,36,108,0.67,0.67,0.33,0.33,0.0,0.0,,stimuli/P_18_36_18_36.png,,,,,0,212,212,187,,,,,,,,,,,,,,,,,,,,,,,,,,,,2665.1245312001556,None,2665.1245312001556,None,2665.458998300135,None,2665.458998300135,None,30,2665.458998300135,None,return,2.9129718001931906,2665.458998300135,None,,,YULONG,F,001,2023_Apr_17_1453,untitled,2021.1.4,60.35152344817445,
0,9,9,9,9,9,27,0.67,1.0,0.0,0.5,-0.5,-1.0,,stimuli/P_00_09_09_09.png,,,,,0,213,213,21,,,,,,,,,,,,,,,,,,,,,,,,,,,,2668.389571001753,None,2668.389571001753,None,2668.717568801716,None,2668.717568801716,None,0,2668.717568801716,None,return,3.383057599887252,2668.717568801716,None,,,YULONG,F,001,2023_Apr_17_1453,untitled,2021.1.4,60.35152344817445,
0,36,36,36,36,36,108,0.67,1.0,0.0,0.5,-0.5,-1.0,,stimuli/P_00_36_36_36.png,,,,,0,214,214,63,,,,,,,,,,,,,,,,,,,,,,,,,,,,2672.130383601412,None,2672.130383601412,None,2672.461858900264,None,2672.461858900264,None,0,2672.461858900264,None,return,1.689963998273015,2672.461858900264,None,,,YULONG,F,001,2023_Apr_17_1453,untitled,2021.1.4,60.35152344817445,
18,36,36,36,54,54,126,0.71,0.67,0.33,0.5,-0.17,-0.33,,stimuli/P_18_36_36_36.png,,,,,0,215,215,191,,,,,,,,,,,,,,,,,,,,,,,,,,,,2674.170283101499,None,2674.170283101499,None,2674.5091865006834,None,2674.5091865006834,None,30,2674.5091865006834,None,return,2.575356300920248,2674.5091865006834,None,,,YULONG,F,001,2023_Apr_17_1453,untitled,2021.1.4,60.35152344817445,
9,0,36,18,9,45,63,1.0,0.0,1.0,0.67,0.33,1.0,,stimuli/P_09_00_36_18.png,,,,,0,216,216,78,,,,,,,,,,,,,,,,,,,,,,,,,,,,2677.1061619017273,None,2677.1061619017273,None,2677.4416029006243,None,2677.4416029006243,None,100,2677.4416029006243,None,return,3.3988581001758575,2677.4416029006243,None,,,YULONG,F,001,2023_Apr_17_1453,untitled,2021.1.4,60.35152344817445,
36,0,0,36,36,36,72,1.0,0.0,1.0,0.0,1.0,1.0,,stimuli/P_36_00_00_36.png,,,,,0,217,217,195,,,,,,,,,,,,,,,,,,,,,,,,,,,,2680.8620046004653,None,2680.8620046004653,None,2681.2002947013825,None,2681.2002947013825,None,100,2681.2002947013825,None,return,2.176002498716116,2681.2002947013825,None,,,YULONG,F,001,2023_Apr_17_1453,untitled,2021.1.4,60.35152344817445,
0,0,0,0,0,0,0,None,None,None,None,None,None,,stimuli/P_00_00_00_00.png,,,,,0,218,218,0,,,,,,,,,,,,,,,,,,,,,,,,,,,,2683.3897756002843,None,2683.3897756002843,None,2683.7179078012705,None,2683.7179078012705,None,0,2683.7179078012705,None,return,3.1596326995640993,2683.7179078012705,None,,,YULONG,F,001,2023_Apr_17_1453,untitled,2021.1.4,60.35152344817445,
18,18,9,36,36,27,81,0.78,0.5,0.5,0.2,0.3,0.37,,stimuli/P_18_18_09_36.png,,,,,0,219,219,167,,,,,,,,,,,,,,,,,,,,,,,,,,,,2686.904163300991,None,2686.904163300991,None,2687.241169501096,None,2687.241169501096,None,50,2687.241169501096,None,return,2.779609700664878,2687.241169501096,None,,,YULONG,F,001,2023_Apr_17_1453,untitled,2021.1.4,60.35152344817445,
9,9,9,9,18,18,36,0.75,0.5,0.5,0.5,0.0,0.0,,stimuli/P_09_09_09_09.png,,,,,0,220,220,85,,,,,,,,,,,,,,,,,,,,,,,,,,,,2690.0469348002225,None,2690.0469348002225,None,2690.3749340008944,None,2690.3749340008944,None,50,2690.3749340008944,None,return,2.218919700011611,2690.3749340008944,None,,,YULONG,F,001,2023_Apr_17_1453,untitled,2021.1.4,60.35152344817445,
0,36,9,36,36,9,81,0.56,1.0,0.0,0.2,-0.2,-0.25,,stimuli/P_00_36_09_36.png,,,,,0,221,221,55,,,,,,,,,,,,,,,,,,,,,,,,,,,,2692.611353000626,None,2692.611353000626,None,2692.953161401674,None,2692.953161401674,None,0,2692.953161401674,None,return,1.4704419001936913,2692.953161401674,None,,,YULONG,F,001,2023_Apr_17_1453,untitled,2021.1.4,60.35152344817445,
36,9,0,36,45,36,81,0.89,0.2,0.8,0.0,0.8,0.8,,stimuli/P_36_09_00_36.png,,,,,0,222,222,211,,,,,,,,,,,,,,,,,,,,,,,,,,,,2694.4364457000047,None,2694.4364457000047,None,2694.7631006017327,None,2694.7631006017327,None,80,2694.7631006017327,None,return,3.470455499365926,2694.7631006017327,None,,,YULONG,F,001,2023_Apr_17_1453,untitled,2021.1.4,60.35152344817445,
36,18,18,0,54,54,72,0.75,0.33,0.67,1.0,-0.33,#NAME?,,stimuli/P_36_18_18_00.png,,,,,0,223,223,232,,,,,,,,,,,,,,,,,,,,,,,,,,,,2698.2492784000933,None,2698.2492784000933,None,2698.5797736011446,None,2698.5797736011446,None,30,2698.5797736011446,None,return,3.260880298912525,2698.5797736011446,None,,,YULONG,F,001,2023_Apr_17_1453,untitled,2021.1.4,60.35152344817445,
0,9,36,36,9,36,81,0.89,1.0,0.0,0.5,-0.5,-1.0,,stimuli/P_00_09_36_36.png,,,,,0,224,224,31,,,,,,,,,,,,,,,,,,,,,,,,,,,,2701.8578440006822,None,2701.8578440006822,None,2702.195561300963,None,2702.195561300963,None,0,2702.195561300963,None,return,1.6677340995520353,2702.195561300963,None,,,YULONG,F,001,2023_Apr_17_1453,untitled,2021.1.4,60.35152344817445,
0,36,18,0,36,18,54,0.33,1.0,0.0,1.0,-1.0,#NAME?,,stimuli/P_00_36_18_00.png,,,,,0,225,225,56,,,,,,,,,,,,,,,,,,,,,,,,,,,,2703.877653500065,None,2703.877653500065,None,2704.2039191015065,None,2704.2039191015065,None,0,2704.2039191015065,None,return,1.4615429006516933,2704.2039191015065,None,,,YULONG,F,001,2023_Apr_17_1453,untitled,2021.1.4,60.35152344817445,
9,36,9,0,45,18,54,0.33,0.8,0.2,1.0,-0.8,#NAME?,,stimuli/P_09_36_09_00.png,,,,,0,226,226,116,,,,,,,,,,,,,,,,,,,,,,,,,,,,2705.6938631013036,None,2705.6938631013036,None,2706.0339380018413,None,2706.0339380018413,None,20,2706.0339380018413,None,return,4.5263454001396894,2706.0339380018413,None,,,YULONG,F,001,2023_Apr_17_1453,untitled,2021.1.4,60.35152344817445,
18,0,9,0,18,27,27,1.0,0.0,1.0,1.0,0.0,None,,stimuli/P_18_00_09_00.png,,,,,0,227,227,132,,,,,,,,,,,,,,,,,,,,,,,,,,,,2710.5742402002215,None,2710.5742402002215,None,2710.9013062007725,None,2710.9013062007725,None,100,2710.9013062007725,None,return,2.195412799715996,2710.9013062007725,None,,,YULONG,F,001,2023_Apr_17_1453,untitled,2021.1.4,60.35152344817445,
36,36,9,36,72,45,117,0.69,0.5,0.5,0.2,0.3,0.37,,stimuli/P_36_36_09_36.png,,,,,0,228,228,247,,,,,,,,,,,,,,,,,,,,,,,,,,,,2713.1249920018017,None,2713.1249920018017,None,2713.4599833004177,None,2713.4599833004177,None,50,2713.4599833004177,None,return,4.1039863005280495,2713.4599833004177,None,,,YULONG,F,001,2023_Apr_17_1453,untitled,2021.1.4,60.35152344817445,
0,18,36,0,18,36,54,0.67,1.0,0.0,1.0,-1.0,#NAME?,,stimuli/P_00_18_36_00.png,,,,,0,229,229,44,,,,,,,,,,,,,,,,,,,,,,,,,,,,2717.577917901799,None,2717.577917901799,None,2717.9064121004194,None,2717.9064121004194,None,0,2717.9064121004194,None,return,1.704925399273634,2717.9064121004194,None,,,YULONG,F,001,2023_Apr_17_1453,untitled,2021.1.4,60.35152344817445,
18,18,9,18,36,27,63,0.71,0.5,0.5,0.33,0.17,0.25,,stimuli/P_18_18_09_18.png,,,,,0,230,230,166,,,,,,,,,,,,,,,,,,,,,,,,,,,,2719.6385828014463,None,2719.6385828014463,None,2719.9702100008726,None,2719.9702100008726,None,50,2719.9702100008726,None,return,1.8658516015857458,2719.9702100008726,None,,,YULONG,F,001,2023_Apr_17_1453,untitled,2021.1.4,60.35152344817445,
36,18,36,36,54,72,126,0.86,0.33,0.67,0.5,0.17,0.33,,stimuli/P_36_18_36_36.png,,,,,0,231,231,239,,,,,,,,,,,,,,,,,,,,,,,,,,,,2721.857792701572,None,2721.857792701572,None,2722.1906697005033,None,2722.1906697005033,None,60,2722.1906697005033,None,return,4.451288100332022,2722.1906697005033,None,,,YULONG,F,001,2023_Apr_17_1453,untitled,2021.1.4,60.35152344817445,
0,0,18,0,0,18,18,1.0,None,None,1.0,None,None,,stimuli/P_00_00_18_00.png,,,,,0,232,232,8,,,,,,,,,,,,,,,,,,,,,,,,,,,,2726.6815658006817,None,2726.6815658006817,None,2727.0186528004706,None,2727.0186528004706,None,0,2727.0186528004706,None,return,1.4465477988123894,2727.0186528004706,None,,,YULONG,F,001,2023_Apr_17_1453,untitled,2021.1.4,60.35152344817445,
36,36,36,9,72,72,117,0.69,0.5,0.5,0.8,-0.3,-1.5,,stimuli/P_36_36_36_09.png,,,,,0,233,233,253,,,,,,,,,,,,,,,,,,,,,,,,,,,,2728.494475601241,None,2728.494475601241,None,2728.833047300577,None,2728.833047300577,None,50,2728.833047300577,None,return,5.125200001522899,2728.833047300577,None,,,YULONG,F,001,2023_Apr_17_1453,untitled,2021.1.4,60.35152344817445,
0,9,36,9,9,36,54,0.83,1.0,0.0,0.8,-0.8,-4.0,,stimuli/P_00_09_36_09.png,,,,,0,234,234,29,,,,,,,,,,,,,,,,,,,,,,,,,,,,2733.985150501132,None,2733.985150501132,None,2734.3138936012983,None,2734.3138936012983,None,0,2734.3138936012983,None,return,3.4446812998503447,2734.3138936012983,None,,,YULONG,F,001,2023_Apr_17_1453,untitled,2021.1.4,60.35152344817445,
0,18,0,18,18,0,36,0.5,1.0,0.0,0.0,0.0,0.0,,stimuli/P_00_18_00_18.png,,,,,0,235,235,34,,,,,,,,,,,,,,,,,,,,,,,,,,,,2737.784508101642,None,2737.784508101642,None,2738.1200539004058,None,2738.1200539004058,None,0,2738.1200539004058,None,return,1.8977524004876614,2738.1200539004058,None,,,YULONG,F,001,2023_Apr_17_1453,untitled,2021.1.4,60.35152344817445,
36,36,18,9,72,54,99,0.64,0.5,0.5,0.67,-0.17,-0.5,,stimuli/P_36_36_18_09.png,,,,,0,236,236,249,,,,,,,,,,,,,,,,,,,,,,,,,,,,2740.0407585017383,None,2740.0407585017383,None,2740.3699710015208,None,2740.3699710015208,None,50,2740.3699710015208,None,return,2.153269799426198,2740.3699710015208,None,,,YULONG,F,001,2023_Apr_17_1453,untitled,2021.1.4,60.35152344817445,
9,36,36,0,45,45,81,0.56,0.8,0.2,1.0,-0.8,#NAME?,,stimuli/P_09_36_36_00.png,,,,,0,237,237,124,,,,,,,,,,,,,,,,,,,,,,,,,,,,2742.55326080136,None,2742.55326080136,None,2742.890609001741,None,2742.890609001741,None,20,2742.890609001741,None,return,7.719618499279022,2742.890609001741,None,,,YULONG,F,001,2023_Apr_17_1453,untitled,2021.1.4,60.35152344817445,
18,0,18,9,18,36,45,1.0,0.0,1.0,0.67,0.33,1.0,,stimuli/P_18_00_18_09.png,,,,,0,238,238,137,,,,,,,,,,,,,,,,,,,,,,,,,,,,2750.6382942013443,None,2750.6382942013443,None,2750.967195501551,None,2750.967195501551,None,100,2750.967195501551,None,None,,2750.967195501551,None,,,YULONG,F,001,2023_Apr_17_1453,untitled,2021.1.4,60.35152344817445,
0,0,36,0,0,36,36,1.0,None,None,1.0,None,None,,stimuli/P_00_00_36_00.png,,,,,0,239,239,12,,,,,,,,,,,,,,,,,,,,,,,,,,,,2758.9815974012017,None,2758.9815974012017,None,2759.3203105013818,None,2759.3203105013818,None,0,2759.3203105013818,None,return,1.6242661997675896,2759.3203105013818,None,,,YULONG,F,001,2023_Apr_17_1453,untitled,2021.1.4,60.35152344817445,
9,36,18,36,45,27,99,0.64,0.8,0.2,0.33,-0.13,-0.2,,stimuli/P_09_36_18_36.png,,,,,0,240,240,123,,,,,,,,,,,,,,,,,,,,,,,,,,,,2760.9716678000987,None,2760.9716678000987,None,2761.301015501842,None,2761.301015501842,None,20,2761.301015501842,None,return,2.871383300051093,2761.301015501842,None,,,YULONG,F,001,2023_Apr_17_1453,untitled,2021.1.4,60.35152344817445,
0,36,0,0,36,0,36,0.0,1.0,0.0,None,None,None,,stimuli/P_00_36_00_00.png,,,,,0,241,241,48,,,,,,,,,,,,,,,,,,,,,,,,,,,,2764.186705701053,None,2764.186705701053,None,2764.5203229002655,None,2764.5203229002655,None,0,2764.5203229002655,None,return,1.6831724997609854,2764.5203229002655,None,,,YULONG,F,001,2023_Apr_17_1453,untitled,2021.1.4,60.35152344817445,
18,36,36,18,54,54,108,0.67,0.67,0.33,0.67,-0.33,-1.0,,stimuli/P_18_36_36_18.png,,,,,0,242,242,190,,,,,,,,,,,,,,,,,,,,,,,,,,,,2766.2197800017893,None,2766.2197800017893,None,2766.55336330086,None,2766.55336330086,None,30,2766.55336330086,None,return,3.495856400579214,2766.55336330086,None,,,YULONG,F,001,2023_Apr_17_1453,untitled,2021.1.4,60.35152344817445,
36,0,9,9,36,45,54,1.0,0.0,1.0,0.5,0.5,1.0,,stimuli/P_36_00_09_09.png,,,,,0,243,243,197,,,,,,,,,,,,,,,,,,,,,,,,,,,,2770.0654710009694,None,2770.0654710009694,None,2770.3944027014077,None,2770.3944027014077,None,100,2770.3944027014077,None,return,2.5273926984518766,2770.3944027014077,None,,,YULONG,F,001,2023_Apr_17_1453,untitled,2021.1.4,60.35152344817445,
9,9,0,9,18,9,27,0.67,0.5,0.5,0.0,0.5,0.5,,stimuli/P_09_09_00_09.png,,,,,0,244,244,81,,,,,,,,,,,,,,,,,,,,,,,,,,,,2772.9454836007208,None,2772.9454836007208,None,2773.28062720038,None,2773.28062720038,None,50,2773.28062720038,None,return,5.917448999360204,2773.28062720038,None,,,YULONG,F,001,2023_Apr_17_1453,untitled,2021.1.4,60.35152344817445,
18,18,9,0,36,27,45,0.6,0.5,0.5,1.0,-0.5,#NAME?,,stimuli/P_18_18_09_00.png,,,,,0,245,245,164,,,,,,,,,,,,,,,,,,,,,,,,,,,,2779.2261090017855,None,2779.2261090017855,None,2779.5549689009786,None,2779.5549689009786,None,50,2779.5549689009786,None,return,1.7712313998490572,2779.5549689009786,None,,,YULONG,F,001,2023_Apr_17_1453,untitled,2021.1.4,60.35152344817445,
36,18,9,36,54,45,99,0.82,0.33,0.67,0.2,0.47,0.58,,stimuli/P_36_18_09_36.png,,,,,0,246,246,231,,,,,,,,,,,,,,,,,,,,,,,,,,,,2781.3539948016405,None,2781.3539948016405,None,2781.6900836005807,None,2781.6900836005807,None,60,2781.6900836005807,None,return,4.0846589002758265,2781.6900836005807,None,,,YULONG,F,001,2023_Apr_17_1453,untitled,2021.1.4,60.35152344817445,
36,36,9,9,72,45,90,0.6,0.5,0.5,0.5,0.0,0.0,,stimuli/P_36_36_09_09.png,,,,,0,247,247,245,,,,,,,,,,,,,,,,,,,,,,,,,,,,2785.800933500752,None,2785.800933500752,None,2786.132460001856,None,2786.132460001856,None,50,2786.132460001856,None,return,2.064657799899578,2786.132460001856,None,,,YULONG,F,001,2023_Apr_17_1453,untitled,2021.1.4,60.35152344817445,
18,18,36,0,36,54,72,0.75,0.5,0.5,1.0,-0.5,#NAME?,,stimuli/P_18_18_36_00.png,,,,,0,248,248,172,,,,,,,,,,,,,,,,,,,,,,,,,,,,2788.218633601442,None,2788.218633601442,None,2788.5563872009516,None,2788.5563872009516,None,50,2788.5563872009516,None,return,1.9002004005014896,2788.5563872009516,None,,,YULONG,F,001,2023_Apr_17_1453,untitled,2021.1.4,60.35152344817445,
0,9,18,18,9,18,45,0.8,1.0,0.0,0.5,-0.5,-1.0,,stimuli/P_00_09_18_18.png,,,,,0,249,249,26,,,,,,,,,,,,,,,,,,,,,,,,,,,,2790.4845308009535,None,2790.4845308009535,None,2790.8144166003913,None,2790.8144166003913,None,0,2790.8144166003913,None,return,3.3400852996855974,2790.8144166003913,None,,,YULONG,F,001,2023_Apr_17_1453,untitled,2021.1.4,60.35152344817445,
9,36,0,36,45,9,81,0.56,0.8,0.2,0.0,0.2,0.2,,stimuli/P_09_36_00_36.png,,,,,0,250,250,115,,,,,,,,,,,,,,,,,,,,,,,,,,,,2794.174056701362,None,2794.174056701362,None,2794.5139306001365,None,2794.5139306001365,None,20,2794.5139306001365,None,return,2.4251212999224663,2794.5139306001365,None,,,YULONG,F,001,2023_Apr_17_1453,untitled,2021.1.4,60.35152344817445,
9,0,18,36,9,27,63,1.0,0.0,1.0,0.33,0.67,1.0,,stimuli/P_09_00_18_36.png,,,,,0,251,251,75,,,,,,,,,,,,,,,,,,,,,,,,,,,,2796.9515505004674,None,2796.9515505004674,None,2797.289721900597,None,2797.289721900597,None,100,2797.289721900597,None,return,2.920379400253296,2797.289721900597,None,,,YULONG,F,001,2023_Apr_17_1453,untitled,2021.1.4,60.35152344817445,
36,0,9,18,36,45,63,1.0,0.0,1.0,0.33,0.67,1.0,,stimuli/P_36_00_09_18.png,,,,,0,252,252,198,,,,,,,,,,,,,,,,,,,,,,,,,,,,2800.227788301185,None,2800.227788301185,None,2800.5576618015766,None,2800.5576618015766,None,100,2800.5576618015766,None,return,3.147462498396635,2800.5576618015766,None,,,YULONG,F,001,2023_Apr_17_1453,untitled,2021.1.4,60.35152344817445,
36,0,36,0,36,72,72,1.0,0.0,1.0,1.0,0.0,None,,stimuli/P_36_00_36_00.png,,,,,0,253,253,204,,,,,,,,,,,,,,,,,,,,,,,,,,,,2803.7336158007383,None,2803.7336158007383,None,2804.0699983015656,None,2804.0699983015656,None,100,2804.0699983015656,None,return,2.8281810004264116,2804.0699983015656,None,,,YULONG,F,001,2023_Apr_17_1453,untitled,2021.1.4,60.35152344817445,
36,36,0,9,72,36,81,0.56,0.5,0.5,0.0,0.5,0.5,,stimuli/P_36_36_00_09.png,,,,,0,254,254,241,,,,,,,,,,,,,,,,,,,,,,,,,,,,2806.9252517018467,None,2806.9252517018467,None,2807.2526139002293,None,2807.2526139002293,None,50,2807.2526139002293,None,return,1.8529793992638588,2807.2526139002293,None,,,YULONG,F,001,2023_Apr_17_1453,untitled,2021.1.4,60.35152344817445,
9,36,0,0,45,9,45,0.2,0.8,0.2,None,None,None,,stimuli/P_09_36_00_00.png,,,,,0,255,255,112,,,,,,,,,,,,,,,,,,,,,,,,,,,,2809.1382705010474,None,2809.1382705010474,None,2809.4774602018297,None,2809.4774602018297,None,20,2809.4774602018297,None,return,2.824252901598811,2809.4774602018297,None,,,YULONG,F,001,2023_Apr_17_1453,untitled,2021.1.4,60.35152344817445,
,,,,,,,,,,,,,,,,,,,,,,,,,,,,,,,,,,,,,,,,,,,,,,,,,,,,,,,,,,,,,,,,,2812.3303239010274,None,,,,,,,,
