trialNumber,trialType,x1,p,y1,p2,outcome1,x2,q,y2,q2,outcome2,LWedgeCol,LCircleCol,RWedgeCol,RCircleCol,Lslice,Rslice,L1,L2,R1,R2,x1Pos,x2Pos,y1Pos,y2Pos,leftPoints,rightPoints,LeftYourUn,RightYouUn,trials.thisRepN,trials.thisTrialN,trials.thisN,trials.thisIndex,trials_2.thisRepN,trials_2.thisTrialN,trials_2.thisN,trials_2.thisIndex,image.started,image.stopped,key_resp_5.keys,key_resp_5.rt,key_resp_5.started,key_resp_5.stopped,image_2.started,image_2.stopped,key_resp_2.keys,key_resp_2.rt,key_resp_2.started,key_resp_2.stopped,ISI_2.started,ISI_2.stopped,arrowL_2.started,arrowL_2.stopped,arrowR_2.started,arrowR_2.stopped,key_resp_4.keys,key_resp_4.rt,key_resp_4.started,key_resp_4.stopped,blueLVal_2.started,blueLVal_2.stopped,blueRVal_2.started,blueRVal_2.stopped,redLVal_2.started,redLVal_2.stopped,redRVal_2.started,redRVal_2.stopped,right.started,right.stopped,left.started,left.stopped,ISI.started,ISI.stopped,arrowL.started,arrowL.stopped,arrowR.started,arrowR.stopped,blueLVal.started,blueLVal.stopped,blueRVal.started,blueRVal.stopped,redLVal.started,redLVal.stopped,redRVal.started,redRVal.stopped,right_2.started,right_2.stopped,left_2.started,left_2.stopped,ISI_4.started,ISI_4.stopped,arrowL_3.started,arrowL_3.stopped,arrowR_3.started,arrowR_3.stopped,blueLVal_3.started,blueLVal_3.stopped,blueRVal_3.started,blueRVal_3.stopped,redLVal_3.started,redLVal_3.stopped,redRVal_3.started,redRVal_3.stopped,rating,ratingrt,text_5.started,text_5.stopped,totalScore,image_4.started,image_4.stopped,key_resp_3.keys,key_resp_3.rt,key_resp_3.started,key_resp_3.stopped,image_5.started,image_5.stopped,key_resp.keys,key_resp.rt,key_resp.started,key_resp.stopped,image_3.started,image_3.stopped,key_resp_9.keys,key_resp_9.rt,key_resp_9.started,key_resp_9.stopped,gender,age,participant,date,expName,psychopyVersion,frameRate,
,,,,,,,,,,,,,,,,,,,,,,,,,,,,,,,,,,,,,,38.15246679997654,None,space,2.2568797999992967,38.15246679997654,None,,,,,,,,,,,,,,,,,,,,,,,,,,,,,,,,,,,,,,,,,,,,,,,,,,,,,,,,,,,,,,,,,,,,,,,,,,,,,,,,,,,,f,20,chenlu,2022_Jan_10_0931,emotion,2021.2.3,60.10879691814268,
,,,,,,,,,,,,,,,,,,,,,,,,,,,,,,,,,,,,,,,,,,,,40.44459079997614,None,space,2.0652321000234224,40.44459079997614,None,,,,,,,,,,,,,,,,,,,,,,,,,,,,,,,,,,,,,,,,,,,,,,,,,,,,,,,,,,,,,,,,,,,,,,,,,,,,,,f,20,chenlu,2022_Jan_10_0931,emotion,2021.2.3,60.10879691814268,
210,partial,0,0.5,-50,0.5,blue,-50,0.8,-200,0.2,red,red,blue,red,blue,180,72,185,355,5,67,"[-10, 0]","[6.7, -1.9]","[-6, 0]","[9.3, 1.9]",0,-200,-50,-50,0,0,0,47,,,,,,,,,,,,,,,,,0.004716609983006492,0.5047166099830065,42.99301809997996,None,42.99301809997996,None,left,9.929145100002643,42.99301809997996,None,42.99301809997996,None,42.99301809997996,None,42.99301809997996,None,42.99301809997996,None,52.980421699990984,None,52.980421699990984,None,0.016008259990485385,0.5160082599904854,52.980421699990984,None,52.980421699990984,None,52.980421699990984,None,52.980421699990984,None,52.980421699990984,None,52.980421699990984,None,57.215420199994696,None,57.215420199994696,None,0.0029994299984537065,0.5029994299984537,57.215420199994696,None,57.215420199994696,None,57.215420199994696,None,57.215420199994696,None,57.215420199994696,None,57.215420199994696,None,0.0,19.892,79.2409776999848,None,0,,,,,,,,,,,,,,,,,,,f,20,chenlu,2022_Jan_10_0931,emotion,2021.2.3,60.10879691814268,
281,partial,50,0.5,0,0.5,red,200,0.2,50,0.8,blue,red,blue,blue,red,180,72,5,175,5,67,"[-10, 0]","[9.3, 1.9]","[-6, 0]","[6.7, -1.9]",0,200,50,50,0,1,1,64,,,,,,,,,,,,,,,,,0.01234076003311202,0.512340760033112,80.27570969998487,None,80.27570969998487,None,right,13.407096000009915,80.27570969998487,None,80.27570969998487,None,80.27570969998487,None,80.27570969998487,None,80.27570969998487,None,93.74722520000068,None,93.74722520000068,None,0.002611530013382435,0.5026115300133824,93.74722520000068,None,93.74722520000068,None,93.74722520000068,None,93.74722520000068,None,93.74722520000068,None,93.74722520000068,None,97.86397419997957,None,97.86397419997957,None,0.0034540300257503986,0.5034540300257504,97.86397419997957,None,97.86397419997957,None,97.86397419997957,None,97.86397419997957,None,97.86397419997957,None,97.86397419997957,None,8.100000000000001,3.961,103.99885449997964,None,200,,,,,,,,,,,,,,,,,,,f,20,chenlu,2022_Jan_10_0931,emotion,2021.2.3,60.10879691814268,
296,partial,200,0.8,0,0.2,red,200,0.2,50,0.8,blue,red,blue,blue,red,72,72,5,67,5,67,"[-9.3, -1.9]","[9.3, 1.9]","[-6.7, 1.9]","[6.7, -1.9]",0,200,200,50,0,2,2,68,,,,,,,,,,,,,,,,,0.013529259973438457,0.5135292599734385,105.0285268999869,None,105.0285268999869,None,right,4.6587603999942075,105.0285268999869,None,105.0285268999869,None,105.0285268999869,None,105.0285268999869,None,105.0285268999869,None,109.88931440000306,None,109.88931440000306,None,0.010716069984482601,0.5107160699844826,109.88931440000306,None,109.88931440000306,None,109.88931440000306,None,109.88931440000306,None,109.88931440000306,None,109.88931440000306,None,114.1468915999867,None,114.1468915999867,None,0.002938630001153797,0.5029386300011538,114.1468915999867,None,114.1468915999867,None,114.1468915999867,None,114.1468915999867,None,114.1468915999867,None,114.1468915999867,None,21.299999999999997,2.609,118.90611219999846,None,400,,,,,,,,,,,,,,,,,,,f,20,chenlu,2022_Jan_10_0931,emotion,2021.2.3,60.10879691814268,
431,partial,0,0.8,-50,0.2,red,-50,0.2,-200,0.8,red,red,blue,blue,red,72,72,5,67,77,355,"[-9.3, -1.9]","[9.3, 1.9]","[-6.7, 1.9]","[6.7, -1.9]",-50,-200,0,-50,0,3,3,17,,,,,,,,,,,,,,,,,0.013623459992231801,0.5136234599922318,119.93792139997822,None,119.93792139997822,None,left,3.0916664999967907,119.93792139997822,None,119.93792139997822,None,119.93792139997822,None,119.93792139997822,None,119.93792139997822,None,123.09186839999165,None,123.09186839999165,None,0.0012703300162684172,0.5012703300162684,123.09186839999165,None,123.09186839999165,None,123.09186839999165,None,123.09186839999165,None,123.09186839999165,None,123.09186839999165,None,127.4479628999834,None,127.4479628999834,None,0.003259729972342029,0.503259729972342,127.4479628999834,None,127.4479628999834,None,127.4479628999834,None,127.4479628999834,None,127.4479628999834,None,127.4479628999834,None,-6.899999999999999,2.114,131.81479609999224,None,350,,,,,,,,,,,,,,,,,,,f,20,chenlu,2022_Jan_10_0931,emotion,2021.2.3,60.10879691814268,
107,partial,0,0.8,-50,0.2,blue,-50,0.2,-200,0.8,blue,red,blue,blue,red,72,72,77,355,5,67,"[-9.3, -1.9]","[9.3, 1.9]","[-6.7, 1.9]","[6.7, -1.9]",0,-50,-50,-200,0,4,4,14,,,,,,,,,,,,,,,,,0.006067579990485683,0.5060675799904857,132.92106249998324,None,132.92106249998324,None,left,4.61630610001157,132.92106249998324,None,132.92106249998324,None,132.92106249998324,None,132.92106249998324,None,132.92106249998324,None,137.59033049998106,None,137.59033049998106,None,0.0005886300059501082,0.5005886300059501,137.59033049998106,None,137.59033049998106,None,137.59033049998106,None,137.59033049998106,None,137.59033049998106,None,137.59033049998106,None,142.13917310000397,None,142.13917310000397,None,0.0026847299886867404,0.5026847299886867,142.13917310000397,None,142.13917310000397,None,142.13917310000397,None,142.13917310000397,None,142.13917310000397,None,142.13917310000397,None,12.899999999999999,1.64,145.8781851999811,None,350,,,,,,,,,,,,,,,,,,,f,20,chenlu,2022_Jan_10_0931,emotion,2021.2.3,60.10879691814268,
85,partial,0,0.2,-50,0.8,blue,0,0.2,-200,0.8,blue,blue,red,blue,red,72,72,5,67,5,67,"[-6.7, 1.9]","[9.3, 1.9]","[-9.3, -1.9]","[6.7, -1.9]",0,0,-50,-200,0,5,5,0,,,,,,,,,,,,,,,,,0.0007924299861770123,0.500792429986177,146.9092485999863,None,146.9092485999863,None,left,1.7618696999852546,146.9092485999863,None,146.9092485999863,None,146.9092485999863,None,146.9092485999863,None,146.9092485999863,None,148.73674609998125,None,148.73674609998125,None,0.002840130007825792,0.5028401300078258,148.73674609998125,None,148.73674609998125,None,148.73674609998125,None,148.73674609998125,None,148.73674609998125,None,148.73674609998125,None,152.94875270000193,None,152.94875270000193,None,0.0031198299839161336,0.5031198299839161,152.94875270000193,None,152.94875270000193,None,152.94875270000193,None,152.94875270000193,None,152.94875270000193,None,152.94875270000193,None,19.900000000000006,1.555,156.57517949998146,None,350,,,,,,,,,,,,,,,,,,,f,20,chenlu,2022_Jan_10_0931,emotion,2021.2.3,60.10879691814268,
72,partial,50,0.8,0,0.2,blue,200,0.8,50,0.2,blue,red,blue,red,blue,72,72,77,355,77,355,"[-9.3, -1.9]","[6.7, -1.9]","[-6.7, 1.9]","[9.3, 1.9]",50,200,0,50,0,6,6,106,,,,,,,,,,,,,,,,,0.015489359997445717,0.5154893599974457,157.61521639997954,None,157.61521639997954,None,right,1.2362571000121534,157.61521639997954,None,157.61521639997954,None,157.61521639997954,None,157.61521639997954,None,157.61521639997954,None,158.89282529999036,None,158.89282529999036,None,0.002343829983146861,0.5023438299831469,158.89282529999036,None,158.89282529999036,None,158.89282529999036,None,158.89282529999036,None,158.89282529999036,None,158.89282529999036,None,163.1210596000019,None,163.1210596000019,None,0.0042147299682255834,0.5042147299682256,163.1210596000019,None,163.1210596000019,None,163.1210596000019,None,163.1210596000019,None,163.1210596000019,None,163.1210596000019,None,31.700000000000003,2.228,167.51224689997616,None,550,,,,,,,,,,,,,,,,,,,f,20,chenlu,2022_Jan_10_0931,emotion,2021.2.3,60.10879691814268,
195,partial,0,0.2,-50,0.8,blue,0,0.5,-200,0.5,red,blue,red,red,blue,72,180,5,67,5,175,"[-6.7, 1.9]","[6, 0]","[-9.3, -1.9]","[10, 0]",0,-200,-50,0,0,7,7,21,,,,,,,,,,,,,,,,,0.013855060009518638,0.5138550600095186,168.5407418999821,None,168.5407418999821,None,left,1.4000497999950312,168.5407418999821,None,168.5407418999821,None,168.5407418999821,None,168.5407418999821,None,168.5407418999821,None,170.0112157999829,None,170.0112157999829,None,0.0008196299895644188,0.5008196299895644,170.0112157999829,None,170.0112157999829,None,170.0112157999829,None,170.0112157999829,None,170.0112157999829,None,170.0112157999829,None,173.81518279999727,None,173.81518279999727,None,0.0036398300144355744,0.5036398300144356,173.81518279999727,None,173.81518279999727,None,173.81518279999727,None,173.81518279999727,None,173.81518279999727,None,173.81518279999727,None,40.400000000000006,2.544,178.4502802999923,None,550,,,,,,,,,,,,,,,,,,,f,20,chenlu,2022_Jan_10_0931,emotion,2021.2.3,60.10879691814268,
167,partial,50,0.2,0,0.8,blue,200,0.8,0,0.2,red,blue,red,red,blue,72,72,5,67,5,67,"[-6.7, 1.9]","[6.7, -1.9]","[-9.3, -1.9]","[9.3, 1.9]",50,0,0,200,0,8,8,93,,,,,,,,,,,,,,,,,0.012910759978694841,0.5129107599786948,179.49798899999587,None,179.49798899999587,None,right,1.3705819000024348,179.49798899999587,None,179.49798899999587,None,179.49798899999587,None,179.49798899999587,None,179.49798899999587,None,180.92420399998082,None,180.92420399998082,None,0.0029329300159588456,0.5029329300159588,180.92420399998082,None,180.92420399998082,None,180.92420399998082,None,180.92420399998082,None,180.92420399998082,None,180.92420399998082,None,185.40598339997814,None,185.40598339997814,None,0.004939730017213151,0.5049397300172132,185.40598339997814,None,185.40598339997814,None,185.40598339997814,None,185.40598339997814,None,185.40598339997814,None,185.40598339997814,None,-5.899999999999999,1.949,189.49776919998112,None,550,,,,,,,,,,,,,,,,,,,f,20,chenlu,2022_Jan_10_0931,emotion,2021.2.3,60.10879691814268,
88,partial,0,0.8,-50,0.2,blue,0,0.2,-200,0.8,blue,red,blue,blue,red,72,72,77,355,5,67,"[-9.3, -1.9]","[9.3, 1.9]","[-6.7, 1.9]","[6.7, -1.9]",0,0,-50,-200,0,9,9,12,,,,,,,,,,,,,,,,,0.006351589981932193,0.5063515899819322,190.55483719997574,None,190.55483719997574,None,left,1.7116127999906894,190.55483719997574,None,190.55483719997574,None,190.55483719997574,None,190.55483719997574,None,190.55483719997574,None,192.318331699993,None,192.318331699993,None,0.0004742299788631499,0.5004742299788631,192.318331699993,None,192.318331699993,None,192.318331699993,None,192.318331699993,None,192.318331699993,None,192.318331699993,None,196.9254161999852,None,196.9254161999852,None,0.0037232300092000514,0.5037232300092,196.9254161999852,None,196.9254161999852,None,196.9254161999852,None,196.9254161999852,None,196.9254161999852,None,196.9254161999852,None,18.400000000000006,2.02,201.0902043999813,None,550,,,,,,,,,,,,,,,,,,,f,20,chenlu,2022_Jan_10_0931,emotion,2021.2.3,60.10879691814268,
173,partial,50,0.5,0,0.5,blue,200,0.2,50,0.8,red,red,blue,blue,red,180,72,185,355,77,355,"[-10, 0]","[9.3, 1.9]","[-6, 0]","[6.7, -1.9]",50,50,0,200,0,10,10,61,,,,,,,,,,,,,,,,,0.01371419001952745,0.5137141900195275,202.14388319998397,None,202.14388319998397,None,right,1.4889407000155188,202.14388319998397,None,202.14388319998397,None,202.14388319998397,None,202.14388319998397,None,202.14388319998397,None,203.67628439998953,None,203.67628439998953,None,0.0010140299855265766,0.5010140299855266,203.67628439998953,None,203.67628439998953,None,203.67628439998953,None,203.67628439998953,None,203.67628439998953,None,203.67628439998953,None,208.05059579998488,None,208.05059579998488,None,0.0029302299953997135,0.5029302299953997,208.05059579998488,None,208.05059579998488,None,208.05059579998488,None,208.05059579998488,None,208.05059579998488,None,208.05059579998488,None,18.900000000000006,2.654,212.7799713999848,None,600,,,,,,,,,,,,,,,,,,,f,20,chenlu,2022_Jan_10_0931,emotion,2021.2.3,60.10879691814268,
93,partial,0,0.5,-200,0.5,blue,-50,0.8,-200,0.2,blue,red,blue,red,blue,180,72,185,355,77,355,"[-10, 0]","[6.7, -1.9]","[-6, 0]","[9.3, 1.9]",0,-50,-200,-200,0,11,11,46,,,,,,,,,,,,,,,,,0.012472860020352527,0.5124728600203525,213.8111618999974,None,213.8111618999974,None,left,0.9911609999835491,213.8111618999974,None,213.8111618999974,None,213.8111618999974,None,213.8111618999974,None,213.8111618999974,None,214.8697392999893,None,214.8697392999893,None,0.0019197299843654037,0.5019197299843654,214.8697392999893,None,214.8697392999893,None,214.8697392999893,None,214.8697392999893,None,214.8697392999893,None,214.8697392999893,None,219.54455479999888,None,219.54455479999888,None,0.0027425299922470003,0.502742529992247,219.54455479999888,None,219.54455479999888,None,219.54455479999888,None,219.54455479999888,None,219.54455479999888,None,219.54455479999888,None,30.900000000000006,2.56,224.2897219999868,None,600,,,,,,,,,,,,,,,,,,,f,20,chenlu,2022_Jan_10_0931,emotion,2021.2.3,60.10879691814268,
428,partial,0,0.2,-50,0.8,red,-50,0.2,-200,0.8,red,blue,red,blue,red,72,72,77,355,77,355,"[-6.7, 1.9]","[9.3, 1.9]","[-9.3, -1.9]","[6.7, -1.9]",-50,-200,0,-50,0,12,12,5,,,,,,,,,,,,,,,,,0.0005700299807358533,0.5005700299807359,225.31451299999026,None,225.31451299999026,None,left,2.5884053999907337,225.31451299999026,None,225.31451299999026,None,225.31451299999026,None,225.31451299999026,None,225.31451299999026,None,227.96929189999355,None,227.96929189999355,None,0.001389129989547655,0.5013891299895477,227.96929189999355,None,227.96929189999355,None,227.96929189999355,None,227.96929189999355,None,227.96929189999355,None,227.96929189999355,None,232.45514479998383,None,232.45514479998383,None,0.004126930027268827,0.5041269300272688,232.45514479998383,None,232.45514479998383,None,232.45514479998383,None,232.45514479998383,None,232.45514479998383,None,232.45514479998383,None,-8.100000000000001,1.706,236.24832980000065,None,550,,,,,,,,,,,,,,,,,,,f,20,chenlu,2022_Jan_10_0931,emotion,2021.2.3,60.10879691814268,
75,partial,200,0.5,0,0.5,blue,200,0.8,50,0.2,blue,red,blue,red,blue,180,72,185,355,77,355,"[-10, 0]","[6.7, -1.9]","[-6, 0]","[9.3, 1.9]",200,200,0,50,0,13,13,98,,,,,,,,,,,,,,,,,0.014528460014844313,0.5145284600148443,237.27077380000264,None,237.27077380000264,None,left,5.540375399985351,237.27077380000264,None,237.27077380000264,None,237.27077380000264,None,237.27077380000264,None,237.27077380000264,None,242.88069339998765,None,242.88069339998765,None,0.0026182300061918795,0.5026182300061919,242.88069339998765,None,242.88069339998765,None,242.88069339998765,None,242.88069339998765,None,242.88069339998765,None,242.88069339998765,None,247.08898359999876,None,247.08898359999876,None,0.006151549983769655,0.5061515499837697,247.08898359999876,None,247.08898359999876,None,247.08898359999876,None,247.08898359999876,None,247.08898359999876,None,247.08898359999876,None,21.799999999999997,1.868,251.05833569998504,None,750,,,,,,,,,,,,,,,,,,,f,20,chenlu,2022_Jan_10_0931,emotion,2021.2.3,60.10879691814268,
64,partial,50,0.5,0,0.5,blue,200,0.5,50,0.5,blue,red,blue,red,blue,180,180,185,355,185,355,"[-10, 0]","[6, 0]","[-6, 0]","[10, 0]",50,200,0,50,0,14,14,82,,,,,,,,,,,,,,,,,0.009040360018843785,0.5090403600188438,252.08826930000214,None,252.08826930000214,None,right,1.5865795999998227,252.08826930000214,None,252.08826930000214,None,252.08826930000214,None,252.08826930000214,None,252.08826930000214,None,253.72621289998642,None,253.72621289998642,None,0.0011161300062667578,0.5011161300062668,253.72621289998642,None,253.72621289998642,None,253.72621289998642,None,253.72621289998642,None,253.72621289998642,None,253.72621289998642,None,258.10499490000075,None,258.10499490000075,None,0.0030457300308626145,0.5030457300308626,258.10499490000075,None,258.10499490000075,None,258.10499490000075,None,258.10499490000075,None,258.10499490000075,None,258.10499490000075,None,26.5,1.556,261.84077549999347,None,950,,,,,,,,,,,,,,,,,,,f,20,chenlu,2022_Jan_10_0931,emotion,2021.2.3,60.10879691814268,
108,partial,0,0.8,-50,0.2,blue,-50,0.8,-200,0.2,blue,red,blue,red,blue,72,72,77,355,77,355,"[-9.3, -1.9]","[6.7, -1.9]","[-6.7, 1.9]","[9.3, 1.9]",0,-50,-50,-200,0,15,15,50,,,,,,,,,,,,,,,,,0.013075960014248267,0.5130759600142483,262.87145219999366,None,262.87145219999366,None,left,2.059342499997001,262.87145219999366,None,262.87145219999366,None,262.87145219999366,None,262.87145219999366,None,262.87145219999366,None,264.98583119999967,None,264.98583119999967,None,0.001928729994688183,0.5019287299946882,264.98583119999967,None,264.98583119999967,None,264.98583119999967,None,264.98583119999967,None,264.98583119999967,None,264.98583119999967,None,269.0963850999833,None,269.0963850999833,None,0.00346702997921966,0.5034670299792197,269.0963850999833,None,269.0963850999833,None,269.0963850999833,None,269.0963850999833,None,269.0963850999833,None,269.0963850999833,None,3.0,1.554,272.742597000004,None,950,,,,,,,,,,,,,,,,,,,f,20,chenlu,2022_Jan_10_0931,emotion,2021.2.3,60.10879691814268,
393,partial,50,0.2,0,0.8,red,200,0.8,50,0.2,red,blue,red,red,blue,72,72,77,355,5,67,"[-6.7, 1.9]","[6.7, -1.9]","[-9.3, -1.9]","[9.3, 1.9]",0,50,50,200,0,16,16,91,,,,,,,,,,,,,,,,,0.016553359950194135,0.5165533599501941,273.7759101999982,None,273.7759101999982,None,right,1.6926987000042573,273.7759101999982,None,273.7759101999982,None,273.7759101999982,None,273.7759101999982,None,273.7759101999982,None,275.53339759999653,None,275.53339759999653,None,0.0010977299825754017,0.5010977299825754,275.53339759999653,None,275.53339759999653,None,275.53339759999653,None,275.53339759999653,None,275.53339759999653,None,275.53339759999653,None,279.87190759999794,None,279.87190759999794,None,0.0033307299891021103,0.5033307299891021,279.87190759999794,None,279.87190759999794,None,279.87190759999794,None,279.87190759999794,None,279.87190759999794,None,279.87190759999794,None,0.0,3.528,285.4735990999907,None,1000,,,,,,,,,,,,,,,,,,,f,20,chenlu,2022_Jan_10_0931,emotion,2021.2.3,60.10879691814268,
297,partial,200,0.8,0,0.2,red,200,0.8,50,0.2,blue,red,blue,red,blue,72,72,5,67,77,355,"[-9.3, -1.9]","[6.7, -1.9]","[-6.7, 1.9]","[9.3, 1.9]",0,200,200,50,0,17,17,104,,,,,,,,,,,,,,,,,0.008720579993678257,0.5087205799936783,286.59068239998305,None,286.59068239998305,None,right,1.5429861999873538,286.59068239998305,None,286.59068239998305,None,286.59068239998305,None,286.59068239998305,None,286.59068239998305,None,288.18017429998145,None,288.18017429998145,None,0.0032710300001781434,0.5032710300001781,288.18017429998145,None,288.18017429998145,None,288.18017429998145,None,288.18017429998145,None,288.18017429998145,None,288.18017429998145,None,292.00081430000137,None,292.00081430000137,None,0.0026468299911357462,0.5026468299911357,292.00081430000137,None,292.00081430000137,None,292.00081430000137,None,292.00081430000137,None,292.00081430000137,None,292.00081430000137,None,3.5,2.602,296.6933833999792,None,1200,,,,,,,,,,,,,,,,,,,f,20,chenlu,2022_Jan_10_0931,emotion,2021.2.3,60.10879691814268,
74,partial,200,0.5,0,0.5,blue,200,0.2,50,0.8,blue,red,blue,blue,red,180,72,185,355,5,67,"[-10, 0]","[9.3, 1.9]","[-6, 0]","[6.7, -1.9]",200,200,0,50,0,18,18,62,,,,,,,,,,,,,,,,,0.014130660012597218,0.5141306600125972,297.72870690000127,None,297.72870690000127,None,right,1.5761949000007007,297.72870690000127,None,297.72870690000127,None,297.72870690000127,None,297.72870690000127,None,297.72870690000127,None,299.36644149999483,None,299.36644149999483,None,0.0016886299999896437,0.5016886299999896,299.36644149999483,None,299.36644149999483,None,299.36644149999483,None,299.36644149999483,None,299.36644149999483,None,299.36644149999483,None,303.1512484999839,None,303.1512484999839,None,0.005183529981877655,0.5051835299818777,303.1512484999839,None,303.1512484999839,None,303.1512484999839,None,303.1512484999839,None,303.1512484999839,None,303.1512484999839,None,14.799999999999997,1.614,307.12640529999044,None,1400,,,,,,,,,,,,,,,,,,,f,20,chenlu,2022_Jan_10_0931,emotion,2021.2.3,60.10879691814268,
55,partial,50,0.5,0,0.5,blue,200,0.2,0,0.8,blue,red,blue,blue,red,180,72,185,355,5,67,"[-10, 0]","[9.3, 1.9]","[-6, 0]","[6.7, -1.9]",50,200,0,0,0,19,19,60,,,,,,,,,,,,,,,,,0.0023850600118748844,0.5023850600118749,307.9829721999995,None,307.9829721999995,None,right,1.2502056999946944,307.9829721999995,None,307.9829721999995,None,307.9829721999995,None,307.9829721999995,None,307.9829721999995,None,309.2859939999762,None,309.2859939999762,None,0.00034492998383939266,0.5003449299838394,309.2859939999762,None,309.2859939999762,None,309.2859939999762,None,309.2859939999762,None,309.2859939999762,None,309.2859939999762,None,313.11868769998546,None,313.11868769998546,None,0.003627430007327348,0.5036274300073273,313.11868769998546,None,313.11868769998546,None,313.11868769998546,None,313.11868769998546,None,313.11868769998546,None,313.11868769998546,None,27.099999999999994,2.426,317.68417699998827,None,1600,,,,,,,,,,,,,,,,,,,f,20,chenlu,2022_Jan_10_0931,emotion,2021.2.3,60.10879691814268,
166,partial,50,0.2,0,0.8,blue,200,0.2,0,0.8,red,blue,red,blue,red,72,72,5,67,77,355,"[-6.7, 1.9]","[9.3, 1.9]","[-9.3, -1.9]","[6.7, -1.9]",50,0,0,200,0,20,20,57,,,,,,,,,,,,,,,,,0.01421336000203155,0.5142133600020315,318.6904284999764,None,318.6904284999764,None,right,0.9928021999949124,318.6904284999764,None,318.6904284999764,None,318.6904284999764,None,318.6904284999764,None,318.6904284999764,None,319.73116799999843,None,319.73116799999843,None,0.0020740299951285124,0.5020740299951285,319.73116799999843,None,319.73116799999843,None,319.73116799999843,None,319.73116799999843,None,319.73116799999843,None,319.73116799999843,None,323.796626299998,None,323.796626299998,None,0.003994730010163039,0.503994730010163,323.796626299998,None,323.796626299998,None,323.796626299998,None,323.796626299998,None,323.796626299998,None,323.796626299998,None,-2.200000000000003,4.404,330.2928350000002,None,1600,,,,,,,,,,,,,,,,,,,f,20,chenlu,2022_Jan_10_0931,emotion,2021.2.3,60.10879691814268,
214,partial,0,0.8,-50,0.2,blue,-50,0.5,-200,0.5,red,red,blue,red,blue,72,180,77,355,5,175,"[-9.3, -1.9]","[6, 0]","[-6.7, 1.9]","[10, 0]",0,-200,-50,-50,0,21,21,35,,,,,,,,,,,,,,,,,0.01622655999381095,0.516226559993811,331.3346687000012,None,331.3346687000012,None,left,3.1547537999867927,331.3346687000012,None,331.3346687000012,None,331.3346687000012,None,331.3346687000012,None,331.3346687000012,None,334.5332933999889,None,334.5332933999889,None,0.002467530022840947,0.502467530022841,334.5332933999889,None,334.5332933999889,None,334.5332933999889,None,334.5332933999889,None,334.5332933999889,None,334.5332933999889,None,338.87123879999854,None,338.87123879999854,None,0.0030616299773100764,0.5030616299773101,338.87123879999854,None,338.87123879999854,None,338.87123879999854,None,338.87123879999854,None,338.87123879999854,None,338.87123879999854,None,9.5,1.657,342.59928070000024,None,1600,,,,,,,,,,,,,,,,,,,f,20,chenlu,2022_Jan_10_0931,emotion,2021.2.3,60.10879691814268,
199,partial,0,0.5,-200,0.5,blue,-50,0.5,-200,0.5,red,red,blue,red,blue,180,180,185,355,5,175,"[-10, 0]","[6, 0]","[-6, 0]","[10, 0]",0,-200,-200,-50,0,22,22,25,,,,,,,,,,,,,,,,,0.00027653001598082483,0.5002765300159808,343.63790800000424,None,343.63790800000424,None,left,3.3990580000099726,343.63790800000424,None,343.63790800000424,None,343.63790800000424,None,343.63790800000424,None,343.63790800000424,None,347.08239440000034,None,347.08239440000034,None,0.001232730021001771,0.5012327300210018,347.08239440000034,None,347.08239440000034,None,347.08239440000034,None,347.08239440000034,None,347.08239440000034,None,347.08239440000034,None,351.09519689998706,None,351.09519689998706,None,0.002337329991860315,0.5023373299918603,351.09519689998706,None,351.09519689998706,None,351.09519689998706,None,351.09519689998706,None,351.09519689998706,None,351.09519689998706,None,12.5,1.601,354.75005780000356,None,1600,,,,,,,,,,,,,,,,,,,f,20,chenlu,2022_Jan_10_0931,emotion,2021.2.3,60.10879691814268,
211,partial,0,0.2,-50,0.8,blue,-50,0.5,-200,0.5,red,blue,red,red,blue,72,180,5,67,5,175,"[-6.7, 1.9]","[6, 0]","[-9.3, -1.9]","[10, 0]",0,-200,-50,-50,0,23,23,23,,,,,,,,,,,,,,,,,0.011125090008135885,0.5111250900081359,355.8042625999951,None,355.8042625999951,None,left,2.8938151000184007,355.8042625999951,None,355.8042625999951,None,355.8042625999951,None,355.8042625999951,None,355.8042625999951,None,358.8281965999922,None,358.8281965999922,None,0.014787560008699074,0.5147875600086991,358.8281965999922,None,358.8281965999922,None,358.8281965999922,None,358.8281965999922,None,358.8281965999922,None,358.8281965999922,None,362.88989029999357,None,362.88989029999357,None,0.004105530009837821,0.5041055300098378,362.88989029999357,None,362.88989029999357,None,362.88989029999357,None,362.88989029999357,None,362.88989029999357,None,362.88989029999357,None,11.0,1.422,366.36036969997804,None,1600,,,,,,,,,,,,,,,,,,,f,20,chenlu,2022_Jan_10_0931,emotion,2021.2.3,60.10879691814268,
165,partial,50,0.5,0,0.5,blue,200,0.5,0,0.5,red,red,blue,red,blue,180,180,185,355,5,175,"[-10, 0]","[6, 0]","[-6, 0]","[10, 0]",50,0,0,200,0,24,24,81,,,,,,,,,,,,,,,,,0.000581930042244494,0.5005819300422445,367.4039761000022,None,367.4039761000022,None,right,1.6909517999738455,367.4039761000022,None,367.4039761000022,None,367.4039761000022,None,367.4039761000022,None,367.4039761000022,None,369.1451128000044,None,369.1451128000044,None,0.0008952300122473389,0.5008952300122473,369.1451128000044,None,369.1451128000044,None,369.1451128000044,None,369.1451128000044,None,369.1451128000044,None,369.1451128000044,None,373.3786925000022,None,373.3786925000022,None,0.00455162997241132,0.5045516299724113,373.3786925000022,None,373.3786925000022,None,373.3786925000022,None,373.3786925000022,None,373.3786925000022,None,373.3786925000022,None,-0.29999999999999716,6.287,381.715297799994,None,1600,,,,,,,,,,,,,,,,,,,f,20,chenlu,2022_Jan_10_0931,emotion,2021.2.3,60.10879691814268,
303,partial,0,0.2,-50,0.8,red,0,0.5,-200,0.5,blue,blue,red,red,blue,72,180,77,355,185,355,"[-6.7, 1.9]","[6, 0]","[-9.3, -1.9]","[10, 0]",-50,0,0,-200,0,25,25,18,,,,,,,,,,,,,,,,,0.0005689300014637411,0.5005689300014637,382.74515879998216,None,382.74515879998216,None,left,1.4870624000031967,382.74515879998216,None,382.74515879998216,None,382.74515879998216,None,382.74515879998216,None,382.74515879998216,None,384.3006555000029,None,384.3006555000029,None,0.0027448299806565046,0.5027448299806565,384.3006555000029,None,384.3006555000029,None,384.3006555000029,None,384.3006555000029,None,384.3006555000029,None,384.3006555000029,None,388.5490004000021,None,388.5490004000021,None,0.004805530013982207,0.5048055300139822,388.5490004000021,None,388.5490004000021,None,388.5490004000021,None,388.5490004000021,None,388.5490004000021,None,388.5490004000021,None,-3.299999999999997,1.628,392.25001779999,None,1550,,,,,,,,,,,,,,,,,,,f,20,chenlu,2022_Jan_10_0931,emotion,2021.2.3,60.10879691814268,
60,partial,50,0.2,0,0.8,blue,200,0.5,0,0.5,blue,blue,red,red,blue,72,180,5,67,185,355,"[-6.7, 1.9]","[6, 0]","[-9.3, -1.9]","[10, 0]",50,200,0,0,0,26,26,72,,,,,,,,,,,,,,,,,0.01381476002279669,0.5138147600227967,393.2740113000036,None,393.2740113000036,None,right,1.0859455000027083,393.2740113000036,None,393.2740113000036,None,393.2740113000036,None,393.2740113000036,None,393.2740113000036,None,394.4144422999816,None,394.4144422999816,None,0.0009425300231669098,0.5009425300231669,394.4144422999816,None,394.4144422999816,None,394.4144422999816,None,394.4144422999816,None,394.4144422999816,None,394.4144422999816,None,398.3533983999805,None,398.3533983999805,None,0.004617230006260797,0.5046172300062608,398.3533983999805,None,398.3533983999805,None,398.3533983999805,None,398.3533983999805,None,398.3533983999805,None,398.3533983999805,None,14.0,1.618,402.18163189999177,None,1750,,,,,,,,,,,,,,,,,,,f,20,chenlu,2022_Jan_10_0931,emotion,2021.2.3,60.10879691814268,
417,partial,0,0.5,-200,0.5,red,-50,0.8,-200,0.2,red,red,blue,red,blue,180,72,5,175,5,67,"[-10, 0]","[6.7, -1.9]","[-6, 0]","[9.3, 1.9]",-200,-200,0,-50,0,27,27,43,,,,,,,,,,,,,,,,,0.011732660001143813,0.5117326600011438,403.2021301999921,None,403.2021301999921,None,right,7.306422099994961,403.2021301999921,None,403.2021301999921,None,403.2021301999921,None,403.2021301999921,None,403.2021301999921,None,410.553116199997,None,410.553116199997,None,0.0002436299982946366,0.5002436299982946,410.553116199997,None,410.553116199997,None,410.553116199997,None,410.553116199997,None,410.553116199997,None,410.553116199997,None,414.6079641999968,None,414.6079641999968,None,0.0029894299805164337,0.5029894299805164,414.6079641999968,None,414.6079641999968,None,414.6079641999968,None,414.6079641999968,None,414.6079641999968,None,414.6079641999968,None,-32.4,1.944,418.6708116999944,None,1550,,,,,,,,,,,,,,,,,,,f,20,chenlu,2022_Jan_10_0931,emotion,2021.2.3,60.10879691814268,
209,partial,0,0.5,-50,0.5,blue,-50,0.2,-200,0.8,red,red,blue,blue,red,180,72,185,355,77,355,"[-10, 0]","[9.3, 1.9]","[-6, 0]","[6.7, -1.9]",0,-200,-50,-50,0,28,28,11,,,,,,,,,,,,,,,,,0.014916960004484281,0.5149169600044843,419.6914413999766,None,419.6914413999766,None,left,1.733574600017164,419.6914413999766,None,419.6914413999766,None,419.6914413999766,None,419.6914413999766,None,419.6914413999766,None,421.48763479999616,None,421.48763479999616,None,0.0029351300036069006,0.5029351300036069,421.48763479999616,None,421.48763479999616,None,421.48763479999616,None,421.48763479999616,None,421.48763479999616,None,421.48763479999616,None,425.6653682999895,None,425.6653682999895,None,0.0031225299753714353,0.5031225299753714,425.6653682999895,None,425.6653682999895,None,425.6653682999895,None,425.6653682999895,None,425.6653682999895,None,425.6653682999895,None,6.0,1.318,429.0979548000032,None,1550,,,,,,,,,,,,,,,,,,,f,20,chenlu,2022_Jan_10_0931,emotion,2021.2.3,60.10879691814268,
424,partial,0,0.5,-50,0.5,red,-50,0.5,-200,0.5,red,red,blue,red,blue,180,180,5,175,5,175,"[-10, 0]","[6, 0]","[-6, 0]","[10, 0]",-50,-200,0,-50,0,29,29,29,,,,,,,,,,,,,,,,,0.012987290014280006,0.51298729001428,430.16011569998227,None,430.16011569998227,None,left,1.5462041000137106,430.16011569998227,None,430.16011569998227,None,430.16011569998227,None,430.16011569998227,None,430.16011569998227,None,431.7742961999902,None,431.7742961999902,None,0.002569329983089119,0.5025693299830891,431.7742961999902,None,431.7742961999902,None,431.7742961999902,None,431.7742961999902,None,431.7742961999902,None,431.7742961999902,None,436.1013019999955,None,436.1013019999955,None,0.003225029999157414,0.5032250299991574,436.1013019999955,None,436.1013019999955,None,436.1013019999955,None,436.1013019999955,None,436.1013019999955,None,436.1013019999955,None,-2.5,1.573,439.82792849998805,None,1500,,,,,,,,,,,,,,,,,,,f,20,chenlu,2022_Jan_10_0931,emotion,2021.2.3,60.10879691814268,
56,partial,50,0.5,0,0.5,blue,200,0.8,0,0.2,blue,red,blue,red,blue,180,72,185,355,77,355,"[-10, 0]","[6.7, -1.9]","[-6, 0]","[9.3, 1.9]",50,200,0,0,0,30,30,96,,,,,,,,,,,,,,,,,0.006218490016181022,0.506218490016181,440.89009939998505,None,440.89009939998505,None,right,1.333569800015539,440.89009939998505,None,440.89009939998505,None,440.89009939998505,None,440.89009939998505,None,440.89009939998505,None,442.2685400999908,None,442.2685400999908,None,0.0027389299939386547,0.5027389299939387,442.2685400999908,None,442.2685400999908,None,442.2685400999908,None,442.2685400999908,None,442.2685400999908,None,442.2685400999908,None,446.73093719998724,None,446.73093719998724,None,0.002961529971798882,0.5029615299717989,446.73093719998724,None,446.73093719998724,None,446.73093719998724,None,446.73093719998724,None,446.73093719998724,None,446.73093719998724,None,2.200000000000003,1.794,450.6821385999792,None,1700,,,,,,,,,,,,,,,,,,,f,20,chenlu,2022_Jan_10_0931,emotion,2021.2.3,60.10879691814268,
314,partial,0,0.8,-200,0.2,red,-50,0.2,-200,0.8,blue,red,blue,blue,red,72,72,5,67,5,67,"[-9.3, -1.9]","[9.3, 1.9]","[-6.7, 1.9]","[6.7, -1.9]",-200,-50,0,-200,0,31,31,16,,,,,,,,,,,,,,,,,0.012756559968693182,0.5127565599686932,451.7111589999986,None,451.7111589999986,None,left,2.731120100012049,451.7111589999986,None,451.7111589999986,None,451.7111589999986,None,451.7111589999986,None,451.7111589999986,None,454.5048714999866,None,454.5048714999866,None,0.0024683300289325416,0.5024683300289325,454.5048714999866,None,454.5048714999866,None,454.5048714999866,None,454.5048714999866,None,454.5048714999866,None,454.5048714999866,None,458.8088814999792,None,458.8088814999792,None,0.0040243300318252295,0.5040243300318252,458.8088814999792,None,458.8088814999792,None,458.8088814999792,None,458.8088814999792,None,458.8088814999792,None,458.8088814999792,None,-20.2,2.356,463.2784119999851,None,1500,,,,,,,,,,,,,,,,,,,f,20,chenlu,2022_Jan_10_0931,emotion,2021.2.3,60.10879691814268,
100,partial,0,0.5,-50,0.5,blue,-50,0.5,-200,0.5,blue,red,blue,red,blue,180,180,185,355,185,355,"[-10, 0]","[6, 0]","[-6, 0]","[10, 0]",0,-50,-50,-200,0,32,32,26,,,,,,,,,,,,,,,,,0.013260860025184229,0.5132608600251842,464.30067869997583,None,464.30067869997583,None,left,2.638799700012896,464.30067869997583,None,464.30067869997583,None,464.30067869997583,None,464.30067869997583,None,464.30067869997583,None,466.9904527000035,None,466.9904527000035,None,0.0018421299755573273,0.5018421299755573,466.9904527000035,None,466.9904527000035,None,466.9904527000035,None,466.9904527000035,None,466.9904527000035,None,466.9904527000035,None,471.3649600999779,None,471.3649600999779,None,0.002949129993794486,0.5029491299937945,471.3649600999779,None,471.3649600999779,None,471.3649600999779,None,471.3649600999779,None,471.3649600999779,None,471.3649600999779,None,3.700000000000003,3.652,477.2007925999933,None,1500,,,,,,,,,,,,,,,,,,,f,20,chenlu,2022_Jan_10_0931,emotion,2021.2.3,60.10879691814268,
395,partial,50,0.8,0,0.2,red,200,0.2,50,0.8,red,red,blue,blue,red,72,72,5,67,77,355,"[-9.3, -1.9]","[9.3, 1.9]","[-6.7, 1.9]","[6.7, -1.9]",0,50,50,200,0,33,33,67,,,,,,,,,,,,,,,,,0.013541259977500886,0.5135412599775009,478.22979280000436,None,478.22979280000436,None,right,1.4838557000039145,478.22979280000436,None,478.22979280000436,None,478.22979280000436,None,478.22979280000436,None,478.22979280000436,None,479.77202889998443,None,479.77202889998443,None,0.0028919300239067525,0.5028919300239068,479.77202889998443,None,479.77202889998443,None,479.77202889998443,None,479.77202889998443,None,479.77202889998443,None,479.77202889998443,None,484.40402409998933,None,484.40402409998933,None,0.005524029984371737,0.5055240299843717,484.40402409998933,None,484.40402409998933,None,484.40402409998933,None,484.40402409998933,None,484.40402409998933,None,484.40402409998933,None,4.200000000000003,1.908,488.3798688999959,None,1550,,,,,,,,,,,,,,,,,,,f,20,chenlu,2022_Jan_10_0931,emotion,2021.2.3,60.10879691814268,
410,partial,0,0.2,-50,0.8,red,0,0.8,-200,0.2,red,blue,red,red,blue,72,72,77,355,5,67,"[-6.7, 1.9]","[6.7, -1.9]","[-9.3, -1.9]","[9.3, 1.9]",-50,-200,0,0,0,34,34,39,,,,,,,,,,,,,,,,,0.013828379975166172,0.5138283799751662,489.48428459998104,None,489.48428459998104,None,left,8.449502100003883,489.48428459998104,None,489.48428459998104,None,489.48428459998104,None,489.48428459998104,None,489.48428459998104,None,497.99560639998526,None,497.99560639998526,None,0.0008000300149433315,0.5008000300149433,497.99560639998526,None,497.99560639998526,None,497.99560639998526,None,497.99560639998526,None,497.99560639998526,None,497.99560639998526,None,502.2853152999887,None,502.2853152999887,None,0.0025995599571615458,0.5025995599571615,502.2853152999887,None,502.2853152999887,None,502.2853152999887,None,502.2853152999887,None,502.2853152999887,None,502.2853152999887,None,-3.6000000000000014,2.334,506.79284029998234,None,1500,,,,,,,,,,,,,,,,,,,f,20,chenlu,2022_Jan_10_0931,emotion,2021.2.3,60.10879691814268,
286,partial,50,0.8,0,0.2,red,200,0.5,50,0.5,blue,red,blue,red,blue,72,180,5,67,185,355,"[-9.3, -1.9]","[6, 0]","[-6.7, 1.9]","[10, 0]",0,200,50,50,0,35,35,88,,,,,,,,,,,,,,,,,0.008753759990213439,0.5087537599902134,507.78182169998763,None,507.78182169998763,None,right,1.1981495000072755,507.78182169998763,None,507.78182169998763,None,507.78182169998763,None,507.78182169998763,None,507.78182169998763,None,509.0259250999952,None,509.0259250999952,None,0.0016253300127573311,0.5016253300127573,509.0259250999952,None,509.0259250999952,None,509.0259250999952,None,509.0259250999952,None,509.0259250999952,None,509.0259250999952,None,513.6117798999767,None,513.6117798999767,None,0.001988630014238879,0.5019886300142389,513.6117798999767,None,513.6117798999767,None,513.6117798999767,None,513.6117798999767,None,513.6117798999767,None,513.6117798999767,None,14.099999999999994,1.584,517.2855872999935,None,1700,,,,,,,,,,,,,,,,,,,f,20,chenlu,2022_Jan_10_0931,emotion,2021.2.3,60.10879691814268,
86,partial,0,0.2,-50,0.8,blue,0,0.8,-200,0.2,blue,blue,red,red,blue,72,72,5,67,77,355,"[-6.7, 1.9]","[6.7, -1.9]","[-9.3, -1.9]","[9.3, 1.9]",0,0,-50,-200,0,36,36,36,,,,,,,,,,,,,,,,,0.008171210007276386,0.5081712100072764,518.415728299995,None,518.415728299995,None,left,4.922414500004379,518.415728299995,None,518.415728299995,None,518.415728299995,None,518.415728299995,None,518.415728299995,None,523.387518100004,None,523.387518100004,None,0.0011452300241217017,0.5011452300241217,523.387518100004,None,523.387518100004,None,523.387518100004,None,523.387518100004,None,523.387518100004,None,523.387518100004,None,527.9070379000041,None,527.9070379000041,None,0.015730249986518174,0.5157302499865182,527.9070379000041,None,527.9070379000041,None,527.9070379000041,None,527.9070379000041,None,527.9070379000041,None,527.9070379000041,None,8.0,1.875,531.864938099985,None,1700,,,,,,,,,,,,,,,,,,,f,20,chenlu,2022_Jan_10_0931,emotion,2021.2.3,60.10879691814268,
408,partial,0,0.5,-50,0.5,red,0,0.5,-200,0.5,red,red,blue,red,blue,180,180,5,175,5,175,"[-10, 0]","[6, 0]","[-6, 0]","[10, 0]",-50,-200,0,0,0,37,37,27,,,,,,,,,,,,,,,,,0.015530559961916879,0.5155305599619169,532.9060251999763,None,532.9060251999763,None,left,1.73232349997852,532.9060251999763,None,532.9060251999763,None,532.9060251999763,None,532.9060251999763,None,532.9060251999763,None,534.7127231999766,None,534.7127231999766,None,0.0011761299974750727,0.5011761299974751,534.7127231999766,None,534.7127231999766,None,534.7127231999766,None,534.7127231999766,None,534.7127231999766,None,534.7127231999766,None,539.3807842999813,None,539.3807842999813,None,0.0045677300076931715,0.5045677300076932,539.3807842999813,None,539.3807842999813,None,539.3807842999813,None,539.3807842999813,None,539.3807842999813,None,539.3807842999813,None,5.0,1.816,543.2584911999875,None,1650,,,,,,,,,,,,,,,,,,,f,20,chenlu,2022_Jan_10_0931,emotion,2021.2.3,60.10879691814268,
198,partial,0,0.8,-50,0.2,blue,0,0.5,-200,0.5,red,red,blue,red,blue,72,180,77,355,5,175,"[-9.3, -1.9]","[6, 0]","[-6.7, 1.9]","[10, 0]",0,-200,-50,0,0,38,38,33,,,,,,,,,,,,,,,,,0.014271210005972534,0.5142712100059725,544.376729599986,None,544.376729599986,None,left,1.6575898999872152,544.376729599986,None,544.376729599986,None,544.376729599986,None,544.376729599986,None,544.376729599986,None,546.112825499993,None,546.112825499993,None,0.0019547599949873984,0.5019547599949874,546.112825499993,None,546.112825499993,None,546.112825499993,None,546.112825499993,None,546.112825499993,None,546.112825499993,None,550.2839184999757,None,550.2839184999757,None,0.0024824300198815763,0.5024824300198816,550.2839184999757,None,550.2839184999757,None,550.2839184999757,None,550.2839184999757,None,550.2839184999757,None,550.2839184999757,None,3.0,2.147,554.5924568999908,None,1650,,,,,,,,,,,,,,,,,,,f,20,chenlu,2022_Jan_10_0931,emotion,2021.2.3,60.10879691814268,
412,partial,0,0.8,-50,0.2,red,0,0.2,-200,0.8,red,red,blue,blue,red,72,72,5,67,77,355,"[-9.3, -1.9]","[9.3, 1.9]","[-6.7, 1.9]","[6.7, -1.9]",-50,-200,0,0,0,39,39,15,,,,,,,,,,,,,,,,,0.0004661299753934145,0.5004661299753934,555.632005499996,None,555.632005499996,None,left,1.2504617999948096,555.632005499996,None,555.632005499996,None,555.632005499996,None,555.632005499996,None,555.632005499996,None,556.925719699997,None,556.925719699997,None,0.0020545300212688744,0.5020545300212689,556.925719699997,None,556.925719699997,None,556.925719699997,None,556.925719699997,None,556.925719699997,None,556.925719699997,None,561.0070007999893,None,561.0070007999893,None,0.0037644300027750432,0.503764430002775,561.0070007999893,None,561.0070007999893,None,561.0070007999893,None,561.0070007999893,None,561.0070007999893,None,561.0070007999893,None,-3.8999999999999986,1.699,564.7883517000009,None,1600,,,,,,,,,,,,,,,,,,,f,20,chenlu,2022_Jan_10_0931,emotion,2021.2.3,60.10879691814268,
188,partial,200,0.8,0,0.2,blue,200,0.2,50,0.8,red,red,blue,blue,red,72,72,77,355,77,355,"[-9.3, -1.9]","[9.3, 1.9]","[-6.7, 1.9]","[6.7, -1.9]",200,50,0,200,0,40,40,71,,,,,,,,,,,,,,,,,0.009619569987989962,0.50961956998799,565.9337561999855,None,565.9337561999855,None,left,7.862310600001365,565.9337561999855,None,565.9337561999855,None,565.9337561999855,None,565.9337561999855,None,565.9337561999855,None,573.8559921999986,None,573.8559921999986,None,0.0010038299951702356,0.5010038299951702,573.8559921999986,None,573.8559921999986,None,573.8559921999986,None,573.8559921999986,None,573.8559921999986,None,573.8559921999986,None,578.0866969999915,None,578.0866969999915,None,0.003104730014456436,0.5031047300144564,578.0866969999915,None,578.0866969999915,None,578.0866969999915,None,578.0866969999915,None,578.0866969999915,None,578.0866969999915,None,16.200000000000003,1.6,581.783675499988,None,1800,,,,,,,,,,,,,,,,,,,f,20,chenlu,2022_Jan_10_0931,emotion,2021.2.3,60.10879691814268,
169,partial,50,0.8,0,0.2,blue,200,0.2,0,0.8,red,red,blue,blue,red,72,72,77,355,77,355,"[-9.3, -1.9]","[9.3, 1.9]","[-6.7, 1.9]","[6.7, -1.9]",50,0,0,200,0,41,41,69,,,,,,,,,,,,,,,,,0.013930960005382076,0.5139309600053821,582.8059165999875,None,582.8059165999875,None,right,2.9754674000141677,582.8059165999875,None,582.8059165999875,None,582.8059165999875,None,582.8059165999875,None,582.8059165999875,None,585.8288044999936,None,585.8288044999936,None,0.0009530300158075988,0.5009530300158076,585.8288044999936,None,585.8288044999936,None,585.8288044999936,None,585.8288044999936,None,585.8288044999936,None,585.8288044999936,None,589.804389500001,None,589.804389500001,None,0.0032320299942512065,0.5032320299942512,589.804389500001,None,589.804389500001,None,589.804389500001,None,589.804389500001,None,589.804389500001,None,589.804389500001,None,0.0,2.428,594.3361680999806,None,1800,,,,,,,,,,,,,,,,,,,f,20,chenlu,2022_Jan_10_0931,emotion,2021.2.3,60.10879691814268,
69,partial,50,0.2,0,0.8,blue,200,0.8,50,0.2,blue,blue,red,red,blue,72,72,5,67,77,355,"[-6.7, 1.9]","[6.7, -1.9]","[-9.3, -1.9]","[9.3, 1.9]",50,200,0,50,0,42,42,94,,,,,,,,,,,,,,,,,0.016404160007368773,0.5164041600073688,595.3618864000018,None,595.3618864000018,None,right,1.5925415999954566,595.3618864000018,None,595.3618864000018,None,595.3618864000018,None,595.3618864000018,None,595.3618864000018,None,597.0151481999783,None,597.0151481999783,None,0.0011634299880824983,0.5011634299880825,597.0151481999783,None,597.0151481999783,None,597.0151481999783,None,597.0151481999783,None,597.0151481999783,None,597.0151481999783,None,600.9899615999893,None,600.9899615999893,None,0.0029831299907527864,0.5029831299907528,600.9899615999893,None,600.9899615999893,None,600.9899615999893,None,600.9899615999893,None,600.9899615999893,None,600.9899615999893,None,19.0,2.022,605.0844029999862,None,2000,,,,,,,,,,,,,,,,,,,f,20,chenlu,2022_Jan_10_0931,emotion,2021.2.3,60.10879691814268,
71,partial,50,0.8,0,0.2,blue,200,0.2,50,0.8,blue,red,blue,blue,red,72,72,77,355,5,67,"[-9.3, -1.9]","[9.3, 1.9]","[-6.7, 1.9]","[6.7, -1.9]",50,200,0,50,0,43,43,70,,,,,,,,,,,,,,,,,0.0015598800091538578,0.5015598800091539,606.2174403999816,None,606.2174403999816,None,right,2.1747667000163347,606.2174403999816,None,606.2174403999816,None,606.2174403999816,None,606.2174403999816,None,606.2174403999816,None,608.446670699981,None,608.446670699981,None,0.0029691299714613706,0.5029691299714614,608.446670699981,None,608.446670699981,None,608.446670699981,None,608.446670699981,None,608.446670699981,None,608.446670699981,None,612.8137775999785,None,612.8137775999785,None,0.0041133300110232085,0.5041133300110232,612.8137775999785,None,612.8137775999785,None,612.8137775999785,None,612.8137775999785,None,612.8137775999785,None,612.8137775999785,None,11.600000000000001,1.64,616.5658709999989,None,2200,,,,,,,,,,,,,,,,,,,f,20,chenlu,2022_Jan_10_0931,emotion,2021.2.3,60.10879691814268,
379,partial,50,0.5,0,0.5,red,200,0.2,0,0.8,red,red,blue,blue,red,180,72,5,175,77,355,"[-10, 0]","[9.3, 1.9]","[-6, 0]","[6.7, -1.9]",0,0,50,200,0,44,44,63,,,,,,,,,,,,,,,,,0.012849160004407167,0.5128491600044072,617.593489699997,None,617.593489699997,None,right,1.6009562999824993,617.593489699997,None,617.593489699997,None,617.593489699997,None,617.593489699997,None,617.593489699997,None,619.2437026999833,None,619.2437026999833,None,0.000766330020269379,0.5007663300202694,619.2437026999833,None,619.2437026999833,None,619.2437026999833,None,619.2437026999833,None,619.2437026999833,None,619.2437026999833,None,623.5345204999903,None,623.5345204999903,None,0.00313823000760749,0.5031382300076075,623.5345204999903,None,623.5345204999903,None,623.5345204999903,None,623.5345204999903,None,623.5345204999903,None,623.5345204999903,None,-0.29999999999999716,2.565,628.1799965999962,None,2200,,,,,,,,,,,,,,,,,,,f,20,chenlu,2022_Jan_10_0931,emotion,2021.2.3,60.10879691814268,
97,partial,0,0.8,-200,0.2,blue,-50,0.5,-200,0.5,blue,red,blue,red,blue,72,180,77,355,185,355,"[-9.3, -1.9]","[6, 0]","[-6.7, 1.9]","[10, 0]",0,-50,-200,-200,0,45,45,34,,,,,,,,,,,,,,,,,0.01568165997741744,0.5156816599774174,629.2121614999778,None,629.2121614999778,None,left,4.948464799992507,629.2121614999778,None,629.2121614999778,None,629.2121614999778,None,629.2121614999778,None,629.2121614999778,None,634.2149740000023,None,634.2149740000023,None,0.0009574300202075392,0.5009574300202075,634.2149740000023,None,634.2149740000023,None,634.2149740000023,None,634.2149740000023,None,634.2149740000023,None,634.2149740000023,None,638.5325413999963,None,638.5325413999963,None,0.003210630005924031,0.503210630005924,638.5325413999963,None,638.5325413999963,None,638.5325413999963,None,638.5325413999963,None,638.5325413999963,None,638.5325413999963,None,7.700000000000003,1.634,642.2355203999905,None,2200,,,,,,,,,,,,,,,,,,,f,20,chenlu,2022_Jan_10_0931,emotion,2021.2.3,60.10879691814268,
315,partial,0,0.8,-200,0.2,red,-50,0.8,-200,0.2,blue,red,blue,red,blue,72,72,5,67,77,355,"[-9.3, -1.9]","[6.7, -1.9]","[-6.7, 1.9]","[9.3, 1.9]",-200,-50,0,-200,0,46,46,52,,,,,,,,,,,,,,,,,0.016197860008105636,0.5161978600081056,643.2723663999932,None,643.2723663999932,None,left,2.6299815000093076,643.2723663999932,None,643.2723663999932,None,643.2723663999932,None,643.2723663999932,None,643.2723663999932,None,645.9690944000031,None,645.9690944000031,None,0.0006883300084155053,0.5006883300084155,645.9690944000031,None,645.9690944000031,None,645.9690944000031,None,645.9690944000031,None,645.9690944000031,None,645.9690944000031,None,650.174511899997,None,650.174511899997,None,0.00292622996494174,0.5029262299649417,650.174511899997,None,650.174511899997,None,650.174511899997,None,650.174511899997,None,650.174511899997,None,650.174511899997,None,-31.7,1.813,654.0631924000045,None,2000,,,,,,,,,,,,,,,,,,,f,20,chenlu,2022_Jan_10_0931,emotion,2021.2.3,60.10879691814268,
294,partial,200,0.2,0,0.8,red,200,0.8,50,0.2,blue,blue,red,red,blue,72,72,77,355,77,355,"[-6.7, 1.9]","[6.7, -1.9]","[-9.3, -1.9]","[9.3, 1.9]",0,200,200,50,0,47,47,92,,,,,,,,,,,,,,,,,0.016017160000046715,0.5160171600000467,655.0893077999935,None,655.0893077999935,None,right,2.2471094999928027,655.0893077999935,None,655.0893077999935,None,655.0893077999935,None,655.0893077999935,None,655.0893077999935,None,657.3824585999828,None,657.3824585999828,None,0.0015920299920253456,0.5015920299920253,657.3824585999828,None,657.3824585999828,None,657.3824585999828,None,657.3824585999828,None,657.3824585999828,None,657.3824585999828,None,661.9202090000035,None,661.9202090000035,None,0.003166530019370839,0.5031665300193708,661.9202090000035,None,661.9202090000035,None,661.9202090000035,None,661.9202090000035,None,661.9202090000035,None,661.9202090000035,None,11.299999999999997,2.493,666.5810013999871,None,2200,,,,,,,,,,,,,,,,,,,f,20,chenlu,2022_Jan_10_0931,emotion,2021.2.3,60.10879691814268,
104,partial,0,0.2,-50,0.8,blue,-50,0.2,-200,0.8,blue,blue,red,blue,red,72,72,5,67,5,67,"[-6.7, 1.9]","[9.3, 1.9]","[-9.3, -1.9]","[6.7, -1.9]",0,-50,-50,-200,0,48,48,2,,,,,,,,,,,,,,,,,0.00471325998660177,0.5047132599866018,667.6301536999817,None,667.6301536999817,None,left,6.959003299998585,667.6301536999817,None,667.6301536999817,None,667.6301536999817,None,667.6301536999817,None,667.6301536999817,None,674.6402375999896,None,674.6402375999896,None,0.0015562300104647875,0.5015562300104648,674.6402375999896,None,674.6402375999896,None,674.6402375999896,None,674.6402375999896,None,674.6402375999896,None,674.6402375999896,None,678.7862809999788,None,678.7862809999788,None,0.0033354299957863986,0.5033354299957864,678.7862809999788,None,678.7862809999788,None,678.7862809999788,None,678.7862809999788,None,678.7862809999788,None,678.7862809999788,None,-0.3999999999999986,9.834,690.8720853999839,None,2200,,,,,,,,,,,,,,,,,,,f,20,chenlu,2022_Jan_10_0931,emotion,2021.2.3,60.10879691814268,
418,partial,0,0.2,-200,0.8,red,-50,0.5,-200,0.5,red,blue,red,red,blue,72,180,77,355,5,175,"[-6.7, 1.9]","[6, 0]","[-9.3, -1.9]","[10, 0]",-200,-200,0,-50,0,49,49,19,,,,,,,,,,,,,,,,,0.01099975997931324,0.5109997599793132,691.9131414000003,None,691.9131414000003,None,right,3.131252199993469,691.9131414000003,None,691.9131414000003,None,691.9131414000003,None,691.9131414000003,None,691.9131414000003,None,695.1045561999781,None,695.1045561999781,None,0.0009524300112389028,0.5009524300112389,695.1045561999781,None,695.1045561999781,None,695.1045561999781,None,695.1045561999781,None,695.1045561999781,None,695.1045561999781,None,699.0472646999988,None,699.0472646999988,None,0.002853529993444681,0.5028535299934447,699.0472646999988,None,699.0472646999988,None,699.0472646999988,None,699.0472646999988,None,699.0472646999988,None,699.0472646999988,None,-12.899999999999999,1.88,703.0564950999978,None,2000,,,,,,,,,,,,,,,,,,,f,20,chenlu,2022_Jan_10_0931,emotion,2021.2.3,60.10879691814268,
409,partial,0,0.2,-50,0.8,red,0,0.2,-200,0.8,red,blue,red,blue,red,72,72,77,355,77,355,"[-6.7, 1.9]","[9.3, 1.9]","[-9.3, -1.9]","[6.7, -1.9]",-50,-200,0,0,0,50,50,3,,,,,,,,,,,,,,,,,0.013100679992930964,0.513100679992931,704.1691134999855,None,704.1691134999855,None,left,1.8576917999889702,704.1691134999855,None,704.1691134999855,None,704.1691134999855,None,704.1691134999855,None,704.1691134999855,None,706.0773613999772,None,706.0773613999772,None,0.002049929986242205,0.5020499299862422,706.0773613999772,None,706.0773613999772,None,706.0773613999772,None,706.0773613999772,None,706.0773613999772,None,706.0773613999772,None,710.3287489999784,None,710.3287489999784,None,0.005564660008531064,0.5055646600085311,710.3287489999784,None,710.3287489999784,None,710.3287489999784,None,710.3287489999784,None,710.3287489999784,None,710.3287489999784,None,-4.0,1.565,713.9852783999813,None,1950,,,,,,,,,,,,,,,,,,,f,20,chenlu,2022_Jan_10_0931,emotion,2021.2.3,60.10879691814268,
175,partial,50,0.2,0,0.8,blue,200,0.5,50,0.5,red,blue,red,red,blue,72,180,5,67,5,175,"[-6.7, 1.9]","[6, 0]","[-9.3, -1.9]","[10, 0]",50,50,0,200,0,51,51,73,,,,,,,,,,,,,,,,,0.013542489992687479,0.5135424899926875,715.0387495000032,None,715.0387495000032,None,right,0.9750385999795981,715.0387495000032,None,715.0387495000032,None,715.0387495000032,None,715.0387495000032,None,715.0387495000032,None,716.0680430999782,None,716.0680430999782,None,0.001984429982258007,0.501984429982258,716.0680430999782,None,716.0680430999782,None,716.0680430999782,None,716.0680430999782,None,716.0680430999782,None,716.0680430999782,None,720.0689586999943,None,720.0689586999943,None,0.0051704299985431135,0.5051704299985431,720.0689586999943,None,720.0689586999943,None,720.0689586999943,None,720.0689586999943,None,720.0689586999943,None,720.0689586999943,None,5.899999999999999,1.795,724.0474442999985,None,2000,,,,,,,,,,,,,,,,,,,f,20,chenlu,2022_Jan_10_0931,emotion,2021.2.3,60.10879691814268,
170,partial,50,0.8,0,0.2,blue,200,0.8,0,0.2,red,red,blue,red,blue,72,72,77,355,5,67,"[-9.3, -1.9]","[6.7, -1.9]","[-6.7, 1.9]","[9.3, 1.9]",50,0,0,200,0,52,52,105,,,,,,,,,,,,,,,,,0.014551459986250848,0.5145514599862508,725.072937799996,None,725.072937799996,None,right,1.3405181000125594,725.072937799996,None,725.072937799996,None,725.072937799996,None,725.072937799996,None,725.072937799996,None,726.5057915999787,None,726.5057915999787,None,0.012510460015619174,0.5125104600156192,726.5057915999787,None,726.5057915999787,None,726.5057915999787,None,726.5057915999787,None,726.5057915999787,None,726.5057915999787,None,730.8568295000005,None,730.8568295000005,None,0.003906830010237172,0.5039068300102372,730.8568295000005,None,730.8568295000005,None,730.8568295000005,None,730.8568295000005,None,730.8568295000005,None,730.8568295000005,None,-0.7999999999999972,2.657,735.5981962999795,None,2000,,,,,,,,,,,,,,,,,,,f,20,chenlu,2022_Jan_10_0931,emotion,2021.2.3,60.10879691814268,
432,partial,0,0.8,-50,0.2,red,-50,0.8,-200,0.2,red,red,blue,red,blue,72,72,5,67,5,67,"[-9.3, -1.9]","[6.7, -1.9]","[-6.7, 1.9]","[9.3, 1.9]",-50,-200,0,-50,0,53,53,53,,,,,,,,,,,,,,,,,0.0009196299652103335,0.5009196299652103,736.6234459999832,None,736.6234459999832,None,left,2.8508292000042275,736.6234459999832,None,736.6234459999832,None,736.6234459999832,None,736.6234459999832,None,736.6234459999832,None,739.5262714999844,None,739.5262714999844,None,0.003259830002207309,0.5032598300022073,739.5262714999844,None,739.5262714999844,None,739.5262714999844,None,739.5262714999844,None,739.5262714999844,None,739.5262714999844,None,743.7568282999855,None,743.7568282999855,None,0.004178730014245957,0.504178730014246,743.7568282999855,None,743.7568282999855,None,743.7568282999855,None,743.7568282999855,None,743.7568282999855,None,743.7568282999855,None,6.0,1.511,747.3647737999854,None,1950,,,,,,,,,,,,,,,,,,,f,20,chenlu,2022_Jan_10_0931,emotion,2021.2.3,60.10879691814268,
92,partial,0,0.5,-200,0.5,blue,-50,0.2,-200,0.8,blue,red,blue,blue,red,180,72,185,355,5,67,"[-10, 0]","[9.3, 1.9]","[-6, 0]","[6.7, -1.9]",0,-50,-200,-200,0,54,54,10,,,,,,,,,,,,,,,,,0.013196259969845414,0.5131962599698454,748.3920373999863,None,748.3920373999863,None,left,1.3960609000059776,748.3920373999863,None,748.3920373999863,None,748.3920373999863,None,748.3920373999863,None,748.3920373999863,None,749.8536857999861,None,749.8536857999861,None,0.006716059957398102,0.5067160599573981,749.8536857999861,None,749.8536857999861,None,749.8536857999861,None,749.8536857999861,None,749.8536857999861,None,749.8536857999861,None,753.8055596999766,None,753.8055596999766,None,0.0028237299993634224,0.5028237299993634,753.8055596999766,None,753.8055596999766,None,753.8055596999766,None,753.8055596999766,None,753.8055596999766,None,753.8055596999766,None,7.200000000000003,2.089,757.9729510000034,None,1950,,,,,,,,,,,,,,,,,,,f,20,chenlu,2022_Jan_10_0931,emotion,2021.2.3,60.10879691814268,
178,partial,50,0.8,0,0.2,blue,200,0.5,50,0.5,red,red,blue,red,blue,72,180,77,355,5,175,"[-9.3, -1.9]","[6, 0]","[-6.7, 1.9]","[10, 0]",50,50,0,200,0,55,55,85,,,,,,,,,,,,,,,,,0.0040118500182870775,0.5040118500182871,759.0885322999966,None,759.0885322999966,None,right,1.244657000002917,759.0885322999966,None,759.0885322999966,None,759.0885322999966,None,759.0885322999966,None,759.0885322999966,None,760.3893523000006,None,760.3893523000006,None,0.01483716000802815,0.5148371600080281,760.3893523000006,None,760.3893523000006,None,760.3893523000006,None,760.3893523000006,None,760.3893523000006,None,760.3893523000006,None,764.9185386000026,None,764.9185386000026,None,0.003910530009306967,0.503910530009307,764.9185386000026,None,764.9185386000026,None,764.9185386000026,None,764.9185386000026,None,764.9185386000026,None,764.9185386000026,None,4.899999999999999,2.002,769.0718564999988,None,2000,,,,,,,,,,,,,,,,,,,f,20,chenlu,2022_Jan_10_0931,emotion,2021.2.3,60.10879691814268,
306,partial,0,0.8,-50,0.2,red,0,0.5,-200,0.5,blue,red,blue,red,blue,72,180,5,67,185,355,"[-9.3, -1.9]","[6, 0]","[-6.7, 1.9]","[10, 0]",-50,0,0,-200,0,56,56,30,,,,,,,,,,,,,,,,,0.011787060007918626,0.5117870600079186,770.0987668999878,None,770.0987668999878,None,left,1.8276828000089154,770.0987668999878,None,770.0987668999878,None,770.0987668999878,None,770.0987668999878,None,770.0987668999878,None,772.0802755999903,None,772.0802755999903,None,0.010127879999345168,0.5101278799993452,772.0802755999903,None,772.0802755999903,None,772.0802755999903,None,772.0802755999903,None,772.0802755999903,None,772.0802755999903,None,776.3104669000022,None,776.3104669000022,None,0.003359730006195605,0.5033597300061956,776.3104669000022,None,776.3104669000022,None,776.3104669000022,None,776.3104669000022,None,776.3104669000022,None,776.3104669000022,None,-9.299999999999997,2.593,781.0580142999825,None,1950,,,,,,,,,,,,,,,,,,,f,20,chenlu,2022_Jan_10_0931,emotion,2021.2.3,60.10879691814268,
413,partial,0,0.8,-50,0.2,red,0,0.8,-200,0.2,red,red,blue,red,blue,72,72,5,67,5,67,"[-9.3, -1.9]","[6.7, -1.9]","[-6.7, 1.9]","[9.3, 1.9]",-50,-200,0,0,0,57,57,51,,,,,,,,,,,,,,,,,0.012628460011910647,0.5126284600119106,782.0399605999992,None,782.0399605999992,None,left,2.7378948999976274,782.0399605999992,None,782.0399605999992,None,782.0399605999992,None,782.0399605999992,None,782.0399605999992,None,784.8385546999925,None,784.8385546999925,None,0.001211530005093664,0.5012115300050937,784.8385546999925,None,784.8385546999925,None,784.8385546999925,None,784.8385546999925,None,784.8385546999925,None,784.8385546999925,None,789.1772896999901,None,789.1772896999901,None,0.004501329967752099,0.5045013299677521,789.1772896999901,None,789.1772896999901,None,789.1772896999901,None,789.1772896999901,None,789.1772896999901,None,789.1772896999901,None,-0.7000000000000028,2.513,793.9117456999957,None,1900,,,,,,,,,,,,,,,,,,,f,20,chenlu,2022_Jan_10_0931,emotion,2021.2.3,60.10879691814268,
273,partial,50,0.5,0,0.5,red,200,0.5,0,0.5,blue,red,blue,red,blue,180,180,5,175,185,355,"[-10, 0]","[6, 0]","[-6, 0]","[10, 0]",0,200,50,0,0,58,58,78,,,,,,,,,,,,,,,,,0.012707260000752285,0.5127072600007523,794.9424584999797,None,794.9424584999797,None,right,1.4102438999980222,794.9424584999797,None,794.9424584999797,None,794.9424584999797,None,794.9424584999797,None,794.9424584999797,None,796.4178259999899,None,796.4178259999899,None,0.016218760021729395,0.5162187600217294,796.4178259999899,None,796.4178259999899,None,796.4178259999899,None,796.4178259999899,None,796.4178259999899,None,796.4178259999899,None,800.6304762999935,None,800.6304762999935,None,0.0032822299981489778,0.503282229998149,800.6304762999935,None,800.6304762999935,None,800.6304762999935,None,800.6304762999935,None,800.6304762999935,None,800.6304762999935,None,15.599999999999994,1.859,804.5833304999978,None,2100,,,,,,,,,,,,,,,,,,,f,20,chenlu,2022_Jan_10_0931,emotion,2021.2.3,60.10879691814268,
416,partial,0,0.5,-200,0.5,red,-50,0.2,-200,0.8,red,red,blue,blue,red,180,72,5,175,77,355,"[-10, 0]","[9.3, 1.9]","[-6, 0]","[6.7, -1.9]",-200,-200,0,-50,0,59,59,7,,,,,,,,,,,,,,,,,0.014382410008693114,0.5143824100086931,805.7067640000023,None,805.7067640000023,None,left,3.2631302000081632,805.7067640000023,None,805.7067640000023,None,805.7067640000023,None,805.7067640000023,None,805.7067640000023,None,809.0243653999933,None,809.0243653999933,None,0.0019985299732070416,0.501998529973207,809.0243653999933,None,809.0243653999933,None,809.0243653999933,None,809.0243653999933,None,809.0243653999933,None,809.0243653999933,None,813.0852443999902,None,813.0852443999902,None,0.003032730019185692,0.5030327300191857,813.0852443999902,None,813.0852443999902,None,813.0852443999902,None,813.0852443999902,None,813.0852443999902,None,813.0852443999902,None,-4.899999999999999,1.84,817.10761799998,None,1900,,,,,,,,,,,,,,,,,,,f,20,chenlu,2022_Jan_10_0931,emotion,2021.2.3,60.10879691814268,
282,partial,50,0.5,0,0.5,red,200,0.8,50,0.2,blue,red,blue,red,blue,180,72,5,175,77,355,"[-10, 0]","[6.7, -1.9]","[-6, 0]","[9.3, 1.9]",0,200,50,50,0,60,60,100,,,,,,,,,,,,,,,,,0.013264259963762015,0.513264259963762,818.1456440999755,None,818.1456440999755,None,right,1.1988695999898482,818.1456440999755,None,818.1456440999755,None,818.1456440999755,None,818.1456440999755,None,818.1456440999755,None,819.388947600004,None,819.388947600004,None,0.0008347300172317773,0.5008347300172318,819.388947600004,None,819.388947600004,None,819.388947600004,None,819.388947600004,None,819.388947600004,None,819.388947600004,None,823.345527700003,None,823.345527700003,None,0.004606930015143007,0.504606930015143,823.345527700003,None,823.345527700003,None,823.345527700003,None,823.345527700003,None,823.345527700003,None,823.345527700003,None,12.799999999999997,1.456,826.975298299978,None,2100,,,,,,,,,,,,,,,,,,,f,20,chenlu,2022_Jan_10_0931,emotion,2021.2.3,60.10879691814268,
318,partial,0,0.5,-50,0.5,red,-50,0.8,-200,0.2,blue,red,blue,red,blue,180,72,5,175,77,355,"[-10, 0]","[6.7, -1.9]","[-6, 0]","[9.3, 1.9]",-50,-50,0,-200,0,61,61,44,,,,,,,,,,,,,,,,,0.01202806000947021,0.5120280600094702,827.9346833000018,None,827.9346833000018,None,left,3.583478999993531,827.9346833000018,None,827.9346833000018,None,827.9346833000018,None,827.9346833000018,None,827.9346833000018,None,831.5861461999884,None,831.5861461999884,None,0.013458760018693283,0.5134587600186933,831.5861461999884,None,831.5861461999884,None,831.5861461999884,None,831.5861461999884,None,831.5861461999884,None,831.5861461999884,None,835.7285045000026,None,835.7285045000026,None,0.015063559985719621,0.5150635599857196,835.7285045000026,None,835.7285045000026,None,835.7285045000026,None,835.7285045000026,None,835.7285045000026,None,835.7285045000026,None,-6.200000000000003,1.341,839.2856394999835,None,2050,,,,,,,,,,,,,,,,,,,f,20,chenlu,2022_Jan_10_0931,emotion,2021.2.3,60.10879691814268,
319,partial,0,0.2,-50,0.8,red,-50,0.5,-200,0.5,blue,blue,red,red,blue,72,180,77,355,185,355,"[-6.7, 1.9]","[6, 0]","[-9.3, -1.9]","[10, 0]",-50,-50,0,-200,0,62,62,20,,,,,,,,,,,,,,,,,0.012924959999509156,0.5129249599995092,840.318855599995,None,840.318855599995,None,left,1.4897594000212848,840.318855599995,None,840.318855599995,None,840.318855599995,None,840.318855599995,None,840.318855599995,None,841.8745015999884,None,841.8745015999884,None,8.73300014063716e-05,0.5000873300014064,841.8745015999884,None,841.8745015999884,None,841.8745015999884,None,841.8745015999884,None,841.8745015999884,None,841.8745015999884,None,846.1575632999884,None,846.1575632999884,None,0.004322530032368377,0.5043225300323684,846.1575632999884,None,846.1575632999884,None,846.1575632999884,None,846.1575632999884,None,846.1575632999884,None,846.1575632999884,None,-6.399999999999999,2.414,850.7563493999769,None,2000,,,,,,,,,,,,,,,,,,,f,20,chenlu,2022_Jan_10_0931,emotion,2021.2.3,60.10879691814268,
421,partial,0,0.8,-200,0.2,red,-50,0.5,-200,0.5,red,red,blue,red,blue,72,180,5,67,5,175,"[-9.3, -1.9]","[6, 0]","[-6.7, 1.9]","[10, 0]",-200,-200,0,-50,0,63,63,31,,,,,,,,,,,,,,,,,0.012417059973813593,0.5124170599738136,851.7976461999933,None,851.7976461999933,None,left,2.0505558000004385,851.7976461999933,None,851.7976461999933,None,851.7976461999933,None,851.7976461999933,None,851.7976461999933,None,853.899053400004,None,853.899053400004,None,0.013752659986494109,0.5137526599864941,853.899053400004,None,853.899053400004,None,853.899053400004,None,853.899053400004,None,853.899053400004,None,853.899053400004,None,858.0365480000037,None,858.0365480000037,None,0.0028921299963258207,0.5028921299963258,858.0365480000037,None,858.0365480000037,None,858.0365480000037,None,858.0365480000037,None,858.0365480000037,None,858.0365480000037,None,-17.4,2.441,862.7088621000003,None,1800,,,,,,,,,,,,,,,,,,,f,20,chenlu,2022_Jan_10_0931,emotion,2021.2.3,60.10879691814268,
203,partial,0,0.2,-200,0.8,blue,-50,0.2,-200,0.8,red,blue,red,blue,red,72,72,5,67,77,355,"[-6.7, 1.9]","[9.3, 1.9]","[-9.3, -1.9]","[6.7, -1.9]",0,-200,-200,-50,0,64,64,1,,,,,,,,,,,,,,,,,0.007945459976326674,0.5079454599763267,863.7395580000011,None,863.7395580000011,None,left,3.6465905999939423,863.7395580000011,None,863.7395580000011,None,863.7395580000011,None,863.7395580000011,None,863.7395580000011,None,867.438230300002,None,867.438230300002,None,0.0011142299917992204,0.5011142299917992,867.438230300002,None,867.438230300002,None,867.438230300002,None,867.438230300002,None,867.438230300002,None,867.438230300002,None,871.4550368999771,None,871.4550368999771,None,0.0026939300005324185,0.5026939300005324,871.4550368999771,None,871.4550368999771,None,871.4550368999771,None,871.4550368999771,None,871.4550368999771,None,871.4550368999771,None,11.299999999999997,1.637,875.1912884999765,None,1800,,,,,,,,,,,,,,,,,,,f,20,chenlu,2022_Jan_10_0931,emotion,2021.2.3,60.10879691814268,
191,partial,0,0.5,-50,0.5,blue,0,0.8,-200,0.2,red,red,blue,red,blue,180,72,185,355,5,67,"[-10, 0]","[6.7, -1.9]","[-6, 0]","[9.3, 1.9]",0,-200,-50,0,0,65,65,45,,,,,,,,,,,,,,,,,0.016177060024347156,0.5161770600243472,876.2309239000024,None,876.2309239000024,None,left,1.9528372999920975,876.2309239000024,None,876.2309239000024,None,876.2309239000024,None,876.2309239000024,None,876.2309239000024,None,878.2518354999775,None,878.2518354999775,None,0.0002822300011757761,0.5002822300011758,878.2518354999775,None,878.2518354999775,None,878.2518354999775,None,878.2518354999775,None,878.2518354999775,None,878.2518354999775,None,882.2960950999986,None,882.2960950999986,None,0.0029742299811914563,0.5029742299811915,882.2960950999986,None,882.2960950999986,None,882.2960950999986,None,882.2960950999986,None,882.2960950999986,None,882.2960950999986,None,29.5,1.512,885.9599520999764,None,1800,,,,,,,,,,,,,,,,,,,f,20,chenlu,2022_Jan_10_0931,emotion,2021.2.3,60.10879691814268,
384,partial,50,0.2,0,0.8,red,200,0.5,0,0.5,red,blue,red,red,blue,72,180,77,355,5,175,"[-6.7, 1.9]","[6, 0]","[-9.3, -1.9]","[10, 0]",0,0,50,200,0,66,66,75,,,,,,,,,,,,,,,,,0.0005041300028096884,0.5005041300028097,887.0020640000002,None,887.0020640000002,None,right,1.3109379000088666,887.0020640000002,None,887.0020640000002,None,887.0020640000002,None,887.0020640000002,None,887.0020640000002,None,888.3807960999839,None,888.3807960999839,None,0.0034457300207577646,0.5034457300207578,888.3807960999839,None,888.3807960999839,None,888.3807960999839,None,888.3807960999839,None,888.3807960999839,None,888.3807960999839,None,892.3569034999819,None,892.3569034999819,None,0.005054130015196279,0.5050541300151963,892.3569034999819,None,892.3569034999819,None,892.3569034999819,None,892.3569034999819,None,892.3569034999819,None,892.3569034999819,None,-0.3999999999999986,1.57,895.9949135999777,None,1800,,,,,,,,,,,,,,,,,,,f,20,chenlu,2022_Jan_10_0931,emotion,2021.2.3,60.10879691814268,
207,partial,0,0.8,-200,0.2,blue,-50,0.8,-200,0.2,red,red,blue,red,blue,72,72,77,355,5,67,"[-9.3, -1.9]","[6.7, -1.9]","[-6.7, 1.9]","[9.3, 1.9]",0,-200,-200,-50,0,67,67,49,,,,,,,,,,,,,,,,,0.016524260019650683,0.5165242600196507,897.0331104999932,None,897.0331104999932,None,right,4.760107100009918,897.0331104999932,None,897.0331104999932,None,897.0331104999932,None,897.0331104999932,None,897.0331104999932,None,901.8534635999822,None,901.8534635999822,None,0.0023782300122547895,0.5023782300122548,901.8534635999822,None,901.8534635999822,None,901.8534635999822,None,901.8534635999822,None,901.8534635999822,None,901.8534635999822,None,906.159476300003,None,906.159476300003,None,0.003227229986805469,0.5032272299868055,906.159476300003,None,906.159476300003,None,906.159476300003,None,906.159476300003,None,906.159476300003,None,906.159476300003,None,-41.2,2.438,910.6664822000021,None,1600,,,,,,,,,,,,,,,,,,,f,20,chenlu,2022_Jan_10_0931,emotion,2021.2.3,60.10879691814268,
312,partial,0,0.2,-200,0.8,red,-50,0.8,-200,0.2,blue,blue,red,red,blue,72,72,77,355,77,355,"[-6.7, 1.9]","[6.7, -1.9]","[-9.3, -1.9]","[9.3, 1.9]",-200,-50,0,-200,0,68,68,40,,,,,,,,,,,,,,,,,0.013291060022311285,0.5132910600223113,911.6931863999926,None,911.6931863999926,None,right,2.675929899996845,911.6931863999926,None,911.6931863999926,None,911.6931863999926,None,911.6931863999926,None,911.6931863999926,None,914.4119505999843,None,914.4119505999843,None,0.0010186300205532461,0.5010186300205532,914.4119505999843,None,914.4119505999843,None,914.4119505999843,None,914.4119505999843,None,914.4119505999843,None,914.4119505999843,None,918.2867086000042,None,918.2867086000042,None,0.003651030012406409,0.5036510300124064,918.2867086000042,None,918.2867086000042,None,918.2867086000042,None,918.2867086000042,None,918.2867086000042,None,918.2867086000042,None,-4.700000000000003,2.01,922.4015476999921,None,1550,,,,,,,,,,,,,,,,,,,f,20,chenlu,2022_Jan_10_0931,emotion,2021.2.3,60.10879691814268,
392,partial,50,0.2,0,0.8,red,200,0.2,50,0.8,red,blue,red,blue,red,72,72,77,355,77,355,"[-6.7, 1.9]","[9.3, 1.9]","[-9.3, -1.9]","[6.7, -1.9]",0,50,50,200,0,69,69,55,,,,,,,,,,,,,,,,,0.013462459988659248,0.5134624599886592,923.432190099993,None,923.432190099993,None,right,1.3302155999990646,923.432190099993,None,923.432190099993,None,923.432190099993,None,923.432190099993,None,923.432190099993,None,924.8127448000014,None,924.8127448000014,None,0.0019863299967255443,0.5019863299967255,924.8127448000014,None,924.8127448000014,None,924.8127448000014,None,924.8127448000014,None,924.8127448000014,None,924.8127448000014,None,928.7176187000005,None,928.7176187000005,None,0.003193330019712448,0.5031933300197124,928.7176187000005,None,928.7176187000005,None,928.7176187000005,None,928.7176187000005,None,928.7176187000005,None,928.7176187000005,None,2.5,2.21,933.0160491999995,None,1600,,,,,,,,,,,,,,,,,,,f,20,chenlu,2022_Jan_10_0931,emotion,2021.2.3,60.10879691814268,
185,partial,200,0.2,0,0.8,blue,200,0.2,50,0.8,red,blue,red,blue,red,72,72,5,67,77,355,"[-6.7, 1.9]","[9.3, 1.9]","[-9.3, -1.9]","[6.7, -1.9]",200,50,0,200,0,70,70,59,,,,,,,,,,,,,,,,,0.014644659997429699,0.5146446599974297,934.0453788999876,None,934.0453788999876,None,right,0.9538401000027079,934.0453788999876,None,934.0453788999876,None,934.0453788999876,None,934.0453788999876,None,934.0453788999876,None,935.0572807999852,None,935.0572807999852,None,0.000473530002636835,0.5004735300026368,935.0572807999852,None,935.0572807999852,None,935.0572807999852,None,935.0572807999852,None,935.0572807999852,None,935.0572807999852,None,939.3781278999813,None,939.3781278999813,None,0.004057230020407587,0.5040572300204076,939.3781278999813,None,939.3781278999813,None,939.3781278999813,None,939.3781278999813,None,939.3781278999813,None,939.3781278999813,None,3.8999999999999986,1.623,943.1063485999766,None,1650,,,,,,,,,,,,,,,,,,,f,20,chenlu,2022_Jan_10_0931,emotion,2021.2.3,60.10879691814268,
63,partial,50,0.8,0,0.2,blue,200,0.5,0,0.5,blue,red,blue,red,blue,72,180,77,355,185,355,"[-9.3, -1.9]","[6, 0]","[-6.7, 1.9]","[10, 0]",50,200,0,0,0,71,71,84,,,,,,,,,,,,,,,,,0.012807959981728345,0.5128079599817283,944.1312455000007,None,944.1312455000007,None,right,1.3490364000026602,944.1312455000007,None,944.1312455000007,None,944.1312455000007,None,944.1312455000007,None,944.1312455000007,None,945.521851700003,None,945.521851700003,None,0.003039830015040934,0.5030398300150409,945.521851700003,None,945.521851700003,None,945.521851700003,None,945.521851700003,None,945.521851700003,None,945.521851700003,None,949.5208387000021,None,949.5208387000021,None,0.005479630024638027,0.505479630024638,949.5208387000021,None,949.5208387000021,None,949.5208387000021,None,949.5208387000021,None,949.5208387000021,None,949.5208387000021,None,26.599999999999994,1.417,953.0504092999909,None,1850,,,,,,,,,,,,,,,,,,,f,20,chenlu,2022_Jan_10_0931,emotion,2021.2.3,60.10879691814268,
403,partial,200,0.8,0,0.2,red,200,0.5,50,0.5,red,red,blue,red,blue,72,180,5,67,5,175,"[-9.3, -1.9]","[6, 0]","[-6.7, 1.9]","[10, 0]",0,50,200,200,0,72,72,89,,,,,,,,,,,,,,,,,0.013493059988832101,0.5134930599888321,954.0772597999894,None,954.0772597999894,None,right,1.7894254999991972,954.0772597999894,None,954.0772597999894,None,954.0772597999894,None,954.0772597999894,None,954.0772597999894,None,955.9349252999818,None,955.9349252999818,None,0.0012284299882594496,0.5012284299882594,955.9349252999818,None,955.9349252999818,None,955.9349252999818,None,955.9349252999818,None,955.9349252999818,None,955.9349252999818,None,960.14550709998,None,960.14550709998,None,0.0034193299943581223,0.5034193299943581,960.14550709998,None,960.14550709998,None,960.14550709998,None,960.14550709998,None,960.14550709998,None,960.14550709998,None,5.100000000000001,1.513,963.8669948999886,None,1900,,,,,,,,,,,,,,,,,,,f,20,chenlu,2022_Jan_10_0931,emotion,2021.2.3,60.10879691814268,
89,partial,0,0.8,-50,0.2,blue,0,0.8,-200,0.2,blue,red,blue,red,blue,72,72,77,355,77,355,"[-9.3, -1.9]","[6.7, -1.9]","[-6.7, 1.9]","[9.3, 1.9]",0,0,-50,-200,0,73,73,48,,,,,,,,,,,,,,,,,0.015675089991418645,0.5156750899914186,964.8983567999967,None,964.8983567999967,None,left,1.2214220000023488,964.8983567999967,None,964.8983567999967,None,964.8983567999967,None,964.8983567999967,None,964.8983567999967,None,966.184211499989,None,966.184211499989,None,0.0032391299901064485,0.5032391299901064,966.184211499989,None,966.184211499989,None,966.184211499989,None,966.184211499989,None,966.184211499989,None,966.184211499989,None,970.8066082999867,None,970.8066082999867,None,0.0035050300357397646,0.5035050300357398,970.8066082999867,None,970.8066082999867,None,970.8066082999867,None,970.8066082999867,None,970.8066082999867,None,970.8066082999867,None,8.600000000000001,1.204,974.2301910999813,None,1900,,,,,,,,,,,,,,,,,,,f,20,chenlu,2022_Jan_10_0931,emotion,2021.2.3,60.10879691814268,
206,partial,0,0.8,-200,0.2,blue,-50,0.2,-200,0.8,red,red,blue,blue,red,72,72,77,355,77,355,"[-9.3, -1.9]","[9.3, 1.9]","[-6.7, 1.9]","[6.7, -1.9]",0,-200,-200,-50,0,74,74,13,,,,,,,,,,,,,,,,,0.01580616002320312,0.5158061600232031,975.2592570999986,None,975.2592570999986,None,left,2.842008400009945,975.2592570999986,None,975.2592570999986,None,975.2592570999986,None,975.2592570999986,None,975.2592570999986,None,978.1696690999961,None,978.1696690999961,None,0.0009468299977015704,0.5009468299977016,978.1696690999961,None,978.1696690999961,None,978.1696690999961,None,978.1696690999961,None,978.1696690999961,None,978.1696690999961,None,982.8500732999819,None,982.8500732999819,None,0.0037759300030302256,0.5037759300030302,982.8500732999819,None,982.8500732999819,None,982.8500732999819,None,982.8500732999819,None,982.8500732999819,None,982.8500732999819,None,13.0,1.498,986.4210589999857,None,1900,,,,,,,,,,,,,,,,,,,f,20,chenlu,2022_Jan_10_0931,emotion,2021.2.3,60.10879691814268,
307,partial,0,0.5,-200,0.5,red,-50,0.5,-200,0.5,blue,red,blue,red,blue,180,180,5,175,185,355,"[-10, 0]","[6, 0]","[-6, 0]","[10, 0]",-200,-50,0,-200,0,75,75,28,,,,,,,,,,,,,,,,,0.0124724599882029,0.5124724599882029,987.4498793999956,None,987.4498793999956,None,right,4.761978499998804,987.4498793999956,None,987.4498793999956,None,987.4498793999956,None,987.4498793999956,None,987.4498793999956,None,992.2720805999998,None,992.2720805999998,None,0.015827559982426465,0.5158275599824265,992.2720805999998,None,992.2720805999998,None,992.2720805999998,None,992.2720805999998,None,992.2720805999998,None,992.2720805999998,None,996.3041025999992,None,996.3041025999992,None,0.0032516300270799547,0.50325163002708,996.3041025999992,None,996.3041025999992,None,996.3041025999992,None,996.3041025999992,None,996.3041025999992,None,996.3041025999992,None,-4.600000000000001,2.013,1000.3894749000028,None,1850,,,,,,,,,,,,,,,,,,,f,20,chenlu,2022_Jan_10_0931,emotion,2021.2.3,60.10879691814268,
298,partial,0,0.5,-50,0.5,red,0,0.2,-200,0.8,blue,red,blue,blue,red,180,72,5,175,5,67,"[-10, 0]","[9.3, 1.9]","[-6, 0]","[6.7, -1.9]",-50,0,0,-200,0,76,76,6,,,,,,,,,,,,,,,,,0.012859259994002059,0.5128592599940021,1001.4194044999895,None,1001.4194044999895,None,left,1.3852645000151824,1001.4194044999895,None,1001.4194044999895,None,1001.4194044999895,None,1001.4194044999895,None,1001.4194044999895,None,1002.8762096999853,None,1002.8762096999853,None,0.00042462997953407466,0.5004246299795341,1002.8762096999853,None,1002.8762096999853,None,1002.8762096999853,None,1002.8762096999853,None,1002.8762096999853,None,1002.8762096999853,None,1007.4505997999804,None,1007.4505997999804,None,0.0028418299916666,0.5028418299916666,1007.4505997999804,None,1007.4505997999804,None,1007.4505997999804,None,1007.4505997999804,None,1007.4505997999804,None,1007.4505997999804,None,-10.600000000000001,2.053,1011.6113365999772,None,1800,,,,,,,,,,,,,,,,,,,f,20,chenlu,2022_Jan_10_0931,emotion,2021.2.3,60.10879691814268,
322,partial,0,0.8,-50,0.2,red,-50,0.5,-200,0.5,blue,red,blue,red,blue,72,180,5,67,185,355,"[-9.3, -1.9]","[6, 0]","[-6.7, 1.9]","[10, 0]",-50,-50,0,-200,0,77,77,32,,,,,,,,,,,,,,,,,0.012938259984366596,0.5129382599843666,1012.6437719999813,None,1012.6437719999813,None,left,1.5144267000141554,1012.6437719999813,None,1012.6437719999813,None,1012.6437719999813,None,1012.6437719999813,None,1012.6437719999813,None,1014.2695620000013,None,1014.2695620000013,None,0.015729959966847673,0.5157299599668477,1014.2695620000013,None,1014.2695620000013,None,1014.2695620000013,None,1014.2695620000013,None,1014.2695620000013,None,1014.2695620000013,None,1018.8496384999889,None,1018.8496384999889,None,0.003672329999972135,0.5036723299999721,1018.8496384999889,None,1018.8496384999889,None,1018.8496384999889,None,1018.8496384999889,None,1018.8496384999889,None,1018.8496384999889,None,-6.600000000000001,1.564,1022.5179268999782,None,1750,,,,,,,,,,,,,,,,,,,f,20,chenlu,2022_Jan_10_0931,emotion,2021.2.3,60.10879691814268,
186,partial,200,0.2,0,0.8,blue,200,0.8,50,0.2,red,blue,red,red,blue,72,72,5,67,5,67,"[-6.7, 1.9]","[6.7, -1.9]","[-9.3, -1.9]","[9.3, 1.9]",200,50,0,200,0,78,78,95,,,,,,,,,,,,,,,,,0.012486860010540113,0.5124868600105401,1023.5504828999983,None,1023.5504828999983,None,right,1.4838140000065323,1023.5504828999983,None,1023.5504828999983,None,1023.5504828999983,None,1023.5504828999983,None,1023.5504828999983,None,1025.1868871999905,None,1025.1868871999905,None,0.00678078000782989,0.5067807800078299,1025.1868871999905,None,1025.1868871999905,None,1025.1868871999905,None,1025.1868871999905,None,1025.1868871999905,None,1025.1868871999905,None,1029.3409806999844,None,1029.3409806999844,None,0.003220429993234575,0.5032204299932346,1029.3409806999844,None,1029.3409806999844,None,1029.3409806999844,None,1029.3409806999844,None,1029.3409806999844,None,1029.3409806999844,None,8.399999999999999,2.14,1033.5891470999923,None,1800,,,,,,,,,,,,,,,,,,,f,20,chenlu,2022_Jan_10_0931,emotion,2021.2.3,60.10879691814268,
94,partial,0,0.2,-200,0.8,blue,-50,0.5,-200,0.5,blue,blue,red,red,blue,72,180,5,67,185,355,"[-6.7, 1.9]","[6, 0]","[-9.3, -1.9]","[10, 0]",0,-50,-200,-200,0,79,79,22,,,,,,,,,,,,,,,,,0.013433060026727617,0.5134330600267276,1034.6215526000015,None,1034.6215526000015,None,right,2.2205934999801684,1034.6215526000015,None,1034.6215526000015,None,1034.6215526000015,None,1034.6215526000015,None,1034.6215526000015,None,1036.9121464999916,None,1036.9121464999916,None,0.0010772300011012703,0.5010772300011013,1036.9121464999916,None,1036.9121464999916,None,1036.9121464999916,None,1036.9121464999916,None,1036.9121464999916,None,1036.9121464999916,None,1041.3929469999857,None,1041.3929469999857,None,0.00363152998033911,0.5036315299803391,1041.3929469999857,None,1041.3929469999857,None,1041.3929469999857,None,1041.3929469999857,None,1041.3929469999857,None,1041.3929469999857,None,0.8999999999999986,1.416,1044.9783875999856,None,1750,,,,,,,,,,,,,,,,,,,f,20,chenlu,2022_Jan_10_0931,emotion,2021.2.3,60.10879691814268,
190,partial,0,0.5,-50,0.5,blue,0,0.2,-200,0.8,red,red,blue,blue,red,180,72,185,355,77,355,"[-10, 0]","[9.3, 1.9]","[-6, 0]","[6.7, -1.9]",0,-200,-50,0,0,80,80,9,,,,,,,,,,,,,,,,,0.006721590005327016,0.506721590005327,1046.0478766000015,None,1046.0478766000015,None,left,1.2970420000201557,1046.0478766000015,None,1046.0478766000015,None,1046.0478766000015,None,1046.0478766000015,None,1046.0478766000015,None,1047.4028446000011,None,1047.4028446000011,None,0.012658460007514805,0.5126584600075148,1047.4028446000011,None,1047.4028446000011,None,1047.4028446000011,None,1047.4028446000011,None,1047.4028446000011,None,1047.4028446000011,None,1051.6197898999962,None,1051.6197898999962,None,0.0034371300134807825,0.5034371300134808,1051.6197898999962,None,1051.6197898999962,None,1051.6197898999962,None,1051.6197898999962,None,1051.6197898999962,None,1051.6197898999962,None,9.299999999999997,1.388,1055.1646645999863,None,1750,,,,,,,,,,,,,,,,,,,f,20,chenlu,2022_Jan_10_0931,emotion,2021.2.3,60.10879691814268,
396,partial,50,0.8,0,0.2,red,200,0.8,50,0.2,red,red,blue,red,blue,72,72,5,67,5,67,"[-9.3, -1.9]","[6.7, -1.9]","[-6.7, 1.9]","[9.3, 1.9]",0,50,50,200,0,81,81,103,,,,,,,,,,,,,,,,,0.015696759975980967,0.515696759975981,1056.196974999999,None,1056.196974999999,None,right,1.125059499987401,1056.196974999999,None,1056.196974999999,None,1056.196974999999,None,1056.196974999999,None,1056.196974999999,None,1057.3710494999832,None,1057.3710494999832,None,0.0010004299983847886,0.5010004299983848,1057.3710494999832,None,1057.3710494999832,None,1057.3710494999832,None,1057.3710494999832,None,1057.3710494999832,None,1057.3710494999832,None,1061.191762499977,None,1061.191762499977,None,0.0025242299889214337,0.5025242299889214,1061.191762499977,None,1061.191762499977,None,1061.191762499977,None,1061.191762499977,None,1061.191762499977,None,1061.191762499977,None,3.1000000000000014,1.257,1064.5975901999918,None,1800,,,,,,,,,,,,,,,,,,,f,20,chenlu,2022_Jan_10_0931,emotion,2021.2.3,60.10879691814268,
293,partial,200,0.2,0,0.8,red,200,0.2,50,0.8,blue,blue,red,blue,red,72,72,77,355,5,67,"[-6.7, 1.9]","[9.3, 1.9]","[-9.3, -1.9]","[6.7, -1.9]",0,200,200,50,0,82,82,56,,,,,,,,,,,,,,,,,0.015933960006805137,0.5159339600068051,1065.562374799978,None,1065.562374799978,None,right,1.2036580999847502,1065.562374799978,None,1065.562374799978,None,1065.562374799978,None,1065.562374799978,None,1065.562374799978,None,1066.8157736999856,None,1066.8157736999856,None,0.016225860017584637,0.5162258600175846,1066.8157736999856,None,1066.8157736999856,None,1066.8157736999856,None,1066.8157736999856,None,1066.8157736999856,None,1066.8157736999856,None,1070.7678322999855,None,1070.7678322999855,None,0.003637929999968037,0.503637929999968,1070.7678322999855,None,1070.7678322999855,None,1070.7678322999855,None,1070.7678322999855,None,1070.7678322999855,None,1070.7678322999855,None,11.600000000000001,1.599,1074.4806152999809,None,2000,,,,,,,,,,,,,,,,,,,f,20,chenlu,2022_Jan_10_0931,emotion,2021.2.3,60.10879691814268,
174,partial,50,0.5,0,0.5,blue,200,0.8,50,0.2,red,red,blue,red,blue,180,72,185,355,5,67,"[-10, 0]","[6.7, -1.9]","[-6, 0]","[9.3, 1.9]",50,50,0,200,0,83,83,97,,,,,,,,,,,,,,,,,0.013208360003773123,0.5132083600037731,1075.5159856999817,None,1075.5159856999817,None,right,1.5625920000020415,1075.5159856999817,None,1075.5159856999817,None,1075.5159856999817,None,1075.5159856999817,None,1075.5159856999817,None,1077.146128399996,None,1077.146128399996,None,0.0018021299911197275,0.5018021299911197,1077.146128399996,None,1077.146128399996,None,1077.146128399996,None,1077.146128399996,None,1077.146128399996,None,1077.146128399996,None,1081.4607701999776,None,1081.4607701999776,None,0.002919729973655194,0.5029197299736552,1081.4607701999776,None,1081.4607701999776,None,1081.4607701999776,None,1081.4607701999776,None,1081.4607701999776,None,1081.4607701999776,None,14.099999999999994,1.347,1085.0378208999755,None,2050,,,,,,,,,,,,,,,,,,,f,20,chenlu,2022_Jan_10_0931,emotion,2021.2.3,60.10879691814268,
68,partial,50,0.2,0,0.8,blue,200,0.2,50,0.8,blue,blue,red,blue,red,72,72,5,67,5,67,"[-6.7, 1.9]","[9.3, 1.9]","[-9.3, -1.9]","[6.7, -1.9]",50,200,0,50,0,84,84,58,,,,,,,,,,,,,,,,,0.014342759997816756,0.5143427599978168,1086.0690171000024,None,1086.0690171000024,None,right,1.1561752999841701,1086.0690171000024,None,1086.0690171000024,None,1086.0690171000024,None,1086.0690171000024,None,1086.0690171000024,None,1087.2905426999787,None,1087.2905426999787,None,0.000989730004221201,0.5009897300042212,1087.2905426999787,None,1087.2905426999787,None,1087.2905426999787,None,1087.2905426999787,None,1087.2905426999787,None,1087.2905426999787,None,1091.9091838999884,None,1091.9091838999884,None,0.0040469300001859665,0.504046930000186,1091.9091838999884,None,1091.9091838999884,None,1091.9091838999884,None,1091.9091838999884,None,1091.9091838999884,None,1091.9091838999884,None,17.299999999999997,1.413,1095.5028500999906,None,2250,,,,,,,,,,,,,,,,,,,f,20,chenlu,2022_Jan_10_0931,emotion,2021.2.3,60.10879691814268,
299,partial,0,0.5,-50,0.5,red,0,0.8,-200,0.2,blue,red,blue,red,blue,180,72,5,175,77,355,"[-10, 0]","[6.7, -1.9]","[-6, 0]","[9.3, 1.9]",-50,0,0,-200,0,85,85,42,,,,,,,,,,,,,,,,,0.012624460010556504,0.5126244600105565,1096.524330299988,None,1096.524330299988,None,left,1.353678100014804,1096.524330299988,None,1096.524330299988,None,1096.524330299988,None,1096.524330299988,None,1096.524330299988,None,1097.9243335999781,None,1097.9243335999781,None,0.0019381300080567598,0.5019381300080568,1097.9243335999781,None,1097.9243335999781,None,1097.9243335999781,None,1097.9243335999781,None,1097.9243335999781,None,1097.9243335999781,None,1101.9790005999967,None,1101.9790005999967,None,0.0038623299915343523,0.5038623299915344,1101.9790005999967,None,1101.9790005999967,None,1101.9790005999967,None,1101.9790005999967,None,1101.9790005999967,None,1101.9790005999967,None,-6.799999999999997,1.523,1105.5923669999756,None,2200,,,,,,,,,,,,,,,,,,,f,20,chenlu,2022_Jan_10_0931,emotion,2021.2.3,60.10879691814268,
278,partial,50,0.8,0,0.2,red,200,0.8,0,0.2,blue,red,blue,red,blue,72,72,5,67,77,355,"[-9.3, -1.9]","[6.7, -1.9]","[-6.7, 1.9]","[9.3, 1.9]",0,200,50,0,0,86,86,102,,,,,,,,,,,,,,,,,0.016144359979080036,0.51614435997908,1106.6201366999885,None,1106.6201366999885,None,right,1.6995580000220798,1106.6201366999885,None,1106.6201366999885,None,1106.6201366999885,None,1106.6201366999885,None,1106.6201366999885,None,1108.3827208000002,None,1108.3827208000002,None,0.0004447299870662391,0.5004447299870662,1108.3827208000002,None,1108.3827208000002,None,1108.3827208000002,None,1108.3827208000002,None,1108.3827208000002,None,1108.3827208000002,None,1112.8980821000005,None,1112.8980821000005,None,0.003309330000774935,0.5033093300007749,1112.8980821000005,None,1112.8980821000005,None,1112.8980821000005,None,1112.8980821000005,None,1112.8980821000005,None,1112.8980821000005,None,12.700000000000003,1.612,1116.606398599979,None,2400,,,,,,,,,,,,,,,,,,,f,20,chenlu,2022_Jan_10_0931,emotion,2021.2.3,60.10879691814268,
275,partial,50,0.2,0,0.8,red,200,0.8,0,0.2,blue,blue,red,red,blue,72,72,77,355,77,355,"[-6.7, 1.9]","[6.7, -1.9]","[-9.3, -1.9]","[9.3, 1.9]",0,200,50,0,0,87,87,90,,,,,,,,,,,,,,,,,0.010234860004857183,0.5102348600048572,1117.6315228999883,None,1117.6315228999883,None,right,2.4180323999898974,1117.6315228999883,None,1117.6315228999883,None,1117.6315228999883,None,1117.6315228999883,None,1117.6315228999883,None,1120.0984404999763,None,1120.0984404999763,None,0.002126430015778169,0.5021264300157782,1120.0984404999763,None,1120.0984404999763,None,1120.0984404999763,None,1120.0984404999763,None,1120.0984404999763,None,1120.0984404999763,None,1124.7798273999942,None,1124.7798273999942,None,0.0033347500138916075,0.5033347500138916,1124.7798273999942,None,1124.7798273999942,None,1124.7798273999942,None,1124.7798273999942,None,1124.7798273999942,None,1124.7798273999942,None,14.5,1.403,1128.2923485999927,None,2600,,,,,,,,,,,,,,,,,,,f,20,chenlu,2022_Jan_10_0931,emotion,2021.2.3,60.10879691814268,
277,partial,50,0.8,0,0.2,red,200,0.2,0,0.8,blue,red,blue,blue,red,72,72,5,67,5,67,"[-9.3, -1.9]","[9.3, 1.9]","[-6.7, 1.9]","[6.7, -1.9]",0,200,50,0,0,88,88,66,,,,,,,,,,,,,,,,,0.01418826001463458,0.5141882600146346,1129.3126971999882,None,1129.3126971999882,None,right,3.117266799992649,1129.3126971999882,None,1129.3126971999882,None,1129.3126971999882,None,1129.3126971999882,None,1129.3126971999882,None,1132.4920999000024,None,1132.4920999000024,None,0.0029478299838956445,0.5029478299838956,1132.4920999000024,None,1132.4920999000024,None,1132.4920999000024,None,1132.4920999000024,None,1132.4920999000024,None,1132.4920999000024,None,1136.9520445999806,None,1136.9520445999806,None,0.004501929972320795,0.5045019299723208,1136.9520445999806,None,1136.9520445999806,None,1136.9520445999806,None,1136.9520445999806,None,1136.9520445999806,None,1136.9520445999806,None,18.299999999999997,1.437,1140.5548392999917,None,2800,,,,,,,,,,,,,,,,,,,f,20,chenlu,2022_Jan_10_0931,emotion,2021.2.3,60.10879691814268,
317,partial,0,0.5,-50,0.5,red,-50,0.2,-200,0.8,blue,red,blue,blue,red,180,72,5,175,5,67,"[-10, 0]","[9.3, 1.9]","[-6, 0]","[6.7, -1.9]",-50,-50,0,-200,0,89,89,8,,,,,,,,,,,,,,,,,0.013198759959777817,0.5131987599597778,1141.5341440999764,None,1141.5341440999764,None,left,1.5639334000006784,1141.5341440999764,None,1141.5341440999764,None,1141.5341440999764,None,1141.5341440999764,None,1141.5341440999764,None,1143.1651409999758,None,1143.1651409999758,None,0.0009593299764674157,0.5009593299764674,1143.1651409999758,None,1143.1651409999758,None,1143.1651409999758,None,1143.1651409999758,None,1143.1651409999758,None,1143.1651409999758,None,1147.4431353999826,None,1147.4431353999826,None,0.002754030021606013,0.502754030021606,1147.4431353999826,None,1147.4431353999826,None,1147.4431353999826,None,1147.4431353999826,None,1147.4431353999826,None,1147.4431353999826,None,-7.600000000000001,2.398,1152.085767099983,None,2750,,,,,,,,,,,,,,,,,,,f,20,chenlu,2022_Jan_10_0931,emotion,2021.2.3,60.10879691814268,
398,partial,200,0.5,0,0.5,red,200,0.2,50,0.8,red,red,blue,blue,red,180,72,5,175,77,355,"[-10, 0]","[9.3, 1.9]","[-6, 0]","[6.7, -1.9]",0,50,200,200,0,90,90,65,,,,,,,,,,,,,,,,,0.014586560020688921,0.5145865600206889,1153.1037126999872,None,1153.1037126999872,None,left,5.241467300016666,1153.1037126999872,None,1153.1037126999872,None,1153.1037126999872,None,1153.1037126999872,None,1153.1037126999872,None,1158.4090901000018,None,1158.4090901000018,None,0.0027855299995280802,0.5027855299995281,1158.4090901000018,None,1158.4090901000018,None,1158.4090901000018,None,1158.4090901000018,None,1158.4090901000018,None,1158.4090901000018,None,1162.6615029999812,None,1162.6615029999812,None,0.002914330019848421,0.5029143300198484,1162.6615029999812,None,1162.6615029999812,None,1162.6615029999812,None,1162.6615029999812,None,1162.6615029999812,None,1162.6615029999812,None,-4.299999999999997,1.89,1166.6514314999804,None,2750,,,,,,,,,,,,,,,,,,,f,20,chenlu,2022_Jan_10_0931,emotion,2021.2.3,60.10879691814268,
189,partial,200,0.8,0,0.2,blue,200,0.8,50,0.2,red,red,blue,red,blue,72,72,77,355,5,67,"[-9.3, -1.9]","[6.7, -1.9]","[-6.7, 1.9]","[9.3, 1.9]",200,50,0,200,0,91,91,107,,,,,,,,,,,,,,,,,0.016095959959784523,0.5160959599597845,1167.696032799984,None,1167.696032799984,None,right,1.5013080000062473,1167.696032799984,None,1167.696032799984,None,1167.696032799984,None,1167.696032799984,None,1167.696032799984,None,1169.3219223999768,None,1169.3219223999768,None,0.000491429993417114,0.5004914299934171,1169.3219223999768,None,1169.3219223999768,None,1169.3219223999768,None,1169.3219223999768,None,1169.3219223999768,None,1169.3219223999768,None,1173.6627778999973,None,1173.6627778999973,None,0.003605929989134893,0.5036059299891349,1173.6627778999973,None,1173.6627778999973,None,1173.6627778999973,None,1173.6627778999973,None,1173.6627778999973,None,1173.6627778999973,None,4.399999999999999,1.405,1177.1429596999951,None,2800,,,,,,,,,,,,,,,,,,,f,20,chenlu,2022_Jan_10_0931,emotion,2021.2.3,60.10879691814268,
399,partial,200,0.5,0,0.5,red,200,0.8,50,0.2,red,red,blue,red,blue,180,72,5,175,5,67,"[-10, 0]","[6.7, -1.9]","[-6, 0]","[9.3, 1.9]",0,50,200,200,0,92,92,101,,,,,,,,,,,,,,,,,0.009565259970258921,0.5095652599702589,1178.2510222999845,None,1178.2510222999845,None,right,2.741467999992892,1178.2510222999845,None,1178.2510222999845,None,1178.2510222999845,None,1178.2510222999845,None,1178.2510222999845,None,1181.0436666999885,None,1181.0436666999885,None,0.002533530001528561,0.5025335300015286,1181.0436666999885,None,1181.0436666999885,None,1181.0436666999885,None,1181.0436666999885,None,1181.0436666999885,None,1181.0436666999885,None,1184.8893518999976,None,1184.8893518999976,None,0.0028816300036851317,0.5028816300036851,1184.8893518999976,None,1184.8893518999976,None,1184.8893518999976,None,1184.8893518999976,None,1184.8893518999976,None,1184.8893518999976,None,7.799999999999997,1.45,1188.4393446999893,None,2850,,,,,,,,,,,,,,,,,,,f,20,chenlu,2022_Jan_10_0931,emotion,2021.2.3,60.10879691814268,
283,partial,50,0.2,0,0.8,red,200,0.5,50,0.5,blue,blue,red,red,blue,72,180,77,355,185,355,"[-6.7, 1.9]","[6, 0]","[-9.3, -1.9]","[10, 0]",0,200,50,50,0,93,93,76,,,,,,,,,,,,,,,,,0.015590959985274822,0.5155909599852748,1189.4731575000042,None,1189.4731575000042,None,right,1.9653689000115264,1189.4731575000042,None,1189.4731575000042,None,1189.4731575000042,None,1189.4731575000042,None,1189.4731575000042,None,1191.4987644999928,None,1191.4987644999928,None,0.0013278299884404987,0.5013278299884405,1191.4987644999928,None,1191.4987644999928,None,1191.4987644999928,None,1191.4987644999928,None,1191.4987644999928,None,1191.4987644999928,None,1195.373619399994,None,1195.373619399994,None,0.005477830010931939,0.5054778300109319,1195.373619399994,None,1195.373619399994,None,1195.373619399994,None,1195.373619399994,None,1195.373619399994,None,1195.373619399994,None,5.100000000000001,1.48,1198.9637599999842,None,3050,,,,,,,,,,,,,,,,,,,f,20,chenlu,2022_Jan_10_0931,emotion,2021.2.3,60.10879691814268,
76,partial,200,0.2,0,0.8,blue,200,0.5,50,0.5,blue,blue,red,red,blue,72,180,5,67,185,355,"[-6.7, 1.9]","[6, 0]","[-9.3, -1.9]","[10, 0]",200,200,0,50,0,94,94,74,,,,,,,,,,,,,,,,,0.013450760015984997,0.513450760015985,1199.990212499979,None,1199.990212499979,None,right,1.6354812000063248,1199.990212499979,None,1199.990212499979,None,1199.990212499979,None,1199.990212499979,None,1199.990212499979,None,1201.6895758000028,None,1201.6895758000028,None,0.0010333299869671464,0.5010333299869671,1201.6895758000028,None,1201.6895758000028,None,1201.6895758000028,None,1201.6895758000028,None,1201.6895758000028,None,1201.6895758000028,None,1206.2586722999986,None,1206.2586722999986,None,0.004380230006063357,0.5043802300060634,1206.2586722999986,None,1206.2586722999986,None,1206.2586722999986,None,1206.2586722999986,None,1206.2586722999986,None,1206.2586722999986,None,9.799999999999997,1.524,1209.8874928999867,None,3250,,,,,,,,,,,,,,,,,,,f,20,chenlu,2022_Jan_10_0931,emotion,2021.2.3,60.10879691814268,
204,partial,0,0.2,-200,0.8,blue,-50,0.8,-200,0.2,red,blue,red,red,blue,72,72,5,67,5,67,"[-6.7, 1.9]","[6.7, -1.9]","[-9.3, -1.9]","[9.3, 1.9]",0,-200,-200,-50,0,95,95,37,,,,,,,,,,,,,,,,,0.005127389973495156,0.5051273899734952,1210.948397799977,None,1210.948397799977,None,right,2.268778600002406,1210.948397799977,None,1210.948397799977,None,1210.948397799977,None,1210.948397799977,None,1210.948397799977,None,1213.268338199996,None,1213.268338199996,None,0.0015110299864318222,0.5015110299864318,1213.268338199996,None,1213.268338199996,None,1213.268338199996,None,1213.268338199996,None,1213.268338199996,None,1213.268338199996,None,1217.8703309999837,None,1217.8703309999837,None,0.0034694299974944443,0.5034694299974944,1217.8703309999837,None,1217.8703309999837,None,1217.8703309999837,None,1217.8703309999837,None,1217.8703309999837,None,1217.8703309999837,None,-34.7,1.408,1221.3681918999937,None,3050,,,,,,,,,,,,,,,,,,,f,20,chenlu,2022_Jan_10_0931,emotion,2021.2.3,60.10879691814268,
181,partial,200,0.5,0,0.5,blue,200,0.5,50,0.5,red,red,blue,red,blue,180,180,185,355,5,175,"[-10, 0]","[6, 0]","[-6, 0]","[10, 0]",200,50,0,200,0,96,96,83,,,,,,,,,,,,,,,,,0.008245060016633943,0.5082450600166339,1222.409269099997,None,1222.409269099997,None,right,1.2830525999888778,1222.409269099997,None,1222.409269099997,None,1222.409269099997,None,1222.409269099997,None,1222.409269099997,None,1223.7570019999985,None,1223.7570019999985,None,9.192997822538018e-05,0.5000919299782254,1223.7570019999985,None,1223.7570019999985,None,1223.7570019999985,None,1223.7570019999985,None,1223.7570019999985,None,1223.7570019999985,None,1228.5175724999863,None,1228.5175724999863,None,0.0028900299803353846,0.5028900299803354,1228.5175724999863,None,1228.5175724999863,None,1228.5175724999863,None,1228.5175724999863,None,1228.5175724999863,None,1228.5175724999863,None,6.799999999999997,1.466,1232.1419920999906,None,3100,,,,,,,,,,,,,,,,,,,f,20,chenlu,2022_Jan_10_0931,emotion,2021.2.3,60.10879691814268,
380,partial,50,0.5,0,0.5,red,200,0.8,0,0.2,red,red,blue,red,blue,180,72,5,175,5,67,"[-10, 0]","[6.7, -1.9]","[-6, 0]","[9.3, 1.9]",0,0,50,200,0,97,97,99,,,,,,,,,,,,,,,,,0.008164390019373968,0.508164390019374,1233.1933616999886,None,1233.1933616999886,None,right,1.6400750000029802,1233.1933616999886,None,1233.1933616999886,None,1233.1933616999886,None,1233.1933616999886,None,1233.1933616999886,None,1234.8940587999823,None,1234.8940587999823,None,0.0008857299690134823,0.5008857299690135,1234.8940587999823,None,1234.8940587999823,None,1234.8940587999823,None,1234.8940587999823,None,1234.8940587999823,None,1234.8940587999823,None,1239.0571801000042,None,1239.0571801000042,None,0.0028166300035081804,0.5028166300035082,1239.0571801000042,None,1239.0571801000042,None,1239.0571801000042,None,1239.0571801000042,None,1239.0571801000042,None,1239.0571801000042,None,3.8999999999999986,4.754,1245.8984579999815,None,3100,,,,,,,,,,,,,,,,,,,f,20,chenlu,2022_Jan_10_0931,emotion,2021.2.3,60.10879691814268,
