trialNumber,trialType,x1,p,y1,p2,outcome1,x2,q,y2,q2,outcome2,LWedgeCol,LCircleCol,RWedgeCol,RCircleCol,Lslice,Rslice,L1,L2,R1,R2,x1Pos,x2Pos,y1Pos,y2Pos,leftPoints,rightPoints,LeftYourUn,RightYouUn,trials.thisRepN,trials.thisTrialN,trials.thisN,trials.thisIndex,trials_2.thisRepN,trials_2.thisTrialN,trials_2.thisN,trials_2.thisIndex,image.started,image.stopped,key_resp_5.keys,key_resp_5.rt,key_resp_5.started,key_resp_5.stopped,image_2.started,image_2.stopped,key_resp_2.keys,key_resp_2.rt,key_resp_2.started,key_resp_2.stopped,ISI_2.started,ISI_2.stopped,arrowL_2.started,arrowL_2.stopped,arrowR_2.started,arrowR_2.stopped,key_resp_4.keys,key_resp_4.rt,key_resp_4.started,key_resp_4.stopped,blueLVal_2.started,blueLVal_2.stopped,blueRVal_2.started,blueRVal_2.stopped,redLVal_2.started,redLVal_2.stopped,redRVal_2.started,redRVal_2.stopped,right.started,right.stopped,left.started,left.stopped,ISI.started,ISI.stopped,arrowL.started,arrowL.stopped,arrowR.started,arrowR.stopped,blueLVal.started,blueLVal.stopped,blueRVal.started,blueRVal.stopped,redLVal.started,redLVal.stopped,redRVal.started,redRVal.stopped,right_2.started,right_2.stopped,left_2.started,left_2.stopped,ISI_4.started,ISI_4.stopped,arrowL_3.started,arrowL_3.stopped,arrowR_3.started,arrowR_3.stopped,blueLVal_3.started,blueLVal_3.stopped,blueRVal_3.started,blueRVal_3.stopped,redLVal_3.started,redLVal_3.stopped,redRVal_3.started,redRVal_3.stopped,rating,ratingrt,text_5.started,text_5.stopped,totalScore,image_4.started,image_4.stopped,key_resp_3.keys,key_resp_3.rt,key_resp_3.started,key_resp_3.stopped,image_5.started,image_5.stopped,key_resp.keys,key_resp.rt,key_resp.started,key_resp.stopped,image_3.started,image_3.stopped,key_resp_9.keys,key_resp_9.rt,key_resp_9.started,key_resp_9.stopped,gender,age,participant,date,expName,psychopyVersion,frameRate,
,,,,,,,,,,,,,,,,,,,,,,,,,,,,,,,,,,,,,,27.098124500131235,None,space,3.123422499978915,27.098124500131235,None,,,,,,,,,,,,,,,,,,,,,,,,,,,,,,,,,,,,,,,,,,,,,,,,,,,,,,,,,,,,,,,,,,,,,,,,,,,,,,,,,,,,f,25,gululu,2022_Jan_08_1900,emotion,2021.1.4,59.96634690910326,
,,,,,,,,,,,,,,,,,,,,,,,,,,,,,,,,,,,,,,,,,,,,30.25905829994008,None,space,1.4046789000276476,30.25905829994008,None,,,,,,,,,,,,,,,,,,,,,,,,,,,,,,,,,,,,,,,,,,,,,,,,,,,,,,,,,,,,,,,,,,,,,,,,,,,,,,f,25,gululu,2022_Jan_08_1900,emotion,2021.1.4,59.96634690910326,
176,partial,50,0.2,0,0.8,blue,200,0.2,50,0.8,red,blue,red,blue,red,72,72,5,67,77,355,"[-6.7, 1.9]","[9.3, 1.9]","[-9.3, -1.9]","[6.7, -1.9]",50,50,0,200,0,0,0,58,,,,,,,,,,,,,,,,,0.009001200553029776,0.5090012005530298,31.94035469996743,None,31.94035469996743,None,right,2.933829399989918,31.94035469996743,None,31.94035469996743,None,31.94035469996743,None,31.94035469996743,None,31.94035469996743,None,34.90961810015142,None,34.90961810015142,None,0.004373650066554546,0.5043736500665545,34.90961810015142,None,34.90961810015142,None,34.90961810015142,None,34.90961810015142,None,34.90961810015142,None,34.90961810015142,None,37.5420697000809,None,37.5420697000809,None,0.0065639500971883535,0.5065639500971884,37.5420697000809,None,37.5420697000809,None,37.5420697000809,None,37.5420697000809,None,37.5420697000809,None,37.5420697000809,None,4.600000000000001,4.422,44.050214800052345,None,50,,,,,,,,,,,,,,,,,,,f,25,gululu,2022_Jan_08_1900,emotion,2021.1.4,59.96634690910326,
61,partial,50,0.8,0,0.2,blue,200,0.2,0,0.8,blue,red,blue,blue,red,72,72,77,355,5,67,"[-9.3, -1.9]","[9.3, 1.9]","[-6.7, 1.9]","[6.7, -1.9]",50,200,0,0,0,1,1,69,,,,,,,,,,,,,,,,,0.004236999899148941,0.5042369998991489,45.09906670008786,None,45.09906670008786,None,left,5.833220900036395,45.09906670008786,None,45.09906670008786,None,45.09906670008786,None,45.09906670008786,None,45.09906670008786,None,50.957568200072274,None,50.957568200072274,None,0.00590535020455718,0.5059053502045572,50.957568200072274,None,50.957568200072274,None,50.957568200072274,None,50.957568200072274,None,50.957568200072274,None,50.957568200072274,None,53.836927599972114,None,53.836927599972114,None,0.007977649802342057,0.5079776498023421,53.836927599972114,None,53.836927599972114,None,53.836927599972114,None,53.836927599972114,None,53.836927599972114,None,53.836927599972114,None,7.5,3.181,59.07895680004731,None,100,,,,,,,,,,,,,,,,,,,f,25,gululu,2022_Jan_08_1900,emotion,2021.1.4,59.96634690910326,
423,partial,0,0.8,-200,0.2,red,-50,0.8,-200,0.2,red,red,blue,red,blue,72,72,5,67,5,67,"[-9.3, -1.9]","[6.7, -1.9]","[-6.7, 1.9]","[9.3, 1.9]",-200,-200,0,-50,0,2,2,52,,,,,,,,,,,,,,,,,0.0028214999474585056,0.5028214999474585,60.108790300088,None,60.108790300088,None,left,6.401905199978501,60.108790300088,None,60.108790300088,None,60.108790300088,None,60.108790300088,None,60.108790300088,None,66.53842910006642,None,66.53842910006642,None,0.0050234501250088215,0.5050234501250088,66.53842910006642,None,66.53842910006642,None,66.53842910006642,None,66.53842910006642,None,66.53842910006642,None,66.53842910006642,None,69.05086480011232,None,69.05086480011232,None,0.00851544993929565,0.5085154499392956,69.05086480011232,None,69.05086480011232,None,69.05086480011232,None,69.05086480011232,None,69.05086480011232,None,69.05086480011232,None,-28.9,2.298,73.39274800010026,None,-100,,,,,,,,,,,,,,,,,,,f,25,gululu,2022_Jan_08_1900,emotion,2021.1.4,59.96634690910326,
405,partial,200,0.8,0,0.2,red,200,0.8,50,0.2,red,red,blue,red,blue,72,72,5,67,5,67,"[-9.3, -1.9]","[6.7, -1.9]","[-6.7, 1.9]","[9.3, 1.9]",0,50,200,200,0,3,3,104,,,,,,,,,,,,,,,,,0.0033412000630050898,0.5033412000630051,74.42260850011371,None,74.42260850011371,None,right,1.8118640000466257,74.42260850011371,None,74.42260850011371,None,74.42260850011371,None,74.42260850011371,None,74.42260850011371,None,76.26987960003316,None,76.26987960003316,None,0.006955449935048819,0.5069554499350488,76.26987960003316,None,76.26987960003316,None,76.26987960003316,None,76.26987960003316,None,76.26987960003316,None,76.26987960003316,None,78.93199860001914,None,78.93199860001914,None,0.007508249953389168,0.5075082499533892,78.93199860001914,None,78.93199860001914,None,78.93199860001914,None,78.93199860001914,None,78.93199860001914,None,78.93199860001914,None,7.100000000000001,2.982,83.95726780011319,None,-50,,,,,,,,,,,,,,,,,,,f,25,gululu,2022_Jan_08_1900,emotion,2021.1.4,59.96634690910326,
58,partial,50,0.2,0,0.8,blue,200,0.2,0,0.8,blue,blue,red,blue,red,72,72,5,67,5,67,"[-6.7, 1.9]","[9.3, 1.9]","[-9.3, -1.9]","[6.7, -1.9]",50,200,0,0,0,4,4,57,,,,,,,,,,,,,,,,,0.013101250166073442,0.5131012501660734,85.0076749001164,None,85.0076749001164,None,right,2.5037279999814928,85.0076749001164,None,85.0076749001164,None,85.0076749001164,None,85.0076749001164,None,85.0076749001164,None,87.56134869996458,None,87.56134869996458,None,0.012987700058147311,0.5129877000581473,87.56134869996458,None,87.56134869996458,None,87.56134869996458,None,87.56134869996458,None,87.56134869996458,None,87.56134869996458,None,90.13234310015105,None,90.13234310015105,None,0.0059490499552339315,0.5059490499552339,90.13234310015105,None,90.13234310015105,None,90.13234310015105,None,90.13234310015105,None,90.13234310015105,None,90.13234310015105,None,24.099999999999994,1.75,93.9222119001206,None,150,,,,,,,,,,,,,,,,,,,f,25,gululu,2022_Jan_08_1900,emotion,2021.1.4,59.96634690910326,
70,partial,50,0.8,0,0.2,blue,200,0.5,50,0.5,blue,red,blue,red,blue,72,180,77,355,185,355,"[-9.3, -1.9]","[6, 0]","[-6.7, 1.9]","[10, 0]",50,200,0,50,0,5,5,85,,,,,,,,,,,,,,,,,0.005748450290411711,0.5057484502904117,94.93099529994652,None,94.93099529994652,None,right,1.9856894998811185,94.93099529994652,None,94.93099529994652,None,94.93099529994652,None,94.93099529994652,None,94.93099529994652,None,96.94832820002921,None,96.94832820002921,None,0.005417149979621172,0.5054171499796212,96.94832820002921,None,96.94832820002921,None,96.94832820002921,None,96.94832820002921,None,96.94832820002921,None,96.94832820002921,None,99.72961920010857,None,99.72961920010857,None,0.0077952498104423285,0.5077952498104423,99.72961920010857,None,99.72961920010857,None,99.72961920010857,None,99.72961920010857,None,99.72961920010857,None,99.72961920010857,None,28.299999999999997,1.751,103.52010109997354,None,350,,,,,,,,,,,,,,,,,,,f,25,gululu,2022_Jan_08_1900,emotion,2021.1.4,59.96634690910326,
279,partial,50,0.8,0,0.2,red,200,0.5,0,0.5,blue,red,blue,red,blue,72,180,5,67,185,355,"[-9.3, -1.9]","[6, 0]","[-6.7, 1.9]","[10, 0]",0,200,50,0,0,6,6,87,,,,,,,,,,,,,,,,,0.010453300084918737,0.5104533000849187,104.54438260011375,None,104.54438260011375,None,right,1.718402000144124,104.54438260011375,None,104.54438260011375,None,104.54438260011375,None,104.54438260011375,None,104.54438260011375,None,106.297766600037,None,106.297766600037,None,0.00561714987270534,0.5056171498727053,106.297766600037,None,106.297766600037,None,106.297766600037,None,106.297766600037,None,106.297766600037,None,106.297766600037,None,109.19363550003618,None,109.19363550003618,None,0.007824850268661976,0.507824850268662,109.19363550003618,None,109.19363550003618,None,109.19363550003618,None,109.19363550003618,None,109.19363550003618,None,109.19363550003618,None,38.5,1.567,112.80167210008949,None,550,,,,,,,,,,,,,,,,,,,f,25,gululu,2022_Jan_08_1900,emotion,2021.1.4,59.96634690910326,
280,partial,50,0.5,0,0.5,red,200,0.5,50,0.5,blue,red,blue,red,blue,180,180,5,175,185,355,"[-10, 0]","[6, 0]","[-6, 0]","[10, 0]",0,200,50,50,0,7,7,79,,,,,,,,,,,,,,,,,0.016160350060090423,0.5161603500600904,113.83680770010687,None,113.83680770010687,None,right,1.54067109990865,113.83680770010687,None,113.83680770010687,None,113.83680770010687,None,113.83680770010687,None,113.83680770010687,None,115.41713159997016,None,115.41713159997016,None,0.004770649829879403,0.5047706498298794,115.41713159997016,None,115.41713159997016,None,115.41713159997016,None,115.41713159997016,None,115.41713159997016,None,115.41713159997016,None,118.3584863001015,None,118.3584863001015,None,0.00782395014539361,0.5078239501453936,118.3584863001015,None,118.3584863001015,None,118.3584863001015,None,118.3584863001015,None,118.3584863001015,None,118.3584863001015,None,42.5,2.7,123.10249490011483,None,750,,,,,,,,,,,,,,,,,,,f,25,gululu,2022_Jan_08_1900,emotion,2021.1.4,59.96634690910326,
182,partial,200,0.5,0,0.5,blue,200,0.2,50,0.8,red,red,blue,blue,red,180,72,185,355,77,355,"[-10, 0]","[9.3, 1.9]","[-6, 0]","[6.7, -1.9]",200,50,0,200,0,8,8,62,,,,,,,,,,,,,,,,,0.010684850392863154,0.5106848503928632,124.16302580013871,None,124.16302580013871,None,right,1.6204231998417526,124.16302580013871,None,124.16302580013871,None,124.16302580013871,None,124.16302580013871,None,124.16302580013871,None,125.80955100012943,None,125.80955100012943,None,0.006004150025546551,0.5060041500255466,125.80955100012943,None,125.80955100012943,None,125.80955100012943,None,125.80955100012943,None,125.80955100012943,None,125.80955100012943,None,128.45483479998074,None,128.45483479998074,None,0.007931350264698267,0.5079313502646983,128.45483479998074,None,128.45483479998074,None,128.45483479998074,None,128.45483479998074,None,128.45483479998074,None,128.45483479998074,None,5.600000000000001,3.601,134.0976859999355,None,800,,,,,,,,,,,,,,,,,,,f,25,gululu,2022_Jan_08_1900,emotion,2021.1.4,59.96634690910326,
216,partial,0,0.8,-50,0.2,blue,-50,0.8,-200,0.2,red,red,blue,red,blue,72,72,77,355,5,67,"[-9.3, -1.9]","[6.7, -1.9]","[-6.7, 1.9]","[9.3, 1.9]",0,-200,-50,-50,0,9,9,50,,,,,,,,,,,,,,,,,0.015034250216558576,0.5150342502165586,135.13231210014783,None,135.13231210014783,None,left,3.4178577000275254,135.13231210014783,None,135.13231210014783,None,135.13231210014783,None,135.13231210014783,None,135.13231210014783,None,138.58934950013645,None,138.58934950013645,None,0.006569150136783719,0.5065691501367837,138.58934950013645,None,138.58934950013645,None,138.58934950013645,None,138.58934950013645,None,138.58934950013645,None,138.58934950013645,None,141.43715450004674,None,141.43715450004674,None,0.008062250213697553,0.5080622502136976,141.43715450004674,None,141.43715450004674,None,141.43715450004674,None,141.43715450004674,None,141.43715450004674,None,141.43715450004674,None,20.299999999999997,1.934,145.4119333999697,None,800,,,,,,,,,,,,,,,,,,,f,25,gululu,2022_Jan_08_1900,emotion,2021.1.4,59.96634690910326,
163,partial,50,0.5,0,0.5,blue,200,0.2,0,0.8,red,red,blue,blue,red,180,72,185,355,77,355,"[-10, 0]","[9.3, 1.9]","[-6, 0]","[6.7, -1.9]",50,0,0,200,0,10,10,60,,,,,,,,,,,,,,,,,0.014037750428542495,0.5140377504285425,146.4607031000778,None,146.4607031000778,None,right,1.7391721999738365,146.4607031000778,None,146.4607031000778,None,146.4607031000778,None,146.4607031000778,None,146.4607031000778,None,148.23846270004287,None,148.23846270004287,None,0.005930350162088871,0.5059303501620889,148.23846270004287,None,148.23846270004287,None,148.23846270004287,None,148.23846270004287,None,148.23846270004287,None,148.23846270004287,None,150.93539360002615,None,150.93539360002615,None,0.008039850043132901,0.5080398500431329,150.93539360002615,None,150.93539360002615,None,150.93539360002615,None,150.93539360002615,None,150.93539360002615,None,150.93539360002615,None,-3.6000000000000014,1.917,154.89359629992396,None,800,,,,,,,,,,,,,,,,,,,f,25,gululu,2022_Jan_08_1900,emotion,2021.1.4,59.96634690910326,
309,partial,0,0.5,-200,0.5,red,-50,0.8,-200,0.2,blue,red,blue,red,blue,180,72,5,175,77,355,"[-10, 0]","[6.7, -1.9]","[-6, 0]","[9.3, 1.9]",-200,-50,0,-200,0,11,11,43,,,,,,,,,,,,,,,,,0.0012832002248615026,0.5012832002248615,155.92557930015028,None,155.92557930015028,None,left,3.106784699950367,155.92557930015028,None,155.92557930015028,None,155.92557930015028,None,155.92557930015028,None,155.92557930015028,None,159.06931450008415,None,159.06931450008415,None,0.0054190498776733875,0.5054190498776734,159.06931450008415,None,159.06931450008415,None,159.06931450008415,None,159.06931450008415,None,159.06931450008415,None,159.06931450008415,None,161.84932360006496,None,161.84932360006496,None,0.007631750078871846,0.5076317500788718,161.84932360006496,None,161.84932360006496,None,161.84932360006496,None,161.84932360006496,None,161.84932360006496,None,161.84932360006496,None,-31.2,1.535,165.42486060014926,None,600,,,,,,,,,,,,,,,,,,,f,25,gululu,2022_Jan_08_1900,emotion,2021.1.4,59.96634690910326,
287,partial,50,0.8,0,0.2,red,200,0.2,50,0.8,blue,red,blue,blue,red,72,72,5,67,5,67,"[-9.3, -1.9]","[9.3, 1.9]","[-6.7, 1.9]","[6.7, -1.9]",0,200,50,50,0,12,12,67,,,,,,,,,,,,,,,,,0.00252130045555532,0.5025213004555553,166.45578740001656,None,166.45578740001656,None,right,1.542137400014326,166.45578740001656,None,166.45578740001656,None,166.45578740001656,None,166.45578740001656,None,166.45578740001656,None,168.0419704001397,None,168.0419704001397,None,0.014699700055643916,0.5146997000556439,168.0419704001397,None,168.0419704001397,None,168.0419704001397,None,168.0419704001397,None,168.0419704001397,None,168.0419704001397,None,170.98242360004224,None,170.98242360004224,None,0.007710650097578764,0.5077106500975788,170.98242360004224,None,170.98242360004224,None,170.98242360004224,None,170.98242360004224,None,170.98242360004224,None,170.98242360004224,None,25.599999999999994,1.402,174.4230482999701,None,800,,,,,,,,,,,,,,,,,,,f,25,gululu,2022_Jan_08_1900,emotion,2021.1.4,59.96634690910326,
304,partial,0,0.8,-50,0.2,red,0,0.2,-200,0.8,blue,red,blue,blue,red,72,72,5,67,5,67,"[-9.3, -1.9]","[9.3, 1.9]","[-6.7, 1.9]","[6.7, -1.9]",-50,0,0,-200,0,13,13,15,,,,,,,,,,,,,,,,,0.00015374994836747646,0.5001537499483675,175.43777740001678,None,175.43777740001678,None,left,1.7177244999911636,175.43777740001678,None,175.43777740001678,None,175.43777740001678,None,175.43777740001678,None,175.43777740001678,None,177.18180819996633,None,177.18180819996633,None,0.0062262502033263445,0.5062262502033263,177.18180819996633,None,177.18180819996633,None,177.18180819996633,None,177.18180819996633,None,177.18180819996633,None,177.18180819996633,None,179.6803844999522,None,179.6803844999522,None,0.00791735015809536,0.5079173501580954,179.6803844999522,None,179.6803844999522,None,179.6803844999522,None,179.6803844999522,None,179.6803844999522,None,179.6803844999522,None,-7.600000000000001,2.086,183.8044636999257,None,750,,,,,,,,,,,,,,,,,,,f,25,gululu,2022_Jan_08_1900,emotion,2021.1.4,59.96634690910326,
284,partial,50,0.2,0,0.8,red,200,0.2,50,0.8,blue,blue,red,blue,red,72,72,77,355,5,67,"[-6.7, 1.9]","[9.3, 1.9]","[-9.3, -1.9]","[6.7, -1.9]",0,200,50,50,0,14,14,55,,,,,,,,,,,,,,,,,0.010059950174763799,0.5100599501747638,184.84550069994293,None,184.84550069994293,None,right,1.474865600001067,184.84550069994293,None,184.84550069994293,None,184.84550069994293,None,184.84550069994293,None,184.84550069994293,None,186.34719490003772,None,186.34719490003772,None,0.005872850073501468,0.5058728500735015,186.34719490003772,None,186.34719490003772,None,186.34719490003772,None,186.34719490003772,None,186.34719490003772,None,186.34719490003772,None,189.32677219994366,None,189.32677219994366,None,0.007825949927791953,0.507825949927792,189.32677219994366,None,189.32677219994366,None,189.32677219994366,None,189.32677219994366,None,189.32677219994366,None,189.32677219994366,None,27.700000000000003,1.785,193.15029240003787,None,950,,,,,,,,,,,,,,,,,,,f,25,gululu,2022_Jan_08_1900,emotion,2021.1.4,59.96634690910326,
272,partial,50,0.5,0,0.5,red,200,0.8,0,0.2,blue,red,blue,red,blue,180,72,5,175,77,355,"[-10, 0]","[6.7, -1.9]","[-6, 0]","[9.3, 1.9]",0,200,50,0,0,15,15,99,,,,,,,,,,,,,,,,,0.002152599859982729,0.5021525998599827,194.18878810014576,None,194.18878810014576,None,right,1.5244999001733959,194.18878810014576,None,194.18878810014576,None,194.18878810014576,None,194.18878810014576,None,194.18878810014576,None,195.74455539998598,None,195.74455539998598,None,0.005868150154128671,0.5058681501541287,195.74455539998598,None,195.74455539998598,None,195.74455539998598,None,195.74455539998598,None,195.74455539998598,None,195.74455539998598,None,198.32628159993328,None,198.32628159993328,None,0.007990450132638216,0.5079904501326382,198.32628159993328,None,198.32628159993328,None,198.32628159993328,None,198.32628159993328,None,198.32628159993328,None,198.32628159993328,None,26.400000000000006,1.45,201.81765630003065,None,1150,,,,,,,,,,,,,,,,,,,f,25,gululu,2022_Jan_08_1900,emotion,2021.1.4,59.96634690910326,
103,partial,0,0.2,-50,0.8,blue,-50,0.5,-200,0.5,blue,blue,red,red,blue,72,180,5,67,185,355,"[-6.7, 1.9]","[6, 0]","[-9.3, -1.9]","[10, 0]",0,-50,-50,-200,0,16,16,23,,,,,,,,,,,,,,,,,0.0022861999459564686,0.5022861999459565,202.8485707999207,None,202.8485707999207,None,left,2.1835245999973267,202.8485707999207,None,202.8485707999207,None,202.8485707999207,None,202.8485707999207,None,202.8485707999207,None,205.06143569992855,None,205.06143569992855,None,0.005466950125992298,0.5054669501259923,205.06143569992855,None,205.06143569992855,None,205.06143569992855,None,205.06143569992855,None,205.06143569992855,None,205.06143569992855,None,208.05668399995193,None,208.05668399995193,None,0.00785884982906282,0.5078588498290628,208.05668399995193,None,208.05668399995193,None,208.05668399995193,None,208.05668399995193,None,208.05668399995193,None,208.05668399995193,None,18.900000000000006,2.385,212.48228460014798,None,1150,,,,,,,,,,,,,,,,,,,f,25,gululu,2022_Jan_08_1900,emotion,2021.1.4,59.96634690910326,
382,partial,50,0.2,0,0.8,red,200,0.2,0,0.8,red,blue,red,blue,red,72,72,77,355,77,355,"[-6.7, 1.9]","[9.3, 1.9]","[-9.3, -1.9]","[6.7, -1.9]",0,0,50,200,0,17,17,54,,,,,,,,,,,,,,,,,0.009430550038814545,0.5094305500388145,213.52411340014078,None,213.52411340014078,None,right,1.555081999860704,213.52411340014078,None,213.52411340014078,None,213.52411340014078,None,213.52411340014078,None,213.52411340014078,None,215.10586369992234,None,215.10586369992234,None,0.006341450149193406,0.5063414501491934,215.10586369992234,None,215.10586369992234,None,215.10586369992234,None,215.10586369992234,None,215.10586369992234,None,215.10586369992234,None,218.03895820002072,None,218.03895820002072,None,0.008478150004521012,0.508478150004521,218.03895820002072,None,218.03895820002072,None,218.03895820002072,None,218.03895820002072,None,218.03895820002072,None,218.03895820002072,None,-4.299999999999997,2.251,222.33024880010635,None,1150,,,,,,,,,,,,,,,,,,,f,25,gululu,2022_Jan_08_1900,emotion,2021.1.4,59.96634690910326,
65,partial,50,0.5,0,0.5,blue,200,0.2,50,0.8,blue,red,blue,blue,red,180,72,185,355,5,67,"[-10, 0]","[9.3, 1.9]","[-6, 0]","[6.7, -1.9]",50,200,0,50,0,18,18,61,,,,,,,,,,,,,,,,,0.016456750221550465,0.5164567502215505,223.36471300013363,None,223.36471300013363,None,right,2.4154236998874694,223.36471300013363,None,223.36471300013363,None,223.36471300013363,None,223.36471300013363,None,223.36471300013363,None,225.80718430015258,None,225.80718430015258,None,0.005673750303685665,0.5056737503036857,225.80718430015258,None,225.80718430015258,None,225.80718430015258,None,225.80718430015258,None,225.80718430015258,None,225.80718430015258,None,228.32055269996636,None,228.32055269996636,None,0.007676650071516633,0.5076766500715166,228.32055269996636,None,228.32055269996636,None,228.32055269996636,None,228.32055269996636,None,228.32055269996636,None,228.32055269996636,None,29.599999999999994,1.883,232.245013799984,None,1350,,,,,,,,,,,,,,,,,,,f,25,gululu,2022_Jan_08_1900,emotion,2021.1.4,59.96634690910326,
87,partial,0,0.2,-50,0.8,blue,0,0.5,-200,0.5,blue,blue,red,red,blue,72,180,5,67,185,355,"[-6.7, 1.9]","[6, 0]","[-9.3, -1.9]","[10, 0]",0,0,-50,-200,0,19,19,21,,,,,,,,,,,,,,,,,0.013102049939334393,0.5131020499393344,233.2999285000842,None,233.2999285000842,None,left,1.731140699936077,233.2999285000842,None,233.2999285000842,None,233.2999285000842,None,233.2999285000842,None,233.2999285000842,None,235.07221450004727,None,235.07221450004727,None,0.00576165015809238,0.5057616501580924,235.07221450004727,None,235.07221450004727,None,235.07221450004727,None,235.07221450004727,None,235.07221450004727,None,235.07221450004727,None,237.73452150006779,None,237.73452150006779,None,0.007837350014597178,0.5078373500145972,237.73452150006779,None,237.73452150006779,None,237.73452150006779,None,237.73452150006779,None,237.73452150006779,None,237.73452150006779,None,17.099999999999994,1.384,241.15997599996626,None,1350,,,,,,,,,,,,,,,,,,,f,25,gululu,2022_Jan_08_1900,emotion,2021.1.4,59.96634690910326,
385,partial,50,0.8,0,0.2,red,200,0.2,0,0.8,red,red,blue,blue,red,72,72,5,67,77,355,"[-9.3, -1.9]","[9.3, 1.9]","[-6.7, 1.9]","[6.7, -1.9]",0,0,50,200,0,20,20,66,,,,,,,,,,,,,,,,,0.006456149974837899,0.5064561499748379,242.16895020008087,None,242.16895020008087,None,right,1.5196482001338154,242.16895020008087,None,242.16895020008087,None,242.16895020008087,None,242.16895020008087,None,242.16895020008087,None,243.71938499994576,None,243.71938499994576,None,0.0056870500557124615,0.5056870500557125,243.71938499994576,None,243.71938499994576,None,243.71938499994576,None,243.71938499994576,None,243.71938499994576,None,243.71938499994576,None,246.41711720009334,None,246.41711720009334,None,0.007609250023961067,0.5076092500239611,246.41711720009334,None,246.41711720009334,None,246.41711720009334,None,246.41711720009334,None,246.41711720009334,None,246.41711720009334,None,-1.7000000000000028,1.318,249.77513640001416,None,1350,,,,,,,,,,,,,,,,,,,f,25,gululu,2022_Jan_08_1900,emotion,2021.1.4,59.96634690910326,
288,partial,50,0.8,0,0.2,red,200,0.8,50,0.2,blue,red,blue,red,blue,72,72,5,67,77,355,"[-9.3, -1.9]","[6.7, -1.9]","[-6.7, 1.9]","[9.3, 1.9]",0,200,50,50,0,21,21,103,,,,,,,,,,,,,,,,,0.014077050145715475,0.5140770501457155,250.81300880014896,None,250.81300880014896,None,right,1.8237908999435604,250.81300880014896,None,250.81300880014896,None,250.81300880014896,None,250.81300880014896,None,250.81300880014896,None,252.66763420007192,None,252.66763420007192,None,0.006229050224646926,0.5062290502246469,252.66763420007192,None,252.66763420007192,None,252.66763420007192,None,252.66763420007192,None,252.66763420007192,None,252.66763420007192,None,255.6477620000951,None,255.6477620000951,None,0.007905249949544668,0.5079052499495447,255.6477620000951,None,255.6477620000951,None,255.6477620000951,None,255.6477620000951,None,255.6477620000951,None,255.6477620000951,None,22.700000000000003,2.067,259.75630140001886,None,1550,,,,,,,,,,,,,,,,,,,f,25,gululu,2022_Jan_08_1900,emotion,2021.1.4,59.96634690910326,
414,partial,0,0.8,-50,0.2,red,0,0.5,-200,0.5,red,red,blue,red,blue,72,180,5,67,5,175,"[-9.3, -1.9]","[6, 0]","[-6.7, 1.9]","[10, 0]",-50,-200,0,0,0,22,22,30,,,,,,,,,,,,,,,,,0.014027950121089816,0.5140279501210898,260.79942180006765,None,260.79942180006765,None,left,1.5760189001448452,260.79942180006765,None,260.79942180006765,None,260.79942180006765,None,260.79942180006765,None,260.79942180006765,None,262.415393400006,None,262.415393400006,None,0.005686850054189563,0.5056868500541896,262.415393400006,None,262.415393400006,None,262.415393400006,None,262.415393400006,None,262.415393400006,None,262.415393400006,None,265.3959202999249,None,265.3959202999249,None,0.007708149962127209,0.5077081499621272,265.3959202999249,None,265.3959202999249,None,265.3959202999249,None,265.3959202999249,None,265.3959202999249,None,265.3959202999249,None,-9.200000000000003,1.568,269.00431749993004,None,1500,,,,,,,,,,,,,,,,,,,f,25,gululu,2022_Jan_08_1900,emotion,2021.1.4,59.96634690910326,
77,partial,200,0.2,0,0.8,blue,200,0.2,50,0.8,blue,blue,red,blue,red,72,72,5,67,5,67,"[-6.7, 1.9]","[9.3, 1.9]","[-9.3, -1.9]","[6.7, -1.9]",200,200,0,50,0,23,23,59,,,,,,,,,,,,,,,,,0.010703349951654673,0.5107033499516547,270.04473910015076,None,270.04473910015076,None,right,2.037921499926597,270.04473910015076,None,270.04473910015076,None,270.04473910015076,None,270.04473910015076,None,270.04473910015076,None,272.11320809996687,None,272.11320809996687,None,0.006378650199621916,0.5063786501996219,272.11320809996687,None,272.11320809996687,None,272.11320809996687,None,272.11320809996687,None,272.11320809996687,None,272.11320809996687,None,275.0943714999594,None,275.0943714999594,None,0.007737450068816543,0.5077374500688165,275.0943714999594,None,275.0943714999594,None,275.0943714999594,None,275.0943714999594,None,275.0943714999594,None,275.0943714999594,None,39.7,1.971,279.10248779994436,None,1700,,,,,,,,,,,,,,,,,,,f,25,gululu,2022_Jan_08_1900,emotion,2021.1.4,59.96634690910326,
59,partial,50,0.2,0,0.8,blue,200,0.8,0,0.2,blue,blue,red,red,blue,72,72,5,67,77,355,"[-6.7, 1.9]","[6.7, -1.9]","[-9.3, -1.9]","[9.3, 1.9]",50,200,0,0,0,24,24,93,,,,,,,,,,,,,,,,,0.014626550022512674,0.5146265500225127,280.14589049993083,None,280.14589049993083,None,right,1.4873848999850452,280.14589049993083,None,280.14589049993083,None,280.14589049993083,None,280.14589049993083,None,280.14589049993083,None,281.66215920005925,None,281.66215920005925,None,0.006586449919268489,0.5065864499192685,281.66215920005925,None,281.66215920005925,None,281.66215920005925,None,281.66215920005925,None,281.66215920005925,None,281.66215920005925,None,284.5916588001419,None,284.5916588001419,None,0.007893850095570087,0.5078938500955701,284.5916588001419,None,284.5916588001419,None,284.5916588001419,None,284.5916588001419,None,284.5916588001419,None,284.5916588001419,None,39.0,1.301,287.93424410000443,None,1900,,,,,,,,,,,,,,,,,,,f,25,gululu,2022_Jan_08_1900,emotion,2021.1.4,59.96634690910326,
271,partial,50,0.5,0,0.5,red,200,0.2,0,0.8,blue,red,blue,blue,red,180,72,5,175,5,67,"[-10, 0]","[9.3, 1.9]","[-6, 0]","[6.7, -1.9]",0,200,50,0,0,25,25,63,,,,,,,,,,,,,,,,,0.011692050378769636,0.5116920503787696,288.9745205999352,None,288.9745205999352,None,right,1.4083902998827398,288.9745205999352,None,288.9745205999352,None,288.9745205999352,None,288.9745205999352,None,288.9745205999352,None,290.4104897000361,None,290.4104897000361,None,0.005817350000143051,0.505817350000143,290.4104897000361,None,290.4104897000361,None,290.4104897000361,None,290.4104897000361,None,290.4104897000361,None,290.4104897000361,None,293.106918200152,None,293.106918200152,None,0.00810385006479919,0.5081038500647992,293.106918200152,None,293.106918200152,None,293.106918200152,None,293.106918200152,None,293.106918200152,None,293.106918200152,None,37.2,1.352,296.4989621001296,None,2100,,,,,,,,,,,,,,,,,,,f,25,gululu,2022_Jan_08_1900,emotion,2021.1.4,59.96634690910326,
187,partial,200,0.8,0,0.2,blue,200,0.5,50,0.5,red,red,blue,red,blue,72,180,77,355,5,175,"[-9.3, -1.9]","[6, 0]","[-6.7, 1.9]","[10, 0]",200,50,0,200,0,26,26,86,,,,,,,,,,,,,,,,,0.004292000085115433,0.5042920000851154,297.52771389996633,None,297.52771389996633,None,right,1.8397559002041817,297.52771389996633,None,297.52771389996633,None,297.52771389996633,None,297.52771389996633,None,297.52771389996633,None,299.40703250002116,None,299.40703250002116,None,0.0064674499444663525,0.5064674499444664,299.40703250002116,None,299.40703250002116,None,299.40703250002116,None,299.40703250002116,None,299.40703250002116,None,299.40703250002116,None,302.23865710012615,None,302.23865710012615,None,0.007744650123640895,0.5077446501236409,302.23865710012615,None,302.23865710012615,None,302.23865710012615,None,302.23865710012615,None,302.23865710012615,None,302.23865710012615,None,-4.0,1.449,305.73011990007944,None,2150,,,,,,,,,,,,,,,,,,,f,25,gululu,2022_Jan_08_1900,emotion,2021.1.4,59.96634690910326,
62,partial,50,0.8,0,0.2,blue,200,0.8,0,0.2,blue,red,blue,red,blue,72,72,77,355,77,355,"[-9.3, -1.9]","[6.7, -1.9]","[-6.7, 1.9]","[9.3, 1.9]",50,200,0,0,0,27,27,105,,,,,,,,,,,,,,,,,0.01506755012087524,0.5150675501208752,306.76466550002806,None,306.76466550002806,None,right,1.4031037001404911,306.76466550002806,None,306.76466550002806,None,306.76466550002806,None,306.76466550002806,None,306.76466550002806,None,308.20664510014467,None,308.20664510014467,None,0.0069831497967243195,0.5069831497967243,308.20664510014467,None,308.20664510014467,None,308.20664510014467,None,308.20664510014467,None,308.20664510014467,None,308.20664510014467,None,311.10419799992815,None,311.10419799992815,None,0.00791814993135631,0.5079181499313563,311.10419799992815,None,311.10419799992815,None,311.10419799992815,None,311.10419799992815,None,311.10419799992815,None,311.10419799992815,None,38.2,1.7,314.84532920015045,None,2350,,,,,,,,,,,,,,,,,,,f,25,gululu,2022_Jan_08_1900,emotion,2021.1.4,59.96634690910326,
404,partial,200,0.8,0,0.2,red,200,0.2,50,0.8,red,red,blue,blue,red,72,72,5,67,77,355,"[-9.3, -1.9]","[9.3, 1.9]","[-6.7, 1.9]","[6.7, -1.9]",0,50,200,200,0,28,28,68,,,,,,,,,,,,,,,,,0.01176225021481514,0.5117622502148151,315.8859043000266,None,315.8859043000266,None,left,4.9304986000061035,315.8859043000266,None,315.8859043000266,None,315.8859043000266,None,315.8859043000266,None,315.8859043000266,None,320.8547565001063,None,320.8547565001063,None,0.005850750021636486,0.5058507500216365,320.8547565001063,None,320.8547565001063,None,320.8547565001063,None,320.8547565001063,None,320.8547565001063,None,320.8547565001063,None,323.5011998000555,None,323.5011998000555,None,0.007589049870148301,0.5075890498701483,323.5011998000555,None,323.5011998000555,None,323.5011998000555,None,323.5011998000555,None,323.5011998000555,None,323.5011998000555,None,-6.600000000000001,1.984,327.5261854000855,None,2350,,,,,,,,,,,,,,,,,,,f,25,gululu,2022_Jan_08_1900,emotion,2021.1.4,59.96634690910326,
205,partial,0,0.8,-200,0.2,blue,-50,0.5,-200,0.5,red,red,blue,red,blue,72,180,77,355,5,175,"[-9.3, -1.9]","[6, 0]","[-6.7, 1.9]","[10, 0]",0,-200,-200,-50,0,29,29,34,,,,,,,,,,,,,,,,,0.0023626002948731184,0.5023626002948731,328.56389550003223,None,328.56389550003223,None,left,2.325181399937719,328.56389550003223,None,328.56389550003223,None,328.56389550003223,None,328.56389550003223,None,328.56389550003223,None,330.92012750008143,None,330.92012750008143,None,0.005558850010856986,0.505558850010857,330.92012750008143,None,330.92012750008143,None,330.92012750008143,None,330.92012750008143,None,330.92012750008143,None,330.92012750008143,None,333.46802440006286,None,333.46802440006286,None,0.007498850347474217,0.5074988503474742,333.46802440006286,None,333.46802440006286,None,333.46802440006286,None,333.46802440006286,None,333.46802440006286,None,333.46802440006286,None,12.399999999999999,1.495,337.0244649001397,None,2350,,,,,,,,,,,,,,,,,,,f,25,gululu,2022_Jan_08_1900,emotion,2021.1.4,59.96634690910326,
194,partial,0,0.2,-50,0.8,blue,0,0.8,-200,0.2,red,blue,red,red,blue,72,72,5,67,5,67,"[-6.7, 1.9]","[6.7, -1.9]","[-9.3, -1.9]","[9.3, 1.9]",0,-200,-50,0,0,30,30,36,,,,,,,,,,,,,,,,,0.005539850099012256,0.5055398500990123,338.0336100999266,None,338.0336100999266,None,left,2.6833246999885887,338.0336100999266,None,338.0336100999266,None,338.0336100999266,None,338.0336100999266,None,338.0336100999266,None,340.75039079994895,None,340.75039079994895,None,0.0067685500252991915,0.5067685500252992,340.75039079994895,None,340.75039079994895,None,340.75039079994895,None,340.75039079994895,None,340.75039079994895,None,340.75039079994895,None,343.4333407001104,None,343.4333407001104,None,0.007588749984279275,0.5075887499842793,343.4333407001104,None,343.4333407001104,None,343.4333407001104,None,343.4333407001104,None,343.4333407001104,None,343.4333407001104,None,12.399999999999999,1.574,347.0392710000742,None,2350,,,,,,,,,,,,,,,,,,,f,25,gululu,2022_Jan_08_1900,emotion,2021.1.4,59.96634690910326,
193,partial,0,0.2,-50,0.8,blue,0,0.2,-200,0.8,red,blue,red,blue,red,72,72,5,67,77,355,"[-6.7, 1.9]","[9.3, 1.9]","[-9.3, -1.9]","[6.7, -1.9]",0,-200,-50,0,0,31,31,0,,,,,,,,,,,,,,,,,0.01317155035212636,0.5131715503521264,348.0895227000583,None,348.0895227000583,None,left,3.4666375000961125,348.0895227000583,None,348.0895227000583,None,348.0895227000583,None,348.0895227000583,None,348.0895227000583,None,351.5820734000299,None,351.5820734000299,None,0.006905650021508336,0.5069056500215083,351.5820734000299,None,351.5820734000299,None,351.5820734000299,None,351.5820734000299,None,351.5820734000299,None,351.5820734000299,None,354.44509349996224,None,354.44509349996224,None,0.007624249905347824,0.5076242499053478,354.44509349996224,None,354.44509349996224,None,354.44509349996224,None,354.44509349996224,None,354.44509349996224,None,354.44509349996224,None,14.5,1.727,358.22010980010964,None,2350,,,,,,,,,,,,,,,,,,,f,25,gululu,2022_Jan_08_1900,emotion,2021.1.4,59.96634690910326,
184,partial,200,0.2,0,0.8,blue,200,0.5,50,0.5,red,blue,red,red,blue,72,180,5,67,5,175,"[-6.7, 1.9]","[6, 0]","[-9.3, -1.9]","[10, 0]",200,50,0,200,0,32,32,74,,,,,,,,,,,,,,,,,0.0026909003499895334,0.5026909003499895,359.25872980011627,None,359.25872980011627,None,right,4.795301900012419,359.25872980011627,None,359.25872980011627,None,359.25872980011627,None,359.25872980011627,None,359.25872980011627,None,364.0796739999205,None,364.0796739999205,None,0.005620949901640415,0.5056209499016404,364.0796739999205,None,364.0796739999205,None,364.0796739999205,None,364.0796739999205,None,364.0796739999205,None,364.0796739999205,None,366.7096639999654,None,366.7096639999654,None,0.007929550250992179,0.5079295502509922,366.7096639999654,None,366.7096639999654,None,366.7096639999654,None,366.7096639999654,None,366.7096639999654,None,366.7096639999654,None,-3.799999999999997,1.684,370.43700730009004,None,2400,,,,,,,,,,,,,,,,,,,f,25,gululu,2022_Jan_08_1900,emotion,2021.1.4,59.96634690910326,
66,partial,50,0.5,0,0.5,blue,200,0.8,50,0.2,blue,red,blue,red,blue,180,72,185,355,77,355,"[-10, 0]","[6.7, -1.9]","[-6, 0]","[9.3, 1.9]",50,200,0,50,0,33,33,97,,,,,,,,,,,,,,,,,0.0005816000048071146,0.5005816000048071,371.49466000008397,None,371.49466000008397,None,right,1.6724678999744356,371.49466000008397,None,371.49466000008397,None,371.49466000008397,None,371.49466000008397,None,371.49466000008397,None,373.1952982000075,None,373.1952982000075,None,0.006641250103712082,0.5066412501037121,373.1952982000075,None,373.1952982000075,None,373.1952982000075,None,373.1952982000075,None,373.1952982000075,None,373.1952982000075,None,375.80852640001103,None,375.80852640001103,None,0.007827749941498041,0.507827749941498,375.80852640001103,None,375.80852640001103,None,375.80852640001103,None,375.80852640001103,None,375.80852640001103,None,375.80852640001103,None,37.2,1.149,378.9955035999883,None,2600,,,,,,,,,,,,,,,,,,,f,25,gululu,2022_Jan_08_1900,emotion,2021.1.4,59.96634690910326,
394,partial,50,0.8,0,0.2,red,200,0.5,50,0.5,red,red,blue,red,blue,72,180,5,67,5,175,"[-9.3, -1.9]","[6, 0]","[-6.7, 1.9]","[10, 0]",0,50,50,200,0,34,34,88,,,,,,,,,,,,,,,,,0.010435900185257196,0.5104359001852572,380.01956599997357,None,380.01956599997357,None,right,1.5663328000809997,380.01956599997357,None,380.01956599997357,None,380.01956599997357,None,380.01956599997357,None,380.01956599997357,None,381.6255390001461,None,381.6255390001461,None,0.005257450044155121,0.5052574500441551,381.6255390001461,None,381.6255390001461,None,381.6255390001461,None,381.6255390001461,None,381.6255390001461,None,381.6255390001461,None,384.32307250006124,None,384.32307250006124,None,0.008436349919065833,0.5084363499190658,384.32307250006124,None,384.32307250006124,None,384.32307250006124,None,384.32307250006124,None,384.32307250006124,None,384.32307250006124,None,-5.600000000000001,1.368,387.73205540003255,None,2650,,,,,,,,,,,,,,,,,,,f,25,gululu,2022_Jan_08_1900,emotion,2021.1.4,59.96634690910326,
171,partial,50,0.8,0,0.2,blue,200,0.5,0,0.5,red,red,blue,red,blue,72,180,77,355,5,175,"[-9.3, -1.9]","[6, 0]","[-6.7, 1.9]","[10, 0]",50,0,0,200,0,35,35,84,,,,,,,,,,,,,,,,,0.005830799927935004,0.505830799927935,388.7594771999866,None,388.7594771999866,None,right,1.4275424000807106,388.7594771999866,None,388.7594771999866,None,388.7594771999866,None,388.7594771999866,None,388.7594771999866,None,390.22335140011273,None,390.22335140011273,None,0.005808750167489052,0.505808750167489,390.22335140011273,None,390.22335140011273,None,390.22335140011273,None,390.22335140011273,None,390.22335140011273,None,390.22335140011273,None,393.0722398001235,None,393.0722398001235,None,0.00801515020430088,0.5080151502043009,393.0722398001235,None,393.0722398001235,None,393.0722398001235,None,393.0722398001235,None,393.0722398001235,None,393.0722398001235,None,-8.799999999999997,1.35,396.4627523000818,None,2650,,,,,,,,,,,,,,,,,,,f,25,gululu,2022_Jan_08_1900,emotion,2021.1.4,59.96634690910326,
401,partial,200,0.2,0,0.8,red,200,0.2,50,0.8,red,blue,red,blue,red,72,72,77,355,77,355,"[-6.7, 1.9]","[9.3, 1.9]","[-9.3, -1.9]","[6.7, -1.9]",0,50,200,200,0,36,36,56,,,,,,,,,,,,,,,,,0.007321500219404697,0.5073215002194047,397.48800579993986,None,397.48800579993986,None,right,2.1451091999188066,397.48800579993986,None,397.48800579993986,None,397.48800579993986,None,397.48800579993986,None,397.48800579993986,None,399.6728487999644,None,399.6728487999644,None,0.006376049714162946,0.506376049714163,399.6728487999644,None,399.6728487999644,None,399.6728487999644,None,399.6728487999644,None,399.6728487999644,None,399.6728487999644,None,402.33609310002066,None,402.33609310002066,None,0.007637749891728163,0.5076377498917282,402.33609310002066,None,402.33609310002066,None,402.33609310002066,None,402.33609310002066,None,402.33609310002066,None,402.33609310002066,None,-6.0,1.269,405.6443713000044,None,2700,,,,,,,,,,,,,,,,,,,f,25,gululu,2022_Jan_08_1900,emotion,2021.1.4,59.96634690910326,
99,partial,0,0.8,-200,0.2,blue,-50,0.8,-200,0.2,blue,red,blue,red,blue,72,72,77,355,77,355,"[-9.3, -1.9]","[6.7, -1.9]","[-6.7, 1.9]","[9.3, 1.9]",0,-50,-200,-200,0,37,37,49,,,,,,,,,,,,,,,,,0.014048049924895167,0.5140480499248952,406.68098960001953,None,406.68098960001953,None,left,2.0554870998021215,406.68098960001953,None,406.68098960001953,None,406.68098960001953,None,406.68098960001953,None,406.68098960001953,None,408.77083149994723,None,408.77083149994723,None,0.0065703499130904675,0.5065703499130905,408.77083149994723,None,408.77083149994723,None,408.77083149994723,None,408.77083149994723,None,408.77083149994723,None,408.77083149994723,None,411.55290500004776,None,411.55290500004776,None,0.0078382499050349,0.5078382499050349,411.55290500004776,None,411.55290500004776,None,411.55290500004776,None,411.55290500004776,None,411.55290500004776,None,411.55290500004776,None,13.899999999999999,1.032,414.6258831000887,None,2700,,,,,,,,,,,,,,,,,,,f,25,gululu,2022_Jan_08_1900,emotion,2021.1.4,59.96634690910326,
323,partial,0,0.8,-50,0.2,red,-50,0.2,-200,0.8,blue,red,blue,blue,red,72,72,5,67,5,67,"[-9.3, -1.9]","[9.3, 1.9]","[-6.7, 1.9]","[6.7, -1.9]",-50,-50,0,-200,0,38,38,17,,,,,,,,,,,,,,,,,0.0022642002440989017,0.5022642002440989,415.656577100046,None,415.656577100046,None,left,1.890742699848488,415.656577100046,None,415.656577100046,None,415.656577100046,None,415.656577100046,None,415.656577100046,None,417.5729722001124,None,417.5729722001124,None,0.004105450119823217,0.5041054501198232,417.5729722001124,None,417.5729722001124,None,417.5729722001124,None,417.5729722001124,None,417.5729722001124,None,417.5729722001124,None,420.218700800091,None,420.218700800091,None,0.007212650030851364,0.5072126500308514,420.218700800091,None,420.218700800091,None,420.218700800091,None,420.218700800091,None,420.218700800091,None,420.218700800091,None,-12.600000000000001,1.587,423.84102619998157,None,2650,,,,,,,,,,,,,,,,,,,f,25,gululu,2022_Jan_08_1900,emotion,2021.1.4,59.96634690910326,
208,partial,0,0.5,-50,0.5,blue,-50,0.5,-200,0.5,red,red,blue,red,blue,180,180,185,355,5,175,"[-10, 0]","[6, 0]","[-6, 0]","[10, 0]",0,-200,-50,-50,0,39,39,26,,,,,,,,,,,,,,,,,0.0074575000908225775,0.5074575000908226,424.8663666001521,None,424.8663666001521,None,left,1.5285696999635547,424.8663666001521,None,424.8663666001521,None,424.8663666001521,None,424.8663666001521,None,424.8663666001521,None,426.43404459999874,None,426.43404459999874,None,0.006435349816456437,0.5064353498164564,426.43404459999874,None,426.43404459999874,None,426.43404459999874,None,426.43404459999874,None,426.43404459999874,None,426.43404459999874,None,429.09740309999324,None,429.09740309999324,None,0.007976750144734979,0.507976750144735,429.09740309999324,None,429.09740309999324,None,429.09740309999324,None,429.09740309999324,None,429.09740309999324,None,429.09740309999324,None,14.5,0.999,432.1389075999614,None,2650,,,,,,,,,,,,,,,,,,,f,25,gululu,2022_Jan_08_1900,emotion,2021.1.4,59.96634690910326,
102,partial,0,0.5,-50,0.5,blue,-50,0.8,-200,0.2,blue,red,blue,red,blue,180,72,185,355,77,355,"[-10, 0]","[6.7, -1.9]","[-6, 0]","[9.3, 1.9]",0,-50,-50,-200,0,40,40,47,,,,,,,,,,,,,,,,,0.0021293002646416426,0.5021293002646416,433.1685450000223,None,433.1685450000223,None,left,1.3296553001273423,433.1685450000223,None,433.1685450000223,None,433.1685450000223,None,433.1685450000223,None,433.1685450000223,None,434.5305886999704,None,434.5305886999704,None,0.006491250125691295,0.5064912501256913,434.5305886999704,None,434.5305886999704,None,434.5305886999704,None,434.5305886999704,None,434.5305886999704,None,434.5305886999704,None,437.4644009999465,None,437.4644009999465,None,0.007680349983274937,0.5076803499832749,437.4644009999465,None,437.4644009999465,None,437.4644009999465,None,437.4644009999465,None,437.4644009999465,None,437.4644009999465,None,21.400000000000006,1.167,440.6705809000414,None,2650,,,,,,,,,,,,,,,,,,,f,25,gululu,2022_Jan_08_1900,emotion,2021.1.4,59.96634690910326,
426,partial,0,0.5,-50,0.5,red,-50,0.8,-200,0.2,red,red,blue,red,blue,180,72,5,175,5,67,"[-10, 0]","[6.7, -1.9]","[-6, 0]","[9.3, 1.9]",-50,-200,0,-50,0,41,41,44,,,,,,,,,,,,,,,,,0.0014649999793618917,0.5014649999793619,441.70856219995767,None,441.70856219995767,None,left,1.412650299957022,441.70856219995767,None,441.70856219995767,None,441.70856219995767,None,441.70856219995767,None,441.70856219995767,None,443.14801750006154,None,443.14801750006154,None,0.0056436501909047365,0.5056436501909047,443.14801750006154,None,443.14801750006154,None,443.14801750006154,None,443.14801750006154,None,443.14801750006154,None,443.14801750006154,None,445.86203299998306,None,445.86203299998306,None,0.007630349835380912,0.5076303498353809,445.86203299998306,None,445.86203299998306,None,445.86203299998306,None,445.86203299998306,None,445.86203299998306,None,445.86203299998306,None,-9.799999999999997,0.934,448.8357696000021,None,2600,,,,,,,,,,,,,,,,,,,f,25,gululu,2022_Jan_08_1900,emotion,2021.1.4,59.96634690910326,
425,partial,0,0.5,-50,0.5,red,-50,0.2,-200,0.8,red,red,blue,blue,red,180,72,5,175,77,355,"[-10, 0]","[9.3, 1.9]","[-6, 0]","[6.7, -1.9]",-50,-200,0,-50,0,42,42,8,,,,,,,,,,,,,,,,,0.013404050376266241,0.5134040503762662,449.8749357999768,None,449.8749357999768,None,left,1.3521798001602292,449.8749357999768,None,449.8749357999768,None,449.8749357999768,None,449.8749357999768,None,449.8749357999768,None,451.2620784000028,None,451.2620784000028,None,0.005488350288942456,0.5054883502889425,451.2620784000028,None,451.2620784000028,None,451.2620784000028,None,451.2620784000028,None,451.2620784000028,None,451.2620784000028,None,453.99326779996045,None,453.99326779996045,None,0.0073576499707996845,0.5073576499707997,453.99326779996045,None,453.99326779996045,None,453.99326779996045,None,453.99326779996045,None,453.99326779996045,None,453.99326779996045,None,-9.5,1.118,457.1508454999421,None,2550,,,,,,,,,,,,,,,,,,,f,25,gululu,2022_Jan_08_1900,emotion,2021.1.4,59.96634690910326,
212,partial,0,0.2,-50,0.8,blue,-50,0.2,-200,0.8,red,blue,red,blue,red,72,72,5,67,77,355,"[-6.7, 1.9]","[9.3, 1.9]","[-9.3, -1.9]","[6.7, -1.9]",0,-200,-50,-50,0,43,43,2,,,,,,,,,,,,,,,,,0.01255315006710589,0.5125531500671059,458.19026460009627,None,458.19026460009627,None,left,1.5083069999236614,458.19026460009627,None,458.19026460009627,None,458.19026460009627,None,458.19026460009627,None,458.19026460009627,None,459.72751300013624,None,459.72751300013624,None,0.005262449849396944,0.5052624498493969,459.72751300013624,None,459.72751300013624,None,459.72751300013624,None,459.72751300013624,None,459.72751300013624,None,459.72751300013624,None,462.39553370000795,None,462.39553370000795,None,0.006435650167986751,0.5064356501679868,462.39553370000795,None,462.39553370000795,None,462.39553370000795,None,462.39553370000795,None,462.39553370000795,None,462.39553370000795,None,14.599999999999994,1.452,465.88244209997356,None,2550,,,,,,,,,,,,,,,,,,,f,25,gululu,2022_Jan_08_1900,emotion,2021.1.4,59.96634690910326,
420,partial,0,0.2,-200,0.8,red,-50,0.8,-200,0.2,red,blue,red,red,blue,72,72,77,355,5,67,"[-6.7, 1.9]","[6.7, -1.9]","[-9.3, -1.9]","[9.3, 1.9]",-200,-200,0,-50,0,44,44,40,,,,,,,,,,,,,,,,,0.004187750164419413,0.5041877501644194,466.89194000000134,None,466.89194000000134,None,left,2.859544500010088,466.89194000000134,None,466.89194000000134,None,466.89194000000134,None,466.89194000000134,None,466.89194000000134,None,469.79189100000076,None,469.79189100000076,None,0.005950950086116791,0.5059509500861168,469.79189100000076,None,469.79189100000076,None,469.79189100000076,None,469.79189100000076,None,469.79189100000076,None,469.79189100000076,None,472.689709499944,None,472.689709499944,None,0.007469050120562315,0.5074690501205623,472.689709499944,None,472.689709499944,None,472.689709499944,None,472.689709499944,None,472.689709499944,None,472.689709499944,None,-41.8,2.467,477.19670690014027,None,2350,,,,,,,,,,,,,,,,,,,f,25,gululu,2022_Jan_08_1900,emotion,2021.1.4,59.96634690910326,
98,partial,0,0.8,-200,0.2,blue,-50,0.2,-200,0.8,blue,red,blue,blue,red,72,72,77,355,5,67,"[-9.3, -1.9]","[9.3, 1.9]","[-6.7, 1.9]","[6.7, -1.9]",0,-50,-200,-200,0,45,45,13,,,,,,,,,,,,,,,,,0.016307050129398704,0.5163070501293987,478.23129600007087,None,478.23129600007087,None,left,2.6829711000900716,478.23129600007087,None,478.23129600007087,None,478.23129600007087,None,478.23129600007087,None,478.23129600007087,None,480.94076519994996,None,480.94076519994996,None,0.005518550053238869,0.5055185500532389,480.94076519994996,None,480.94076519994996,None,480.94076519994996,None,480.94076519994996,None,480.94076519994996,None,480.94076519994996,None,483.8925083000213,None,483.8925083000213,None,0.006401150021702051,0.506401150021702,483.8925083000213,None,483.8925083000213,None,483.8925083000213,None,483.8925083000213,None,483.8925083000213,None,483.8925083000213,None,21.200000000000003,1.085,487.0117581000086,None,2350,,,,,,,,,,,,,,,,,,,f,25,gululu,2022_Jan_08_1900,emotion,2021.1.4,59.96634690910326,
305,partial,0,0.8,-50,0.2,red,0,0.8,-200,0.2,blue,red,blue,red,blue,72,72,5,67,77,355,"[-9.3, -1.9]","[6.7, -1.9]","[-6.7, 1.9]","[9.3, 1.9]",-50,0,0,-200,0,46,46,51,,,,,,,,,,,,,,,,,0.002110300352796912,0.5021103003527969,488.04285460012034,None,488.04285460012034,None,left,1.6357879000715911,488.04285460012034,None,488.04285460012034,None,488.04285460012034,None,488.04285460012034,None,488.04285460012034,None,489.73470419994555,None,489.73470419994555,None,0.0068824500776827335,0.5068824500776827,489.73470419994555,None,489.73470419994555,None,489.73470419994555,None,489.73470419994555,None,489.73470419994555,None,489.73470419994555,None,492.65100830001757,None,492.65100830001757,None,0.008261349983513355,0.5082613499835134,492.65100830001757,None,492.65100830001757,None,492.65100830001757,None,492.65100830001757,None,492.65100830001757,None,492.65100830001757,None,-19.5,1.0,495.69329269998707,None,2300,,,,,,,,,,,,,,,,,,,f,25,gululu,2022_Jan_08_1900,emotion,2021.1.4,59.96634690910326,
172,partial,50,0.5,0,0.5,blue,200,0.5,50,0.5,red,red,blue,red,blue,180,180,185,355,5,175,"[-10, 0]","[6, 0]","[-6, 0]","[10, 0]",50,50,0,200,0,47,47,82,,,,,,,,,,,,,,,,,0.011455350322648883,0.5114553503226489,496.75386480009183,None,496.75386480009183,None,right,1.8304850000422448,496.75386480009183,None,496.75386480009183,None,496.75386480009183,None,496.75386480009183,None,496.75386480009183,None,498.6197989000939,None,498.6197989000939,None,0.005998950218781829,0.5059989502187818,498.6197989000939,None,498.6197989000939,None,498.6197989000939,None,498.6197989000939,None,498.6197989000939,None,498.6197989000939,None,501.4689905999694,None,501.4689905999694,None,0.0077193500474095345,0.5077193500474095,501.4689905999694,None,501.4689905999694,None,501.4689905999694,None,501.4689905999694,None,501.4689905999694,None,501.4689905999694,None,-12.399999999999999,0.999,504.52467640000395,None,2350,,,,,,,,,,,,,,,,,,,f,25,gululu,2022_Jan_08_1900,emotion,2021.1.4,59.96634690910326,
402,partial,200,0.2,0,0.8,red,200,0.8,50,0.2,red,blue,red,red,blue,72,72,77,355,5,67,"[-6.7, 1.9]","[6.7, -1.9]","[-9.3, -1.9]","[9.3, 1.9]",0,50,200,200,0,48,48,92,,,,,,,,,,,,,,,,,0.013578950194641948,0.513578950194642,505.5620546999853,None,505.5620546999853,None,right,1.7947541000321507,505.5620546999853,None,505.5620546999853,None,505.5620546999853,None,505.5620546999853,None,505.5620546999853,None,507.38420119998045,None,507.38420119998045,None,0.006308550015091896,0.5063085500150919,507.38420119998045,None,507.38420119998045,None,507.38420119998045,None,507.38420119998045,None,507.38420119998045,None,507.38420119998045,None,510.0805198000744,None,510.0805198000744,None,0.008012749953195453,0.5080127499531955,510.0805198000744,None,510.0805198000744,None,510.0805198000744,None,510.0805198000744,None,510.0805198000744,None,510.0805198000744,None,-12.399999999999999,1.151,513.2729758000933,None,2400,,,,,,,,,,,,,,,,,,,f,25,gululu,2022_Jan_08_1900,emotion,2021.1.4,59.96634690910326,
295,partial,200,0.8,0,0.2,red,200,0.5,50,0.5,blue,red,blue,red,blue,72,180,5,67,185,355,"[-9.3, -1.9]","[6, 0]","[-6.7, 1.9]","[10, 0]",0,200,200,50,0,49,49,89,,,,,,,,,,,,,,,,,0.009880450088530779,0.5098804500885308,514.3163737999275,None,514.3163737999275,None,left,2.3963230000808835,514.3163737999275,None,514.3163737999275,None,514.3163737999275,None,514.3163737999275,None,514.3163737999275,None,516.7500491000246,None,516.7500491000246,None,0.005723650101572275,0.5057236501015723,516.7500491000246,None,516.7500491000246,None,516.7500491000246,None,516.7500491000246,None,516.7500491000246,None,516.7500491000246,None,519.7800930999219,None,519.7800930999219,None,0.007912749890238047,0.507912749890238,519.7800930999219,None,519.7800930999219,None,519.7800930999219,None,519.7800930999219,None,519.7800930999219,None,519.7800930999219,None,-12.299999999999997,1.136,522.955583400093,None,2400,,,,,,,,,,,,,,,,,,,f,25,gululu,2022_Jan_08_1900,emotion,2021.1.4,59.96634690910326,
200,partial,0,0.5,-200,0.5,blue,-50,0.2,-200,0.8,red,red,blue,blue,red,180,72,185,355,77,355,"[-10, 0]","[9.3, 1.9]","[-6, 0]","[6.7, -1.9]",0,-200,-200,-50,0,50,50,10,,,,,,,,,,,,,,,,,0.003695000195875764,0.5036950001958758,523.9844692000188,None,523.9844692000188,None,left,1.7258444000035524,523.9844692000188,None,523.9844692000188,None,523.9844692000188,None,523.9844692000188,None,523.9844692000188,None,525.7471906000283,None,525.7471906000283,None,0.005517449928447604,0.5055174499284476,525.7471906000283,None,525.7471906000283,None,525.7471906000283,None,525.7471906000283,None,525.7471906000283,None,525.7471906000283,None,528.4943471001461,None,528.4943471001461,None,0.007827850058674812,0.5078278500586748,528.4943471001461,None,528.4943471001461,None,528.4943471001461,None,528.4943471001461,None,528.4943471001461,None,528.4943471001461,None,15.400000000000006,1.267,531.8028782000765,None,2400,,,,,,,,,,,,,,,,,,,f,25,gululu,2022_Jan_08_1900,emotion,2021.1.4,59.96634690910326,
215,partial,0,0.8,-50,0.2,blue,-50,0.2,-200,0.8,red,red,blue,blue,red,72,72,77,355,77,355,"[-9.3, -1.9]","[9.3, 1.9]","[-6.7, 1.9]","[6.7, -1.9]",0,-200,-50,-50,0,51,51,14,,,,,,,,,,,,,,,,,0.0031691002659499645,0.50316910026595,532.8323621000163,None,532.8323621000163,None,left,1.720388799905777,532.8323621000163,None,532.8323621000163,None,532.8323621000163,None,532.8323621000163,None,532.8323621000163,None,534.5796366001014,None,534.5796366001014,None,0.006875250255689025,0.506875250255689,534.5796366001014,None,534.5796366001014,None,534.5796366001014,None,534.5796366001014,None,534.5796366001014,None,534.5796366001014,None,537.4262137000915,None,537.4262137000915,None,0.007860550191253424,0.5078605501912534,537.4262137000915,None,537.4262137000915,None,537.4262137000915,None,537.4262137000915,None,537.4262137000915,None,537.4262137000915,None,29.400000000000006,0.968,540.4346424001269,None,2400,,,,,,,,,,,,,,,,,,,f,25,gululu,2022_Jan_08_1900,emotion,2021.1.4,59.96634690910326,
80,partial,200,0.8,0,0.2,blue,200,0.2,50,0.8,blue,red,blue,blue,red,72,72,77,355,5,67,"[-9.3, -1.9]","[9.3, 1.9]","[-6.7, 1.9]","[6.7, -1.9]",200,200,0,50,0,52,52,71,,,,,,,,,,,,,,,,,0.01647310028783977,0.5164731002878398,541.4509112001397,None,541.4509112001397,None,right,2.754986299900338,541.4509112001397,None,541.4509112001397,None,541.4509112001397,None,541.4509112001397,None,541.4509112001397,None,544.2433805000037,None,544.2433805000037,None,0.005475749960169196,0.5054757499601692,544.2433805000037,None,544.2433805000037,None,544.2433805000037,None,544.2433805000037,None,544.2433805000037,None,544.2433805000037,None,546.8579858001322,None,546.8579858001322,None,0.007784249959513545,0.5077842499595135,546.8579858001322,None,546.8579858001322,None,546.8579858001322,None,546.8579858001322,None,546.8579858001322,None,546.8579858001322,None,34.5,1.147,550.050760500133,None,2600,,,,,,,,,,,,,,,,,,,f,25,gululu,2022_Jan_08_1900,emotion,2021.1.4,59.96634690910326,
213,partial,0,0.2,-50,0.8,blue,-50,0.8,-200,0.2,red,blue,red,red,blue,72,72,5,67,5,67,"[-6.7, 1.9]","[6.7, -1.9]","[-9.3, -1.9]","[9.3, 1.9]",0,-200,-50,-50,0,53,53,38,,,,,,,,,,,,,,,,,0.006084900116547942,0.5060849001165479,551.0760854999535,None,551.0760854999535,None,left,1.4897491000592709,551.0760854999535,None,551.0760854999535,None,551.0760854999535,None,551.0760854999535,None,551.0760854999535,None,552.5932803000323,None,552.5932803000323,None,0.005468349903821945,0.505468349903822,552.5932803000323,None,552.5932803000323,None,552.5932803000323,None,552.5932803000323,None,552.5932803000323,None,552.5932803000323,None,555.2046189999674,None,555.2046189999674,None,0.00840745004825294,0.5084074500482529,555.2046189999674,None,555.2046189999674,None,555.2046189999674,None,555.2046189999674,None,555.2046189999674,None,555.2046189999674,None,16.299999999999997,1.733,558.9807198999915,None,2600,,,,,,,,,,,,,,,,,,,f,25,gululu,2022_Jan_08_1900,emotion,2021.1.4,59.96634690910326,
308,partial,0,0.5,-200,0.5,red,-50,0.2,-200,0.8,blue,red,blue,blue,red,180,72,5,175,5,67,"[-10, 0]","[9.3, 1.9]","[-6, 0]","[6.7, -1.9]",-200,-50,0,-200,0,54,54,7,,,,,,,,,,,,,,,,,0.0007756000850349665,0.500775600085035,560.0142415999435,None,560.0142415999435,None,left,2.757084700046107,560.0142415999435,None,560.0142415999435,None,560.0142415999435,None,560.0142415999435,None,560.0142415999435,None,562.8069339999929,None,562.8069339999929,None,0.005393249681219459,0.5053932496812195,562.8069339999929,None,562.8069339999929,None,562.8069339999929,None,562.8069339999929,None,562.8069339999929,None,562.8069339999929,None,565.8053202000447,None,565.8053202000447,None,0.0065328499767929316,0.5065328499767929,565.8053202000447,None,565.8053202000447,None,565.8053202000447,None,565.8053202000447,None,565.8053202000447,None,565.8053202000447,None,-35.2,0.981,568.8293511001393,None,2400,,,,,,,,,,,,,,,,,,,f,25,gululu,2022_Jan_08_1900,emotion,2021.1.4,59.96634690910326,
164,partial,50,0.5,0,0.5,blue,200,0.8,0,0.2,red,red,blue,red,blue,180,72,185,355,5,67,"[-10, 0]","[6.7, -1.9]","[-6, 0]","[9.3, 1.9]",50,0,0,200,0,55,55,96,,,,,,,,,,,,,,,,,0.0034638000652194023,0.5034638000652194,569.8651910999324,None,569.8651910999324,None,right,1.3903669000137597,569.8651910999324,None,569.8651910999324,None,569.8651910999324,None,569.8651910999324,None,569.8651910999324,None,571.2882274999283,None,571.2882274999283,None,0.006175850052386522,0.5061758500523865,571.2882274999283,None,571.2882274999283,None,571.2882274999283,None,571.2882274999283,None,571.2882274999283,None,571.2882274999283,None,573.818801500136,None,573.818801500136,None,0.007860049838200212,0.5078600498382002,573.818801500136,None,573.818801500136,None,573.818801500136,None,573.818801500136,None,573.818801500136,None,573.818801500136,None,-20.4,0.976,576.8292725000065,None,2400,,,,,,,,,,,,,,,,,,,f,25,gululu,2022_Jan_08_1900,emotion,2021.1.4,59.96634690910326,
422,partial,0,0.8,-200,0.2,red,-50,0.2,-200,0.8,red,red,blue,blue,red,72,72,5,67,77,355,"[-9.3, -1.9]","[9.3, 1.9]","[-6.7, 1.9]","[6.7, -1.9]",-200,-200,0,-50,0,56,56,16,,,,,,,,,,,,,,,,,0.011060550110414624,0.5110605501104146,577.9034770000726,None,577.9034770000726,None,left,1.4892653999850154,577.9034770000726,None,577.9034770000726,None,577.9034770000726,None,577.9034770000726,None,577.9034770000726,None,579.4203826999292,None,579.4203826999292,None,0.005173950223252177,0.5051739502232522,579.4203826999292,None,579.4203826999292,None,579.4203826999292,None,579.4203826999292,None,579.4203826999292,None,579.4203826999292,None,582.0851382999681,None,582.0851382999681,None,0.007261150050908327,0.5072611500509083,582.0851382999681,None,582.0851382999681,None,582.0851382999681,None,582.0851382999681,None,582.0851382999681,None,582.0851382999681,None,-43.2,2.801,586.9253670000471,None,2200,,,,,,,,,,,,,,,,,,,f,25,gululu,2022_Jan_08_1900,emotion,2021.1.4,59.96634690910326,
57,partial,50,0.5,0,0.5,blue,200,0.5,0,0.5,blue,red,blue,red,blue,180,180,185,355,185,355,"[-10, 0]","[6, 0]","[-6, 0]","[10, 0]",50,200,0,0,0,57,57,81,,,,,,,,,,,,,,,,,0.00559415016323328,0.5055941501632333,587.9893795999233,None,587.9893795999233,None,right,1.4206826000008732,587.9893795999233,None,587.9893795999233,None,587.9893795999233,None,587.9893795999233,None,587.9893795999233,None,589.4516745000146,None,589.4516745000146,None,0.006255849963054061,0.5062558499630541,589.4516745000146,None,589.4516745000146,None,589.4516745000146,None,589.4516745000146,None,589.4516745000146,None,589.4516745000146,None,592.3686232001055,None,592.3686232001055,None,0.005385249853134155,0.5053852498531342,592.3686232001055,None,592.3686232001055,None,592.3686232001055,None,592.3686232001055,None,592.3686232001055,None,592.3686232001055,None,28.0,1.116,595.5238252999261,None,2400,,,,,,,,,,,,,,,,,,,f,25,gululu,2022_Jan_08_1900,emotion,2021.1.4,59.96634690910326,
82,partial,0,0.5,-50,0.5,blue,0,0.2,-200,0.8,blue,red,blue,blue,red,180,72,185,355,5,67,"[-10, 0]","[9.3, 1.9]","[-6, 0]","[6.7, -1.9]",0,0,-50,-200,0,58,58,9,,,,,,,,,,,,,,,,,0.015401650220155716,0.5154016502201557,596.5568739001174,None,596.5568739001174,None,left,1.4903023999650031,596.5568739001174,None,596.5568739001174,None,596.5568739001174,None,596.5568739001174,None,596.5568739001174,None,598.0840018000454,None,598.0840018000454,None,0.00581025006249547,0.5058102500624955,598.0840018000454,None,598.0840018000454,None,598.0840018000454,None,598.0840018000454,None,598.0840018000454,None,598.0840018000454,None,600.8475792000536,None,600.8475792000536,None,0.007834850111976266,0.5078348501119763,600.8475792000536,None,600.8475792000536,None,600.8475792000536,None,600.8475792000536,None,600.8475792000536,None,600.8475792000536,None,30.099999999999994,1.067,603.9554093000479,None,2400,,,,,,,,,,,,,,,,,,,f,25,gululu,2022_Jan_08_1900,emotion,2021.1.4,59.96634690910326,
321,partial,0,0.2,-50,0.8,red,-50,0.8,-200,0.2,blue,blue,red,red,blue,72,72,77,355,77,355,"[-6.7, 1.9]","[6.7, -1.9]","[-9.3, -1.9]","[9.3, 1.9]",-50,-50,0,-200,0,59,59,41,,,,,,,,,,,,,,,,,0.0027344501577317715,0.5027344501577318,604.9675783999264,None,604.9675783999264,None,left,3.226233399938792,604.9675783999264,None,604.9675783999264,None,604.9675783999264,None,604.9675783999264,None,604.9675783999264,None,608.2312889001332,None,608.2312889001332,None,0.00670225010253489,0.5067022501025349,608.2312889001332,None,608.2312889001332,None,608.2312889001332,None,608.2312889001332,None,608.2312889001332,None,608.2312889001332,None,611.128553800052,None,611.128553800052,None,0.007587050087749958,0.50758705008775,611.128553800052,None,611.128553800052,None,611.128553800052,None,611.128553800052,None,611.128553800052,None,611.128553800052,None,-7.200000000000003,1.301,614.4697738999967,None,2350,,,,,,,,,,,,,,,,,,,f,25,gululu,2022_Jan_08_1900,emotion,2021.1.4,59.96634690910326,
202,partial,0,0.2,-200,0.8,blue,-50,0.5,-200,0.5,red,blue,red,red,blue,72,180,5,67,5,175,"[-6.7, 1.9]","[6, 0]","[-9.3, -1.9]","[10, 0]",0,-200,-200,-50,0,60,60,22,,,,,,,,,,,,,,,,,0.011492450255900621,0.5114924502559006,615.5100400000811,None,615.5100400000811,None,left,3.5313780999276787,615.5100400000811,None,615.5100400000811,None,615.5100400000811,None,615.5100400000811,None,615.5100400000811,None,619.0792274000123,None,619.0792274000123,None,0.006401050137355924,0.5064010501373559,619.0792274000123,None,619.0792274000123,None,619.0792274000123,None,619.0792274000123,None,619.0792274000123,None,619.0792274000123,None,621.8767679999582,None,621.8767679999582,None,0.007708850083872676,0.5077088500838727,621.8767679999582,None,621.8767679999582,None,621.8767679999582,None,621.8767679999582,None,621.8767679999582,None,621.8767679999582,None,30.5,1.022,624.9344562001061,None,2350,,,,,,,,,,,,,,,,,,,f,25,gululu,2022_Jan_08_1900,emotion,2021.1.4,59.96634690910326,
73,partial,200,0.5,0,0.5,blue,200,0.5,50,0.5,blue,red,blue,red,blue,180,180,185,355,185,355,"[-10, 0]","[6, 0]","[-6, 0]","[10, 0]",200,200,0,50,0,61,61,83,,,,,,,,,,,,,,,,,0.012091499986127019,0.512091499986127,625.9557859001216,None,625.9557859001216,None,right,2.6324206001590937,625.9557859001216,None,625.9557859001216,None,625.9557859001216,None,625.9557859001216,None,625.9557859001216,None,628.6276777000166,None,628.6276777000166,None,0.005807849811390042,0.50580784981139,628.6276777000166,None,628.6276777000166,None,628.6276777000166,None,628.6276777000166,None,628.6276777000166,None,628.6276777000166,None,631.1747693000361,None,631.1747693000361,None,0.00796595006249845,0.5079659500624985,631.1747693000361,None,631.1747693000361,None,631.1747693000361,None,631.1747693000361,None,631.1747693000361,None,631.1747693000361,None,28.799999999999997,1.685,634.8993456000462,None,2550,,,,,,,,,,,,,,,,,,,f,25,gululu,2022_Jan_08_1900,emotion,2021.1.4,59.96634690910326,
302,partial,0,0.2,-50,0.8,red,0,0.8,-200,0.2,blue,blue,red,red,blue,72,72,77,355,77,355,"[-6.7, 1.9]","[6.7, -1.9]","[-9.3, -1.9]","[9.3, 1.9]",-50,0,0,-200,0,62,62,39,,,,,,,,,,,,,,,,,0.01408085017465055,0.5140808501746505,635.9387471999507,None,635.9387471999507,None,left,2.4724012999795377,635.9387471999507,None,635.9387471999507,None,635.9387471999507,None,635.9387471999507,None,635.9387471999507,None,638.4421405999456,None,638.4421405999456,None,0.00554525014013052,0.5055452501401305,638.4421405999456,None,638.4421405999456,None,638.4421405999456,None,638.4421405999456,None,638.4421405999456,None,638.4421405999456,None,641.3396107000299,None,641.3396107000299,None,0.008189749903976917,0.5081897499039769,641.3396107000299,None,641.3396107000299,None,641.3396107000299,None,641.3396107000299,None,641.3396107000299,None,641.3396107000299,None,-25.5,0.984,644.3640950999688,None,2500,,,,,,,,,,,,,,,,,,,f,25,gululu,2022_Jan_08_1900,emotion,2021.1.4,59.96634690910326,
95,partial,0,0.2,-200,0.8,blue,-50,0.2,-200,0.8,blue,blue,red,blue,red,72,72,5,67,5,67,"[-6.7, 1.9]","[9.3, 1.9]","[-9.3, -1.9]","[6.7, -1.9]",0,-50,-200,-200,0,63,63,1,,,,,,,,,,,,,,,,,0.00543825002387166,0.5054382500238717,645.3756424000021,None,645.3756424000021,None,left,2.7880432000383735,645.3756424000021,None,645.3756424000021,None,645.3756424000021,None,645.3756424000021,None,645.3756424000021,None,648.2031739000231,None,648.2031739000231,None,0.015176400076597929,0.5151764000765979,648.2031739000231,None,648.2031739000231,None,648.2031739000231,None,648.2031739000231,None,648.2031739000231,None,648.2031739000231,None,650.7211001999676,None,650.7211001999676,None,0.007285649888217449,0.5072856498882174,650.7211001999676,None,650.7211001999676,None,650.7211001999676,None,650.7211001999676,None,650.7211001999676,None,650.7211001999676,None,21.799999999999997,1.518,654.2788023001049,None,2500,,,,,,,,,,,,,,,,,,,f,25,gululu,2022_Jan_08_1900,emotion,2021.1.4,59.96634690910326,
292,partial,200,0.2,0,0.8,red,200,0.5,50,0.5,blue,blue,red,red,blue,72,180,77,355,185,355,"[-6.7, 1.9]","[6, 0]","[-9.3, -1.9]","[10, 0]",0,200,200,50,0,64,64,77,,,,,,,,,,,,,,,,,0.004072100156918168,0.5040721001569182,655.3135534001049,None,655.3135534001049,None,right,2.0106335999444127,655.3135534001049,None,655.3135534001049,None,655.3135534001049,None,655.3135534001049,None,655.3135534001049,None,657.3560838000849,None,657.3560838000849,None,0.005757249891757965,0.505757249891758,657.3560838000849,None,657.3560838000849,None,657.3560838000849,None,657.3560838000849,None,657.3560838000849,None,657.3560838000849,None,659.9518121001311,None,659.9518121001311,None,0.00755595020018518,0.5075559502001852,659.9518121001311,None,659.9518121001311,None,659.9518121001311,None,659.9518121001311,None,659.9518121001311,None,659.9518121001311,None,46.3,1.534,663.5270396000706,None,2700,,,,,,,,,,,,,,,,,,,f,25,gululu,2022_Jan_08_1900,emotion,2021.1.4,59.96634690910326,
427,partial,0,0.2,-50,0.8,red,-50,0.5,-200,0.5,red,blue,red,red,blue,72,180,77,355,5,175,"[-6.7, 1.9]","[6, 0]","[-9.3, -1.9]","[10, 0]",-50,-200,0,-50,0,65,65,20,,,,,,,,,,,,,,,,,5.679996684193611e-05,0.5000567999668419,664.5620653999504,None,664.5620653999504,None,left,1.690029899822548,664.5620653999504,None,664.5620653999504,None,664.5620653999504,None,664.5620653999504,None,664.5620653999504,None,666.2879487001337,None,666.2879487001337,None,0.005990549689158797,0.5059905496891588,666.2879487001337,None,666.2879487001337,None,666.2879487001337,None,666.2879487001337,None,666.2879487001337,None,666.2879487001337,None,668.7837670999579,None,668.7837670999579,None,0.007681450108066201,0.5076814501080662,668.7837670999579,None,668.7837670999579,None,668.7837670999579,None,668.7837670999579,None,668.7837670999579,None,668.7837670999579,None,-14.299999999999997,1.334,672.1588816000149,None,2650,,,,,,,,,,,,,,,,,,,f,25,gululu,2022_Jan_08_1900,emotion,2021.1.4,59.96634690910326,
324,partial,0,0.8,-50,0.2,red,-50,0.8,-200,0.2,blue,red,blue,red,blue,72,72,5,67,77,355,"[-9.3, -1.9]","[6.7, -1.9]","[-6.7, 1.9]","[9.3, 1.9]",-50,-50,0,-200,0,66,66,53,,,,,,,,,,,,,,,,,0.002594300312921405,0.5025943003129214,673.1892846000846,None,673.1892846000846,None,left,1.6603951000142843,673.1892846000846,None,673.1892846000846,None,673.1892846000846,None,673.1892846000846,None,673.1892846000846,None,674.8916221000254,None,674.8916221000254,None,0.004486750112846494,0.5044867501128465,674.8916221000254,None,674.8916221000254,None,674.8916221000254,None,674.8916221000254,None,674.8916221000254,None,674.8916221000254,None,677.5010701001156,None,677.5010701001156,None,0.007027450250461698,0.5070274502504617,677.5010701001156,None,677.5010701001156,None,677.5010701001156,None,677.5010701001156,None,677.5010701001156,None,677.5010701001156,None,-21.2,1.352,680.8901554001495,None,2600,,,,,,,,,,,,,,,,,,,f,25,gululu,2022_Jan_08_1900,emotion,2021.1.4,59.96634690910326,
316,partial,0,0.5,-50,0.5,red,-50,0.5,-200,0.5,blue,red,blue,red,blue,180,180,5,175,185,355,"[-10, 0]","[6, 0]","[-6, 0]","[10, 0]",-50,-50,0,-200,0,67,67,29,,,,,,,,,,,,,,,,,0.003924600081518292,0.5039246000815183,681.919231900014,None,681.919231900014,None,left,1.4770446999464184,681.919231900014,None,681.919231900014,None,681.919231900014,None,681.919231900014,None,681.919231900014,None,683.4333576001227,None,683.4333576001227,None,0.005849149776622653,0.5058491497766227,683.4333576001227,None,683.4333576001227,None,683.4333576001227,None,683.4333576001227,None,683.4333576001227,None,683.4333576001227,None,686.1975623001345,None,686.1975623001345,None,0.0074529501143842936,0.5074529501143843,686.1975623001345,None,686.1975623001345,None,686.1975623001345,None,686.1975623001345,None,686.1975623001345,None,686.1975623001345,None,-10.700000000000003,0.869,689.1051475000568,None,2550,,,,,,,,,,,,,,,,,,,f,25,gululu,2022_Jan_08_1900,emotion,2021.1.4,59.96634690910326,
180,partial,50,0.8,0,0.2,blue,200,0.8,50,0.2,red,red,blue,red,blue,72,72,77,355,5,67,"[-9.3, -1.9]","[6.7, -1.9]","[-6.7, 1.9]","[9.3, 1.9]",50,50,0,200,0,68,68,106,,,,,,,,,,,,,,,,,0.002571600256487727,0.5025716002564877,690.136476600077,None,690.136476600077,None,right,1.3862596999388188,690.136476600077,None,690.136476600077,None,690.136476600077,None,690.136476600077,None,690.136476600077,None,691.5480349999852,None,691.5480349999852,None,0.006049450254067779,0.5060494502540678,691.5480349999852,None,691.5480349999852,None,691.5480349999852,None,691.5480349999852,None,691.5480349999852,None,691.5480349999852,None,694.2981340999249,None,694.2981340999249,None,0.007148349890485406,0.5071483498904854,694.2981340999249,None,694.2981340999249,None,694.2981340999249,None,694.2981340999249,None,694.2981340999249,None,694.2981340999249,None,-11.899999999999999,4.366,700.7028616999742,None,2600,,,,,,,,,,,,,,,,,,,f,25,gululu,2022_Jan_08_1900,emotion,2021.1.4,59.96634690910326,
310,partial,0,0.2,-200,0.8,red,-50,0.5,-200,0.5,blue,blue,red,red,blue,72,180,77,355,185,355,"[-6.7, 1.9]","[6, 0]","[-9.3, -1.9]","[10, 0]",-200,-50,0,-200,0,69,69,19,,,,,,,,,,,,,,,,,0.009532550117000937,0.5095325501170009,701.7455025000963,None,701.7455025000963,None,left,3.475478900130838,701.7455025000963,None,701.7455025000963,None,701.7455025000963,None,701.7455025000963,None,701.7455025000963,None,705.2632476000581,None,705.2632476000581,None,0.005552550079301,0.505552550079301,705.2632476000581,None,705.2632476000581,None,705.2632476000581,None,705.2632476000581,None,705.2632476000581,None,705.2632476000581,None,708.1599465999752,None,708.1599465999752,None,0.008502350188791752,0.5085023501887918,708.1599465999752,None,708.1599465999752,None,708.1599465999752,None,708.1599465999752,None,708.1599465999752,None,708.1599465999752,None,-46.8,2.122,712.3176267999224,None,2400,,,,,,,,,,,,,,,,,,,f,25,gululu,2022_Jan_08_1900,emotion,2021.1.4,59.96634690910326,
320,partial,0,0.2,-50,0.8,red,-50,0.2,-200,0.8,blue,blue,red,blue,red,72,72,77,355,5,67,"[-6.7, 1.9]","[9.3, 1.9]","[-9.3, -1.9]","[6.7, -1.9]",-50,-50,0,-200,0,70,70,5,,,,,,,,,,,,,,,,,0.013454950181767344,0.5134549501817673,713.3522394001484,None,713.3522394001484,None,left,1.3962740001734346,713.3522394001484,None,713.3522394001484,None,713.3522394001484,None,713.3522394001484,None,713.3522394001484,None,714.7772212000564,None,714.7772212000564,None,0.0060826498083770275,0.506082649808377,714.7772212000564,None,714.7772212000564,None,714.7772212000564,None,714.7772212000564,None,714.7772212000564,None,714.7772212000564,None,717.7086609001271,None,717.7086609001271,None,0.007666849996894598,0.5076668499968946,717.7086609001271,None,717.7086609001271,None,717.7086609001271,None,717.7086609001271,None,717.7086609001271,None,717.7086609001271,None,-25.4,1.134,720.8884509000927,None,2350,,,,,,,,,,,,,,,,,,,f,25,gululu,2022_Jan_08_1900,emotion,2021.1.4,59.96634690910326,
383,partial,50,0.2,0,0.8,red,200,0.8,0,0.2,red,blue,red,red,blue,72,72,77,355,5,67,"[-6.7, 1.9]","[6.7, -1.9]","[-9.3, -1.9]","[9.3, 1.9]",0,0,50,200,0,71,71,90,,,,,,,,,,,,,,,,,0.016473650000989437,0.5164736500009894,721.9340993999504,None,721.9340993999504,None,right,1.3080965999979526,721.9340993999504,None,721.9340993999504,None,721.9340993999504,None,721.9340993999504,None,721.9340993999504,None,723.2906959999818,None,723.2906959999818,None,0.0051465502474457026,0.5051465502474457,723.2906959999818,None,723.2906959999818,None,723.2906959999818,None,723.2906959999818,None,723.2906959999818,None,723.2906959999818,None,726.0221601000521,None,726.0221601000521,None,0.00809765001758933,0.5080976500175893,726.0221601000521,None,726.0221601000521,None,726.0221601000521,None,726.0221601000521,None,726.0221601000521,None,726.0221601000521,None,-30.4,0.985,729.0487142000347,None,2350,,,,,,,,,,,,,,,,,,,f,25,gululu,2022_Jan_08_1900,emotion,2021.1.4,59.96634690910326,
407,partial,0,0.5,-50,0.5,red,0,0.8,-200,0.2,red,red,blue,red,blue,180,72,5,175,5,67,"[-10, 0]","[6.7, -1.9]","[-6, 0]","[9.3, 1.9]",-50,-200,0,0,0,72,72,42,,,,,,,,,,,,,,,,,0.007693600142374635,0.5076936001423746,730.0724069001153,None,730.0724069001153,None,left,1.3739604998845607,730.0724069001153,None,730.0724069001153,None,730.0724069001153,None,730.0724069001153,None,730.0724069001153,None,731.4880904001184,None,731.4880904001184,None,0.005946650169789791,0.5059466501697898,731.4880904001184,None,731.4880904001184,None,731.4880904001184,None,731.4880904001184,None,731.4880904001184,None,731.4880904001184,None,734.3203128001187,None,734.3203128001187,None,0.00791865005157888,0.5079186500515789,734.3203128001187,None,734.3203128001187,None,734.3203128001187,None,734.3203128001187,None,734.3203128001187,None,734.3203128001187,None,-29.0,0.869,737.2290316999424,None,2300,,,,,,,,,,,,,,,,,,,f,25,gululu,2022_Jan_08_1900,emotion,2021.1.4,59.96634690910326,
291,partial,200,0.5,0,0.5,red,200,0.8,50,0.2,blue,red,blue,red,blue,180,72,5,175,77,355,"[-10, 0]","[6.7, -1.9]","[-6, 0]","[9.3, 1.9]",0,200,200,50,0,73,73,101,,,,,,,,,,,,,,,,,0.0019936999306082726,0.5019936999306083,738.2600952000357,None,738.2600952000357,None,right,1.3683931999839842,738.2600952000357,None,738.2600952000357,None,738.2600952000357,None,738.2600952000357,None,738.2600952000357,None,739.6553489000071,None,739.6553489000071,None,0.006322150118649006,0.506322150118649,739.6553489000071,None,739.6553489000071,None,739.6553489000071,None,739.6553489000071,None,739.6553489000071,None,739.6553489000071,None,742.3869245999958,None,742.3869245999958,None,0.007651750231161714,0.5076517502311617,742.3869245999958,None,742.3869245999958,None,742.3869245999958,None,742.3869245999958,None,742.3869245999958,None,742.3869245999958,None,37.8,1.333,745.7614219000097,None,2500,,,,,,,,,,,,,,,,,,,f,25,gululu,2022_Jan_08_1900,emotion,2021.1.4,59.96634690910326,
406,partial,0,0.5,-50,0.5,red,0,0.2,-200,0.8,red,red,blue,blue,red,180,72,5,175,77,355,"[-10, 0]","[9.3, 1.9]","[-6, 0]","[6.7, -1.9]",-50,-200,0,0,0,74,74,6,,,,,,,,,,,,,,,,,0.012804250000044703,0.5128042500000447,746.8022209000774,None,746.8022209000774,None,left,1.465545800048858,746.8022209000774,None,746.8022209000774,None,746.8022209000774,None,746.8022209000774,None,746.8022209000774,None,748.3049035000149,None,748.3049035000149,None,0.005732350051403046,0.505732350051403,748.3049035000149,None,748.3049035000149,None,748.3049035000149,None,748.3049035000149,None,748.3049035000149,None,748.3049035000149,None,751.0528704000171,None,751.0528704000171,None,0.007750250166282058,0.5077502501662821,751.0528704000171,None,751.0528704000171,None,751.0528704000171,None,751.0528704000171,None,751.0528704000171,None,751.0528704000171,None,-25.9,1.05,754.1426324001513,None,2450,,,,,,,,,,,,,,,,,,,f,25,gululu,2022_Jan_08_1900,emotion,2021.1.4,59.96634690910326,
285,partial,50,0.2,0,0.8,red,200,0.8,50,0.2,blue,blue,red,red,blue,72,72,77,355,77,355,"[-6.7, 1.9]","[6.7, -1.9]","[-9.3, -1.9]","[9.3, 1.9]",0,200,50,50,0,75,75,91,,,,,,,,,,,,,,,,,0.0006182002834975719,0.5006182002834976,755.1757275001146,None,755.1757275001146,None,right,1.3894686999265105,755.1757275001146,None,755.1757275001146,None,755.1757275001146,None,755.1757275001146,None,755.1757275001146,None,756.6016277000308,None,756.6016277000308,None,0.006718350108712912,0.5067183501087129,756.6016277000308,None,756.6016277000308,None,756.6016277000308,None,756.6016277000308,None,756.6016277000308,None,756.6016277000308,None,759.3157951999456,None,759.3157951999456,None,0.007691850187256932,0.5076918501872569,759.3157951999456,None,759.3157951999456,None,759.3157951999456,None,759.3157951999456,None,759.3157951999456,None,759.3157951999456,None,42.400000000000006,1.485,762.8408425999805,None,2650,,,,,,,,,,,,,,,,,,,f,25,gululu,2022_Jan_08_1900,emotion,2021.1.4,59.96634690910326,
96,partial,0,0.2,-200,0.8,blue,-50,0.8,-200,0.2,blue,blue,red,red,blue,72,72,5,67,77,355,"[-6.7, 1.9]","[6.7, -1.9]","[-9.3, -1.9]","[9.3, 1.9]",0,-50,-200,-200,0,76,76,37,,,,,,,,,,,,,,,,,0.014558650320395827,0.5145586503203958,763.8769213999622,None,763.8769213999622,None,right,1.8039660002104938,763.8769213999622,None,763.8769213999622,None,763.8769213999622,None,763.8769213999622,None,763.8769213999622,None,765.7172034999821,None,765.7172034999821,None,0.005378450034186244,0.5053784500341862,765.7172034999821,None,765.7172034999821,None,765.7172034999821,None,765.7172034999821,None,765.7172034999821,None,765.7172034999821,None,768.2661693999544,None,768.2661693999544,None,0.0066507498268038034,0.5066507498268038,768.2661693999544,None,768.2661693999544,None,768.2661693999544,None,768.2661693999544,None,768.2661693999544,None,768.2661693999544,None,20.400000000000006,0.85,771.1567440000363,None,2600,,,,,,,,,,,,,,,,,,,f,25,gululu,2022_Jan_08_1900,emotion,2021.1.4,59.96634690910326,
430,partial,0,0.8,-50,0.2,red,-50,0.5,-200,0.5,red,red,blue,red,blue,72,180,5,67,5,175,"[-9.3, -1.9]","[6, 0]","[-6.7, 1.9]","[10, 0]",-50,-200,0,-50,0,77,77,32,,,,,,,,,,,,,,,,,0.0136181500274688,0.5136181500274688,772.2280075999442,None,772.2280075999442,None,left,1.3036334998905659,772.2280075999442,None,772.2280075999442,None,772.2280075999442,None,772.2280075999442,None,772.2280075999442,None,773.5658581999596,None,773.5658581999596,None,0.005712250014767051,0.505712250014767,773.5658581999596,None,773.5658581999596,None,773.5658581999596,None,773.5658581999596,None,773.5658581999596,None,773.5658581999596,None,776.5620512000751,None,776.5620512000751,None,0.007734149927273393,0.5077341499272734,776.5620512000751,None,776.5620512000751,None,776.5620512000751,None,776.5620512000751,None,776.5620512000751,None,776.5620512000751,None,-11.5,1.004,779.6040250000078,None,2550,,,,,,,,,,,,,,,,,,,f,25,gululu,2022_Jan_08_1900,emotion,2021.1.4,59.96634690910326,
301,partial,0,0.2,-50,0.8,red,0,0.2,-200,0.8,blue,blue,red,blue,red,72,72,77,355,5,67,"[-6.7, 1.9]","[9.3, 1.9]","[-9.3, -1.9]","[6.7, -1.9]",-50,0,0,-200,0,78,78,3,,,,,,,,,,,,,,,,,1.3699755072593689e-05,0.5000136997550726,780.6413122999948,None,780.6413122999948,None,left,1.6117679001763463,780.6413122999948,None,780.6413122999948,None,780.6413122999948,None,780.6413122999948,None,780.6413122999948,None,782.2811646999326,None,782.2811646999326,None,0.006233549909666181,0.5062335499096662,782.2811646999326,None,782.2811646999326,None,782.2811646999326,None,782.2811646999326,None,782.2811646999326,None,782.2811646999326,None,784.7779343000147,None,784.7779343000147,None,0.007831349968910217,0.5078313499689102,784.7779343000147,None,784.7779343000147,None,784.7779343000147,None,784.7779343000147,None,784.7779343000147,None,784.7779343000147,None,-11.299999999999997,0.867,787.6858439999633,None,2500,,,,,,,,,,,,,,,,,,,f,25,gululu,2022_Jan_08_1900,emotion,2021.1.4,59.96634690910326,
313,partial,0,0.8,-200,0.2,red,-50,0.5,-200,0.5,blue,red,blue,red,blue,72,180,5,67,185,355,"[-9.3, -1.9]","[6, 0]","[-6.7, 1.9]","[10, 0]",-200,-50,0,-200,0,79,79,31,,,,,,,,,,,,,,,,,0.0027358001098036766,0.5027358001098037,788.7167786001228,None,788.7167786001228,None,left,1.4714844999834895,788.7167786001228,None,788.7167786001228,None,788.7167786001228,None,788.7167786001228,None,788.7167786001228,None,790.2112332999241,None,790.2112332999241,None,0.0065124500542879105,0.5065124500542879,790.2112332999241,None,790.2112332999241,None,790.2112332999241,None,790.2112332999241,None,790.2112332999241,None,790.2112332999241,None,793.2273178000469,None,793.2273178000469,None,0.0073449499905109406,0.5073449499905109,793.2273178000469,None,793.2273178000469,None,793.2273178000469,None,793.2273178000469,None,793.2273178000469,None,793.2273178000469,None,-44.8,2.784,798.0505242999643,None,2300,,,,,,,,,,,,,,,,,,,f,25,gululu,2022_Jan_08_1900,emotion,2021.1.4,59.96634690910326,
389,partial,50,0.5,0,0.5,red,200,0.2,50,0.8,red,red,blue,blue,red,180,72,5,175,77,355,"[-10, 0]","[9.3, 1.9]","[-6, 0]","[6.7, -1.9]",0,50,50,200,0,80,80,64,,,,,,,,,,,,,,,,,0.005713450023904443,0.5057134500239044,799.0823254000861,None,799.0823254000861,None,right,1.4009455998893827,799.0823254000861,None,799.0823254000861,None,799.0823254000861,None,799.0823254000861,None,799.0823254000861,None,800.5099653999787,None,800.5099653999787,None,0.00563135021366179,0.5056313502136618,800.5099653999787,None,800.5099653999787,None,800.5099653999787,None,800.5099653999787,None,800.5099653999787,None,800.5099653999787,None,803.5087027000263,None,803.5087027000263,None,0.006955350050702691,0.5069553500507027,803.5087027000263,None,803.5087027000263,None,803.5087027000263,None,803.5087027000263,None,803.5087027000263,None,803.5087027000263,None,10.600000000000001,1.518,807.0653733999934,None,2350,,,,,,,,,,,,,,,,,,,f,25,gululu,2022_Jan_08_1900,emotion,2021.1.4,59.96634690910326,
201,partial,0,0.5,-200,0.5,blue,-50,0.8,-200,0.2,red,red,blue,red,blue,180,72,185,355,5,67,"[-10, 0]","[6.7, -1.9]","[-6, 0]","[9.3, 1.9]",0,-200,-200,-50,0,81,81,46,,,,,,,,,,,,,,,,,0.0014543000143021345,0.5014543000143021,808.0980911001097,None,808.0980911001097,None,left,1.3391181998886168,808.0980911001097,None,808.0980911001097,None,808.0980911001097,None,808.0980911001097,None,808.0980911001097,None,809.4742449000478,None,809.4742449000478,None,0.00708755012601614,0.5070875501260161,809.4742449000478,None,809.4742449000478,None,809.4742449000478,None,809.4742449000478,None,809.4742449000478,None,809.4742449000478,None,812.472650700016,None,812.472650700016,None,0.007556849857792258,0.5075568498577923,812.472650700016,None,812.472650700016,None,812.472650700016,None,812.472650700016,None,812.472650700016,None,812.472650700016,None,32.0,0.988,815.4972672001459,None,2350,,,,,,,,,,,,,,,,,,,f,25,gululu,2022_Jan_08_1900,emotion,2021.1.4,59.96634690910326,
290,partial,200,0.5,0,0.5,red,200,0.2,50,0.8,blue,red,blue,blue,red,180,72,5,175,5,67,"[-10, 0]","[9.3, 1.9]","[-6, 0]","[6.7, -1.9]",0,200,200,50,0,82,82,65,,,,,,,,,,,,,,,,,0.00016190018504858017,0.5001619001850486,816.5310200999957,None,816.5310200999957,None,right,1.3921507999766618,816.5310200999957,None,816.5310200999957,None,816.5310200999957,None,816.5310200999957,None,816.5310200999957,None,817.9572866000235,None,817.9572866000235,None,0.005690049845725298,0.5056900498457253,817.9572866000235,None,817.9572866000235,None,817.9572866000235,None,817.9572866000235,None,817.9572866000235,None,817.9572866000235,None,820.6704987999983,None,820.6704987999983,None,0.007532249903306365,0.5075322499033064,820.6704987999983,None,820.6704987999983,None,820.6704987999983,None,820.6704987999983,None,820.6704987999983,None,820.6704987999983,None,42.3,1.018,823.7288417001255,None,2550,,,,,,,,,,,,,,,,,,,f,25,gululu,2022_Jan_08_1900,emotion,2021.1.4,59.96634690910326,
192,partial,0,0.5,-50,0.5,blue,0,0.5,-200,0.5,red,red,blue,red,blue,180,180,185,355,5,175,"[-10, 0]","[6, 0]","[-6, 0]","[10, 0]",0,-200,-50,0,0,83,83,24,,,,,,,,,,,,,,,,,0.009843500331044197,0.5098435003310442,824.7519324000459,None,824.7519324000459,None,left,1.3649959000758827,824.7519324000459,None,824.7519324000459,None,824.7519324000459,None,824.7519324000459,None,824.7519324000459,None,826.1546062999405,None,826.1546062999405,None,0.004393650218844414,0.5043936502188444,826.1546062999405,None,826.1546062999405,None,826.1546062999405,None,826.1546062999405,None,826.1546062999405,None,826.1546062999405,None,828.9349887000863,None,828.9349887000863,None,0.007741049863398075,0.5077410498633981,828.9349887000863,None,828.9349887000863,None,828.9349887000863,None,828.9349887000863,None,828.9349887000863,None,828.9349887000863,None,22.5,0.834,831.8104968001135,None,2550,,,,,,,,,,,,,,,,,,,f,25,gululu,2022_Jan_08_1900,emotion,2021.1.4,59.96634690910326,
386,partial,50,0.8,0,0.2,red,200,0.8,0,0.2,red,red,blue,red,blue,72,72,5,67,5,67,"[-9.3, -1.9]","[6.7, -1.9]","[-6.7, 1.9]","[9.3, 1.9]",0,0,50,200,0,84,84,102,,,,,,,,,,,,,,,,,0.007391749881207943,0.5073917498812079,832.8525626999326,None,832.8525626999326,None,right,1.3163985998835415,832.8525626999326,None,832.8525626999326,None,832.8525626999326,None,832.8525626999326,None,832.8525626999326,None,834.2046141999308,None,834.2046141999308,None,0.005570249864831567,0.5055702498648316,834.2046141999308,None,834.2046141999308,None,834.2046141999308,None,834.2046141999308,None,834.2046141999308,None,834.2046141999308,None,837.1510815999936,None,837.1510815999936,None,0.007811450166627765,0.5078114501666278,837.1510815999936,None,837.1510815999936,None,837.1510815999936,None,837.1510815999936,None,837.1510815999936,None,837.1510815999936,None,-10.200000000000003,0.916,840.1091154001188,None,2550,,,,,,,,,,,,,,,,,,,f,25,gululu,2022_Jan_08_1900,emotion,2021.1.4,59.96634690910326,
177,partial,50,0.2,0,0.8,blue,200,0.8,50,0.2,red,blue,red,red,blue,72,72,5,67,5,67,"[-6.7, 1.9]","[6.7, -1.9]","[-9.3, -1.9]","[9.3, 1.9]",50,50,0,200,0,85,85,94,,,,,,,,,,,,,,,,,0.005042250035330653,0.5050422500353307,841.1393705999944,None,841.1393705999944,None,right,1.2534982000943273,841.1393705999944,None,841.1393705999944,None,841.1393705999944,None,841.1393705999944,None,841.1393705999944,None,842.4185927000362,None,842.4185927000362,None,0.005510549992322922,0.5055105499923229,842.4185927000362,None,842.4185927000362,None,842.4185927000362,None,842.4185927000362,None,842.4185927000362,None,842.4185927000362,None,845.1985526999924,None,845.1985526999924,None,0.007881349883973598,0.5078813498839736,845.1985526999924,None,845.1985526999924,None,845.1985526999924,None,845.1985526999924,None,845.1985526999924,None,845.1985526999924,None,-5.399999999999999,0.885,848.1239382999483,None,2600,,,,,,,,,,,,,,,,,,,f,25,gululu,2022_Jan_08_1900,emotion,2021.1.4,59.96634690910326,
78,partial,200,0.2,0,0.8,blue,200,0.8,50,0.2,blue,blue,red,red,blue,72,72,5,67,77,355,"[-6.7, 1.9]","[6.7, -1.9]","[-9.3, -1.9]","[9.3, 1.9]",200,200,0,50,0,86,86,95,,,,,,,,,,,,,,,,,0.006845150142908096,0.5068451501429081,849.1685955999419,None,849.1685955999419,None,right,1.5225916998460889,849.1685955999419,None,849.1685955999419,None,849.1685955999419,None,849.1685955999419,None,849.1685955999419,None,850.7166164000519,None,850.7166164000519,None,0.0071565499529242516,0.5071565499529243,850.7166164000519,None,850.7166164000519,None,850.7166164000519,None,850.7166164000519,None,850.7166164000519,None,850.7166164000519,None,853.2489738001022,None,853.2489738001022,None,0.007611450040712953,0.507611450040713,853.2489738001022,None,853.2489738001022,None,853.2489738001022,None,853.2489738001022,None,853.2489738001022,None,853.2489738001022,None,36.5,0.802,856.0891698000487,None,2800,,,,,,,,,,,,,,,,,,,f,25,gululu,2022_Jan_08_1900,emotion,2021.1.4,59.96634690910326,
381,partial,50,0.5,0,0.5,red,200,0.5,0,0.5,red,red,blue,red,blue,180,180,5,175,5,175,"[-10, 0]","[6, 0]","[-6, 0]","[10, 0]",0,0,50,200,0,87,87,78,,,,,,,,,,,,,,,,,0.00040345010347664356,0.5004034501034766,857.1028289000969,None,857.1028289000969,None,right,1.1028682999312878,857.1028289000969,None,857.1028289000969,None,857.1028289000969,None,857.1028289000969,None,857.1028289000969,None,858.2334286000114,None,858.2334286000114,None,0.00627074996009469,0.5062707499600947,858.2334286000114,None,858.2334286000114,None,858.2334286000114,None,858.2334286000114,None,858.2334286000114,None,858.2334286000114,None,861.0627429999877,None,861.0627429999877,None,0.008118049940094352,0.5081180499400944,861.0627429999877,None,861.0627429999877,None,861.0627429999877,None,861.0627429999877,None,861.0627429999877,None,861.0627429999877,None,-24.0,1.667,864.7711698999628,None,2800,,,,,,,,,,,,,,,,,,,f,25,gululu,2022_Jan_08_1900,emotion,2021.1.4,59.96634690910326,
91,partial,0,0.5,-200,0.5,blue,-50,0.5,-200,0.5,blue,red,blue,red,blue,180,180,185,355,185,355,"[-10, 0]","[6, 0]","[-6, 0]","[10, 0]",0,-50,-200,-200,0,88,88,25,,,,,,,,,,,,,,,,,0.005318650044500828,0.5053186500445008,865.801899000071,None,865.801899000071,None,left,1.552081999834627,865.801899000071,None,865.801899000071,None,865.801899000071,None,865.801899000071,None,865.801899000071,None,867.3802571000997,None,867.3802571000997,None,0.006113950163125992,0.506113950163126,867.3802571000997,None,867.3802571000997,None,867.3802571000997,None,867.3802571000997,None,867.3802571000997,None,867.3802571000997,None,870.0959878999274,None,870.0959878999274,None,0.007676949957385659,0.5076769499573857,870.0959878999274,None,870.0959878999274,None,870.0959878999274,None,870.0959878999274,None,870.0959878999274,None,870.0959878999274,None,21.900000000000006,0.901,873.0360316000879,None,2800,,,,,,,,,,,,,,,,,,,f,25,gululu,2022_Jan_08_1900,emotion,2021.1.4,59.96634690910326,
300,partial,0,0.5,-50,0.5,red,0,0.5,-200,0.5,blue,red,blue,red,blue,180,180,5,175,185,355,"[-10, 0]","[6, 0]","[-6, 0]","[10, 0]",-50,0,0,-200,0,89,89,27,,,,,,,,,,,,,,,,,0.0011903499253094196,0.5011903499253094,874.0503378000576,None,874.0503378000576,None,left,1.3197798000182956,874.0503378000576,None,874.0503378000576,None,874.0503378000576,None,874.0503378000576,None,874.0503378000576,None,875.3973052001093,None,875.3973052001093,None,0.00639774976298213,0.5063977497629821,875.3973052001093,None,875.3973052001093,None,875.3973052001093,None,875.3973052001093,None,875.3973052001093,None,875.3973052001093,None,878.0926369000226,None,878.0926369000226,None,0.007714450126513839,0.5077144501265138,878.0926369000226,None,878.0926369000226,None,878.0926369000226,None,878.0926369000226,None,878.0926369000226,None,878.0926369000226,None,-19.3,0.868,881.00065920013,None,2750,,,,,,,,,,,,,,,,,,,f,25,gululu,2022_Jan_08_1900,emotion,2021.1.4,59.96634690910326,
67,partial,50,0.2,0,0.8,blue,200,0.5,50,0.5,blue,blue,red,red,blue,72,180,5,67,185,355,"[-6.7, 1.9]","[6, 0]","[-9.3, -1.9]","[10, 0]",50,200,0,50,0,90,90,73,,,,,,,,,,,,,,,,,0.000789400190114975,0.500789400190115,882.0401060001459,None,882.0401060001459,None,right,1.2516044999938458,882.0401060001459,None,882.0401060001459,None,882.0401060001459,None,882.0401060001459,None,882.0401060001459,None,883.3290794000495,None,883.3290794000495,None,0.005870450055226684,0.5058704500552267,883.3290794000495,None,883.3290794000495,None,883.3290794000495,None,883.3290794000495,None,883.3290794000495,None,883.3290794000495,None,886.3235254001338,None,886.3235254001338,None,0.007740749977529049,0.507740749977529,886.3235254001338,None,886.3235254001338,None,886.3235254001338,None,886.3235254001338,None,886.3235254001338,None,886.3235254001338,None,39.2,0.999,889.3671027999371,None,2950,,,,,,,,,,,,,,,,,,,f,25,gululu,2022_Jan_08_1900,emotion,2021.1.4,59.96634690910326,
391,partial,50,0.2,0,0.8,red,200,0.5,50,0.5,red,blue,red,red,blue,72,180,77,355,5,175,"[-6.7, 1.9]","[6, 0]","[-9.3, -1.9]","[10, 0]",0,50,50,200,0,91,91,76,,,,,,,,,,,,,,,,,0.015247099800035357,0.5152470998000354,890.3971713001374,None,890.3971713001374,None,right,1.403398099821061,890.3971713001374,None,890.3971713001374,None,890.3971713001374,None,890.3971713001374,None,890.3971713001374,None,891.8269740000833,None,891.8269740000833,None,0.007089149905368686,0.5070891499053687,891.8269740000833,None,891.8269740000833,None,891.8269740000833,None,891.8269740000833,None,891.8269740000833,None,891.8269740000833,None,894.422365500126,None,894.422365500126,None,0.008042149944230914,0.5080421499442309,894.422365500126,None,894.422365500126,None,894.422365500126,None,894.422365500126,None,894.422365500126,None,894.422365500126,None,-15.0,1.334,897.7977622000035,None,3000,,,,,,,,,,,,,,,,,,,f,25,gululu,2022_Jan_08_1900,emotion,2021.1.4,59.96634690910326,
83,partial,0,0.5,-50,0.5,blue,0,0.8,-200,0.2,blue,red,blue,red,blue,180,72,185,355,77,355,"[-10, 0]","[6.7, -1.9]","[-6, 0]","[9.3, 1.9]",0,0,-50,-200,0,92,92,45,,,,,,,,,,,,,,,,,0.014557450311258435,0.5145574503112584,898.8403884000145,None,898.8403884000145,None,left,2.296527500031516,898.8403884000145,None,898.8403884000145,None,898.8403884000145,None,898.8403884000145,None,898.8403884000145,None,901.1750747000333,None,901.1750747000333,None,0.005909249885007739,0.5059092498850077,901.1750747000333,None,901.1750747000333,None,901.1750747000333,None,901.1750747000333,None,901.1750747000333,None,901.1750747000333,None,904.1888314001262,None,904.1888314001262,None,0.007713249884545803,0.5077132498845458,904.1888314001262,None,904.1888314001262,None,904.1888314001262,None,904.1888314001262,None,904.1888314001262,None,904.1888314001262,None,29.900000000000006,0.862,907.0806458001025,None,3000,,,,,,,,,,,,,,,,,,,f,25,gululu,2022_Jan_08_1900,emotion,2021.1.4,59.96634690910326,
411,partial,0,0.2,-50,0.8,red,0,0.5,-200,0.5,red,blue,red,red,blue,72,180,77,355,5,175,"[-6.7, 1.9]","[6, 0]","[-9.3, -1.9]","[10, 0]",-50,-200,0,0,0,93,93,18,,,,,,,,,,,,,,,,,0.015235450118780136,0.5152354501187801,908.114620000124,None,908.114620000124,None,left,1.3411924000829458,908.114620000124,None,908.114620000124,None,908.114620000124,None,908.114620000124,None,908.114620000124,None,909.490267300047,None,909.490267300047,None,0.00644155009649694,0.5064415500964969,909.490267300047,None,909.490267300047,None,909.490267300047,None,909.490267300047,None,909.490267300047,None,909.490267300047,None,912.5182686001062,None,912.5182686001062,None,0.008296449901536107,0.5082964499015361,912.5182686001062,None,912.5182686001062,None,912.5182686001062,None,912.5182686001062,None,912.5182686001062,None,912.5182686001062,None,-18.3,1.084,915.6441454000305,None,2950,,,,,,,,,,,,,,,,,,,f,25,gululu,2022_Jan_08_1900,emotion,2021.1.4,59.96634690910326,
196,partial,0,0.8,-50,0.2,blue,0,0.2,-200,0.8,red,red,blue,blue,red,72,72,77,355,77,355,"[-9.3, -1.9]","[9.3, 1.9]","[-6.7, 1.9]","[6.7, -1.9]",0,-200,-50,0,0,94,94,12,,,,,,,,,,,,,,,,,0.01608845009468496,0.516088450094685,916.684696600074,None,916.684696600074,None,left,1.1831569999922067,916.684696600074,None,916.684696600074,None,916.684696600074,None,916.684696600074,None,916.684696600074,None,917.9051213001367,None,917.9051213001367,None,0.005763250170275569,0.5057632501702756,917.9051213001367,None,917.9051213001367,None,917.9051213001367,None,917.9051213001367,None,917.9051213001367,None,917.9051213001367,None,920.6667973001022,None,920.6667973001022,None,0.008195149945095181,0.5081951499450952,920.6667973001022,None,920.6667973001022,None,920.6667973001022,None,920.6667973001022,None,920.6667973001022,None,920.6667973001022,None,25.400000000000006,1.001,923.7092921999283,None,2950,,,,,,,,,,,,,,,,,,,f,25,gululu,2022_Jan_08_1900,emotion,2021.1.4,59.96634690910326,
276,partial,50,0.2,0,0.8,red,200,0.5,0,0.5,blue,blue,red,red,blue,72,180,77,355,185,355,"[-6.7, 1.9]","[6, 0]","[-9.3, -1.9]","[10, 0]",0,200,50,0,0,95,95,75,,,,,,,,,,,,,,,,,0.004981549922376871,0.5049815499223769,924.7192279000301,None,924.7192279000301,None,right,1.491897099884227,924.7192279000301,None,924.7192279000301,None,924.7192279000301,None,924.7192279000301,None,924.7192279000301,None,926.2533408999443,None,926.2533408999443,None,0.00648414995521307,0.5064841499552131,926.2533408999443,None,926.2533408999443,None,926.2533408999443,None,926.2533408999443,None,926.2533408999443,None,926.2533408999443,None,929.0314158999827,None,929.0314158999827,None,0.008129050023853779,0.5081290500238538,929.0314158999827,None,929.0314158999827,None,929.0314158999827,None,929.0314158999827,None,929.0314158999827,None,929.0314158999827,None,38.599999999999994,1.333,932.4073826000094,None,3150,,,,,,,,,,,,,,,,,,,f,25,gululu,2022_Jan_08_1900,emotion,2021.1.4,59.96634690910326,
197,partial,0,0.8,-50,0.2,blue,0,0.8,-200,0.2,red,red,blue,red,blue,72,72,77,355,5,67,"[-9.3, -1.9]","[6.7, -1.9]","[-6.7, 1.9]","[9.3, 1.9]",0,-200,-50,0,0,96,96,48,,,,,,,,,,,,,,,,,0.007561500184237957,0.507561500184238,933.4344015000388,None,933.4344015000388,None,left,1.159280200023204,933.4344015000388,None,933.4344015000388,None,933.4344015000388,None,933.4344015000388,None,933.4344015000388,None,934.6354978999589,None,934.6354978999589,None,0.005822849925607443,0.5058228499256074,934.6354978999589,None,934.6354978999589,None,934.6354978999589,None,934.6354978999589,None,934.6354978999589,None,934.6354978999589,None,937.5973020000383,None,937.5973020000383,None,0.008328249910846353,0.5083282499108464,937.5973020000383,None,937.5973020000383,None,937.5973020000383,None,937.5973020000383,None,937.5973020000383,None,937.5973020000383,None,21.900000000000006,1.086,940.7226124000736,None,3150,,,,,,,,,,,,,,,,,,,f,25,gululu,2022_Jan_08_1900,emotion,2021.1.4,59.96634690910326,
90,partial,0,0.8,-50,0.2,blue,0,0.5,-200,0.5,blue,red,blue,red,blue,72,180,77,355,185,355,"[-9.3, -1.9]","[6, 0]","[-6.7, 1.9]","[10, 0]",0,0,-50,-200,0,97,97,33,,,,,,,,,,,,,,,,,0.006660800194367766,0.5066608001943678,941.7483687000349,None,941.7483687000349,None,left,1.1593256001360714,941.7483687000349,None,941.7483687000349,None,941.7483687000349,None,941.7483687000349,None,941.7483687000349,None,942.9486054000445,None,942.9486054000445,None,0.005064249970018864,0.5050642499700189,942.9486054000445,None,942.9486054000445,None,942.9486054000445,None,942.9486054000445,None,942.9486054000445,None,942.9486054000445,None,945.8451968000736,None,945.8451968000736,None,0.007901049917563796,0.5079010499175638,945.8451968000736,None,945.8451968000736,None,945.8451968000736,None,945.8451968000736,None,945.8451968000736,None,945.8451968000736,None,23.700000000000003,1.717,949.6040918999352,None,3150,,,,,,,,,,,,,,,,,,,f,25,gululu,2022_Jan_08_1900,emotion,2021.1.4,59.96634690910326,
415,partial,0,0.5,-200,0.5,red,-50,0.5,-200,0.5,red,red,blue,red,blue,180,180,5,175,5,175,"[-10, 0]","[6, 0]","[-6, 0]","[10, 0]",-200,-200,0,-50,0,98,98,28,,,,,,,,,,,,,,,,,0.006828000070527196,0.5068280000705272,950.6309970000293,None,950.6309970000293,None,left,1.068459500093013,950.6309970000293,None,950.6309970000293,None,950.6309970000293,None,950.6309970000293,None,950.6309970000293,None,951.7297676000744,None,951.7297676000744,None,0.006524449680000544,0.5065244496800005,951.7297676000744,None,951.7297676000744,None,951.7297676000744,None,951.7297676000744,None,951.7297676000744,None,951.7297676000744,None,954.6942765000276,None,954.6942765000276,None,0.007353950059041381,0.5073539500590414,954.6942765000276,None,954.6942765000276,None,954.6942765000276,None,954.6942765000276,None,954.6942765000276,None,954.6942765000276,None,-39.9,2.693,959.4354230000172,None,2950,,,,,,,,,,,,,,,,,,,f,25,gululu,2022_Jan_08_1900,emotion,2021.1.4,59.96634690910326,
