trialNumber,trialType,x1,p,y1,p2,outcome1,x2,q,y2,q2,outcome2,LWedgeCol,LCircleCol,RWedgeCol,RCircleCol,Lslice,Rslice,L1,L2,R1,R2,x1Pos,x2Pos,y1Pos,y2Pos,leftPoints,rightPoints,LeftYourUn,RightYouUn,trials.thisRepN,trials.thisTrialN,trials.thisN,trials.thisIndex,trials_2.thisRepN,trials_2.thisTrialN,trials_2.thisN,trials_2.thisIndex,image.started,image.stopped,key_resp_5.keys,key_resp_5.rt,key_resp_5.started,key_resp_5.stopped,image_2.started,image_2.stopped,key_resp_2.keys,key_resp_2.rt,key_resp_2.started,key_resp_2.stopped,ISI_2.started,ISI_2.stopped,arrowL_2.started,arrowL_2.stopped,arrowR_2.started,arrowR_2.stopped,key_resp_4.keys,key_resp_4.rt,key_resp_4.started,key_resp_4.stopped,blueLVal_2.started,blueLVal_2.stopped,blueRVal_2.started,blueRVal_2.stopped,redLVal_2.started,redLVal_2.stopped,redRVal_2.started,redRVal_2.stopped,right.started,right.stopped,left.started,left.stopped,ISI.started,ISI.stopped,arrowL.started,arrowL.stopped,arrowR.started,arrowR.stopped,blueLVal.started,blueLVal.stopped,blueRVal.started,blueRVal.stopped,redLVal.started,redLVal.stopped,redRVal.started,redRVal.stopped,right_2.started,right_2.stopped,left_2.started,left_2.stopped,ISI_4.started,ISI_4.stopped,arrowL_3.started,arrowL_3.stopped,arrowR_3.started,arrowR_3.stopped,blueLVal_3.started,blueLVal_3.stopped,blueRVal_3.started,blueRVal_3.stopped,redLVal_3.started,redLVal_3.stopped,redRVal_3.started,redRVal_3.stopped,rating,ratingrt,text_5.started,text_5.stopped,totalScore,image_4.started,image_4.stopped,key_resp_3.keys,key_resp_3.rt,key_resp_3.started,key_resp_3.stopped,image_5.started,image_5.stopped,key_resp.keys,key_resp.rt,key_resp.started,key_resp.stopped,image_3.started,image_3.stopped,key_resp_9.keys,key_resp_9.rt,key_resp_9.started,key_resp_9.stopped,gender,age,participant,date,expName,psychopyVersion,frameRate,
,,,,,,,,,,,,,,,,,,,,,,,,,,,,,,,,,,,,,,28.4390970999375,None,space,6.4373918999917805,28.4390970999375,None,,,,,,,,,,,,,,,,,,,,,,,,,,,,,,,,,,,,,,,,,,,,,,,,,,,,,,,,,,,,,,,,,,,,,,,,,,,,,,,,,,,,f,24,houshuo,2022_Jan_09_0812,emotion,2021.1.4,60.02552282303545,
,,,,,,,,,,,,,,,,,,,,,,,,,,,,,,,,,,,,,,,,,,,,34.89623129996471,None,space,2.899210900068283,34.89623129996471,None,,,,,,,,,,,,,,,,,,,,,,,,,,,,,,,,,,,,,,,,,,,,,,,,,,,,,,,,,,,,,,,,,,,,,,,,,,,,,,f,24,houshuo,2022_Jan_09_0812,emotion,2021.1.4,60.02552282303545,
66,partial,50,0.5,0,0.5,blue,200,0.8,50,0.2,blue,red,blue,red,blue,180,72,185,355,77,355,"[-10, 0]","[6.7, -1.9]","[-6, 0]","[9.3, 1.9]",50,200,0,50,0,0,0,97,,,,,,,,,,,,,,,,,0.013279049890115857,0.5132790498901159,38.04756599990651,None,38.04756599990651,None,right,5.157173899933696,38.04756599990651,None,38.04756599990651,None,38.04756599990651,None,38.04756599990651,None,38.04756599990651,None,43.236968900077045,None,43.236968900077045,None,0.005331810098141432,0.5053318100981414,43.236968900077045,None,43.236968900077045,None,43.236968900077045,None,43.236968900077045,None,43.236968900077045,None,43.236968900077045,None,46.10372449993156,None,46.10372449993156,None,0.006714509800076485,0.5067145098000765,46.10372449993156,None,46.10372449993156,None,46.10372449993156,None,46.10372449993156,None,46.10372449993156,None,46.10372449993156,None,50.0,4.037,52.22858140012249,None,200,,,,,,,,,,,,,,,,,,,f,24,houshuo,2022_Jan_09_0812,emotion,2021.1.4,60.02552282303545,
58,partial,50,0.2,0,0.8,blue,200,0.2,0,0.8,blue,blue,red,blue,red,72,72,5,67,5,67,"[-6.7, 1.9]","[9.3, 1.9]","[-9.3, -1.9]","[6.7, -1.9]",50,200,0,0,0,1,1,57,,,,,,,,,,,,,,,,,0.005214520031586289,0.5052145200315863,53.2686834000051,None,53.2686834000051,None,right,3.42350159981288,53.2686834000051,None,53.2686834000051,None,53.2686834000051,None,53.2686834000051,None,53.2686834000051,None,56.71829680004157,None,56.71829680004157,None,0.005898809991776943,0.5058988099917769,56.71829680004157,None,56.71829680004157,None,56.71829680004157,None,56.71829680004157,None,56.71829680004157,None,56.71829680004157,None,59.4320448001381,None,59.4320448001381,None,0.007957609836012125,0.5079576098360121,59.4320448001381,None,59.4320448001381,None,59.4320448001381,None,59.4320448001381,None,59.4320448001381,None,59.4320448001381,None,50.0,3.2,64.69079359993339,None,400,,,,,,,,,,,,,,,,,,,f,24,houshuo,2022_Jan_09_0812,emotion,2021.1.4,60.02552282303545,
67,partial,50,0.2,0,0.8,blue,200,0.5,50,0.5,blue,blue,red,red,blue,72,180,5,67,185,355,"[-6.7, 1.9]","[6, 0]","[-9.3, -1.9]","[10, 0]",50,200,0,50,0,2,2,73,,,,,,,,,,,,,,,,,0.002438219962641597,0.5024382199626416,65.72228819993325,None,65.72228819993325,None,right,1.6266681998968124,65.72228819993325,None,65.72228819993325,None,65.72228819993325,None,65.72228819993325,None,65.72228819993325,None,67.3824354999233,None,67.3824354999233,None,0.006318209692835808,0.5063182096928358,67.3824354999233,None,67.3824354999233,None,67.3824354999233,None,67.3824354999233,None,67.3824354999233,None,67.3824354999233,None,70.59388220007531,None,70.59388220007531,None,0.0016065097879618406,0.5016065097879618,70.59388220007531,None,70.59388220007531,None,70.59388220007531,None,70.59388220007531,None,70.59388220007531,None,70.59388220007531,None,50.0,2.051,74.68928669998422,None,600,,,,,,,,,,,,,,,,,,,f,24,houshuo,2022_Jan_09_0812,emotion,2021.1.4,60.02552282303545,
425,partial,0,0.5,-50,0.5,red,-50,0.2,-200,0.8,red,red,blue,blue,red,180,72,5,175,77,355,"[-10, 0]","[9.3, 1.9]","[-6, 0]","[6.7, -1.9]",-50,-200,0,-50,0,3,3,8,,,,,,,,,,,,,,,,,0.0043974099680781364,0.5043974099680781,75.69898390001617,None,75.69898390001617,None,left,2.8368819998577237,75.69898390001617,None,75.69898390001617,None,75.69898390001617,None,75.69898390001617,None,75.69898390001617,None,78.56540050008334,None,78.56540050008334,None,0.0053459100890904665,0.5053459100890905,78.56540050008334,None,78.56540050008334,None,78.56540050008334,None,78.56540050008334,None,78.56540050008334,None,78.56540050008334,None,81.27953230007552,None,81.27953230007552,None,0.007722410140559077,0.5077224101405591,81.27953230007552,None,81.27953230007552,None,81.27953230007552,None,81.27953230007552,None,81.27953230007552,None,81.27953230007552,None,0.0,7.781,91.10232040006667,None,550,,,,,,,,,,,,,,,,,,,f,24,houshuo,2022_Jan_09_0812,emotion,2021.1.4,60.02552282303545,
216,partial,0,0.8,-50,0.2,blue,-50,0.8,-200,0.2,red,red,blue,red,blue,72,72,77,355,5,67,"[-9.3, -1.9]","[6.7, -1.9]","[-6.7, 1.9]","[9.3, 1.9]",0,-200,-50,-50,0,4,4,50,,,,,,,,,,,,,,,,,0.0055079099256545305,0.5055079099256545,92.11139809992164,None,92.11139809992164,None,left,2.246539199957624,92.11139809992164,None,92.11139809992164,None,92.11139809992164,None,92.11139809992164,None,92.11139809992164,None,94.39563390007243,None,94.39563390007243,None,0.005543909966945648,0.5055439099669456,94.39563390007243,None,94.39563390007243,None,94.39563390007243,None,94.39563390007243,None,94.39563390007243,None,94.39563390007243,None,96.9090986000374,None,96.9090986000374,None,0.007756209699437022,0.507756209699437,96.9090986000374,None,96.9090986000374,None,96.9090986000374,None,96.9090986000374,None,96.9090986000374,None,96.9090986000374,None,25.0,10.567,109.51535529992543,None,550,,,,,,,,,,,,,,,,,,,f,24,houshuo,2022_Jan_09_0812,emotion,2021.1.4,60.02552282303545,
163,partial,50,0.5,0,0.5,blue,200,0.2,0,0.8,red,red,blue,blue,red,180,72,185,355,77,355,"[-10, 0]","[9.3, 1.9]","[-6, 0]","[6.7, -1.9]",50,0,0,200,0,5,5,60,,,,,,,,,,,,,,,,,0.0051099201664328575,0.5051099201664329,110.54378299997188,None,110.54378299997188,None,right,1.7527789000887424,110.54378299997188,None,110.54378299997188,None,110.54378299997188,None,110.54378299997188,None,110.54378299997188,None,112.32636480010115,None,112.32636480010115,None,0.005903409793972969,0.505903409793973,112.32636480010115,None,112.32636480010115,None,112.32636480010115,None,112.32636480010115,None,112.32636480010115,None,112.32636480010115,None,114.90531089995056,None,114.90531089995056,None,0.007816110039129853,0.5078161100391299,114.90531089995056,None,114.90531089995056,None,114.90531089995056,None,114.90531089995056,None,114.90531089995056,None,114.90531089995056,None,0.0,6.35,123.29585000011139,None,550,,,,,,,,,,,,,,,,,,,f,24,houshuo,2022_Jan_09_0812,emotion,2021.1.4,60.02552282303545,
87,partial,0,0.2,-50,0.8,blue,0,0.5,-200,0.5,blue,blue,red,red,blue,72,180,5,67,185,355,"[-6.7, 1.9]","[6, 0]","[-9.3, -1.9]","[10, 0]",0,0,-50,-200,0,6,6,21,,,,,,,,,,,,,,,,,0.002901120111346245,0.5029011201113462,124.33324890001677,None,124.33324890001677,None,left,4.840902900090441,124.33324890001677,None,124.33324890001677,None,124.33324890001677,None,124.33324890001677,None,124.33324890001677,None,129.2051762000192,None,129.2051762000192,None,0.005638109985738993,0.505638109985739,129.2051762000192,None,129.2051762000192,None,129.2051762000192,None,129.2051762000192,None,129.2051762000192,None,129.2051762000192,None,131.93462650012225,None,131.93462650012225,None,0.00798170967027545,0.5079817096702754,131.93462650012225,None,131.93462650012225,None,131.93462650012225,None,131.93462650012225,None,131.93462650012225,None,131.93462650012225,None,25.0,13.217,147.191284700064,None,550,,,,,,,,,,,,,,,,,,,f,24,houshuo,2022_Jan_09_0812,emotion,2021.1.4,60.02552282303545,
404,partial,200,0.8,0,0.2,red,200,0.2,50,0.8,red,red,blue,blue,red,72,72,5,67,77,355,"[-9.3, -1.9]","[9.3, 1.9]","[-6.7, 1.9]","[6.7, -1.9]",0,50,200,200,0,7,7,68,,,,,,,,,,,,,,,,,0.005379409762099385,0.5053794097620994,148.20045490004122,None,148.20045490004122,None,right,5.63723889994435,148.20045490004122,None,148.20045490004122,None,148.20045490004122,None,148.20045490004122,None,148.20045490004122,None,153.86685290001333,None,153.86685290001333,None,0.00578841008245945,0.5057884100824594,153.86685290001333,None,153.86685290001333,None,153.86685290001333,None,153.86685290001333,None,153.86685290001333,None,153.86685290001333,None,156.49843870010227,None,156.49843870010227,None,0.007844809908419847,0.5078448099084198,156.49843870010227,None,156.49843870010227,None,156.49843870010227,None,156.49843870010227,None,156.49843870010227,None,156.49843870010227,None,25.0,6.217,164.75454799993895,None,600,,,,,,,,,,,,,,,,,,,f,24,houshuo,2022_Jan_09_0812,emotion,2021.1.4,60.02552282303545,
271,partial,50,0.5,0,0.5,red,200,0.2,0,0.8,blue,red,blue,blue,red,180,72,5,175,5,67,"[-10, 0]","[9.3, 1.9]","[-6, 0]","[6.7, -1.9]",0,200,50,0,0,8,8,63,,,,,,,,,,,,,,,,,0.00905782007612288,0.5090578200761229,165.77671779994853,None,165.77671779994853,None,right,2.2485686000436544,165.77671779994853,None,165.77671779994853,None,165.77671779994853,None,165.77671779994853,None,165.77671779994853,None,168.0626509001013,None,168.0626509001013,None,0.006791810039430857,0.5067918100394309,168.0626509001013,None,168.0626509001013,None,168.0626509001013,None,168.0626509001013,None,168.0626509001013,None,168.0626509001013,None,170.6105949000921,None,170.6105949000921,None,0.007927709957584739,0.5079277099575847,170.6105949000921,None,170.6105949000921,None,170.6105949000921,None,170.6105949000921,None,170.6105949000921,None,170.6105949000921,None,50.0,3.035,175.68573629995808,None,800,,,,,,,,,,,,,,,,,,,f,24,houshuo,2022_Jan_09_0812,emotion,2021.1.4,60.02552282303545,
96,partial,0,0.2,-200,0.8,blue,-50,0.8,-200,0.2,blue,blue,red,red,blue,72,72,5,67,77,355,"[-6.7, 1.9]","[6.7, -1.9]","[-9.3, -1.9]","[9.3, 1.9]",0,-50,-200,-200,0,9,9,37,,,,,,,,,,,,,,,,,0.01247892971150577,0.5124789297115058,176.72376969992183,None,176.72376969992183,None,right,5.748520700028166,176.72376969992183,None,176.72376969992183,None,176.72376969992183,None,176.72376969992183,None,176.72376969992183,None,182.5107585999649,None,182.5107585999649,None,0.005378709640353918,0.5053787096403539,182.5107585999649,None,182.5107585999649,None,182.5107585999649,None,182.5107585999649,None,182.5107585999649,None,182.5107585999649,None,185.09108250006102,None,185.09108250006102,None,0.007798610022291541,0.5077986100222915,185.09108250006102,None,185.09108250006102,None,185.09108250006102,None,185.09108250006102,None,185.09108250006102,None,185.09108250006102,None,0.0,7.068,194.19880539993756,None,750,,,,,,,,,,,,,,,,,,,f,24,houshuo,2022_Jan_09_0812,emotion,2021.1.4,60.02552282303545,
390,partial,50,0.5,0,0.5,red,200,0.8,50,0.2,red,red,blue,red,blue,180,72,5,175,5,67,"[-10, 0]","[6.7, -1.9]","[-6, 0]","[9.3, 1.9]",0,50,50,200,0,10,10,100,,,,,,,,,,,,,,,,,0.005591009743511677,0.5055910097435117,195.20738020003773,None,195.20738020003773,None,right,2.7152127001900226,195.20738020003773,None,195.20738020003773,None,195.20738020003773,None,195.20738020003773,None,195.20738020003773,None,197.95839389995672,None,197.95839389995672,None,0.005178609862923622,0.5051786098629236,197.95839389995672,None,197.95839389995672,None,197.95839389995672,None,197.95839389995672,None,197.95839389995672,None,197.95839389995672,None,200.55594410002232,None,200.55594410002232,None,0.007608209969475865,0.5076082099694759,200.55594410002232,None,200.55594410002232,None,200.55594410002232,None,200.55594410002232,None,200.55594410002232,None,200.55594410002232,None,25.0,8.367,210.9621226999443,None,800,,,,,,,,,,,,,,,,,,,f,24,houshuo,2022_Jan_09_0812,emotion,2021.1.4,60.02552282303545,
182,partial,200,0.5,0,0.5,blue,200,0.2,50,0.8,red,red,blue,blue,red,180,72,185,355,77,355,"[-10, 0]","[9.3, 1.9]","[-6, 0]","[6.7, -1.9]",200,50,0,200,0,11,11,62,,,,,,,,,,,,,,,,,0.013047019951045513,0.5130470199510455,211.98942989995703,None,211.98942989995703,None,right,3.844105200143531,211.98942989995703,None,211.98942989995703,None,211.98942989995703,None,211.98942989995703,None,211.98942989995703,None,215.8709621001035,None,215.8709621001035,None,0.00587121001444757,0.5058712100144476,215.8709621001035,None,215.8709621001035,None,215.8709621001035,None,215.8709621001035,None,215.8709621001035,None,215.8709621001035,None,218.48577510006726,None,218.48577510006726,None,0.007751209661364555,0.5077512096613646,218.48577510006726,None,218.48577510006726,None,218.48577510006726,None,218.48577510006726,None,218.48577510006726,None,218.48577510006726,None,15.0,5.669,226.19260750012472,None,850,,,,,,,,,,,,,,,,,,,f,24,houshuo,2022_Jan_09_0812,emotion,2021.1.4,60.02552282303545,
184,partial,200,0.2,0,0.8,blue,200,0.5,50,0.5,red,blue,red,red,blue,72,180,5,67,5,175,"[-6.7, 1.9]","[6, 0]","[-9.3, -1.9]","[10, 0]",200,50,0,200,0,12,12,74,,,,,,,,,,,,,,,,,0.0029477200005203485,0.5029477200005203,227.23205700004473,None,227.23205700004473,None,right,2.376294800080359,227.23205700004473,None,227.23205700004473,None,227.23205700004473,None,227.23205700004473,None,227.23205700004473,None,229.6345329999458,None,229.6345329999458,None,0.00598960998468101,0.505989609984681,229.6345329999458,None,229.6345329999458,None,229.6345329999458,None,229.6345329999458,None,229.6345329999458,None,229.6345329999458,None,232.23118759994395,None,232.23118759994395,None,0.007938509806990623,0.5079385098069906,232.23118759994395,None,232.23118759994395,None,232.23118759994395,None,232.23118759994395,None,232.23118759994395,None,232.23118759994395,None,15.0,5.701,239.97311359993182,None,900,,,,,,,,,,,,,,,,,,,f,24,houshuo,2022_Jan_09_0812,emotion,2021.1.4,60.02552282303545,
309,partial,0,0.5,-200,0.5,red,-50,0.8,-200,0.2,blue,red,blue,red,blue,180,72,5,175,77,355,"[-10, 0]","[6.7, -1.9]","[-6, 0]","[9.3, 1.9]",-200,-50,0,-200,0,13,13,43,,,,,,,,,,,,,,,,,0.014347729971632361,0.5143477299716324,241.01047570002265,None,241.01047570002265,None,left,6.110429600114003,241.01047570002265,None,241.01047570002265,None,241.01047570002265,None,241.01047570002265,None,241.01047570002265,None,247.1484308000654,None,247.1484308000654,None,0.006655009929090738,0.5066550099290907,247.1484308000654,None,247.1484308000654,None,247.1484308000654,None,247.1484308000654,None,247.1484308000654,None,247.1484308000654,None,249.69661920005456,None,249.69661920005456,None,0.00722800986841321,0.5072280098684132,249.69661920005456,None,249.69661920005456,None,249.69661920005456,None,249.69661920005456,None,249.69661920005456,None,249.69661920005456,None,-50.0,2.201,253.93700239993632,None,700,,,,,,,,,,,,,,,,,,,f,24,houshuo,2022_Jan_09_0812,emotion,2021.1.4,60.02552282303545,
381,partial,50,0.5,0,0.5,red,200,0.5,0,0.5,red,red,blue,red,blue,180,180,5,175,5,175,"[-10, 0]","[6, 0]","[-6, 0]","[10, 0]",0,0,50,200,0,14,14,78,,,,,,,,,,,,,,,,,0.0027478202246129513,0.502747820224613,254.9675191999413,None,254.9675191999413,None,right,2.0405797997955233,254.9675191999413,None,254.9675191999413,None,254.9675191999413,None,254.9675191999413,None,254.9675191999413,None,257.0469752999488,None,257.0469752999488,None,0.006052109878510237,0.5060521098785102,257.0469752999488,None,257.0469752999488,None,257.0469752999488,None,257.0469752999488,None,257.0469752999488,None,257.0469752999488,None,259.9089393999893,None,259.9089393999893,None,0.007953509921208024,0.507953509921208,259.9089393999893,None,259.9089393999893,None,259.9089393999893,None,259.9089393999893,None,259.9089393999893,None,259.9089393999893,None,-5.0,12.099,274.04973640013486,None,700,,,,,,,,,,,,,,,,,,,f,24,houshuo,2022_Jan_09_0812,emotion,2021.1.4,60.02552282303545,
383,partial,50,0.2,0,0.8,red,200,0.8,0,0.2,red,blue,red,red,blue,72,72,77,355,5,67,"[-6.7, 1.9]","[6.7, -1.9]","[-9.3, -1.9]","[9.3, 1.9]",0,0,50,200,0,15,15,90,,,,,,,,,,,,,,,,,0.00883432012051344,0.5088343201205134,275.0801121001132,None,275.0801121001132,None,right,2.0703080999664962,275.0801121001132,None,275.0801121001132,None,275.0801121001132,None,275.0801121001132,None,275.0801121001132,None,277.17501890007406,None,277.17501890007406,None,0.006560509791597724,0.5065605097915977,277.17501890007406,None,277.17501890007406,None,277.17501890007406,None,277.17501890007406,None,277.17501890007406,None,277.17501890007406,None,280.18765769992024,None,280.18765769992024,None,0.00848330999724567,0.5084833099972457,280.18765769992024,None,280.18765769992024,None,280.18765769992024,None,280.18765769992024,None,280.18765769992024,None,280.18765769992024,None,-10.0,7.651,289.88033380010165,None,700,,,,,,,,,,,,,,,,,,,f,24,houshuo,2022_Jan_09_0812,emotion,2021.1.4,60.02552282303545,
394,partial,50,0.8,0,0.2,red,200,0.5,50,0.5,red,red,blue,red,blue,72,180,5,67,5,175,"[-9.3, -1.9]","[6, 0]","[-6.7, 1.9]","[10, 0]",0,50,50,200,0,16,16,88,,,,,,,,,,,,,,,,,0.00039301998913288116,0.5003930199891329,290.9203705000691,None,290.9203705000691,None,right,1.762027099961415,290.9203705000691,None,290.9203705000691,None,290.9203705000691,None,290.9203705000691,None,290.9203705000691,None,292.72204319993034,None,292.72204319993034,None,0.005526409717276692,0.5055264097172767,292.72204319993034,None,292.72204319993034,None,292.72204319993034,None,292.72204319993034,None,292.72204319993034,None,292.72204319993034,None,295.6028301001061,None,295.6028301001061,None,0.007915510097518563,0.5079155100975186,295.6028301001061,None,295.6028301001061,None,295.6028301001061,None,295.6028301001061,None,295.6028301001061,None,295.6028301001061,None,0.0,5.917,303.56070709996857,None,750,,,,,,,,,,,,,,,,,,,f,24,houshuo,2022_Jan_09_0812,emotion,2021.1.4,60.02552282303545,
102,partial,0,0.5,-50,0.5,blue,-50,0.8,-200,0.2,blue,red,blue,red,blue,180,72,185,355,77,355,"[-10, 0]","[6.7, -1.9]","[-6, 0]","[9.3, 1.9]",0,-50,-50,-200,0,17,17,47,,,,,,,,,,,,,,,,,0.0010214201174676418,0.5010214201174676,304.60244620009325,None,304.60244620009325,None,left,5.476264799945056,304.60244620009325,None,304.60244620009325,None,304.60244620009325,None,304.60244620009325,None,304.60244620009325,None,310.1198390999343,None,310.1198390999343,None,0.00538750970736146,0.5053875097073615,310.1198390999343,None,310.1198390999343,None,310.1198390999343,None,310.1198390999343,None,310.1198390999343,None,310.1198390999343,None,312.65026969998144,None,312.65026969998144,None,0.007616209797561169,0.5076162097975612,312.65026969998144,None,312.65026969998144,None,312.65026969998144,None,312.65026969998144,None,312.65026969998144,None,312.65026969998144,None,10.0,12.398,327.08930539991707,None,750,,,,,,,,,,,,,,,,,,,f,24,houshuo,2022_Jan_09_0812,emotion,2021.1.4,60.02552282303545,
316,partial,0,0.5,-50,0.5,red,-50,0.5,-200,0.5,blue,red,blue,red,blue,180,180,5,175,185,355,"[-10, 0]","[6, 0]","[-6, 0]","[10, 0]",-50,-50,0,-200,0,18,18,29,,,,,,,,,,,,,,,,,0.010052419966086745,0.5100524199660867,328.1223307000473,None,328.1223307000473,None,left,2.0014166000764817,328.1223307000473,None,328.1223307000473,None,328.1223307000473,None,328.1223307000473,None,328.1223307000473,None,330.1480235999916,None,330.1480235999916,None,0.006611809832975268,0.5066118098329753,330.1480235999916,None,330.1480235999916,None,330.1480235999916,None,330.1480235999916,None,330.1480235999916,None,330.1480235999916,None,332.73008519993164,None,332.73008519993164,None,0.007667710073292255,0.5076677100732923,332.73008519993164,None,332.73008519993164,None,332.73008519993164,None,332.73008519993164,None,332.73008519993164,None,332.73008519993164,None,0.0,4.233,339.0020109000616,None,700,,,,,,,,,,,,,,,,,,,f,24,houshuo,2022_Jan_09_0812,emotion,2021.1.4,60.02552282303545,
389,partial,50,0.5,0,0.5,red,200,0.2,50,0.8,red,red,blue,blue,red,180,72,5,175,77,355,"[-10, 0]","[9.3, 1.9]","[-6, 0]","[6.7, -1.9]",0,50,50,200,0,19,19,64,,,,,,,,,,,,,,,,,0.016454430064186454,0.5164544300641865,340.035257200012,None,340.035257200012,None,right,1.990985699929297,340.035257200012,None,340.035257200012,None,340.035257200012,None,340.035257200012,None,340.035257200012,None,342.0634296000935,None,342.0634296000935,None,0.006524409865960479,0.5065244098659605,342.0634296000935,None,342.0634296000935,None,342.0634296000935,None,342.0634296000935,None,342.0634296000935,None,342.0634296000935,None,344.67678189999424,None,344.67678189999424,None,0.007624610094353557,0.5076246100943536,344.67678189999424,None,344.67678189999424,None,344.67678189999424,None,344.67678189999424,None,344.67678189999424,None,344.67678189999424,None,0.0,6.866,353.58409780007787,None,750,,,,,,,,,,,,,,,,,,,f,24,houshuo,2022_Jan_09_0812,emotion,2021.1.4,60.02552282303545,
82,partial,0,0.5,-50,0.5,blue,0,0.2,-200,0.8,blue,red,blue,blue,red,180,72,185,355,5,67,"[-10, 0]","[9.3, 1.9]","[-6, 0]","[6.7, -1.9]",0,0,-50,-200,0,20,20,9,,,,,,,,,,,,,,,,,0.00032191979698836803,0.5003219197969884,354.6185055000242,None,354.6185055000242,None,left,2.3101147999987006,354.6185055000242,None,354.6185055000242,None,354.6185055000242,None,354.6185055000242,None,354.6185055000242,None,356.9594705000054,None,356.9594705000054,None,0.005778609775006771,0.5057786097750068,356.9594705000054,None,356.9594705000054,None,356.9594705000054,None,356.9594705000054,None,356.9594705000054,None,356.9594705000054,None,359.6243201000616,None,359.6243201000616,None,0.007750409888103604,0.5077504098881036,359.6243201000616,None,359.6243201000616,None,359.6243201000616,None,359.6243201000616,None,359.6243201000616,None,359.6243201000616,None,15.0,10.383,372.04821739997715,None,750,,,,,,,,,,,,,,,,,,,f,24,houshuo,2022_Jan_09_0812,emotion,2021.1.4,60.02552282303545,
405,partial,200,0.8,0,0.2,red,200,0.8,50,0.2,red,red,blue,red,blue,72,72,5,67,5,67,"[-9.3, -1.9]","[6.7, -1.9]","[-6.7, 1.9]","[9.3, 1.9]",0,50,200,200,0,21,21,104,,,,,,,,,,,,,,,,,0.0027119198348373175,0.5027119198348373,373.0773134001065,None,373.0773134001065,None,right,1.6821017998736352,373.0773134001065,None,373.0773134001065,None,373.0773134001065,None,373.0773134001065,None,373.0773134001065,None,374.7938012999948,None,374.7938012999948,None,0.004426009953022003,0.504426009953022,374.7938012999948,None,374.7938012999948,None,374.7938012999948,None,374.7938012999948,None,374.7938012999948,None,374.7938012999948,None,377.6036461999174,None,377.6036461999174,None,0.007368110120296478,0.5073681101202965,377.6036461999174,None,377.6036461999174,None,377.6036461999174,None,377.6036461999174,None,377.6036461999174,None,377.6036461999174,None,0.0,12.35,391.9929559000302,None,800,,,,,,,,,,,,,,,,,,,f,24,houshuo,2022_Jan_09_0812,emotion,2021.1.4,60.02552282303545,
98,partial,0,0.8,-200,0.2,blue,-50,0.2,-200,0.8,blue,red,blue,blue,red,72,72,77,355,5,67,"[-9.3, -1.9]","[9.3, 1.9]","[-6.7, 1.9]","[6.7, -1.9]",0,-50,-200,-200,0,22,22,13,,,,,,,,,,,,,,,,,0.011353919981047511,0.5113539199810475,393.0147565000225,None,393.0147565000225,None,left,4.566918199881911,393.0147565000225,None,393.0147565000225,None,393.0147565000225,None,393.0147565000225,None,393.0147565000225,None,397.6196757000871,None,397.6196757000871,None,0.0057599099818617105,0.5057599099818617,397.6196757000871,None,397.6196757000871,None,397.6196757000871,None,397.6196757000871,None,397.6196757000871,None,397.6196757000871,None,400.56569899991155,None,400.56569899991155,None,0.0076331100426614285,0.5076331100426614,400.56569899991155,None,400.56569899991155,None,400.56569899991155,None,400.56569899991155,None,400.56569899991155,None,400.56569899991155,None,15.0,5.167,407.7734938999638,None,800,,,,,,,,,,,,,,,,,,,f,24,houshuo,2022_Jan_09_0812,emotion,2021.1.4,60.02552282303545,
288,partial,50,0.8,0,0.2,red,200,0.8,50,0.2,blue,red,blue,red,blue,72,72,5,67,77,355,"[-9.3, -1.9]","[6.7, -1.9]","[-6.7, 1.9]","[9.3, 1.9]",0,200,50,50,0,23,23,103,,,,,,,,,,,,,,,,,0.007531729992479086,0.5075317299924791,408.8244783000555,None,408.8244783000555,None,right,1.7923722001723945,408.8244783000555,None,408.8244783000555,None,408.8244783000555,None,408.8244783000555,None,408.8244783000555,None,410.64863250008784,None,410.64863250008784,None,0.006026809802278876,0.5060268098022789,410.64863250008784,None,410.64863250008784,None,410.64863250008784,None,410.64863250008784,None,410.64863250008784,None,410.64863250008784,None,413.1800017999485,None,413.1800017999485,None,0.007718309992924333,0.5077183099929243,413.1800017999485,None,413.1800017999485,None,413.1800017999485,None,413.1800017999485,None,413.1800017999485,None,413.1800017999485,None,50.0,1.884,417.1123953999486,None,1000,,,,,,,,,,,,,,,,,,,f,24,houshuo,2022_Jan_09_0812,emotion,2021.1.4,60.02552282303545,
324,partial,0,0.8,-50,0.2,red,-50,0.8,-200,0.2,blue,red,blue,red,blue,72,72,5,67,77,355,"[-9.3, -1.9]","[6.7, -1.9]","[-6.7, 1.9]","[9.3, 1.9]",-50,-50,0,-200,0,24,24,53,,,,,,,,,,,,,,,,,0.0027472199872136116,0.5027472199872136,418.1575595999602,None,418.1575595999602,None,left,4.15208479994908,418.1575595999602,None,418.1575595999602,None,418.1575595999602,None,418.1575595999602,None,418.1575595999602,None,422.34731690003537,None,422.34731690003537,None,0.006562309805303812,0.5065623098053038,422.34731690003537,None,422.34731690003537,None,422.34731690003537,None,422.34731690003537,None,422.34731690003537,None,422.34731690003537,None,425.1103771000635,None,425.1103771000635,None,0.007735410006716847,0.5077354100067168,425.1103771000635,None,425.1103771000635,None,425.1103771000635,None,425.1103771000635,None,425.1103771000635,None,425.1103771000635,None,0.0,4.534,431.6855143001303,None,950,,,,,,,,,,,,,,,,,,,f,24,houshuo,2022_Jan_09_0812,emotion,2021.1.4,60.02552282303545,
279,partial,50,0.8,0,0.2,red,200,0.5,0,0.5,blue,red,blue,red,blue,72,180,5,67,185,355,"[-9.3, -1.9]","[6, 0]","[-6.7, 1.9]","[10, 0]",0,200,50,0,0,25,25,87,,,,,,,,,,,,,,,,,0.0006233202293515205,0.5006233202293515,432.7170746999327,None,432.7170746999327,None,right,2.3424420999363065,432.7170746999327,None,432.7170746999327,None,432.7170746999327,None,432.7170746999327,None,432.7170746999327,None,435.0930331000127,None,435.0930331000127,None,0.007045009871944785,0.5070450098719448,435.0930331000127,None,435.0930331000127,None,435.0930331000127,None,435.0930331000127,None,435.0930331000127,None,435.0930331000127,None,437.61109020002186,None,437.61109020002186,None,0.007637209724634886,0.5076372097246349,437.61109020002186,None,437.61109020002186,None,437.61109020002186,None,437.61109020002186,None,437.61109020002186,None,437.61109020002186,None,50.0,2.084,441.7334912000224,None,1150,,,,,,,,,,,,,,,,,,,f,24,houshuo,2022_Jan_09_0812,emotion,2021.1.4,60.02552282303545,
193,partial,0,0.2,-50,0.8,blue,0,0.2,-200,0.8,red,blue,red,blue,red,72,72,5,67,77,355,"[-6.7, 1.9]","[9.3, 1.9]","[-9.3, -1.9]","[6.7, -1.9]",0,-200,-50,0,0,26,26,0,,,,,,,,,,,,,,,,,0.004707320127636194,0.5047073201276362,442.76156700006686,None,442.76156700006686,None,left,3.0086109000258148,442.76156700006686,None,442.76156700006686,None,442.76156700006686,None,442.76156700006686,None,442.76156700006686,None,445.8096171000507,None,445.8096171000507,None,0.005318409530445933,0.5053184095304459,445.8096171000507,None,445.8096171000507,None,445.8096171000507,None,445.8096171000507,None,445.8096171000507,None,445.8096171000507,None,448.6395994001068,None,448.6395994001068,None,0.0075310098472982645,0.5075310098472983,448.6395994001068,None,448.6395994001068,None,448.6395994001068,None,448.6395994001068,None,448.6395994001068,None,448.6395994001068,None,25.0,7.733,458.41492619994096,None,1150,,,,,,,,,,,,,,,,,,,f,24,houshuo,2022_Jan_09_0812,emotion,2021.1.4,60.02552282303545,
177,partial,50,0.2,0,0.8,blue,200,0.8,50,0.2,red,blue,red,red,blue,72,72,5,67,5,67,"[-6.7, 1.9]","[6.7, -1.9]","[-9.3, -1.9]","[9.3, 1.9]",50,50,0,200,0,27,27,94,,,,,,,,,,,,,,,,,0.0018212199211120605,0.5018212199211121,459.444662099937,None,459.444662099937,None,right,1.610284199938178,459.444662099937,None,459.444662099937,None,459.444662099937,None,459.444662099937,None,459.444662099937,None,461.08831949997693,None,461.08831949997693,None,0.006592910038307309,0.5065929100383073,461.08831949997693,None,461.08831949997693,None,461.08831949997693,None,461.08831949997693,None,461.08831949997693,None,461.08831949997693,None,463.8365402999334,None,463.8365402999334,None,0.007806709734722972,0.507806709734723,463.8365402999334,None,463.8365402999334,None,463.8365402999334,None,463.8365402999334,None,463.8365402999334,None,463.8365402999334,None,15.0,18.448,484.32512619998306,None,1200,,,,,,,,,,,,,,,,,,,f,24,houshuo,2022_Jan_09_0812,emotion,2021.1.4,60.02552282303545,
183,partial,200,0.5,0,0.5,blue,200,0.8,50,0.2,red,red,blue,red,blue,180,72,185,355,5,67,"[-10, 0]","[6.7, -1.9]","[-6, 0]","[9.3, 1.9]",200,50,0,200,0,28,28,98,,,,,,,,,,,,,,,,,0.011502529727295041,0.511502529727295,485.3642579000443,None,485.3642579000443,None,right,1.52665190002881,485.3642579000443,None,485.3642579000443,None,485.3642579000443,None,485.3642579000443,None,485.3642579000443,None,486.9183195999358,None,486.9183195999358,None,0.006323109846562147,0.5063231098465621,486.9183195999358,None,486.9183195999358,None,486.9183195999358,None,486.9183195999358,None,486.9183195999358,None,486.9183195999358,None,489.4152198000811,None,489.4152198000811,None,0.007592009846121073,0.5075920098461211,489.4152198000811,None,489.4152198000811,None,489.4152198000811,None,489.4152198000811,None,489.4152198000811,None,489.4152198000811,None,7.700000000000003,15.399,506.8540503999684,None,1250,,,,,,,,,,,,,,,,,,,f,24,houshuo,2022_Jan_09_0812,emotion,2021.1.4,60.02552282303545,
406,partial,0,0.5,-50,0.5,red,0,0.2,-200,0.8,red,red,blue,blue,red,180,72,5,175,77,355,"[-10, 0]","[9.3, 1.9]","[-6, 0]","[6.7, -1.9]",-50,-200,0,0,0,29,29,6,,,,,,,,,,,,,,,,,0.0008277199231088161,0.5008277199231088,507.88830200000666,None,507.88830200000666,None,left,2.54901390010491,507.88830200000666,None,507.88830200000666,None,507.88830200000666,None,507.88830200000666,None,507.88830200000666,None,510.4632012001239,None,510.4632012001239,None,0.006096309749409556,0.5060963097494096,510.4632012001239,None,510.4632012001239,None,510.4632012001239,None,510.4632012001239,None,510.4632012001239,None,510.4632012001239,None,513.1597017999738,None,513.1597017999738,None,0.0077693096827715635,0.5077693096827716,513.1597017999738,None,513.1597017999738,None,513.1597017999738,None,513.1597017999738,None,513.1597017999738,None,513.1597017999738,None,-7.700000000000003,4.735,519.9348102000076,None,1200,,,,,,,,,,,,,,,,,,,f,24,houshuo,2022_Jan_09_0812,emotion,2021.1.4,60.02552282303545,
414,partial,0,0.8,-50,0.2,red,0,0.5,-200,0.5,red,red,blue,red,blue,72,180,5,67,5,175,"[-9.3, -1.9]","[6, 0]","[-6.7, 1.9]","[10, 0]",-50,-200,0,0,0,30,30,30,,,,,,,,,,,,,,,,,0.015151630155742168,0.5151516301557422,520.9708899999969,None,520.9708899999969,None,left,2.0459342999383807,520.9708899999969,None,520.9708899999969,None,520.9708899999969,None,520.9708899999969,None,520.9708899999969,None,523.0458919000812,None,523.0458919000812,None,0.006195509806275368,0.5061955098062754,523.0458919000812,None,523.0458919000812,None,523.0458919000812,None,523.0458919000812,None,523.0458919000812,None,523.0458919000812,None,525.8740566999186,None,525.8740566999186,None,0.007910709828138351,0.5079107098281384,525.8740566999186,None,525.8740566999186,None,525.8740566999186,None,525.8740566999186,None,525.8740566999186,None,525.8740566999186,None,-11.0,4.401,532.315667900024,None,1150,,,,,,,,,,,,,,,,,,,f,24,houshuo,2022_Jan_09_0812,emotion,2021.1.4,60.02552282303545,
176,partial,50,0.2,0,0.8,blue,200,0.2,50,0.8,red,blue,red,blue,red,72,72,5,67,77,355,"[-6.7, 1.9]","[9.3, 1.9]","[-9.3, -1.9]","[6.7, -1.9]",50,50,0,200,0,31,31,58,,,,,,,,,,,,,,,,,0.0014938199892640114,0.501493819989264,533.3538949999493,None,533.3538949999493,None,right,2.6785913000348955,533.3538949999493,None,533.3538949999493,None,533.3538949999493,None,533.3538949999493,None,533.3538949999493,None,536.0569337999914,None,536.0569337999914,None,0.0066393096931278706,0.5066393096931279,536.0569337999914,None,536.0569337999914,None,536.0569337999914,None,536.0569337999914,None,536.0569337999914,None,536.0569337999914,None,539.0538496000227,None,539.0538496000227,None,0.007725609932094812,0.5077256099320948,539.0538496000227,None,539.0538496000227,None,539.0538496000227,None,539.0538496000227,None,539.0538496000227,None,539.0538496000227,None,10.0,6.6,547.6958496000152,None,1200,,,,,,,,,,,,,,,,,,,f,24,houshuo,2022_Jan_09_0812,emotion,2021.1.4,60.02552282303545,
422,partial,0,0.8,-200,0.2,red,-50,0.2,-200,0.8,red,red,blue,blue,red,72,72,5,67,77,355,"[-9.3, -1.9]","[9.3, 1.9]","[-6.7, 1.9]","[6.7, -1.9]",-200,-200,0,-50,0,32,32,16,,,,,,,,,,,,,,,,,0.008643619948998094,0.5086436199489981,548.721059500007,None,548.721059500007,None,left,3.9595890999771655,548.721059500007,None,548.721059500007,None,548.721059500007,None,548.721059500007,None,548.721059500007,None,552.7219426000956,None,552.7219426000956,None,0.004296110011637211,0.5042961100116372,552.7219426000956,None,552.7219426000956,None,552.7219426000956,None,552.7219426000956,None,552.7219426000956,None,552.7219426000956,None,555.4848768000957,None,555.4848768000957,None,0.007449609925970435,0.5074496099259704,555.4848768000957,None,555.4848768000957,None,555.4848768000957,None,555.4848768000957,None,555.4848768000957,None,555.4848768000957,None,-50.0,2.185,559.7156070000492,None,1000,,,,,,,,,,,,,,,,,,,f,24,houshuo,2022_Jan_09_0812,emotion,2021.1.4,60.02552282303545,
78,partial,200,0.2,0,0.8,blue,200,0.8,50,0.2,blue,blue,red,red,blue,72,72,5,67,77,355,"[-6.7, 1.9]","[6.7, -1.9]","[-9.3, -1.9]","[9.3, 1.9]",200,200,0,50,0,33,33,95,,,,,,,,,,,,,,,,,0.006996810203418136,0.5069968102034181,560.7350626999978,None,560.7350626999978,None,right,1.6591218998655677,560.7350626999978,None,560.7350626999978,None,560.7350626999978,None,560.7350626999978,None,560.7350626999978,None,562.4216092000715,None,562.4216092000715,None,0.006576209794729948,0.50657620979473,562.4216092000715,None,562.4216092000715,None,562.4216092000715,None,562.4216092000715,None,562.4216092000715,None,562.4216092000715,None,565.0318479000125,None,565.0318479000125,None,0.007495309924706817,0.5074953099247068,565.0318479000125,None,565.0318479000125,None,565.0318479000125,None,565.0318479000125,None,565.0318479000125,None,565.0318479000125,None,50.0,2.6,569.675230300054,None,1200,,,,,,,,,,,,,,,,,,,f,24,houshuo,2022_Jan_09_0812,emotion,2021.1.4,60.02552282303545,
292,partial,200,0.2,0,0.8,red,200,0.5,50,0.5,blue,blue,red,red,blue,72,180,77,355,185,355,"[-6.7, 1.9]","[6, 0]","[-9.3, -1.9]","[10, 0]",0,200,200,50,0,34,34,77,,,,,,,,,,,,,,,,,0.009124020114541054,0.509124020114541,570.7037224001251,None,570.7037224001251,None,right,1.6707457001321018,570.7037224001251,None,570.7037224001251,None,570.7037224001251,None,570.7037224001251,None,570.7037224001251,None,572.409489300102,None,572.409489300102,None,0.004608609713613987,0.504608609713614,572.409489300102,None,572.409489300102,None,572.409489300102,None,572.409489300102,None,572.409489300102,None,572.409489300102,None,575.2061262000352,None,575.2061262000352,None,0.0029572099447250366,0.502957209944725,575.2061262000352,None,575.2061262000352,None,575.2061262000352,None,575.2061262000352,None,575.2061262000352,None,575.2061262000352,None,50.0,1.967,579.2065067000221,None,1400,,,,,,,,,,,,,,,,,,,f,24,houshuo,2022_Jan_09_0812,emotion,2021.1.4,60.02552282303545,
172,partial,50,0.5,0,0.5,blue,200,0.5,50,0.5,red,red,blue,red,blue,180,180,185,355,5,175,"[-10, 0]","[6, 0]","[-6, 0]","[10, 0]",50,50,0,200,0,35,35,82,,,,,,,,,,,,,,,,,0.014834830071777105,0.5148348300717771,580.2473768000491,None,580.2473768000491,None,right,1.5301272999495268,580.2473768000491,None,580.2473768000491,None,580.2473768000491,None,580.2473768000491,None,580.2473768000491,None,581.8154454999603,None,581.8154454999603,None,0.006601209752261639,0.5066012097522616,581.8154454999603,None,581.8154454999603,None,581.8154454999603,None,581.8154454999603,None,581.8154454999603,None,581.8154454999603,None,584.4470402000006,None,584.4470402000006,None,0.007720409892499447,0.5077204098924994,584.4470402000006,None,584.4470402000006,None,584.4470402000006,None,584.4470402000006,None,584.4470402000006,None,584.4470402000006,None,25.0,9.229,595.7047347999178,None,1450,,,,,,,,,,,,,,,,,,,f,24,houshuo,2022_Jan_09_0812,emotion,2021.1.4,60.02552282303545,
386,partial,50,0.8,0,0.2,red,200,0.8,0,0.2,red,red,blue,red,blue,72,72,5,67,5,67,"[-9.3, -1.9]","[6.7, -1.9]","[-6.7, 1.9]","[9.3, 1.9]",0,0,50,200,0,36,36,102,,,,,,,,,,,,,,,,,0.0015014198143035173,0.5015014198143035,596.7419316000305,None,596.7419316000305,None,right,2.4751574001275003,596.7419316000305,None,596.7419316000305,None,596.7419316000305,None,596.7419316000305,None,596.7419316000305,None,599.2463150001131,None,599.2463150001131,None,0.005657309666275978,0.505657309666276,599.2463150001131,None,599.2463150001131,None,599.2463150001131,None,599.2463150001131,None,599.2463150001131,None,599.2463150001131,None,602.1601462999824,None,602.1601462999824,None,0.00783950975164771,0.5078395097516477,602.1601462999824,None,602.1601462999824,None,602.1601462999824,None,602.1601462999824,None,602.1601462999824,None,602.1601462999824,None,0.0,5.251,609.4505630000494,None,1450,,,,,,,,,,,,,,,,,,,f,24,houshuo,2022_Jan_09_0812,emotion,2021.1.4,60.02552282303545,
179,partial,50,0.8,0,0.2,blue,200,0.2,50,0.8,red,red,blue,blue,red,72,72,77,355,77,355,"[-9.3, -1.9]","[9.3, 1.9]","[-6.7, 1.9]","[6.7, -1.9]",50,50,0,200,0,37,37,70,,,,,,,,,,,,,,,,,0.015193830011412501,0.5151938300114125,610.4879429999273,None,610.4879429999273,None,right,1.7559329001232982,610.4879429999273,None,610.4879429999273,None,610.4879429999273,None,610.4879429999273,None,610.4879429999273,None,612.277719500009,None,612.277719500009,None,0.005880109732970595,0.5058801097329706,612.277719500009,None,612.277719500009,None,612.277719500009,None,612.277719500009,None,612.277719500009,None,612.277719500009,None,615.2571988001,None,615.2571988001,None,0.007745809853076935,0.5077458098530769,615.2571988001,None,615.2571988001,None,615.2571988001,None,615.2571988001,None,615.2571988001,None,615.2571988001,None,25.0,8.434,625.7317007000092,None,1500,,,,,,,,,,,,,,,,,,,f,24,houshuo,2022_Jan_09_0812,emotion,2021.1.4,60.02552282303545,
196,partial,0,0.8,-50,0.2,blue,0,0.2,-200,0.8,red,red,blue,blue,red,72,72,77,355,77,355,"[-9.3, -1.9]","[9.3, 1.9]","[-6.7, 1.9]","[6.7, -1.9]",0,-200,-50,0,0,38,38,12,,,,,,,,,,,,,,,,,0.009127419907599688,0.5091274199075997,626.7552791000344,None,626.7552791000344,None,left,1.6464684000238776,626.7552791000344,None,626.7552791000344,None,626.7552791000344,None,626.7552791000344,None,626.7552791000344,None,628.45092689991,None,628.45092689991,None,0.011096820002421737,0.5110968200024217,628.45092689991,None,628.45092689991,None,628.45092689991,None,628.45092689991,None,628.45092689991,None,628.45092689991,None,631.4546030000784,None,631.4546030000784,None,0.007785509806126356,0.5077855098061264,631.4546030000784,None,631.4546030000784,None,631.4546030000784,None,631.4546030000784,None,631.4546030000784,None,631.4546030000784,None,25.0,6.493,639.9942679000087,None,1500,,,,,,,,,,,,,,,,,,,f,24,houshuo,2022_Jan_09_0812,emotion,2021.1.4,60.02552282303545,
426,partial,0,0.5,-50,0.5,red,-50,0.8,-200,0.2,red,red,blue,red,blue,180,72,5,175,5,67,"[-10, 0]","[6.7, -1.9]","[-6, 0]","[9.3, 1.9]",-50,-200,0,-50,0,39,39,44,,,,,,,,,,,,,,,,,0.01658172020688653,0.5165817202068865,641.0092233999167,None,641.0092233999167,None,left,1.9363153998274356,641.0092233999167,None,641.0092233999167,None,641.0092233999167,None,641.0092233999167,None,641.0092233999167,None,642.9708428999875,None,642.9708428999875,None,0.005976609652861953,0.505976609652862,642.9708428999875,None,642.9708428999875,None,642.9708428999875,None,642.9708428999875,None,642.9708428999875,None,642.9708428999875,None,645.5840320000425,None,645.5840320000425,None,0.007913710083812475,0.5079137100838125,645.5840320000425,None,645.5840320000425,None,645.5840320000425,None,645.5840320000425,None,645.5840320000425,None,645.5840320000425,None,0.0,7.716,655.3415510000195,None,1450,,,,,,,,,,,,,,,,,,,f,24,houshuo,2022_Jan_09_0812,emotion,2021.1.4,60.02552282303545,
61,partial,50,0.8,0,0.2,blue,200,0.2,0,0.8,blue,red,blue,blue,red,72,72,77,355,5,67,"[-9.3, -1.9]","[9.3, 1.9]","[-6.7, 1.9]","[6.7, -1.9]",50,200,0,0,0,40,40,69,,,,,,,,,,,,,,,,,0.007954519940540195,0.5079545199405402,656.3650458001066,None,656.3650458001066,None,right,3.121232100063935,656.3650458001066,None,656.3650458001066,None,656.3650458001066,None,656.3650458001066,None,656.3650458001066,None,659.5177907000761,None,659.5177907000761,None,0.0059234099462628365,0.5059234099462628,659.5177907000761,None,659.5177907000761,None,659.5177907000761,None,659.5177907000761,None,659.5177907000761,None,659.5177907000761,None,662.3982937999535,None,662.3982937999535,None,0.007851310074329376,0.5078513100743294,662.3982937999535,None,662.3982937999535,None,662.3982937999535,None,662.3982937999535,None,662.3982937999535,None,662.3982937999535,None,50.0,1.702,666.1394124999642,None,1650,,,,,,,,,,,,,,,,,,,f,24,houshuo,2022_Jan_09_0812,emotion,2021.1.4,60.02552282303545,
192,partial,0,0.5,-50,0.5,blue,0,0.5,-200,0.5,red,red,blue,red,blue,180,180,185,355,5,175,"[-10, 0]","[6, 0]","[-6, 0]","[10, 0]",0,-200,-50,0,0,41,41,24,,,,,,,,,,,,,,,,,0.0014715201687067747,0.5014715201687068,667.1773993000388,None,667.1773993000388,None,left,1.5762118001002818,667.1773993000388,None,667.1773993000388,None,667.1773993000388,None,667.1773993000388,None,667.1773993000388,None,668.7869740999304,None,668.7869740999304,None,0.016602219780907035,0.516602219780907,668.7869740999304,None,668.7869740999304,None,668.7869740999304,None,668.7869740999304,None,668.7869740999304,None,668.7869740999304,None,671.3127337000333,None,671.3127337000333,None,0.007941809948533773,0.5079418099485338,671.3127337000333,None,671.3127337000333,None,671.3127337000333,None,671.3127337000333,None,671.3127337000333,None,671.3127337000333,None,10.0,13.948,687.3019807999954,None,1650,,,,,,,,,,,,,,,,,,,f,24,houshuo,2022_Jan_09_0812,emotion,2021.1.4,60.02552282303545,
420,partial,0,0.2,-200,0.8,red,-50,0.8,-200,0.2,red,blue,red,red,blue,72,72,77,355,5,67,"[-6.7, 1.9]","[6.7, -1.9]","[-9.3, -1.9]","[9.3, 1.9]",-200,-200,0,-50,0,42,42,40,,,,,,,,,,,,,,,,,0.00939663010649383,0.5093966301064938,688.3430775001179,None,688.3430775001179,None,right,6.156215500086546,688.3430775001179,None,688.3430775001179,None,688.3430775001179,None,688.3430775001179,None,688.3430775001179,None,694.5268079000525,None,694.5268079000525,None,0.0051802098751068115,0.5051802098751068,694.5268079000525,None,694.5268079000525,None,694.5268079000525,None,694.5268079000525,None,694.5268079000525,None,694.5268079000525,None,697.1409225999378,None,697.1409225999378,None,0.007857009768486023,0.507857009768486,697.1409225999378,None,697.1409225999378,None,697.1409225999378,None,697.1409225999378,None,697.1409225999378,None,697.1409225999378,None,-50.0,1.951,701.1325328000821,None,1450,,,,,,,,,,,,,,,,,,,f,24,houshuo,2022_Jan_09_0812,emotion,2021.1.4,60.02552282303545,
73,partial,200,0.5,0,0.5,blue,200,0.5,50,0.5,blue,red,blue,red,blue,180,180,185,355,185,355,"[-10, 0]","[6, 0]","[-6, 0]","[10, 0]",200,200,0,50,0,43,43,83,,,,,,,,,,,,,,,,,0.014269219944253564,0.5142692199442536,702.1525288999546,None,702.1525288999546,None,right,1.5744163999333978,702.1525288999546,None,702.1525288999546,None,702.1525288999546,None,702.1525288999546,None,702.1525288999546,None,703.7589762001298,None,703.7589762001298,None,0.005829509813338518,0.5058295098133385,703.7589762001298,None,703.7589762001298,None,703.7589762001298,None,703.7589762001298,None,703.7589762001298,None,703.7589762001298,None,706.3392952999566,None,706.3392952999566,None,0.008183609927073121,0.5081836099270731,706.3392952999566,None,706.3392952999566,None,706.3392952999566,None,706.3392952999566,None,706.3392952999566,None,706.3392952999566,None,50.0,1.896,710.2888396999333,None,1650,,,,,,,,,,,,,,,,,,,f,24,houshuo,2022_Jan_09_0812,emotion,2021.1.4,60.02552282303545,
80,partial,200,0.8,0,0.2,blue,200,0.2,50,0.8,blue,red,blue,blue,red,72,72,77,355,5,67,"[-9.3, -1.9]","[9.3, 1.9]","[-6.7, 1.9]","[6.7, -1.9]",200,200,0,50,0,44,44,71,,,,,,,,,,,,,,,,,0.00996452011168003,0.50996452011168,711.3217800001148,None,711.3217800001148,None,right,2.9335209999699146,711.3217800001148,None,711.3217800001148,None,711.3217800001148,None,711.3217800001148,None,711.3217800001148,None,714.2895718999207,None,714.2895718999207,None,0.006632009753957391,0.5066320097539574,714.2895718999207,None,714.2895718999207,None,714.2895718999207,None,714.2895718999207,None,714.2895718999207,None,714.2895718999207,None,717.2545272000134,None,717.2545272000134,None,0.007311309687793255,0.5073113096877933,717.2545272000134,None,717.2545272000134,None,717.2545272000134,None,717.2545272000134,None,717.2545272000134,None,717.2545272000134,None,50.0,1.82,721.1126000001095,None,1850,,,,,,,,,,,,,,,,,,,f,24,houshuo,2022_Jan_09_0812,emotion,2021.1.4,60.02552282303545,
305,partial,0,0.8,-50,0.2,red,0,0.8,-200,0.2,blue,red,blue,red,blue,72,72,5,67,77,355,"[-9.3, -1.9]","[6.7, -1.9]","[-6.7, 1.9]","[9.3, 1.9]",-50,0,0,-200,0,45,45,51,,,,,,,,,,,,,,,,,7.381988689303398e-05,0.500073819886893,722.150247399928,None,722.150247399928,None,left,1.8156180998776108,722.150247399928,None,722.150247399928,None,722.150247399928,None,722.150247399928,None,722.150247399928,None,724.004687699955,None,724.004687699955,None,0.0055153099820017815,0.5055153099820018,724.004687699955,None,724.004687699955,None,724.004687699955,None,724.004687699955,None,724.004687699955,None,724.004687699955,None,726.8844185001217,None,726.8844185001217,None,0.007969009689986706,0.5079690096899867,726.8844185001217,None,726.8844185001217,None,726.8844185001217,None,726.8844185001217,None,726.8844185001217,None,726.8844185001217,None,0.0,7.133,736.0589636999648,None,1800,,,,,,,,,,,,,,,,,,,f,24,houshuo,2022_Jan_09_0812,emotion,2021.1.4,60.02552282303545,
187,partial,200,0.8,0,0.2,blue,200,0.5,50,0.5,red,red,blue,red,blue,72,180,77,355,5,175,"[-9.3, -1.9]","[6, 0]","[-6.7, 1.9]","[10, 0]",200,50,0,200,0,46,46,86,,,,,,,,,,,,,,,,,0.014071329962462187,0.5140713299624622,737.0958551000804,None,737.0958551000804,None,right,1.6032229999545962,737.0958551000804,None,737.0958551000804,None,737.0958551000804,None,737.0958551000804,None,737.0958551000804,None,738.7359615000896,None,738.7359615000896,None,0.006204409757629037,0.506204409757629,738.7359615000896,None,738.7359615000896,None,738.7359615000896,None,738.7359615000896,None,738.7359615000896,None,738.7359615000896,None,741.4657395000104,None,741.4657395000104,None,0.007522709667682648,0.5075227096676826,741.4657395000104,None,741.4657395000104,None,741.4657395000104,None,741.4657395000104,None,741.4657395000104,None,741.4657395000104,None,15.0,3.569,747.0734212999232,None,1850,,,,,,,,,,,,,,,,,,,f,24,houshuo,2022_Jan_09_0812,emotion,2021.1.4,60.02552282303545,
202,partial,0,0.2,-200,0.8,blue,-50,0.5,-200,0.5,red,blue,red,red,blue,72,180,5,67,5,175,"[-6.7, 1.9]","[6, 0]","[-9.3, -1.9]","[10, 0]",0,-200,-200,-50,0,47,47,22,,,,,,,,,,,,,,,,,0.00732572004199028,0.5073257200419903,748.1012949000578,None,748.1012949000578,None,left,6.054752399912104,748.1012949000578,None,748.1012949000578,None,748.1012949000578,None,748.1012949000578,None,748.1012949000578,None,754.1827424000949,None,754.1827424000949,None,0.0064740099478513,0.5064740099478513,754.1827424000949,None,754.1827424000949,None,754.1827424000949,None,754.1827424000949,None,754.1827424000949,None,754.1827424000949,None,757.1622009000275,None,757.1622009000275,None,0.007581009995192289,0.5075810099951923,757.1622009000275,None,757.1622009000275,None,757.1622009000275,None,757.1622009000275,None,757.1622009000275,None,757.1622009000275,None,50.0,1.835,761.0372294001281,None,1850,,,,,,,,,,,,,,,,,,,f,24,houshuo,2022_Jan_09_0812,emotion,2021.1.4,60.02552282303545,
397,partial,200,0.5,0,0.5,red,200,0.5,50,0.5,red,red,blue,red,blue,180,180,5,175,5,175,"[-10, 0]","[6, 0]","[-6, 0]","[10, 0]",0,50,200,200,0,48,48,80,,,,,,,,,,,,,,,,,0.01116062025539577,0.5111606202553958,762.0590991999488,None,762.0590991999488,None,right,1.4507223998662084,762.0590991999488,None,762.0590991999488,None,762.0590991999488,None,762.0590991999488,None,762.0590991999488,None,763.5403084999416,None,763.5403084999416,None,0.005090810125693679,0.5050908101256937,763.5403084999416,None,763.5403084999416,None,763.5403084999416,None,763.5403084999416,None,763.5403084999416,None,763.5403084999416,None,766.3278789001051,None,766.3278789001051,None,0.007425909861922264,0.5074259098619223,766.3278789001051,None,766.3278789001051,None,766.3278789001051,None,766.3278789001051,None,766.3278789001051,None,766.3278789001051,None,0.0,6.45,774.818132400047,None,1900,,,,,,,,,,,,,,,,,,,f,24,houshuo,2022_Jan_09_0812,emotion,2021.1.4,60.02552282303545,
168,partial,50,0.2,0,0.8,blue,200,0.5,0,0.5,red,blue,red,red,blue,72,180,5,67,5,175,"[-6.7, 1.9]","[6, 0]","[-9.3, -1.9]","[10, 0]",50,0,0,200,0,49,49,72,,,,,,,,,,,,,,,,,6.322027184069157e-05,0.5000632202718407,775.8530075000599,None,775.8530075000599,None,right,2.375628100009635,775.8530075000599,None,775.8530075000599,None,775.8530075000599,None,775.8530075000599,None,775.8530075000599,None,778.2608630999457,None,778.2608630999457,None,0.005664309719577432,0.5056643097195774,778.2608630999457,None,778.2608630999457,None,778.2608630999457,None,778.2608630999457,None,778.2608630999457,None,778.2608630999457,None,780.774723400129,None,780.774723400129,None,0.007872609654441476,0.5078726096544415,780.774723400129,None,780.774723400129,None,780.774723400129,None,780.774723400129,None,780.774723400129,None,780.774723400129,None,0.0,3.7,786.5157987000421,None,1900,,,,,,,,,,,,,,,,,,,f,24,houshuo,2022_Jan_09_0812,emotion,2021.1.4,60.02552282303545,
407,partial,0,0.5,-50,0.5,red,0,0.8,-200,0.2,red,red,blue,red,blue,180,72,5,175,5,67,"[-10, 0]","[6.7, -1.9]","[-6, 0]","[9.3, 1.9]",-50,-200,0,0,0,50,50,42,,,,,,,,,,,,,,,,,0.015806430019438267,0.5158064300194383,787.5487522000913,None,787.5487522000913,None,left,1.8987481000367552,787.5487522000913,None,787.5487522000913,None,787.5487522000913,None,787.5487522000913,None,787.5487522000913,None,789.4746509001125,None,789.4746509001125,None,0.006407710025086999,0.506407710025087,789.4746509001125,None,789.4746509001125,None,789.4746509001125,None,789.4746509001125,None,789.4746509001125,None,789.4746509001125,None,792.4378208001144,None,792.4378208001144,None,0.007946809753775597,0.5079468097537756,792.4378208001144,None,792.4378208001144,None,792.4378208001144,None,792.4378208001144,None,792.4378208001144,None,792.4378208001144,None,0.0,3.018,797.4970259000547,None,1850,,,,,,,,,,,,,,,,,,,f,24,houshuo,2022_Jan_09_0812,emotion,2021.1.4,60.02552282303545,
81,partial,200,0.8,0,0.2,blue,200,0.8,50,0.2,blue,red,blue,red,blue,72,72,77,355,77,355,"[-9.3, -1.9]","[6.7, -1.9]","[-6.7, 1.9]","[9.3, 1.9]",200,200,0,50,0,51,51,107,,,,,,,,,,,,,,,,,0.003533319802954793,0.5035333198029548,798.5268681999296,None,798.5268681999296,None,right,1.4529303999152035,798.5268681999296,None,798.5268681999296,None,798.5268681999296,None,798.5268681999296,None,798.5268681999296,None,800.0054526000749,None,800.0054526000749,None,0.006477109855040908,0.5064771098550409,800.0054526000749,None,800.0054526000749,None,800.0054526000749,None,800.0054526000749,None,800.0054526000749,None,800.0054526000749,None,802.9860887001269,None,802.9860887001269,None,0.007940409937873483,0.5079404099378735,802.9860887001269,None,802.9860887001269,None,802.9860887001269,None,802.9860887001269,None,802.9860887001269,None,802.9860887001269,None,50.0,1.667,806.6951377999503,None,2050,,,,,,,,,,,,,,,,,,,f,24,houshuo,2022_Jan_09_0812,emotion,2021.1.4,60.02552282303545,
304,partial,0,0.8,-50,0.2,red,0,0.2,-200,0.8,blue,red,blue,blue,red,72,72,5,67,5,67,"[-9.3, -1.9]","[9.3, 1.9]","[-6.7, 1.9]","[6.7, -1.9]",-50,0,0,-200,0,52,52,15,,,,,,,,,,,,,,,,,0.007593919988721609,0.5075939199887216,807.719742400106,None,807.719742400106,None,left,1.4925854001194239,807.719742400106,None,807.719742400106,None,807.719742400106,None,807.719742400106,None,807.719742400106,None,809.2382201000582,None,809.2382201000582,None,0.005359209841117263,0.5053592098411173,809.2382201000582,None,809.2382201000582,None,809.2382201000582,None,809.2382201000582,None,809.2382201000582,None,809.2382201000582,None,811.8844866000582,None,811.8844866000582,None,0.007884809980168939,0.5078848099801689,811.8844866000582,None,811.8844866000582,None,811.8844866000582,None,811.8844866000582,None,811.8844866000582,None,811.8844866000582,None,-10.0,6.702,820.6257962000091,None,2000,,,,,,,,,,,,,,,,,,,f,24,houshuo,2022_Jan_09_0812,emotion,2021.1.4,60.02552282303545,
212,partial,0,0.2,-50,0.8,blue,-50,0.2,-200,0.8,red,blue,red,blue,red,72,72,5,67,77,355,"[-6.7, 1.9]","[9.3, 1.9]","[-9.3, -1.9]","[6.7, -1.9]",0,-200,-50,-50,0,53,53,2,,,,,,,,,,,,,,,,,0.012424129992723465,0.5124241299927235,821.6639765000436,None,821.6639765000436,None,left,2.8519721999764442,821.6639765000436,None,821.6639765000436,None,821.6639765000436,None,821.6639765000436,None,821.6639765000436,None,824.5525805000216,None,824.5525805000216,None,0.005386409815400839,0.5053864098154008,824.5525805000216,None,824.5525805000216,None,824.5525805000216,None,824.5525805000216,None,824.5525805000216,None,824.5525805000216,None,827.2494340999983,None,827.2494340999983,None,0.007733809994533658,0.5077338099945337,827.2494340999983,None,827.2494340999983,None,827.2494340999983,None,827.2494340999983,None,827.2494340999983,None,827.2494340999983,None,15.099999999999994,7.582,836.8727440000512,None,2000,,,,,,,,,,,,,,,,,,,f,24,houshuo,2022_Jan_09_0812,emotion,2021.1.4,60.02552282303545,
101,partial,0,0.5,-50,0.5,blue,-50,0.2,-200,0.8,blue,red,blue,blue,red,180,72,185,355,5,67,"[-10, 0]","[9.3, 1.9]","[-6, 0]","[6.7, -1.9]",0,-50,-50,-200,0,54,54,11,,,,,,,,,,,,,,,,,0.016671529738232493,0.5166715297382325,837.9083189000376,None,837.9083189000376,None,left,1.438994400203228,837.9083189000376,None,837.9083189000376,None,837.9083189000376,None,837.9083189000376,None,837.9083189000376,None,839.3832539001014,None,839.3832539001014,None,0.005482909735292196,0.5054829097352922,839.3832539001014,None,839.3832539001014,None,839.3832539001014,None,839.3832539001014,None,839.3832539001014,None,839.3832539001014,None,842.0979623999447,None,842.0979623999447,None,0.007498709950596094,0.5074987099505961,842.0979623999447,None,842.0979623999447,None,842.0979623999447,None,842.0979623999447,None,842.0979623999447,None,842.0979623999447,None,50.0,2.318,846.4540275000036,None,2000,,,,,,,,,,,,,,,,,,,f,24,houshuo,2022_Jan_09_0812,emotion,2021.1.4,60.02552282303545,
180,partial,50,0.8,0,0.2,blue,200,0.8,50,0.2,red,red,blue,red,blue,72,72,77,355,5,67,"[-9.3, -1.9]","[6.7, -1.9]","[-6.7, 1.9]","[9.3, 1.9]",50,50,0,200,0,55,55,106,,,,,,,,,,,,,,,,,0.006212920183315873,0.5062129201833159,847.4817574999761,None,847.4817574999761,None,right,1.3712359999772161,847.4817574999761,None,847.4817574999761,None,847.4817574999761,None,847.4817574999761,None,847.4817574999761,None,848.8789603000041,None,848.8789603000041,None,0.00651390990242362,0.5065139099024236,848.8789603000041,None,848.8789603000041,None,848.8789603000041,None,848.8789603000041,None,848.8789603000041,None,848.8789603000041,None,851.7440045000985,None,851.7440045000985,None,0.007608909858390689,0.5076089098583907,851.7440045000985,None,851.7440045000985,None,851.7440045000985,None,851.7440045000985,None,851.7440045000985,None,851.7440045000985,None,25.0,7.483,861.2685958999209,None,2050,,,,,,,,,,,,,,,,,,,f,24,houshuo,2022_Jan_09_0812,emotion,2021.1.4,60.02552282303545,
215,partial,0,0.8,-50,0.2,blue,-50,0.2,-200,0.8,red,red,blue,blue,red,72,72,77,355,77,355,"[-9.3, -1.9]","[9.3, 1.9]","[-6.7, 1.9]","[6.7, -1.9]",0,-200,-50,-50,0,56,56,14,,,,,,,,,,,,,,,,,0.0018417199607938528,0.5018417199607939,862.2991349999793,None,862.2991349999793,None,left,1.3240912000183016,862.2991349999793,None,862.2991349999793,None,862.2991349999793,None,862.2991349999793,None,862.2991349999793,None,863.6600834999699,None,863.6600834999699,None,0.0063589096534997225,0.5063589096534997,863.6600834999699,None,863.6600834999699,None,863.6600834999699,None,863.6600834999699,None,863.6600834999699,None,863.6600834999699,None,866.692182400031,None,866.692182400031,None,0.00748870987445116,0.5074887098744512,866.692182400031,None,866.692182400031,None,866.692182400031,None,866.692182400031,None,866.692182400031,None,866.692182400031,None,50.0,1.551,870.2824458999094,None,2050,,,,,,,,,,,,,,,,,,,f,24,houshuo,2022_Jan_09_0812,emotion,2021.1.4,60.02552282303545,
197,partial,0,0.8,-50,0.2,blue,0,0.8,-200,0.2,red,red,blue,red,blue,72,72,77,355,5,67,"[-9.3, -1.9]","[6.7, -1.9]","[-6.7, 1.9]","[9.3, 1.9]",0,-200,-50,0,0,57,57,48,,,,,,,,,,,,,,,,,0.014854829991236329,0.5148548299912363,871.3234332001302,None,871.3234332001302,None,left,1.1534603999461979,871.3234332001302,None,871.3234332001302,None,871.3234332001302,None,871.3234332001302,None,871.3234332001302,None,872.5077009000815,None,872.5077009000815,None,0.006091209826990962,0.506091209826991,872.5077009000815,None,872.5077009000815,None,872.5077009000815,None,872.5077009000815,None,872.5077009000815,None,872.5077009000815,None,875.3883877999615,None,875.3883877999615,None,0.00783410994336009,0.5078341099433601,875.3883877999615,None,875.3883877999615,None,875.3883877999615,None,875.3883877999615,None,875.3883877999615,None,875.3883877999615,None,50.0,2.5,879.9306926999707,None,2050,,,,,,,,,,,,,,,,,,,f,24,houshuo,2022_Jan_09_0812,emotion,2021.1.4,60.02552282303545,
391,partial,50,0.2,0,0.8,red,200,0.5,50,0.5,red,blue,red,red,blue,72,180,77,355,5,175,"[-6.7, 1.9]","[6, 0]","[-9.3, -1.9]","[10, 0]",0,50,50,200,0,58,58,76,,,,,,,,,,,,,,,,,0.0028158200439065695,0.5028158200439066,880.9623505000491,None,880.9623505000491,None,right,0.9675736001227051,880.9623505000491,None,880.9623505000491,None,880.9623505000491,None,880.9623505000491,None,880.9623505000491,None,881.9560100999661,None,881.9560100999661,None,0.006201909855008125,0.5062019098550081,881.9560100999661,None,881.9560100999661,None,881.9560100999661,None,881.9560100999661,None,881.9560100999661,None,881.9560100999661,None,884.7368513999972,None,884.7368513999972,None,0.007832909701392055,0.507832909701392,884.7368513999972,None,884.7368513999972,None,884.7368513999972,None,884.7368513999972,None,884.7368513999972,None,884.7368513999972,None,15.0,3.513,890.2955128001049,None,2100,,,,,,,,,,,,,,,,,,,f,24,houshuo,2022_Jan_09_0812,emotion,2021.1.4,60.02552282303545,
310,partial,0,0.2,-200,0.8,red,-50,0.5,-200,0.5,blue,blue,red,red,blue,72,180,77,355,185,355,"[-6.7, 1.9]","[6, 0]","[-9.3, -1.9]","[10, 0]",-200,-50,0,-200,0,59,59,19,,,,,,,,,,,,,,,,,0.0024414199870079756,0.502441419987008,891.3313704999164,None,891.3313704999164,None,left,3.7233747001737356,891.3313704999164,None,891.3313704999164,None,891.3313704999164,None,891.3313704999164,None,891.3313704999164,None,895.0872897999361,None,895.0872897999361,None,0.005671009654179215,0.5056710096541792,895.0872897999361,None,895.0872897999361,None,895.0872897999361,None,895.0872897999361,None,895.0872897999361,None,895.0872897999361,None,897.8841740000062,None,897.8841740000062,None,0.007672009989619255,0.5076720099896193,897.8841740000062,None,897.8841740000062,None,897.8841740000062,None,897.8841740000062,None,897.8841740000062,None,897.8841740000062,None,-50.0,1.684,901.6100596000906,None,1900,,,,,,,,,,,,,,,,,,,f,24,houshuo,2022_Jan_09_0812,emotion,2021.1.4,60.02552282303545,
59,partial,50,0.2,0,0.8,blue,200,0.8,0,0.2,blue,blue,red,red,blue,72,72,5,67,77,355,"[-6.7, 1.9]","[6.7, -1.9]","[-9.3, -1.9]","[9.3, 1.9]",50,200,0,0,0,60,60,93,,,,,,,,,,,,,,,,,0.001054819906130433,0.5010548199061304,902.6423818001058,None,902.6423818001058,None,right,0.9597500001545995,902.6423818001058,None,902.6423818001058,None,902.6423818001058,None,902.6423818001058,None,902.6423818001058,None,903.6360025999602,None,903.6360025999602,None,0.005792209878563881,0.5057922098785639,903.6360025999602,None,903.6360025999602,None,903.6360025999602,None,903.6360025999602,None,903.6360025999602,None,903.6360025999602,None,906.4166550000664,None,906.4166550000664,None,0.00760471005924046,0.5076047100592405,906.4166550000664,None,906.4166550000664,None,906.4166550000664,None,906.4166550000664,None,906.4166550000664,None,906.4166550000664,None,50.0,2.452,910.9080875001382,None,2100,,,,,,,,,,,,,,,,,,,f,24,houshuo,2022_Jan_09_0812,emotion,2021.1.4,60.02552282303545,
321,partial,0,0.2,-50,0.8,red,-50,0.8,-200,0.2,blue,blue,red,red,blue,72,72,77,355,77,355,"[-6.7, 1.9]","[6.7, -1.9]","[-9.3, -1.9]","[9.3, 1.9]",-50,-50,0,-200,0,61,61,41,,,,,,,,,,,,,,,,,0.010316930012777448,0.5103169300127774,911.9491999000311,None,911.9491999000311,None,left,2.4331857000943273,911.9491999000311,None,911.9491999000311,None,911.9491999000311,None,911.9491999000311,None,911.9491999000311,None,914.4308835000265,None,914.4308835000265,None,0.01214102003723383,0.5121410200372338,914.4308835000265,None,914.4308835000265,None,914.4308835000265,None,914.4308835000265,None,914.4308835000265,None,914.4308835000265,None,916.9975141999312,None,916.9975141999312,None,0.0077744098380208015,0.5077744098380208,916.9975141999312,None,916.9975141999312,None,916.9975141999312,None,916.9975141999312,None,916.9975141999312,None,916.9975141999312,None,0.0,8.217,927.2556169000454,None,2050,,,,,,,,,,,,,,,,,,,f,24,houshuo,2022_Jan_09_0812,emotion,2021.1.4,60.02552282303545,
103,partial,0,0.2,-50,0.8,blue,-50,0.5,-200,0.5,blue,blue,red,red,blue,72,180,5,67,185,355,"[-6.7, 1.9]","[6, 0]","[-9.3, -1.9]","[10, 0]",0,-50,-50,-200,0,62,62,23,,,,,,,,,,,,,,,,,0.002529720077291131,0.5025297200772911,928.2925905999728,None,928.2925905999728,None,left,2.1226736998651177,928.2925905999728,None,928.2925905999728,None,928.2925905999728,None,928.2925905999728,None,928.2925905999728,None,930.4465260999277,None,930.4465260999277,None,0.006476810202002525,0.5064768102020025,930.4465260999277,None,930.4465260999277,None,930.4465260999277,None,930.4465260999277,None,930.4465260999277,None,930.4465260999277,None,933.1613213000819,None,933.1613213000819,None,0.007756809936836362,0.5077568099368364,933.1613213000819,None,933.1613213000819,None,933.1613213000819,None,933.1613213000819,None,933.1613213000819,None,933.1613213000819,None,50.0,2.241,937.4361900000367,None,2050,,,,,,,,,,,,,,,,,,,f,24,houshuo,2022_Jan_09_0812,emotion,2021.1.4,60.02552282303545,
285,partial,50,0.2,0,0.8,red,200,0.8,50,0.2,blue,blue,red,red,blue,72,72,77,355,77,355,"[-6.7, 1.9]","[6.7, -1.9]","[-9.3, -1.9]","[9.3, 1.9]",0,200,50,50,0,63,63,91,,,,,,,,,,,,,,,,,0.015410629799589515,0.5154106297995895,938.4717244999483,None,938.4717244999483,None,right,1.1087476999964565,938.4717244999483,None,938.4717244999483,None,938.4717244999483,None,938.4717244999483,None,938.4717244999483,None,939.6118431000505,None,939.6118431000505,None,0.005374409724026918,0.5053744097240269,939.6118431000505,None,939.6118431000505,None,939.6118431000505,None,939.6118431000505,None,939.6118431000505,None,939.6118431000505,None,942.2439546000678,None,942.2439546000678,None,0.007508409908041358,0.5075084099080414,942.2439546000678,None,942.2439546000678,None,942.2439546000678,None,942.2439546000678,None,942.2439546000678,None,942.2439546000678,None,50.0,1.985,946.2674845000729,None,2250,,,,,,,,,,,,,,,,,,,f,24,houshuo,2022_Jan_09_0812,emotion,2021.1.4,60.02552282303545,
70,partial,50,0.8,0,0.2,blue,200,0.5,50,0.5,blue,red,blue,red,blue,72,180,77,355,185,355,"[-9.3, -1.9]","[6, 0]","[-6.7, 1.9]","[10, 0]",50,200,0,50,0,64,64,85,,,,,,,,,,,,,,,,,0.009119420312345028,0.509119420312345,947.2977090000641,None,947.2977090000641,None,right,1.0728452000766993,947.2977090000641,None,947.2977090000641,None,947.2977090000641,None,947.2977090000641,None,947.2977090000641,None,948.4114326001145,None,948.4114326001145,None,0.005428409902378917,0.5054284099023789,948.4114326001145,None,948.4114326001145,None,948.4114326001145,None,948.4114326001145,None,948.4114326001145,None,948.4114326001145,None,951.0070525000338,None,951.0070525000338,None,0.007808909984305501,0.5078089099843055,951.0070525000338,None,951.0070525000338,None,951.0070525000338,None,951.0070525000338,None,951.0070525000338,None,951.0070525000338,None,50.0,1.747,954.7995076999068,None,2450,,,,,,,,,,,,,,,,,,,f,24,houshuo,2022_Jan_09_0812,emotion,2021.1.4,60.02552282303545,
280,partial,50,0.5,0,0.5,red,200,0.5,50,0.5,blue,red,blue,red,blue,180,180,5,175,185,355,"[-10, 0]","[6, 0]","[-6, 0]","[10, 0]",0,200,50,50,0,65,65,79,,,,,,,,,,,,,,,,,0.005479020299389958,0.50547902029939,955.8322560999077,None,955.8322560999077,None,right,0.9744672998785973,955.8322560999077,None,955.8322560999077,None,955.8322560999077,None,955.8322560999077,None,955.8322560999077,None,956.8420397001319,None,956.8420397001319,None,0.005376509856432676,0.5053765098564327,956.8420397001319,None,956.8420397001319,None,956.8420397001319,None,956.8420397001319,None,956.8420397001319,None,956.8420397001319,None,959.6557170001324,None,959.6557170001324,None,0.007153610000386834,0.5071536100003868,959.6557170001324,None,959.6557170001324,None,959.6557170001324,None,959.6557170001324,None,959.6557170001324,None,959.6557170001324,None,50.0,1.802,963.4977696000133,None,2650,,,,,,,,,,,,,,,,,,,f,24,houshuo,2022_Jan_09_0812,emotion,2021.1.4,60.02552282303545,
65,partial,50,0.5,0,0.5,blue,200,0.2,50,0.8,blue,red,blue,blue,red,180,72,185,355,5,67,"[-10, 0]","[9.3, 1.9]","[-6, 0]","[6.7, -1.9]",50,200,0,50,0,66,66,61,,,,,,,,,,,,,,,,,0.004832209786400199,0.5048322097864002,964.5105528000277,None,964.5105528000277,None,right,1.3535337001085281,964.5105528000277,None,964.5105528000277,None,964.5105528000277,None,964.5105528000277,None,964.5105528000277,None,965.8907415999565,None,965.8907415999565,None,0.004631409887224436,0.5046314098872244,965.8907415999565,None,965.8907415999565,None,965.8907415999565,None,965.8907415999565,None,965.8907415999565,None,965.8907415999565,None,968.7877571999561,None,968.7877571999561,None,0.00806490983814001,0.50806490983814,968.7877571999561,None,968.7877571999561,None,968.7877571999561,None,968.7877571999561,None,968.7877571999561,None,968.7877571999561,None,50.0,1.77,972.5959179999772,None,2850,,,,,,,,,,,,,,,,,,,f,24,houshuo,2022_Jan_09_0812,emotion,2021.1.4,60.02552282303545,
57,partial,50,0.5,0,0.5,blue,200,0.5,0,0.5,blue,red,blue,red,blue,180,180,185,355,185,355,"[-10, 0]","[6, 0]","[-6, 0]","[10, 0]",50,200,0,0,0,67,67,81,,,,,,,,,,,,,,,,,0.00035870959982275963,0.5003587095998228,973.609385299962,None,973.609385299962,None,right,1.7084031999111176,973.609385299962,None,973.609385299962,None,973.609385299962,None,973.609385299962,None,973.609385299962,None,975.3556498999242,None,975.3556498999242,None,0.0057374099269509315,0.5057374099269509,975.3556498999242,None,975.3556498999242,None,975.3556498999242,None,975.3556498999242,None,975.3556498999242,None,975.3556498999242,None,978.3365808001254,None,978.3365808001254,None,0.007526209577918053,0.507526209577918,978.3365808001254,None,978.3365808001254,None,978.3365808001254,None,978.3365808001254,None,978.3365808001254,None,978.3365808001254,None,50.0,2.252,982.6272207000293,None,3050,,,,,,,,,,,,,,,,,,,f,24,houshuo,2022_Jan_09_0812,emotion,2021.1.4,60.02552282303545,
401,partial,200,0.2,0,0.8,red,200,0.2,50,0.8,red,blue,red,blue,red,72,72,77,355,77,355,"[-6.7, 1.9]","[9.3, 1.9]","[-9.3, -1.9]","[6.7, -1.9]",0,50,200,200,0,68,68,56,,,,,,,,,,,,,,,,,0.01612672978080809,0.5161267297808081,983.6689810999669,None,983.6689810999669,None,right,0.9239774998277426,983.6689810999669,None,983.6689810999669,None,983.6689810999669,None,983.6689810999669,None,983.6689810999669,None,984.6205005999655,None,984.6205005999655,None,0.005595609778538346,0.5055956097785383,984.6205005999655,None,984.6205005999655,None,984.6205005999655,None,984.6205005999655,None,984.6205005999655,None,984.6205005999655,None,987.2339908999857,None,987.2339908999857,None,0.007883709855377674,0.5078837098553777,987.2339908999857,None,987.2339908999857,None,987.2339908999857,None,987.2339908999857,None,987.2339908999857,None,987.2339908999857,None,15.0,10.167,999.4407182999421,None,3100,,,,,,,,,,,,,,,,,,,f,24,houshuo,2022_Jan_09_0812,emotion,2021.1.4,60.02552282303545,
200,partial,0,0.5,-200,0.5,blue,-50,0.2,-200,0.8,red,red,blue,blue,red,180,72,185,355,77,355,"[-10, 0]","[9.3, 1.9]","[-6, 0]","[6.7, -1.9]",0,-200,-200,-50,0,69,69,10,,,,,,,,,,,,,,,,,0.015156029956415296,0.5151560299564153,1000.4758637000341,None,1000.4758637000341,None,left,4.3802394000813365,1000.4758637000341,None,1000.4758637000341,None,1000.4758637000341,None,1000.4758637000341,None,1000.4758637000341,None,1004.8824911001138,None,1004.8824911001138,None,0.006176310125738382,0.5061763101257384,1004.8824911001138,None,1004.8824911001138,None,1004.8824911001138,None,1004.8824911001138,None,1004.8824911001138,None,1004.8824911001138,None,1007.4482615999877,None,1007.4482615999877,None,0.007458110107108951,0.507458110107109,1007.4482615999877,None,1007.4482615999877,None,1007.4482615999877,None,1007.4482615999877,None,1007.4482615999877,None,1007.4482615999877,None,50.0,1.868,1011.3548671000171,None,3100,,,,,,,,,,,,,,,,,,,f,24,houshuo,2022_Jan_09_0812,emotion,2021.1.4,60.02552282303545,
323,partial,0,0.8,-50,0.2,red,-50,0.2,-200,0.8,blue,red,blue,blue,red,72,72,5,67,5,67,"[-9.3, -1.9]","[9.3, 1.9]","[-6.7, 1.9]","[6.7, -1.9]",-50,-50,0,-200,0,70,70,17,,,,,,,,,,,,,,,,,0.0031653197947889566,0.503165319794789,1012.3867093001027,None,1012.3867093001027,None,left,1.2882727000396699,1012.3867093001027,None,1012.3867093001027,None,1012.3867093001027,None,1012.3867093001027,None,1012.3867093001027,None,1013.7198463999666,None,1013.7198463999666,None,0.016058619832620025,0.51605861983262,1013.7198463999666,None,1013.7198463999666,None,1013.7198463999666,None,1013.7198463999666,None,1013.7198463999666,None,1013.7198463999666,None,1016.378544599982,None,1016.378544599982,None,0.007511709816753864,0.5075117098167539,1016.378544599982,None,1016.378544599982,None,1016.378544599982,None,1016.378544599982,None,1016.378544599982,None,1016.378544599982,None,0.0,11.483,1029.901100799907,None,3050,,,,,,,,,,,,,,,,,,,f,24,houshuo,2022_Jan_09_0812,emotion,2021.1.4,60.02552282303545,
194,partial,0,0.2,-50,0.8,blue,0,0.8,-200,0.2,red,blue,red,red,blue,72,72,5,67,5,67,"[-6.7, 1.9]","[6.7, -1.9]","[-9.3, -1.9]","[9.3, 1.9]",0,-200,-50,0,0,71,71,36,,,,,,,,,,,,,,,,,0.005067510064691305,0.5050675100646913,1030.9105261999648,None,1030.9105261999648,None,left,1.8460057999473065,1030.9105261999648,None,1030.9105261999648,None,1030.9105261999648,None,1030.9105261999648,None,1030.9105261999648,None,1032.7949511001352,None,1032.7949511001352,None,0.005517210112884641,0.5055172101128846,1032.7949511001352,None,1032.7949511001352,None,1032.7949511001352,None,1032.7949511001352,None,1032.7949511001352,None,1032.7949511001352,None,1035.3584748001304,None,1035.3584748001304,None,0.007091509876772761,0.5070915098767728,1035.3584748001304,None,1035.3584748001304,None,1035.3584748001304,None,1035.3584748001304,None,1035.3584748001304,None,1035.3584748001304,None,50.0,1.683,1039.082821200136,None,3050,,,,,,,,,,,,,,,,,,,f,24,houshuo,2022_Jan_09_0812,emotion,2021.1.4,60.02552282303545,
382,partial,50,0.2,0,0.8,red,200,0.2,0,0.8,red,blue,red,blue,red,72,72,77,355,77,355,"[-6.7, 1.9]","[9.3, 1.9]","[-9.3, -1.9]","[6.7, -1.9]",0,0,50,200,0,72,72,54,,,,,,,,,,,,,,,,,0.003449919866397977,0.503449919866398,1040.112888700096,None,1040.112888700096,None,right,1.6040801000781357,1040.112888700096,None,1040.112888700096,None,1040.112888700096,None,1040.112888700096,None,1040.112888700096,None,1041.7424777001143,None,1041.7424777001143,None,0.005883209872990847,0.5058832098729908,1041.7424777001143,None,1041.7424777001143,None,1041.7424777001143,None,1041.7424777001143,None,1041.7424777001143,None,1041.7424777001143,None,1044.2570349001326,None,1044.2570349001326,None,0.007545309839770198,0.5075453098397702,1044.2570349001326,None,1044.2570349001326,None,1044.2570349001326,None,1044.2570349001326,None,1044.2570349001326,None,1044.2570349001326,None,0.0,5.101,1051.3969006999396,None,3050,,,,,,,,,,,,,,,,,,,f,24,houshuo,2022_Jan_09_0812,emotion,2021.1.4,60.02552282303545,
77,partial,200,0.2,0,0.8,blue,200,0.2,50,0.8,blue,blue,red,blue,red,72,72,5,67,5,67,"[-6.7, 1.9]","[9.3, 1.9]","[-9.3, -1.9]","[6.7, -1.9]",200,200,0,50,0,73,73,59,,,,,,,,,,,,,,,,,0.0045917099341750145,0.504591709934175,1052.4075080999173,None,1052.4075080999173,None,right,0.9423554998356849,1052.4075080999173,None,1052.4075080999173,None,1052.4075080999173,None,1052.4075080999173,None,1052.4075080999173,None,1053.3898958000354,None,1053.3898958000354,None,0.005129809724166989,0.505129809724167,1053.3898958000354,None,1053.3898958000354,None,1053.3898958000354,None,1053.3898958000354,None,1053.3898958000354,None,1053.3898958000354,None,1056.1712587999646,None,1056.1712587999646,None,0.007747809635475278,0.5077478096354753,1056.1712587999646,None,1056.1712587999646,None,1056.1712587999646,None,1056.1712587999646,None,1056.1712587999646,None,1056.1712587999646,None,50.0,1.785,1059.995287100086,None,3250,,,,,,,,,,,,,,,,,,,f,24,houshuo,2022_Jan_09_0812,emotion,2021.1.4,60.02552282303545,
415,partial,0,0.5,-200,0.5,red,-50,0.5,-200,0.5,red,red,blue,red,blue,180,180,5,175,5,175,"[-10, 0]","[6, 0]","[-6, 0]","[10, 0]",-200,-200,0,-50,0,74,74,28,,,,,,,,,,,,,,,,,0.004808010067790747,0.5048080100677907,1061.0050520999357,None,1061.0050520999357,None,left,2.835028499830514,1061.0050520999357,None,1061.0050520999357,None,1061.0050520999357,None,1061.0050520999357,None,1061.0050520999357,None,1063.870699699968,None,1063.870699699968,None,0.0065201097168028355,0.5065201097168028,1063.870699699968,None,1063.870699699968,None,1063.870699699968,None,1063.870699699968,None,1063.870699699968,None,1063.870699699968,None,1066.5342616999988,None,1066.5342616999988,None,0.007776909973472357,0.5077769099734724,1066.5342616999988,None,1066.5342616999988,None,1066.5342616999988,None,1066.5342616999988,None,1066.5342616999988,None,1066.5342616999988,None,-50.0,1.968,1070.543426600052,None,3050,,,,,,,,,,,,,,,,,,,f,24,houshuo,2022_Jan_09_0812,emotion,2021.1.4,60.02552282303545,
411,partial,0,0.2,-50,0.8,red,0,0.5,-200,0.5,red,blue,red,red,blue,72,180,77,355,5,175,"[-6.7, 1.9]","[6, 0]","[-9.3, -1.9]","[10, 0]",-50,-200,0,0,0,75,75,18,,,,,,,,,,,,,,,,,0.0007772096432745457,0.5007772096432745,1071.5574054999743,None,1071.5574054999743,None,left,2.0003967001102865,1071.5574054999743,None,1071.5574054999743,None,1071.5574054999743,None,1071.5574054999743,None,1071.5574054999743,None,1073.5855684999842,None,1073.5855684999842,None,0.005603909958153963,0.505603909958154,1073.5855684999842,None,1073.5855684999842,None,1073.5855684999842,None,1073.5855684999842,None,1073.5855684999842,None,1073.5855684999842,None,1076.0991217999253,None,1076.0991217999253,None,0.008098909631371498,0.5080989096313715,1076.0991217999253,None,1076.0991217999253,None,1076.0991217999253,None,1076.0991217999253,None,1076.0991217999253,None,1076.0991217999253,None,0.0,3.001,1081.1472726000939,None,3000,,,,,,,,,,,,,,,,,,,f,24,houshuo,2022_Jan_09_0812,emotion,2021.1.4,60.02552282303545,
83,partial,0,0.5,-50,0.5,blue,0,0.8,-200,0.2,blue,red,blue,red,blue,180,72,185,355,77,355,"[-10, 0]","[6.7, -1.9]","[-6, 0]","[9.3, 1.9]",0,0,-50,-200,0,76,76,45,,,,,,,,,,,,,,,,,0.010861329734325409,0.5108613297343254,1082.1998956999741,None,1082.1998956999741,None,left,2.0514618000015616,1082.1998956999741,None,1082.1998956999741,None,1082.1998956999741,None,1082.1998956999741,None,1082.1998956999741,None,1084.285300299991,None,1084.285300299991,None,0.006666610017418861,0.5066666100174189,1084.285300299991,None,1084.285300299991,None,1084.285300299991,None,1084.285300299991,None,1084.285300299991,None,1084.285300299991,None,1086.7979576999787,None,1086.7979576999787,None,0.007953309686854482,0.5079533096868545,1086.7979576999787,None,1086.7979576999787,None,1086.7979576999787,None,1086.7979576999787,None,1086.7979576999787,None,1086.7979576999787,None,50.0,1.751,1090.5894907999318,None,3000,,,,,,,,,,,,,,,,,,,f,24,houshuo,2022_Jan_09_0812,emotion,2021.1.4,60.02552282303545,
272,partial,50,0.5,0,0.5,red,200,0.8,0,0.2,blue,red,blue,red,blue,180,72,5,175,77,355,"[-10, 0]","[6.7, -1.9]","[-6, 0]","[9.3, 1.9]",0,200,50,0,0,77,77,99,,,,,,,,,,,,,,,,,0.008676930097863078,0.5086769300978631,1091.6297377999872,None,1091.6297377999872,None,right,1.5822538998909295,1091.6297377999872,None,1091.6297377999872,None,1091.6297377999872,None,1091.6297377999872,None,1091.6297377999872,None,1093.2490385000128,None,1093.2490385000128,None,0.005764710018411279,0.5057647100184113,1093.2490385000128,None,1093.2490385000128,None,1093.2490385000128,None,1093.2490385000128,None,1093.2490385000128,None,1093.2490385000128,None,1095.7466752999462,None,1095.7466752999462,None,0.00806320970878005,0.50806320970878,1095.7466752999462,None,1095.7466752999462,None,1095.7466752999462,None,1095.7466752999462,None,1095.7466752999462,None,1095.7466752999462,None,50.0,1.433,1099.2211375001352,None,3200,,,,,,,,,,,,,,,,,,,f,24,houshuo,2022_Jan_09_0812,emotion,2021.1.4,60.02552282303545,
301,partial,0,0.2,-50,0.8,red,0,0.2,-200,0.8,blue,blue,red,blue,red,72,72,77,355,5,67,"[-6.7, 1.9]","[9.3, 1.9]","[-9.3, -1.9]","[6.7, -1.9]",-50,0,0,-200,0,78,78,3,,,,,,,,,,,,,,,,,0.012414929922670126,0.5124149299226701,1100.2585623001214,None,1100.2585623001214,None,left,1.6673812998924404,1100.2585623001214,None,1100.2585623001214,None,1100.2585623001214,None,1100.2585623001214,None,1100.2585623001214,None,1101.9645241999533,None,1101.9645241999533,None,0.005607509752735496,0.5056075097527355,1101.9645241999533,None,1101.9645241999533,None,1101.9645241999533,None,1101.9645241999533,None,1101.9645241999533,None,1101.9645241999533,None,1104.661175900139,None,1104.661175900139,None,0.007744509959593415,0.5077445099595934,1104.661175900139,None,1104.661175900139,None,1104.661175900139,None,1104.661175900139,None,1104.661175900139,None,1104.661175900139,None,0.0,2.096,1108.8022247001063,None,3150,,,,,,,,,,,,,,,,,,,f,24,houshuo,2022_Jan_09_0812,emotion,2021.1.4,60.02552282303545,
423,partial,0,0.8,-200,0.2,red,-50,0.8,-200,0.2,red,red,blue,red,blue,72,72,5,67,5,67,"[-9.3, -1.9]","[6.7, -1.9]","[-6.7, 1.9]","[9.3, 1.9]",-200,-200,0,-50,0,79,79,52,,,,,,,,,,,,,,,,,0.005262929946184158,0.5052629299461842,1109.853370900033,None,1109.853370900033,None,left,2.906364600174129,1109.853370900033,None,1109.853370900033,None,1109.853370900033,None,1109.853370900033,None,1109.853370900033,None,1112.7945334999822,None,1112.7945334999822,None,0.0058258099015802145,0.5058258099015802,1112.7945334999822,None,1112.7945334999822,None,1112.7945334999822,None,1112.7945334999822,None,1112.7945334999822,None,1112.7945334999822,None,1115.703758199932,None,1115.703758199932,None,0.013064920203760266,0.5130649202037603,1115.703758199932,None,1115.703758199932,None,1115.703758199932,None,1115.703758199932,None,1115.703758199932,None,1115.703758199932,None,-10.0,11.298,1129.0538488000166,None,2950,,,,,,,,,,,,,,,,,,,f,24,houshuo,2022_Jan_09_0812,emotion,2021.1.4,60.02552282303545,
106,partial,0,0.8,-50,0.2,blue,-50,0.5,-200,0.5,blue,red,blue,red,blue,72,180,77,355,185,355,"[-9.3, -1.9]","[6, 0]","[-6.7, 1.9]","[10, 0]",0,-50,-50,-200,0,80,80,35,,,,,,,,,,,,,,,,,0.015002029947936535,0.5150020299479365,1130.1048451000825,None,1130.1048451000825,None,left,1.6476543000899255,1130.1048451000825,None,1130.1048451000825,None,1130.1048451000825,None,1130.1048451000825,None,1130.1048451000825,None,1131.7897431999445,None,1131.7897431999445,None,0.006658709608018398,0.5066587096080184,1131.7897431999445,None,1131.7897431999445,None,1131.7897431999445,None,1131.7897431999445,None,1131.7897431999445,None,1131.7897431999445,None,1134.7270756999496,None,1134.7270756999496,None,0.007536709541454911,0.5075367095414549,1134.7270756999496,None,1134.7270756999496,None,1134.7270756999496,None,1134.7270756999496,None,1134.7270756999496,None,1134.7270756999496,None,50.0,1.469,1138.2298467000946,None,2950,,,,,,,,,,,,,,,,,,,f,24,houshuo,2022_Jan_09_0812,emotion,2021.1.4,60.02552282303545,
213,partial,0,0.2,-50,0.8,blue,-50,0.8,-200,0.2,red,blue,red,red,blue,72,72,5,67,5,67,"[-6.7, 1.9]","[6.7, -1.9]","[-9.3, -1.9]","[9.3, 1.9]",0,-200,-50,-50,0,81,81,38,,,,,,,,,,,,,,,,,0.0049391197971999645,0.5049391197972,1139.2592295000795,None,1139.2592295000795,None,left,1.9925547000020742,1139.2592295000795,None,1139.2592295000795,None,1139.2592295000795,None,1139.2592295000795,None,1139.2592295000795,None,1141.2893821001053,None,1141.2893821001053,None,0.006702209822833538,0.5067022098228335,1141.2893821001053,None,1141.2893821001053,None,1141.2893821001053,None,1141.2893821001053,None,1141.2893821001053,None,1141.2893821001053,None,1144.1370494000148,None,1144.1370494000148,None,0.007722209906205535,0.5077222099062055,1144.1370494000148,None,1144.1370494000148,None,1144.1370494000148,None,1144.1370494000148,None,1144.1370494000148,None,1144.1370494000148,None,50.0,1.317,1147.495094300015,None,2950,,,,,,,,,,,,,,,,,,,f,24,houshuo,2022_Jan_09_0812,emotion,2021.1.4,60.02552282303545,
419,partial,0,0.2,-200,0.8,red,-50,0.2,-200,0.8,red,blue,red,blue,red,72,72,77,355,77,355,"[-6.7, 1.9]","[9.3, 1.9]","[-9.3, -1.9]","[6.7, -1.9]",-200,-200,0,-50,0,82,82,4,,,,,,,,,,,,,,,,,0.01604722999036312,0.5160472299903631,1148.5293612000532,None,1148.5293612000532,None,left,2.4261898000258952,1148.5293612000532,None,1148.5293612000532,None,1148.5293612000532,None,1148.5293612000532,None,1148.5293612000532,None,1150.9874259999488,None,1150.9874259999488,None,0.006364709930494428,0.5063647099304944,1150.9874259999488,None,1150.9874259999488,None,1150.9874259999488,None,1150.9874259999488,None,1150.9874259999488,None,1150.9874259999488,None,1153.9519466001075,None,1153.9519466001075,None,0.007569209905341268,0.5075692099053413,1153.9519466001075,None,1153.9519466001075,None,1153.9519466001075,None,1153.9519466001075,None,1153.9519466001075,None,1153.9519466001075,None,-15.0,10.499,1166.4912610999309,None,2750,,,,,,,,,,,,,,,,,,,f,24,houshuo,2022_Jan_09_0812,emotion,2021.1.4,60.02552282303545,
287,partial,50,0.8,0,0.2,red,200,0.2,50,0.8,blue,red,blue,blue,red,72,72,5,67,5,67,"[-9.3, -1.9]","[9.3, 1.9]","[-6.7, 1.9]","[6.7, -1.9]",0,200,50,50,0,83,83,67,,,,,,,,,,,,,,,,,0.0027897199615836143,0.5027897199615836,1167.5213498999365,None,1167.5213498999365,None,right,1.509109100094065,1167.5213498999365,None,1167.5213498999365,None,1167.5213498999365,None,1167.5213498999365,None,1167.5213498999365,None,1169.067562500015,None,1169.067562500015,None,0.005919110029935837,0.5059191100299358,1169.067562500015,None,1169.067562500015,None,1169.067562500015,None,1169.067562500015,None,1169.067562500015,None,1169.067562500015,None,1171.6304532999638,None,1171.6304532999638,None,0.007930609863251448,0.5079306098632514,1171.6304532999638,None,1171.6304532999638,None,1171.6304532999638,None,1171.6304532999638,None,1171.6304532999638,None,1171.6304532999638,None,50.0,1.402,1175.0729114999995,None,2950,,,,,,,,,,,,,,,,,,,f,24,houshuo,2022_Jan_09_0812,emotion,2021.1.4,60.02552282303545,
402,partial,200,0.2,0,0.8,red,200,0.8,50,0.2,red,blue,red,red,blue,72,72,77,355,5,67,"[-6.7, 1.9]","[6.7, -1.9]","[-9.3, -1.9]","[9.3, 1.9]",0,50,200,200,0,84,84,92,,,,,,,,,,,,,,,,,0.004168619867414236,0.5041686198674142,1176.1025725000072,None,1176.1025725000072,None,right,1.3137435000389814,1176.1025725000072,None,1176.1025725000072,None,1176.1025725000072,None,1176.1025725000072,None,1176.1025725000072,None,1177.4495568999555,None,1177.4495568999555,None,0.005645110039040446,0.5056451100390404,1177.4495568999555,None,1177.4495568999555,None,1177.4495568999555,None,1177.4495568999555,None,1177.4495568999555,None,1177.4495568999555,None,1180.1964197000489,None,1180.1964197000489,None,0.007837709970772266,0.5078377099707723,1180.1964197000489,None,1180.1964197000489,None,1180.1964197000489,None,1180.1964197000489,None,1180.1964197000489,None,1180.1964197000489,None,15.0,7.283,1189.5200642999262,None,3000,,,,,,,,,,,,,,,,,,,f,24,houshuo,2022_Jan_09_0812,emotion,2021.1.4,60.02552282303545,
99,partial,0,0.8,-200,0.2,blue,-50,0.8,-200,0.2,blue,red,blue,red,blue,72,72,77,355,77,355,"[-9.3, -1.9]","[6.7, -1.9]","[-6.7, 1.9]","[9.3, 1.9]",0,-50,-200,-200,0,85,85,49,,,,,,,,,,,,,,,,,0.011119729839265347,0.5111197298392653,1190.5599933001213,None,1190.5599933001213,None,left,2.099951099837199,1190.5599933001213,None,1190.5599933001213,None,1190.5599933001213,None,1190.5599933001213,None,1190.5599933001213,None,1192.6961741000414,None,1192.6961741000414,None,0.005622109863907099,0.5056221098639071,1192.6961741000414,None,1192.6961741000414,None,1192.6961741000414,None,1192.6961741000414,None,1192.6961741000414,None,1192.6961741000414,None,1195.6931871999986,None,1195.6931871999986,None,0.007596209878101945,0.507596209878102,1195.6931871999986,None,1195.6931871999986,None,1195.6931871999986,None,1195.6931871999986,None,1195.6931871999986,None,1195.6931871999986,None,50.0,1.401,1199.1348365999293,None,3000,,,,,,,,,,,,,,,,,,,f,24,houshuo,2022_Jan_09_0812,emotion,2021.1.4,60.02552282303545,
300,partial,0,0.5,-50,0.5,red,0,0.5,-200,0.5,blue,red,blue,red,blue,180,180,5,175,185,355,"[-10, 0]","[6, 0]","[-6, 0]","[10, 0]",-50,0,0,-200,0,86,86,27,,,,,,,,,,,,,,,,,0.008162920130416751,0.5081629201304168,1200.1594807000365,None,1200.1594807000365,None,left,1.0740611001383513,1200.1594807000365,None,1200.1594807000365,None,1200.1594807000365,None,1200.1594807000365,None,1200.1594807000365,None,1201.261475800071,None,1201.261475800071,None,0.0056675097439438105,0.5056675097439438,1201.261475800071,None,1201.261475800071,None,1201.261475800071,None,1201.261475800071,None,1201.261475800071,None,1201.261475800071,None,1203.8095219999086,None,1203.8095219999086,None,0.00775860995054245,0.5077586099505424,1203.8095219999086,None,1203.8095219999086,None,1203.8095219999086,None,1203.8095219999086,None,1203.8095219999086,None,1203.8095219999086,None,-15.100000000000001,7.489,1213.3487241000403,None,2950,,,,,,,,,,,,,,,,,,,f,24,houshuo,2022_Jan_09_0812,emotion,2021.1.4,60.02552282303545,
291,partial,200,0.5,0,0.5,red,200,0.8,50,0.2,blue,red,blue,red,blue,180,72,5,175,77,355,"[-10, 0]","[6.7, -1.9]","[-6, 0]","[9.3, 1.9]",0,200,200,50,0,87,87,101,,,,,,,,,,,,,,,,,0.00493000983260572,0.5049300098326057,1214.3588000000454,None,1214.3588000000454,None,right,1.446251600049436,1214.3588000000454,None,1214.3588000000454,None,1214.3588000000454,None,1214.3588000000454,None,1214.3588000000454,None,1215.841675600037,None,1215.841675600037,None,0.005484309978783131,0.5054843099787831,1215.841675600037,None,1215.841675600037,None,1215.841675600037,None,1215.841675600037,None,1215.841675600037,None,1215.841675600037,None,1218.7551577000413,None,1218.7551577000413,None,0.008041110122576356,0.5080411101225764,1218.7551577000413,None,1218.7551577000413,None,1218.7551577000413,None,1218.7551577000413,None,1218.7551577000413,None,1218.7551577000413,None,50.0,1.575,1222.3802718000952,None,3150,,,,,,,,,,,,,,,,,,,f,24,houshuo,2022_Jan_09_0812,emotion,2021.1.4,60.02552282303545,
164,partial,50,0.5,0,0.5,blue,200,0.8,0,0.2,red,red,blue,red,blue,180,72,185,355,5,67,"[-10, 0]","[6.7, -1.9]","[-6, 0]","[9.3, 1.9]",50,0,0,200,0,88,88,96,,,,,,,,,,,,,,,,,0.004528220277279615,0.5045282202772796,1223.4099330999888,None,1223.4099330999888,None,right,1.5785427000373602,1223.4099330999888,None,1223.4099330999888,None,1223.4099330999888,None,1223.4099330999888,None,1223.4099330999888,None,1225.022636800073,None,1225.022636800073,None,0.005846809828653932,0.5058468098286539,1225.022636800073,None,1225.022636800073,None,1225.022636800073,None,1225.022636800073,None,1225.022636800073,None,1225.022636800073,None,1227.7540909999516,None,1227.7540909999516,None,0.008035409729927778,0.5080354097299278,1227.7540909999516,None,1227.7540909999516,None,1227.7540909999516,None,1227.7540909999516,None,1227.7540909999516,None,1227.7540909999516,None,0.0,6.65,1236.4442247999832,None,3150,,,,,,,,,,,,,,,,,,,f,24,houshuo,2022_Jan_09_0812,emotion,2021.1.4,60.02552282303545,
205,partial,0,0.8,-200,0.2,blue,-50,0.5,-200,0.5,red,red,blue,red,blue,72,180,77,355,5,175,"[-9.3, -1.9]","[6, 0]","[-6.7, 1.9]","[10, 0]",0,-200,-200,-50,0,89,89,34,,,,,,,,,,,,,,,,,0.0016787201166152954,0.5016787201166153,1237.4769401000813,None,1237.4769401000813,None,left,2.3504148998763412,1237.4769401000813,None,1237.4769401000813,None,1237.4769401000813,None,1237.4769401000813,None,1237.4769401000813,None,1239.853742999956,None,1239.853742999956,None,0.0064075100235641,0.5064075100235641,1239.853742999956,None,1239.853742999956,None,1239.853742999956,None,1239.853742999956,None,1239.853742999956,None,1239.853742999956,None,1242.7354836000595,None,1242.7354836000595,None,0.007718609878793359,0.5077186098787934,1242.7354836000595,None,1242.7354836000595,None,1242.7354836000595,None,1242.7354836000595,None,1242.7354836000595,None,1242.7354836000595,None,50.0,1.631,1246.4588806999382,None,3150,,,,,,,,,,,,,,,,,,,f,24,houshuo,2022_Jan_09_0812,emotion,2021.1.4,60.02552282303545,
308,partial,0,0.5,-200,0.5,red,-50,0.2,-200,0.8,blue,red,blue,blue,red,180,72,5,175,5,67,"[-10, 0]","[9.3, 1.9]","[-6, 0]","[6.7, -1.9]",-200,-50,0,-200,0,90,90,7,,,,,,,,,,,,,,,,,0.014151629991829395,0.5141516299918294,1247.4968689000234,None,1247.4968689000234,None,left,1.5329303999897093,1247.4968689000234,None,1247.4968689000234,None,1247.4968689000234,None,1247.4968689000234,None,1247.4968689000234,None,1249.0677668000571,None,1249.0677668000571,None,0.006406510015949607,0.5064065100159496,1249.0677668000571,None,1249.0677668000571,None,1249.0677668000571,None,1249.0677668000571,None,1249.0677668000571,None,1249.0677668000571,None,1251.666159400018,None,1251.666159400018,None,0.007737509906291962,0.507737509906292,1251.666159400018,None,1251.666159400018,None,1251.666159400018,None,1251.666159400018,None,1251.666159400018,None,1251.666159400018,None,-10.100000000000001,5.769,1259.4730535000563,None,2950,,,,,,,,,,,,,,,,,,,f,24,houshuo,2022_Jan_09_0812,emotion,2021.1.4,60.02552282303545,
290,partial,200,0.5,0,0.5,red,200,0.2,50,0.8,blue,red,blue,blue,red,180,72,5,175,5,67,"[-10, 0]","[9.3, 1.9]","[-6, 0]","[6.7, -1.9]",0,200,200,50,0,91,91,65,,,,,,,,,,,,,,,,,0.0078118296805769205,0.5078118296805769,1260.5179306000937,None,1260.5179306000937,None,right,1.4426229000091553,1260.5179306000937,None,1260.5179306000937,None,1260.5179306000937,None,1260.5179306000937,None,1260.5179306000937,None,1261.9996825999115,None,1261.9996825999115,None,0.00523520982824266,0.5052352098282427,1261.9996825999115,None,1261.9996825999115,None,1261.9996825999115,None,1261.9996825999115,None,1261.9996825999115,None,1261.9996825999115,None,1264.6968308999203,None,1264.6968308999203,None,0.007736309664323926,0.5077363096643239,1264.6968308999203,None,1264.6968308999203,None,1264.6968308999203,None,1264.6968308999203,None,1264.6968308999203,None,1264.6968308999203,None,50.0,1.584,1268.322403300088,None,3150,,,,,,,,,,,,,,,,,,,f,24,houshuo,2022_Jan_09_0812,emotion,2021.1.4,60.02552282303545,
171,partial,50,0.8,0,0.2,blue,200,0.5,0,0.5,red,red,blue,red,blue,72,180,77,355,5,175,"[-9.3, -1.9]","[6, 0]","[-6.7, 1.9]","[10, 0]",50,0,0,200,0,92,92,84,,,,,,,,,,,,,,,,,0.0013356199488043785,0.5013356199488044,1269.3590075999964,None,1269.3590075999964,None,right,1.3240057001821697,1269.3590075999964,None,1269.3590075999964,None,1269.3590075999964,None,1269.3590075999964,None,1269.3590075999964,None,1270.7133355000988,None,1270.7133355000988,None,0.005907610058784485,0.5059076100587845,1270.7133355000988,None,1270.7133355000988,None,1270.7133355000988,None,1270.7133355000988,None,1270.7133355000988,None,1270.7133355000988,None,1273.297547900118,None,1273.297547900118,None,0.006538809975609183,0.5065388099756092,1273.297547900118,None,1273.297547900118,None,1273.297547900118,None,1273.297547900118,None,1273.297547900118,None,1273.297547900118,None,0.0,5.434,1280.7688514001202,None,3150,,,,,,,,,,,,,,,,,,,f,24,houshuo,2022_Jan_09_0812,emotion,2021.1.4,60.02552282303545,
276,partial,50,0.2,0,0.8,red,200,0.5,0,0.5,blue,blue,red,red,blue,72,180,77,355,185,355,"[-6.7, 1.9]","[6, 0]","[-9.3, -1.9]","[10, 0]",0,200,50,0,0,93,93,75,,,,,,,,,,,,,,,,,0.014787229709327221,0.5147872297093272,1281.8114817999303,None,1281.8114817999303,None,right,1.0355199999175966,1281.8114817999303,None,1281.8114817999303,None,1281.8114817999303,None,1281.8114817999303,None,1281.8114817999303,None,1282.878877799958,None,1282.878877799958,None,0.005800809944048524,0.5058008099440485,1282.878877799958,None,1282.878877799958,None,1282.878877799958,None,1282.878877799958,None,1282.878877799958,None,1282.878877799958,None,1285.6088099000044,None,1285.6088099000044,None,0.007693310035392642,0.5076933100353926,1285.6088099000044,None,1285.6088099000044,None,1285.6088099000044,None,1285.6088099000044,None,1285.6088099000044,None,1285.6088099000044,None,50.0,1.751,1289.4026345000602,None,3350,,,,,,,,,,,,,,,,,,,f,24,houshuo,2022_Jan_09_0812,emotion,2021.1.4,60.02552282303545,
208,partial,0,0.5,-50,0.5,blue,-50,0.5,-200,0.5,red,red,blue,red,blue,180,180,185,355,5,175,"[-10, 0]","[6, 0]","[-6, 0]","[10, 0]",0,-200,-50,-50,0,94,94,26,,,,,,,,,,,,,,,,,0.01084072981029749,0.5108407298102975,1290.4585812001023,None,1290.4585812001023,None,left,2.1401851000264287,1290.4585812001023,None,1290.4585812001023,None,1290.4585812001023,None,1290.4585812001023,None,1290.4585812001023,None,1292.6263169001322,None,1292.6263169001322,None,0.005691309925168753,0.5056913099251688,1292.6263169001322,None,1292.6263169001322,None,1292.6263169001322,None,1292.6263169001322,None,1292.6263169001322,None,1292.6263169001322,None,1295.224790000124,None,1295.224790000124,None,0.007808909984305501,0.5078089099843055,1295.224790000124,None,1295.224790000124,None,1295.224790000124,None,1295.224790000124,None,1295.224790000124,None,1295.224790000124,None,50.0,1.718,1298.9818291000556,None,3350,,,,,,,,,,,,,,,,,,,f,24,houshuo,2022_Jan_09_0812,emotion,2021.1.4,60.02552282303545,
385,partial,50,0.8,0,0.2,red,200,0.2,0,0.8,red,red,blue,blue,red,72,72,5,67,77,355,"[-9.3, -1.9]","[9.3, 1.9]","[-6.7, 1.9]","[6.7, -1.9]",0,0,50,200,0,95,95,66,,,,,,,,,,,,,,,,,0.005049909930676222,0.5050499099306762,1300.0131836999208,None,1300.0131836999208,None,right,2.3301639000419527,1300.0131836999208,None,1300.0131836999208,None,1300.0131836999208,None,1300.0131836999208,None,1300.0131836999208,None,1302.3746185000055,None,1302.3746185000055,None,0.005908809835091233,0.5059088098350912,1302.3746185000055,None,1302.3746185000055,None,1302.3746185000055,None,1302.3746185000055,None,1302.3746185000055,None,1302.3746185000055,None,1305.007378499955,None,1305.007378499955,None,0.00766220991499722,0.5076622099149972,1305.007378499955,None,1305.007378499955,None,1305.007378499955,None,1305.007378499955,None,1305.007378499955,None,1305.007378499955,None,0.0,6.512,1313.5624319999479,None,3350,,,,,,,,,,,,,,,,,,,f,24,houshuo,2022_Jan_09_0812,emotion,2021.1.4,60.02552282303545,
295,partial,200,0.8,0,0.2,red,200,0.5,50,0.5,blue,red,blue,red,blue,72,180,5,67,185,355,"[-9.3, -1.9]","[6, 0]","[-6.7, 1.9]","[10, 0]",0,200,200,50,0,96,96,89,,,,,,,,,,,,,,,,,0.006567829754203558,0.5065678297542036,1314.6072122999467,None,1314.6072122999467,None,right,1.5501300001051277,1314.6072122999467,None,1314.6072122999467,None,1314.6072122999467,None,1314.6072122999467,None,1314.6072122999467,None,1316.1881194000598,None,1316.1881194000598,None,0.0057135100942105055,0.5057135100942105,1316.1881194000598,None,1316.1881194000598,None,1316.1881194000598,None,1316.1881194000598,None,1316.1881194000598,None,1316.1881194000598,None,1318.7199611999094,None,1318.7199611999094,None,0.0074398098513484,0.5074398098513484,1318.7199611999094,None,1318.7199611999094,None,1318.7199611999094,None,1318.7199611999094,None,1318.7199611999094,None,1318.7199611999094,None,50.0,1.352,1322.1107709999196,None,3550,,,,,,,,,,,,,,,,,,,f,24,houshuo,2022_Jan_09_0812,emotion,2021.1.4,60.02552282303545,
62,partial,50,0.8,0,0.2,blue,200,0.8,0,0.2,blue,red,blue,red,blue,72,72,77,355,77,355,"[-9.3, -1.9]","[6.7, -1.9]","[-6.7, 1.9]","[9.3, 1.9]",50,200,0,0,0,97,97,105,,,,,,,,,,,,,,,,,0.0032197199761867523,0.5032197199761868,1323.1544421000872,None,1323.1544421000872,None,right,0.9997800998389721,1323.1544421000872,None,1323.1544421000872,None,1323.1544421000872,None,1323.1544421000872,None,1323.1544421000872,None,1324.18678930006,None,1324.18678930006,None,0.006350309820845723,0.5063503098208457,1324.18678930006,None,1324.18678930006,None,1324.18678930006,None,1324.18678930006,None,1324.18678930006,None,1324.18678930006,None,1326.7352899999823,None,1326.7352899999823,None,0.007731210207566619,0.5077312102075666,1326.7352899999823,None,1326.7352899999823,None,1326.7352899999823,None,1326.7352899999823,None,1326.7352899999823,None,1326.7352899999823,None,50.0,1.369,1330.1424740999937,None,3750,,,,,,,,,,,,,,,,,,,f,24,houshuo,2022_Jan_09_0812,emotion,2021.1.4,60.02552282303545,
320,partial,0,0.2,-50,0.8,red,-50,0.2,-200,0.8,blue,blue,red,blue,red,72,72,77,355,5,67,"[-6.7, 1.9]","[9.3, 1.9]","[-9.3, -1.9]","[6.7, -1.9]",-50,-50,0,-200,0,98,98,5,,,,,,,,,,,,,,,,,0.0028791199438273907,0.5028791199438274,1331.1722027000505,None,1331.1722027000505,None,left,1.5680242001544684,1331.1722027000505,None,1331.1722027000505,None,1331.1722027000505,None,1331.1722027000505,None,1331.1722027000505,None,1332.767863499932,None,1332.767863499932,None,0.005675809923559427,0.5056758099235594,1332.767863499932,None,1332.767863499932,None,1332.767863499932,None,1332.767863499932,None,1332.767863499932,None,1332.767863499932,None,1335.4653847001027,None,1335.4653847001027,None,0.0077472098637372255,0.5077472098637372,1335.4653847001027,None,1335.4653847001027,None,1335.4653847001027,None,1335.4653847001027,None,1335.4653847001027,None,1335.4653847001027,None,0.0,8.744,1346.2547317000572,None,3700,,,,,,,,,,,,,,,,,,,f,24,houshuo,2022_Jan_09_0812,emotion,2021.1.4,60.02552282303545,
