trialNumber,trialType,x1,p,y1,p2,outcome1,x2,q,y2,q2,outcome2,LWedgeCol,LCircleCol,RWedgeCol,RCircleCol,Lslice,Rslice,L1,L2,R1,R2,x1Pos,x2Pos,y1Pos,y2Pos,leftPoints,rightPoints,LeftYourUn,RightYouUn,trials.thisRepN,trials.thisTrialN,trials.thisN,trials.thisIndex,trials_2.thisRepN,trials_2.thisTrialN,trials_2.thisN,trials_2.thisIndex,image.started,image.stopped,key_resp_5.keys,key_resp_5.rt,key_resp_5.started,key_resp_5.stopped,image_2.started,image_2.stopped,key_resp_2.keys,key_resp_2.rt,key_resp_2.started,key_resp_2.stopped,ISI_2.started,ISI_2.stopped,arrowL_2.started,arrowL_2.stopped,arrowR_2.started,arrowR_2.stopped,key_resp_4.keys,key_resp_4.rt,key_resp_4.started,key_resp_4.stopped,blueLVal_2.started,blueLVal_2.stopped,blueRVal_2.started,blueRVal_2.stopped,redLVal_2.started,redLVal_2.stopped,redRVal_2.started,redRVal_2.stopped,right.started,right.stopped,left.started,left.stopped,ISI.started,ISI.stopped,arrowL.started,arrowL.stopped,arrowR.started,arrowR.stopped,blueLVal.started,blueLVal.stopped,blueRVal.started,blueRVal.stopped,redLVal.started,redLVal.stopped,redRVal.started,redRVal.stopped,right_2.started,right_2.stopped,left_2.started,left_2.stopped,ISI_4.started,ISI_4.stopped,arrowL_3.started,arrowL_3.stopped,arrowR_3.started,arrowR_3.stopped,blueLVal_3.started,blueLVal_3.stopped,blueRVal_3.started,blueRVal_3.stopped,redLVal_3.started,redLVal_3.stopped,redRVal_3.started,redRVal_3.stopped,rating,ratingrt,text_5.started,text_5.stopped,totalScore,image_4.started,image_4.stopped,key_resp_3.keys,key_resp_3.rt,key_resp_3.started,key_resp_3.stopped,image_5.started,image_5.stopped,key_resp.keys,key_resp.rt,key_resp.started,key_resp.stopped,image_3.started,image_3.stopped,key_resp_9.keys,key_resp_9.rt,key_resp_9.started,key_resp_9.stopped,gender,age,participant,date,expName,psychopyVersion,frameRate,
,,,,,,,,,,,,,,,,,,,,,,,,,,,,,,,,,,,,,,64.14088229998015,None,space,4.836662100162357,64.14088229998015,None,,,,,,,,,,,,,,,,,,,,,,,,,,,,,,,,,,,,,,,,,,,,,,,,,,,,,,,,,,,,,,,,,,,,,,,,,,,,,,,,,,,,f,20,humengdan,2022_Jan_11_1533,emotion,2021.1.4,59.983036779759594,
,,,,,,,,,,,,,,,,,,,,,,,,,,,,,,,,,,,,,,,,,,,,69.00130379991606,None,space,1.4420769000425935,69.00130379991606,None,,,,,,,,,,,,,,,,,,,,,,,,,,,,,,,,,,,,,,,,,,,,,,,,,,,,,,,,,,,,,,,,,,,,,,,,,,,,,,f,20,humengdan,2022_Jan_11_1533,emotion,2021.1.4,59.983036779759594,
198,partial,0,0.8,-50,0.2,blue,0,0.5,-200,0.5,red,red,blue,red,blue,72,180,77,355,5,175,"[-9.3, -1.9]","[6, 0]","[-6.7, 1.9]","[10, 0]",0,-200,-50,0,0,0,0,33,,,,,,,,,,,,,,,,,0.007771239383146167,0.5077712393831462,70.92066889978014,None,70.92066889978014,None,left,3.0420512999407947,70.92066889978014,None,70.92066889978014,None,70.92066889978014,None,70.92066889978014,None,70.92066889978014,None,73.98861639993265,None,73.98861639993265,None,0.0062428798992186785,0.5062428798992187,73.98861639993265,None,73.98861639993265,None,73.98861639993265,None,73.98861639993265,None,73.98861639993265,None,73.98861639993265,None,76.85186039982364,None,76.85186039982364,None,0.006808980135247111,0.5068089801352471,76.85186039982364,None,76.85186039982364,None,76.85186039982364,None,76.85186039982364,None,76.85186039982364,None,76.85186039982364,None,12.0,5.138,84.07829179987311,None,0,,,,,,,,,,,,,,,,,,,f,20,humengdan,2022_Jan_11_1533,emotion,2021.1.4,59.983036779759594,
283,partial,50,0.2,0,0.8,red,200,0.5,50,0.5,blue,blue,red,red,blue,72,180,77,355,185,355,"[-6.7, 1.9]","[6, 0]","[-9.3, -1.9]","[10, 0]",0,200,50,50,0,1,1,76,,,,,,,,,,,,,,,,,0.011240860214456916,0.5112408602144569,85.11295339977369,None,85.11295339977369,None,right,1.9128193999640644,85.11295339977369,None,85.11295339977369,None,85.11295339977369,None,85.11295339977369,None,85.11295339977369,None,87.05126669979654,None,87.05126669979654,None,0.006492780055850744,0.5064927800558507,87.05126669979654,None,87.05126669979654,None,87.05126669979654,None,87.05126669979654,None,87.05126669979654,None,87.05126669979654,None,89.58235259982757,None,89.58235259982757,None,0.007613280089572072,0.5076132800895721,89.58235259982757,None,89.58235259982757,None,89.58235259982757,None,89.58235259982757,None,89.58235259982757,None,89.58235259982757,None,23.400000000000006,3.843,95.48295099986717,None,200,,,,,,,,,,,,,,,,,,,f,20,humengdan,2022_Jan_11_1533,emotion,2021.1.4,59.983036779759594,
306,partial,0,0.8,-50,0.2,red,0,0.5,-200,0.5,blue,red,blue,red,blue,72,180,5,67,185,355,"[-9.3, -1.9]","[6, 0]","[-6.7, 1.9]","[10, 0]",-50,0,0,-200,0,2,2,30,,,,,,,,,,,,,,,,,0.006241539726033807,0.5062415397260338,96.53700049989857,None,96.53700049989857,None,left,6.497341500129551,96.53700049989857,None,96.53700049989857,None,96.53700049989857,None,96.53700049989857,None,96.53700049989857,None,103.08024919987656,None,103.08024919987656,None,0.005972679937258363,0.5059726799372584,103.08024919987656,None,103.08024919987656,None,103.08024919987656,None,103.08024919987656,None,103.08024919987656,None,103.08024919987656,None,105.63077169982716,None,105.63077169982716,None,0.007764879846945405,0.5077648798469454,105.63077169982716,None,105.63077169982716,None,105.63077169982716,None,105.63077169982716,None,105.63077169982716,None,105.63077169982716,None,-21.4,4.268,111.93775669997558,None,150,,,,,,,,,,,,,,,,,,,f,20,humengdan,2022_Jan_11_1533,emotion,2021.1.4,59.983036779759594,
289,partial,200,0.5,0,0.5,red,200,0.5,50,0.5,blue,red,blue,red,blue,180,180,5,175,185,355,"[-10, 0]","[6, 0]","[-6, 0]","[10, 0]",0,200,200,50,0,3,3,80,,,,,,,,,,,,,,,,,0.009985339595004916,0.5099853395950049,112.9789729998447,None,112.9789729998447,None,right,1.6754078001249582,112.9789729998447,None,112.9789729998447,None,112.9789729998447,None,112.9789729998447,None,112.9789729998447,None,114.68128529982641,None,114.68128529982641,None,0.005691979778930545,0.5056919797789305,114.68128529982641,None,114.68128529982641,None,114.68128529982641,None,114.68128529982641,None,114.68128529982641,None,114.68128529982641,None,117.57673679990694,None,117.57673679990694,None,0.007749980082735419,0.5077499800827354,117.57673679990694,None,117.57673679990694,None,117.57673679990694,None,117.57673679990694,None,117.57673679990694,None,117.57673679990694,None,23.400000000000006,1.569,121.18605719995685,None,350,,,,,,,,,,,,,,,,,,,f,20,humengdan,2022_Jan_11_1533,emotion,2021.1.4,59.983036779759594,
429,partial,0,0.2,-50,0.8,red,-50,0.8,-200,0.2,red,blue,red,red,blue,72,72,77,355,5,67,"[-6.7, 1.9]","[6.7, -1.9]","[-9.3, -1.9]","[9.3, 1.9]",-50,-200,0,-50,0,4,4,41,,,,,,,,,,,,,,,,,0.005518759833648801,0.5055187598336488,122.2170635999646,None,122.2170635999646,None,left,5.741922200191766,122.2170635999646,None,122.2170635999646,None,122.2170635999646,None,122.2170635999646,None,122.2170635999646,None,127.99461559997872,None,127.99461559997872,None,0.006312380079180002,0.50631238007918,127.99461559997872,None,127.99461559997872,None,127.99461559997872,None,127.99461559997872,None,127.99461559997872,None,127.99461559997872,None,130.64189029997215,None,130.64189029997215,None,0.007615479873493314,0.5076154798734933,130.64189029997215,None,130.64189029997215,None,130.64189029997215,None,130.64189029997215,None,130.64189029997215,None,130.64189029997215,None,-2.700000000000003,2.535,135.21651749988087,None,300,,,,,,,,,,,,,,,,,,,f,20,humengdan,2022_Jan_11_1533,emotion,2021.1.4,59.983036779759594,
311,partial,0,0.2,-200,0.8,red,-50,0.2,-200,0.8,blue,blue,red,blue,red,72,72,77,355,5,67,"[-6.7, 1.9]","[9.3, 1.9]","[-9.3, -1.9]","[6.7, -1.9]",-200,-50,0,-200,0,5,5,4,,,,,,,,,,,,,,,,,0.007265239953994751,0.5072652399539948,136.2619868000038,None,136.2619868000038,None,left,3.540652299998328,136.2619868000038,None,136.2619868000038,None,136.2619868000038,None,136.2619868000038,None,136.2619868000038,None,139.84153049997985,None,139.84153049997985,None,0.005859979894012213,0.5058599798940122,139.84153049997985,None,139.84153049997985,None,139.84153049997985,None,139.84153049997985,None,139.84153049997985,None,139.84153049997985,None,142.40548289986327,None,142.40548289986327,None,0.007579380180686712,0.5075793801806867,142.40548289986327,None,142.40548289986327,None,142.40548289986327,None,142.40548289986327,None,142.40548289986327,None,142.40548289986327,None,0.0,6.167,150.61357599985786,None,100,,,,,,,,,,,,,,,,,,,f,20,humengdan,2022_Jan_11_1533,emotion,2021.1.4,59.983036779759594,
188,partial,200,0.8,0,0.2,blue,200,0.2,50,0.8,red,red,blue,blue,red,72,72,77,355,77,355,"[-9.3, -1.9]","[9.3, 1.9]","[-6.7, 1.9]","[6.7, -1.9]",200,50,0,200,0,6,6,71,,,,,,,,,,,,,,,,,0.0027208798564970493,0.502720879856497,151.62415089993738,None,151.62415089993738,None,right,6.761681000003591,151.62415089993738,None,151.62415089993738,None,151.62415089993738,None,151.62415089993738,None,151.62415089993738,None,158.42203799984418,None,158.42203799984418,None,0.0063911802135407925,0.5063911802135408,158.42203799984418,None,158.42203799984418,None,158.42203799984418,None,158.42203799984418,None,158.42203799984418,None,158.42203799984418,None,161.03501120000146,None,161.03501120000146,None,0.008351780008524656,0.5083517800085247,161.03501120000146,None,161.03501120000146,None,161.03501120000146,None,161.03501120000146,None,161.03501120000146,None,161.03501120000146,None,0.0,3.402,166.47553860000335,None,150,,,,,,,,,,,,,,,,,,,f,20,humengdan,2022_Jan_11_1533,emotion,2021.1.4,59.983036779759594,
74,partial,200,0.5,0,0.5,blue,200,0.2,50,0.8,blue,red,blue,blue,red,180,72,185,355,5,67,"[-10, 0]","[9.3, 1.9]","[-6, 0]","[6.7, -1.9]",200,200,0,50,0,7,7,62,,,,,,,,,,,,,,,,,0.016162539832293987,0.516162539832294,167.5153200000059,None,167.5153200000059,None,right,3.5500072999857366,167.5153200000059,None,167.5153200000059,None,167.5153200000059,None,167.5153200000059,None,167.5153200000059,None,171.10262229992077,None,171.10262229992077,None,0.006427780259400606,0.5064277802594006,171.10262229992077,None,171.10262229992077,None,171.10262229992077,None,171.10262229992077,None,171.10262229992077,None,171.10262229992077,None,173.86862510000356,None,173.86862510000356,None,0.007051379885524511,0.5070513798855245,173.86862510000356,None,173.86862510000356,None,173.86862510000356,None,173.86862510000356,None,173.86862510000356,None,173.86862510000356,None,26.299999999999997,1.751,177.6583041998092,None,350,,,,,,,,,,,,,,,,,,,f,20,humengdan,2022_Jan_11_1533,emotion,2021.1.4,59.983036779759594,
214,partial,0,0.8,-50,0.2,blue,-50,0.5,-200,0.5,red,red,blue,red,blue,72,180,77,355,5,175,"[-9.3, -1.9]","[6, 0]","[-6.7, 1.9]","[10, 0]",0,-200,-50,-50,0,8,8,35,,,,,,,,,,,,,,,,,0.006905060028657317,0.5069050600286573,178.68421899992973,None,178.68421899992973,None,left,3.668803400127217,178.68421899992973,None,178.68421899992973,None,178.68421899992973,None,178.68421899992973,None,178.68421899992973,None,182.38292659982108,None,182.38292659982108,None,0.005882380064576864,0.5058823800645769,182.38292659982108,None,182.38292659982108,None,182.38292659982108,None,182.38292659982108,None,182.38292659982108,None,182.38292659982108,None,185.34723789989948,None,185.34723789989948,None,0.007807180285453796,0.5078071802854538,185.34723789989948,None,185.34723789989948,None,185.34723789989948,None,185.34723789989948,None,185.34723789989948,None,185.34723789989948,None,11.299999999999997,1.634,189.02265749988146,None,350,,,,,,,,,,,,,,,,,,,f,20,humengdan,2022_Jan_11_1533,emotion,2021.1.4,59.983036779759594,
319,partial,0,0.2,-50,0.8,red,-50,0.5,-200,0.5,blue,blue,red,red,blue,72,180,77,355,185,355,"[-6.7, 1.9]","[6, 0]","[-9.3, -1.9]","[10, 0]",-50,-50,0,-200,0,9,9,20,,,,,,,,,,,,,,,,,0.005868780193850398,0.5058687801938504,190.03179529984482,None,190.03179529984482,None,left,3.4479823000729084,190.03179529984482,None,190.03179529984482,None,190.03179529984482,None,190.03179529984482,None,190.03179529984482,None,193.51547609991394,None,193.51547609991394,None,0.006708180066198111,0.5067081800661981,193.51547609991394,None,193.51547609991394,None,193.51547609991394,None,193.51547609991394,None,193.51547609991394,None,193.51547609991394,None,196.19500309997238,None,196.19500309997238,None,0.007897080155089498,0.5078970801550895,196.19500309997238,None,196.19500309997238,None,196.19500309997238,None,196.19500309997238,None,196.19500309997238,None,196.19500309997238,None,-0.10000000000000142,1.918,200.1538856998086,None,300,,,,,,,,,,,,,,,,,,,f,20,humengdan,2022_Jan_11_1533,emotion,2021.1.4,59.983036779759594,
186,partial,200,0.2,0,0.8,blue,200,0.8,50,0.2,red,blue,red,red,blue,72,72,5,67,5,67,"[-6.7, 1.9]","[6.7, -1.9]","[-9.3, -1.9]","[9.3, 1.9]",200,50,0,200,0,10,10,95,,,,,,,,,,,,,,,,,0.0013113601598888636,0.5013113601598889,201.1858978997916,None,201.1858978997916,None,right,7.31557340011932,201.1858978997916,None,201.1858978997916,None,201.1858978997916,None,201.1858978997916,None,201.1858978997916,None,208.52720899996348,None,208.52720899996348,None,0.006656479788944125,0.5066564797889441,208.52720899996348,None,208.52720899996348,None,208.52720899996348,None,208.52720899996348,None,208.52720899996348,None,208.52720899996348,None,211.06044919998385,None,211.06044919998385,None,0.007411779835820198,0.5074117798358202,211.06044919998385,None,211.06044919998385,None,211.06044919998385,None,211.06044919998385,None,211.06044919998385,None,211.06044919998385,None,-2.0,2.218,215.3175960998051,None,350,,,,,,,,,,,,,,,,,,,f,20,humengdan,2022_Jan_11_1533,emotion,2021.1.4,59.983036779759594,
55,partial,50,0.5,0,0.5,blue,200,0.2,0,0.8,blue,red,blue,blue,red,180,72,185,355,5,67,"[-10, 0]","[9.3, 1.9]","[-6, 0]","[6.7, -1.9]",50,200,0,0,0,11,11,60,,,,,,,,,,,,,,,,,0.00834473967552185,0.5083447396755219,216.36064159986563,None,216.36064159986563,None,right,3.949737599818036,216.36064159986563,None,216.36064159986563,None,216.36064159986563,None,216.36064159986563,None,216.36064159986563,None,220.34492529998533,None,220.34492529998533,None,0.005902980221435428,0.5059029802214354,220.34492529998533,None,220.34492529998533,None,220.34492529998533,None,220.34492529998533,None,220.34492529998533,None,220.34492529998533,None,223.45570729998872,None,223.45570729998872,None,0.008008380187675357,0.5080083801876754,223.45570729998872,None,223.45570729998872,None,223.45570729998872,None,223.45570729998872,None,223.45570729998872,None,223.45570729998872,None,12.700000000000003,3.756,229.25089499983005,None,550,,,,,,,,,,,,,,,,,,,f,20,humengdan,2022_Jan_11_1533,emotion,2021.1.4,59.983036779759594,
403,partial,200,0.8,0,0.2,red,200,0.5,50,0.5,red,red,blue,red,blue,72,180,5,67,5,175,"[-9.3, -1.9]","[6, 0]","[-6.7, 1.9]","[10, 0]",0,50,200,200,0,12,12,89,,,,,,,,,,,,,,,,,0.016530639957636595,0.5165306399576366,230.3178446998354,None,230.3178446998354,None,right,5.29017459996976,230.3178446998354,None,230.3178446998354,None,230.3178446998354,None,230.3178446998354,None,230.3178446998354,None,235.64092439995147,None,235.64092439995147,None,0.005900879856199026,0.505900879856199,235.64092439995147,None,235.64092439995147,None,235.64092439995147,None,235.64092439995147,None,235.64092439995147,None,235.64092439995147,None,238.57020799978636,None,238.57020799978636,None,0.00801068008877337,0.5080106800887734,238.57020799978636,None,238.57020799978636,None,238.57020799978636,None,238.57020799978636,None,238.57020799978636,None,238.57020799978636,None,3.1000000000000014,2.485,243.09555619978346,None,600,,,,,,,,,,,,,,,,,,,f,20,humengdan,2022_Jan_11_1533,emotion,2021.1.4,59.983036779759594,
380,partial,50,0.5,0,0.5,red,200,0.8,0,0.2,red,red,blue,red,blue,180,72,5,175,5,67,"[-10, 0]","[6.7, -1.9]","[-6, 0]","[9.3, 1.9]",0,0,50,200,0,13,13,99,,,,,,,,,,,,,,,,,0.011538860155269504,0.5115388601552695,244.11639819992706,None,244.11639819992706,None,right,2.1787696999963373,244.11639819992706,None,244.11639819992706,None,244.11639819992706,None,244.11639819992706,None,244.11639819992706,None,246.32115779980086,None,246.32115779980086,None,0.006162679987028241,0.5061626799870282,246.32115779980086,None,246.32115779980086,None,246.32115779980086,None,246.32115779980086,None,246.32115779980086,None,246.32115779980086,None,248.886232299963,None,248.886232299963,None,0.007745780050754547,0.5077457800507545,248.886232299963,None,248.886232299963,None,248.886232299963,None,248.886232299963,None,248.886232299963,None,248.886232299963,None,0.0,2.152,253.07793749985285,None,600,,,,,,,,,,,,,,,,,,,f,20,humengdan,2022_Jan_11_1533,emotion,2021.1.4,59.983036779759594,
56,partial,50,0.5,0,0.5,blue,200,0.8,0,0.2,blue,red,blue,red,blue,180,72,185,355,77,355,"[-10, 0]","[6.7, -1.9]","[-6, 0]","[9.3, 1.9]",50,200,0,0,0,14,14,96,,,,,,,,,,,,,,,,,0.005629460094496608,0.5056294600944966,254.12634309986606,None,254.12634309986606,None,right,2.6780765999574214,254.12634309986606,None,254.12634309986606,None,254.12634309986606,None,254.12634309986606,None,254.12634309986606,None,256.83493319991976,None,256.83493319991976,None,0.006769279949367046,0.506769279949367,256.83493319991976,None,256.83493319991976,None,256.83493319991976,None,256.83493319991976,None,256.83493319991976,None,256.83493319991976,None,259.61677289986983,None,259.61677289986983,None,0.007669380167499185,0.5076693801674992,259.61677289986983,None,259.61677289986983,None,259.61677289986983,None,259.61677289986983,None,259.61677289986983,None,259.61677289986983,None,23.900000000000006,1.525,263.1772669998463,None,800,,,,,,,,,,,,,,,,,,,f,20,humengdan,2022_Jan_11_1533,emotion,2021.1.4,59.983036779759594,
384,partial,50,0.2,0,0.8,red,200,0.5,0,0.5,red,blue,red,red,blue,72,180,77,355,5,175,"[-6.7, 1.9]","[6, 0]","[-9.3, -1.9]","[10, 0]",0,0,50,200,0,15,15,75,,,,,,,,,,,,,,,,,0.008590839803218842,0.5085908398032188,264.2406886999961,None,264.2406886999961,None,right,2.2895276001654565,264.2406886999961,None,264.2406886999961,None,264.2406886999961,None,264.2406886999961,None,264.2406886999961,None,266.5684550998267,None,266.5684550998267,None,0.005554179893806577,0.5055541798938066,266.5684550998267,None,266.5684550998267,None,266.5684550998267,None,266.5684550998267,None,266.5684550998267,None,266.5684550998267,None,269.3308977999259,None,269.3308977999259,None,0.00773747987113893,0.5077374798711389,269.3308977999259,None,269.3308977999259,None,269.3308977999259,None,269.3308977999259,None,269.3308977999259,None,269.3308977999259,None,-0.20000000000000284,2.168,273.5394620997831,None,800,,,,,,,,,,,,,,,,,,,f,20,humengdan,2022_Jan_11_1533,emotion,2021.1.4,59.983036779759594,
428,partial,0,0.2,-50,0.8,red,-50,0.2,-200,0.8,red,blue,red,blue,red,72,72,77,355,77,355,"[-6.7, 1.9]","[9.3, 1.9]","[-9.3, -1.9]","[6.7, -1.9]",-50,-200,0,-50,0,16,16,5,,,,,,,,,,,,,,,,,0.005405380157753825,0.5054053801577538,274.5502828999888,None,274.5502828999888,None,left,2.271558600012213,274.5502828999888,None,274.5502828999888,None,274.5502828999888,None,274.5502828999888,None,274.5502828999888,None,276.84774899994954,None,276.84774899994954,None,0.005835680058225989,0.505835680058226,276.84774899994954,None,276.84774899994954,None,276.84774899994954,None,276.84774899994954,None,276.84774899994954,None,276.84774899994954,None,279.6295310999267,None,279.6295310999267,None,0.007390980143100023,0.5073909801431,279.6295310999267,None,279.6295310999267,None,279.6295310999267,None,279.6295310999267,None,279.6295310999267,None,279.6295310999267,None,-0.20000000000000284,2.63,284.3037627998274,None,750,,,,,,,,,,,,,,,,,,,f,20,humengdan,2022_Jan_11_1533,emotion,2021.1.4,59.983036779759594,
97,partial,0,0.8,-200,0.2,blue,-50,0.5,-200,0.5,blue,red,blue,red,blue,72,180,77,355,185,355,"[-9.3, -1.9]","[6, 0]","[-6.7, 1.9]","[10, 0]",0,-50,-200,-200,0,17,17,34,,,,,,,,,,,,,,,,,0.004116160096600652,0.5041161600966007,285.33306489977986,None,285.33306489977986,None,left,4.789577699964866,285.33306489977986,None,285.33306489977986,None,285.33306489977986,None,285.33306489977986,None,285.33306489977986,None,290.1624717998784,None,290.1624717998784,None,0.006761880125850439,0.5067618801258504,290.1624717998784,None,290.1624717998784,None,290.1624717998784,None,290.1624717998784,None,290.1624717998784,None,290.1624717998784,None,292.7764046997763,None,292.7764046997763,None,0.007818079786375165,0.5078180797863752,292.7764046997763,None,292.7764046997763,None,292.7764046997763,None,292.7764046997763,None,292.7764046997763,None,292.7764046997763,None,25.799999999999997,2.236,297.0514104999602,None,750,,,,,,,,,,,,,,,,,,,f,20,humengdan,2022_Jan_11_1533,emotion,2021.1.4,59.983036779759594,
100,partial,0,0.5,-50,0.5,blue,-50,0.5,-200,0.5,blue,red,blue,red,blue,180,180,185,355,185,355,"[-10, 0]","[6, 0]","[-6, 0]","[10, 0]",0,-50,-50,-200,0,18,18,26,,,,,,,,,,,,,,,,,0.0011514597572386265,0.5011514597572386,298.0833742998075,None,298.0833742998075,None,left,2.7840146999806166,298.0833742998075,None,298.0833742998075,None,298.0833742998075,None,298.0833742998075,None,298.0833742998075,None,300.8987810998224,None,300.8987810998224,None,0.0009736800566315651,0.5009736800566316,300.8987810998224,None,300.8987810998224,None,300.8987810998224,None,300.8987810998224,None,300.8987810998224,None,300.8987810998224,None,303.4903615999501,None,303.4903615999501,None,0.007907479768618941,0.5079074797686189,303.4903615999501,None,303.4903615999501,None,303.4903615999501,None,303.4903615999501,None,303.4903615999501,None,303.4903615999501,None,17.0,1.968,307.49989659991115,None,750,,,,,,,,,,,,,,,,,,,f,20,humengdan,2022_Jan_11_1533,emotion,2021.1.4,59.983036779759594,
421,partial,0,0.8,-200,0.2,red,-50,0.5,-200,0.5,red,red,blue,red,blue,72,180,5,67,5,175,"[-9.3, -1.9]","[6, 0]","[-6.7, 1.9]","[10, 0]",-200,-200,0,-50,0,19,19,31,,,,,,,,,,,,,,,,,0.015957439551129937,0.5159574395511299,308.5308300999459,None,308.5308300999459,None,left,2.111678499961272,308.5308300999459,None,308.5308300999459,None,308.5308300999459,None,308.5308300999459,None,308.5308300999459,None,310.6757074999623,None,310.6757074999623,None,0.006245480151847005,0.506245480151847,310.6757074999623,None,310.6757074999623,None,310.6757074999623,None,310.6757074999623,None,310.6757074999623,None,310.6757074999623,None,313.3569555999711,None,313.3569555999711,None,0.0076902799773961306,0.5076902799773961,313.3569555999711,None,313.3569555999711,None,313.3569555999711,None,313.3569555999711,None,313.3569555999711,None,313.3569555999711,None,-13.299999999999997,3.352,318.75158349983394,None,550,,,,,,,,,,,,,,,,,,,f,20,humengdan,2022_Jan_11_1533,emotion,2021.1.4,59.983036779759594,
209,partial,0,0.5,-50,0.5,blue,-50,0.2,-200,0.8,red,red,blue,blue,red,180,72,185,355,77,355,"[-10, 0]","[9.3, 1.9]","[-6, 0]","[6.7, -1.9]",0,-200,-50,-50,0,20,20,11,,,,,,,,,,,,,,,,,0.007993259932845831,0.5079932599328458,319.794796400005,None,319.794796400005,None,right,1.6180710000917315,319.794796400005,None,319.794796400005,None,319.794796400005,None,319.794796400005,None,319.794796400005,None,321.4400755998213,None,321.4400755998213,None,0.005717079853639007,0.505717079853639,321.4400755998213,None,321.4400755998213,None,321.4400755998213,None,321.4400755998213,None,321.4400755998213,None,321.4400755998213,None,324.4207196999341,None,324.4207196999341,None,0.007749079959467053,0.507749079959467,324.4207196999341,None,324.4207196999341,None,324.4207196999341,None,324.4207196999341,None,324.4207196999341,None,324.4207196999341,None,-46.7,5.185,331.6445839998778,None,350,,,,,,,,,,,,,,,,,,,f,20,humengdan,2022_Jan_11_1533,emotion,2021.1.4,59.983036779759594,
408,partial,0,0.5,-50,0.5,red,0,0.5,-200,0.5,red,red,blue,red,blue,180,180,5,175,5,175,"[-10, 0]","[6, 0]","[-6, 0]","[10, 0]",-50,-200,0,0,0,21,21,27,,,,,,,,,,,,,,,,,0.00536598009057343,0.5053659800905734,332.65454919985496,None,332.65454919985496,None,left,1.1691516002174467,332.65454919985496,None,332.65454919985496,None,332.65454919985496,None,332.65454919985496,None,332.65454919985496,None,333.8535044998862,None,333.8535044998862,None,0.005522680003196001,0.505522680003196,333.8535044998862,None,333.8535044998862,None,333.8535044998862,None,333.8535044998862,None,333.8535044998862,None,333.8535044998862,None,336.3849769998342,None,336.3849769998342,None,0.007718580309301615,0.5077185803093016,336.3849769998342,None,336.3849769998342,None,336.3849769998342,None,336.3849769998342,None,336.3849769998342,None,336.3849769998342,None,-30.1,2.051,340.4763482999988,None,300,,,,,,,,,,,,,,,,,,,f,20,humengdan,2022_Jan_11_1533,emotion,2021.1.4,59.983036779759594,
314,partial,0,0.8,-200,0.2,red,-50,0.2,-200,0.8,blue,red,blue,blue,red,72,72,5,67,5,67,"[-9.3, -1.9]","[9.3, 1.9]","[-6.7, 1.9]","[6.7, -1.9]",-200,-50,0,-200,0,22,22,16,,,,,,,,,,,,,,,,,0.002969760214909911,0.5029697602149099,341.51367659983225,None,341.51367659983225,None,left,3.720069000031799,341.51367659983225,None,341.51367659983225,None,341.51367659983225,None,341.51367659983225,None,341.51367659983225,None,345.26996109983884,None,345.26996109983884,None,0.005799179896712303,0.5057991798967123,345.26996109983884,None,345.26996109983884,None,345.26996109983884,None,345.26996109983884,None,345.26996109983884,None,345.26996109983884,None,348.0703657998238,None,348.0703657998238,None,0.0075757799204438925,0.5075757799204439,348.0703657998238,None,348.0703657998238,None,348.0703657998238,None,348.0703657998238,None,348.0703657998238,None,348.0703657998238,None,-31.6,4.452,354.5576452999376,None,100,,,,,,,,,,,,,,,,,,,f,20,humengdan,2022_Jan_11_1533,emotion,2021.1.4,59.983036779759594,
322,partial,0,0.8,-50,0.2,red,-50,0.5,-200,0.5,blue,red,blue,red,blue,72,180,5,67,185,355,"[-9.3, -1.9]","[6, 0]","[-6.7, 1.9]","[10, 0]",-50,-50,0,-200,0,23,23,32,,,,,,,,,,,,,,,,,0.002319260034710169,0.5023192600347102,355.58874169993214,None,355.58874169993214,None,left,1.45125970011577,355.58874169993214,None,355.58874169993214,None,355.58874169993214,None,355.58874169993214,None,355.58874169993214,None,357.0654595999513,None,357.0654595999513,None,0.005951480008661747,0.5059514800086617,357.0654595999513,None,357.0654595999513,None,357.0654595999513,None,357.0654595999513,None,357.0654595999513,None,357.0654595999513,None,359.83151259995066,None,359.83151259995066,None,0.007163479691371322,0.5071634796913713,359.83151259995066,None,359.83151259995066,None,359.83151259995066,None,359.83151259995066,None,359.83151259995066,None,359.83151259995066,None,-26.9,2.886,364.7549971998669,None,50,,,,,,,,,,,,,,,,,,,f,20,humengdan,2022_Jan_11_1533,emotion,2021.1.4,59.983036779759594,
286,partial,50,0.8,0,0.2,red,200,0.5,50,0.5,blue,red,blue,red,blue,72,180,5,67,185,355,"[-9.3, -1.9]","[6, 0]","[-6.7, 1.9]","[10, 0]",0,200,50,50,0,24,24,88,,,,,,,,,,,,,,,,,0.003666879842057824,0.5036668798420578,365.7651191998739,None,365.7651191998739,None,right,1.2288909999188036,365.7651191998739,None,365.7651191998739,None,365.7651191998739,None,365.7651191998739,None,365.7651191998739,None,367.0303256998304,None,367.0303256998304,None,0.005323580000549555,0.5053235800005496,367.0303256998304,None,367.0303256998304,None,367.0303256998304,None,367.0303256998304,None,367.0303256998304,None,367.0303256998304,None,369.57641209987924,None,369.57641209987924,None,0.008297380059957504,0.5082973800599575,369.57641209987924,None,369.57641209987924,None,369.57641209987924,None,369.57641209987924,None,369.57641209987924,None,369.57641209987924,None,-0.10000000000000142,2.002,373.6204791998025,None,250,,,,,,,,,,,,,,,,,,,f,20,humengdan,2022_Jan_11_1533,emotion,2021.1.4,59.983036779759594,
298,partial,0,0.5,-50,0.5,red,0,0.2,-200,0.8,blue,red,blue,blue,red,180,72,5,175,5,67,"[-10, 0]","[9.3, 1.9]","[-6, 0]","[6.7, -1.9]",-50,0,0,-200,0,25,25,6,,,,,,,,,,,,,,,,,0.007294479990378022,0.507294479990378,374.642757399939,None,374.642757399939,None,left,1.469476900063455,374.642757399939,None,374.642757399939,None,374.642757399939,None,374.642757399939,None,374.642757399939,None,376.1484539997764,None,376.1484539997764,None,0.004968180321156979,0.504968180321157,376.1484539997764,None,376.1484539997764,None,376.1484539997764,None,376.1484539997764,None,376.1484539997764,None,376.1484539997764,None,378.7823176998645,None,378.7823176998645,None,0.002973380032926798,0.5029733800329268,378.7823176998645,None,378.7823176998645,None,378.7823176998645,None,378.7823176998645,None,378.7823176998645,None,378.7823176998645,None,-0.10000000000000142,1.87,382.68469599983655,None,200,,,,,,,,,,,,,,,,,,,f,20,humengdan,2022_Jan_11_1533,emotion,2021.1.4,59.983036779759594,
303,partial,0,0.2,-50,0.8,red,0,0.5,-200,0.5,blue,blue,red,red,blue,72,180,77,355,185,355,"[-6.7, 1.9]","[6, 0]","[-9.3, -1.9]","[10, 0]",-50,0,0,-200,0,26,26,18,,,,,,,,,,,,,,,,,0.006125179817900062,0.5061251798179001,383.6950772998389,None,383.6950772998389,None,left,2.3408877002075315,383.6950772998389,None,383.6950772998389,None,383.6950772998389,None,383.6950772998389,None,383.6950772998389,None,386.0625115998555,None,386.0625115998555,None,0.006458580028265715,0.5064585800282657,386.0625115998555,None,386.0625115998555,None,386.0625115998555,None,386.0625115998555,None,386.0625115998555,None,386.0625115998555,None,388.7405075998977,None,388.7405075998977,None,0.008092780131846666,0.5080927801318467,388.7405075998977,None,388.7405075998977,None,388.7405075998977,None,388.7405075998977,None,388.7405075998977,None,388.7405075998977,None,-4.700000000000003,8.906,399.6969137999695,None,150,,,,,,,,,,,,,,,,,,,f,20,humengdan,2022_Jan_11_1533,emotion,2021.1.4,59.983036779759594,
76,partial,200,0.2,0,0.8,blue,200,0.5,50,0.5,blue,blue,red,red,blue,72,180,5,67,185,355,"[-6.7, 1.9]","[6, 0]","[-9.3, -1.9]","[10, 0]",200,200,0,50,0,27,27,74,,,,,,,,,,,,,,,,,0.0095435397233814,0.5095435397233814,400.7354188999161,None,400.7354188999161,None,right,1.420513000106439,400.7354188999161,None,400.7354188999161,None,400.7354188999161,None,400.7354188999161,None,400.7354188999161,None,402.1903287000023,None,402.1903287000023,None,0.006646679947152734,0.5066466799471527,402.1903287000023,None,402.1903287000023,None,402.1903287000023,None,402.1903287000023,None,402.1903287000023,None,402.1903287000023,None,405.0455706999637,None,405.0455706999637,None,3.848015330731869e-05,0.5000384801533073,405.0455706999637,None,405.0455706999637,None,405.0455706999637,None,405.0455706999637,None,405.0455706999637,None,405.0455706999637,None,7.899999999999999,3.149,410.22935399995185,None,350,,,,,,,,,,,,,,,,,,,f,20,humengdan,2022_Jan_11_1533,emotion,2021.1.4,59.983036779759594,
307,partial,0,0.5,-200,0.5,red,-50,0.5,-200,0.5,blue,red,blue,red,blue,180,180,5,175,185,355,"[-10, 0]","[6, 0]","[-6, 0]","[10, 0]",-200,-50,0,-200,0,28,28,28,,,,,,,,,,,,,,,,,0.005462880013510585,0.5054628800135106,411.238139399793,None,411.238139399793,None,left,2.076692400034517,411.238139399793,None,411.238139399793,None,411.238139399793,None,411.238139399793,None,411.238139399793,None,413.33796749985777,None,413.33796749985777,None,0.006662379950284958,0.506662379950285,413.33796749985777,None,413.33796749985777,None,413.33796749985777,None,413.33796749985777,None,413.33796749985777,None,413.33796749985777,None,415.93556399992667,None,415.93556399992667,None,0.007838380290195346,0.5078383802901953,415.93556399992667,None,415.93556399992667,None,415.93556399992667,None,415.93556399992667,None,415.93556399992667,None,415.93556399992667,None,-2.6000000000000014,2.274,420.24400149984285,None,150,,,,,,,,,,,,,,,,,,,f,20,humengdan,2022_Jan_11_1533,emotion,2021.1.4,59.983036779759594,
189,partial,200,0.8,0,0.2,blue,200,0.8,50,0.2,red,red,blue,red,blue,72,72,77,355,5,67,"[-9.3, -1.9]","[6.7, -1.9]","[-6.7, 1.9]","[9.3, 1.9]",200,50,0,200,0,29,29,107,,,,,,,,,,,,,,,,,0.014359039952978492,0.5143590399529785,421.28546389983967,None,421.28546389983967,None,right,1.5040682998951524,421.28546389983967,None,421.28546389983967,None,421.28546389983967,None,421.28546389983967,None,421.28546389983967,None,422.81892200000584,None,422.81892200000584,None,0.006225780118256807,0.5062257801182568,422.81892200000584,None,422.81892200000584,None,422.81892200000584,None,422.81892200000584,None,422.81892200000584,None,422.81892200000584,None,425.6185925998725,None,425.6185925998725,None,0.006644879933446646,0.5066448799334466,425.6185925998725,None,425.6185925998725,None,425.6185925998725,None,425.6185925998725,None,425.6185925998725,None,425.6185925998725,None,0.7999999999999972,1.453,429.1089811997954,None,200,,,,,,,,,,,,,,,,,,,f,20,humengdan,2022_Jan_11_1533,emotion,2021.1.4,59.983036779759594,
195,partial,0,0.2,-50,0.8,blue,0,0.5,-200,0.5,red,blue,red,red,blue,72,180,5,67,5,175,"[-6.7, 1.9]","[6, 0]","[-9.3, -1.9]","[10, 0]",0,-200,-50,0,0,30,30,21,,,,,,,,,,,,,,,,,0.002583760302513838,0.5025837603025138,430.1403353998903,None,430.1403353998903,None,left,3.66276520001702,430.1403353998903,None,430.1403353998903,None,430.1403353998903,None,430.1403353998903,None,430.1403353998903,None,433.83431989979,None,433.83431989979,None,0.006223280215635896,0.5062232802156359,433.83431989979,None,433.83431989979,None,433.83431989979,None,433.83431989979,None,433.83431989979,None,433.83431989979,None,436.49864099989645,None,436.49864099989645,None,0.008082679938524961,0.508082679938525,436.49864099989645,None,436.49864099989645,None,436.49864099989645,None,436.49864099989645,None,436.49864099989645,None,436.49864099989645,None,0.29999999999999716,5.714,444.2407393998001,None,200,,,,,,,,,,,,,,,,,,,f,20,humengdan,2022_Jan_11_1533,emotion,2021.1.4,59.983036779759594,
274,partial,50,0.2,0,0.8,red,200,0.2,0,0.8,blue,blue,red,blue,red,72,72,77,355,5,67,"[-6.7, 1.9]","[9.3, 1.9]","[-9.3, -1.9]","[6.7, -1.9]",0,200,50,0,0,31,31,54,,,,,,,,,,,,,,,,,0.0033835601061582565,0.5033835601061583,445.27582039986737,None,445.27582039986737,None,right,2.385418300051242,445.27582039986737,None,445.27582039986737,None,445.27582039986737,None,445.27582039986737,None,445.27582039986737,None,447.6993906998541,None,447.6993906998541,None,0.006780179915949702,0.5067801799159497,447.6993906998541,None,447.6993906998541,None,447.6993906998541,None,447.6993906998541,None,447.6993906998541,None,447.6993906998541,None,450.41214669984765,None,450.41214669984765,None,0.008382480125874281,0.5083824801258743,450.41214669984765,None,450.41214669984765,None,450.41214669984765,None,450.41214669984765,None,450.41214669984765,None,450.41214669984765,None,21.400000000000006,1.818,454.2706684998702,None,400,,,,,,,,,,,,,,,,,,,f,20,humengdan,2022_Jan_11_1533,emotion,2021.1.4,59.983036779759594,
105,partial,0,0.2,-50,0.8,blue,-50,0.8,-200,0.2,blue,blue,red,red,blue,72,72,5,67,77,355,"[-6.7, 1.9]","[6.7, -1.9]","[-9.3, -1.9]","[9.3, 1.9]",0,-50,-50,-200,0,32,32,38,,,,,,,,,,,,,,,,,0.007033560192212462,0.5070335601922125,455.30089389998466,None,455.30089389998466,None,left,5.172685900004581,455.30089389998466,None,455.30089389998466,None,455.30089389998466,None,455.30089389998466,None,455.30089389998466,None,460.5122144999914,None,460.5122144999914,None,0.005693080369383097,0.5056930803693831,460.5122144999914,None,460.5122144999914,None,460.5122144999914,None,460.5122144999914,None,460.5122144999914,None,460.5122144999914,None,463.075822299812,None,463.075822299812,None,0.007664680015295744,0.5076646800152957,463.075822299812,None,463.075822299812,None,463.075822299812,None,463.075822299812,None,463.075822299812,None,463.075822299812,None,14.599999999999994,1.335,466.4518773998134,None,400,,,,,,,,,,,,,,,,,,,f,20,humengdan,2022_Jan_11_1533,emotion,2021.1.4,59.983036779759594,
173,partial,50,0.5,0,0.5,blue,200,0.2,50,0.8,red,red,blue,blue,red,180,72,185,355,77,355,"[-10, 0]","[9.3, 1.9]","[-6, 0]","[6.7, -1.9]",50,50,0,200,0,33,33,61,,,,,,,,,,,,,,,,,0.012487639905884862,0.5124876399058849,467.4901483999565,None,467.4901483999565,None,right,1.3977177001070231,467.4901483999565,None,467.4901483999565,None,467.4901483999565,None,467.4901483999565,None,467.4901483999565,None,468.9279161999002,None,468.9279161999002,None,0.006339279934763908,0.5063392799347639,468.9279161999002,None,468.9279161999002,None,468.9279161999002,None,468.9279161999002,None,468.9279161999002,None,468.9279161999002,None,471.908301099902,None,471.908301099902,None,0.00787598011083901,0.507875980110839,471.908301099902,None,471.908301099902,None,471.908301099902,None,471.908301099902,None,471.908301099902,None,471.908301099902,None,2.1000000000000014,1.299,475.2417136998847,None,450,,,,,,,,,,,,,,,,,,,f,20,humengdan,2022_Jan_11_1533,emotion,2021.1.4,59.983036779759594,
418,partial,0,0.2,-200,0.8,red,-50,0.5,-200,0.5,red,blue,red,red,blue,72,180,77,355,5,175,"[-6.7, 1.9]","[6, 0]","[-9.3, -1.9]","[10, 0]",-200,-200,0,-50,0,34,34,19,,,,,,,,,,,,,,,,,0.01643773983232677,0.5164377398323268,476.28396569984034,None,476.28396569984034,None,left,12.602217900101095,476.28396569984034,None,476.28396569984034,None,476.28396569984034,None,476.28396569984034,None,476.28396569984034,None,488.92340139998123,None,488.92340139998123,None,0.006175780203193426,0.5061757802031934,488.92340139998123,None,488.92340139998123,None,488.92340139998123,None,488.92340139998123,None,488.92340139998123,None,488.92340139998123,None,491.68813159991987,None,491.68813159991987,None,0.0077005799394100904,0.5077005799394101,491.68813159991987,None,491.68813159991987,None,491.68813159991987,None,491.68813159991987,None,491.68813159991987,None,491.68813159991987,None,-8.600000000000001,3.484,497.2121378998272,None,250,,,,,,,,,,,,,,,,,,,f,20,humengdan,2022_Jan_11_1533,emotion,2021.1.4,59.983036779759594,
165,partial,50,0.5,0,0.5,blue,200,0.5,0,0.5,red,red,blue,red,blue,180,180,185,355,5,175,"[-10, 0]","[6, 0]","[-6, 0]","[10, 0]",50,0,0,200,0,35,35,81,,,,,,,,,,,,,,,,,0.002833759877830744,0.5028337598778307,498.24092189990915,None,498.24092189990915,None,right,2.523901999928057,498.24092189990915,None,498.24092189990915,None,498.24092189990915,None,498.24092189990915,None,498.24092189990915,None,500.8050024998374,None,500.8050024998374,None,0.006232780171558261,0.5062327801715583,500.8050024998374,None,500.8050024998374,None,500.8050024998374,None,500.8050024998374,None,500.8050024998374,None,500.8050024998374,None,503.4029441999737,None,503.4029441999737,None,0.007116480031982064,0.5071164800319821,503.4029441999737,None,503.4029441999737,None,503.4029441999737,None,503.4029441999737,None,503.4029441999737,None,503.4029441999737,None,-7.600000000000001,2.434,507.8766379998997,None,250,,,,,,,,,,,,,,,,,,,f,20,humengdan,2022_Jan_11_1533,emotion,2021.1.4,59.983036779759594,
89,partial,0,0.8,-50,0.2,blue,0,0.8,-200,0.2,blue,red,blue,red,blue,72,72,77,355,77,355,"[-9.3, -1.9]","[6.7, -1.9]","[-6.7, 1.9]","[9.3, 1.9]",0,0,-50,-200,0,36,36,48,,,,,,,,,,,,,,,,,0.007821439765393734,0.5078214397653937,508.92032919987105,None,508.92032919987105,None,left,1.5859459000639617,508.92032919987105,None,508.92032919987105,None,508.92032919987105,None,508.92032919987105,None,508.92032919987105,None,510.53605439979583,None,510.53605439979583,None,0.005397379864007235,0.5053973798640072,510.53605439979583,None,510.53605439979583,None,510.53605439979583,None,510.53605439979583,None,510.53605439979583,None,510.53605439979583,None,513.5326477999333,None,513.5326477999333,None,0.007930080173537135,0.5079300801735371,513.5326477999333,None,513.5326477999333,None,513.5326477999333,None,513.5326477999333,None,513.5326477999333,None,513.5326477999333,None,0.0,1.434,517.0083506999072,None,250,,,,,,,,,,,,,,,,,,,f,20,humengdan,2022_Jan_11_1533,emotion,2021.1.4,59.983036779759594,
64,partial,50,0.5,0,0.5,blue,200,0.5,50,0.5,blue,red,blue,red,blue,180,180,185,355,185,355,"[-10, 0]","[6, 0]","[-6, 0]","[10, 0]",50,200,0,50,0,37,37,82,,,,,,,,,,,,,,,,,0.00460966001264751,0.5046096600126475,518.0396187999286,None,518.0396187999286,None,right,1.3250227000098675,518.0396187999286,None,518.0396187999286,None,518.0396187999286,None,518.0396187999286,None,518.0396187999286,None,519.4012672998942,None,519.4012672998942,None,0.006534080021083355,0.5065340800210834,519.4012672998942,None,519.4012672998942,None,519.4012672998942,None,519.4012672998942,None,519.4012672998942,None,519.4012672998942,None,522.1643038999755,None,522.1643038999755,None,0.007621880155056715,0.5076218801550567,522.1643038999755,None,522.1643038999755,None,522.1643038999755,None,522.1643038999755,None,522.1643038999755,None,522.1643038999755,None,22.700000000000003,1.818,526.0232280998025,None,450,,,,,,,,,,,,,,,,,,,f,20,humengdan,2022_Jan_11_1533,emotion,2021.1.4,59.983036779759594,
169,partial,50,0.8,0,0.2,blue,200,0.2,0,0.8,red,red,blue,blue,red,72,72,77,355,77,355,"[-9.3, -1.9]","[9.3, 1.9]","[-6.7, 1.9]","[6.7, -1.9]",50,0,0,200,0,38,38,69,,,,,,,,,,,,,,,,,0.005973060382530093,0.5059730603825301,527.0590781997889,None,527.0590781997889,None,right,4.33053099992685,527.0590781997889,None,527.0590781997889,None,527.0590781997889,None,527.0590781997889,None,527.0590781997889,None,531.415771599859,None,531.415771599859,None,0.005675579886883497,0.5056755798868835,531.415771599859,None,531.415771599859,None,531.415771599859,None,531.415771599859,None,531.415771599859,None,531.415771599859,None,534.1455699999351,None,534.1455699999351,None,0.007768379990011454,0.5077683799900115,534.1455699999351,None,534.1455699999351,None,534.1455699999351,None,534.1455699999351,None,534.1455699999351,None,534.1455699999351,None,0.0,2.884,539.0707204998471,None,450,,,,,,,,,,,,,,,,,,,f,20,humengdan,2022_Jan_11_1533,emotion,2021.1.4,59.983036779759594,
318,partial,0,0.5,-50,0.5,red,-50,0.8,-200,0.2,blue,red,blue,red,blue,180,72,5,175,77,355,"[-10, 0]","[6.7, -1.9]","[-6, 0]","[9.3, 1.9]",-50,-50,0,-200,0,39,39,44,,,,,,,,,,,,,,,,,0.0068289602641016245,0.5068289602641016,540.0951470998116,None,540.0951470998116,None,left,2.0673563999589533,540.0951470998116,None,540.0951470998116,None,540.0951470998116,None,540.0951470998116,None,540.0951470998116,None,542.1957462998107,None,542.1957462998107,None,0.00649038003757596,0.506490380037576,542.1957462998107,None,542.1957462998107,None,542.1957462998107,None,542.1957462998107,None,542.1957462998107,None,542.1957462998107,None,545.1462516000029,None,545.1462516000029,None,0.0061100798193365335,0.5061100798193365,545.1462516000029,None,545.1462516000029,None,545.1462516000029,None,545.1462516000029,None,545.1462516000029,None,545.1462516000029,None,-3.6000000000000014,1.385,548.568866699934,None,400,,,,,,,,,,,,,,,,,,,f,20,humengdan,2022_Jan_11_1533,emotion,2021.1.4,59.983036779759594,
108,partial,0,0.8,-50,0.2,blue,-50,0.8,-200,0.2,blue,red,blue,red,blue,72,72,77,355,77,355,"[-9.3, -1.9]","[6.7, -1.9]","[-6.7, 1.9]","[9.3, 1.9]",0,-50,-50,-200,0,40,40,50,,,,,,,,,,,,,,,,,0.01230563991703093,0.5123056399170309,549.6063405999448,None,549.6063405999448,None,left,1.4014049000106752,549.6063405999448,None,549.6063405999448,None,549.6063405999448,None,549.6063405999448,None,549.6063405999448,None,551.044615799794,None,551.044615799794,None,0.005719679873436689,0.5057196798734367,551.044615799794,None,551.044615799794,None,551.044615799794,None,551.044615799794,None,551.044615799794,None,551.044615799794,None,553.6430894997902,None,553.6430894997902,None,0.007676079869270325,0.5076760798692703,553.6430894997902,None,553.6430894997902,None,553.6430894997902,None,553.6430894997902,None,553.6430894997902,None,553.6430894997902,None,1.3999999999999986,1.368,557.0505020997953,None,400,,,,,,,,,,,,,,,,,,,f,20,humengdan,2022_Jan_11_1533,emotion,2021.1.4,59.983036779759594,
166,partial,50,0.2,0,0.8,blue,200,0.2,0,0.8,red,blue,red,blue,red,72,72,5,67,77,355,"[-6.7, 1.9]","[9.3, 1.9]","[-9.3, -1.9]","[6.7, -1.9]",50,0,0,200,0,41,41,57,,,,,,,,,,,,,,,,,0.0015891599468886852,0.5015891599468887,558.0873183999211,None,558.0873183999211,None,right,3.256397800054401,558.0873183999211,None,558.0873183999211,None,558.0873183999211,None,558.0873183999211,None,558.0873183999211,None,561.3750711998437,None,561.3750711998437,None,0.0065046800300478935,0.5065046800300479,561.3750711998437,None,561.3750711998437,None,561.3750711998437,None,561.3750711998437,None,561.3750711998437,None,561.3750711998437,None,563.9395901998505,None,563.9395901998505,None,0.007548480294644833,0.5075484802946448,563.9395901998505,None,563.9395901998505,None,563.9395901998505,None,563.9395901998505,None,563.9395901998505,None,563.9395901998505,None,0.0,2.001,567.9815049997997,None,400,,,,,,,,,,,,,,,,,,,f,20,humengdan,2022_Jan_11_1533,emotion,2021.1.4,59.983036779759594,
88,partial,0,0.8,-50,0.2,blue,0,0.2,-200,0.8,blue,red,blue,blue,red,72,72,77,355,5,67,"[-9.3, -1.9]","[9.3, 1.9]","[-6.7, 1.9]","[6.7, -1.9]",0,0,-50,-200,0,42,42,12,,,,,,,,,,,,,,,,,0.0020252601243555546,0.5020252601243556,569.0133025997784,None,569.0133025997784,None,left,1.7802873000036925,569.0133025997784,None,569.0133025997784,None,569.0133025997784,None,569.0133025997784,None,569.0133025997784,None,570.8237579998095,None,570.8237579998095,None,0.00670378003269434,0.5067037800326943,570.8237579998095,None,570.8237579998095,None,570.8237579998095,None,570.8237579998095,None,570.8237579998095,None,570.8237579998095,None,573.6216699997894,None,573.6216699997894,None,0.007907480001449585,0.5079074800014496,573.6216699997894,None,573.6216699997894,None,573.6216699997894,None,573.6216699997894,None,573.6216699997894,None,573.6216699997894,None,0.29999999999999716,3.935,579.5960851998534,None,400,,,,,,,,,,,,,,,,,,,f,20,humengdan,2022_Jan_11_1533,emotion,2021.1.4,59.983036779759594,
387,partial,50,0.8,0,0.2,red,200,0.5,0,0.5,red,red,blue,red,blue,72,180,5,67,5,175,"[-9.3, -1.9]","[6, 0]","[-6.7, 1.9]","[10, 0]",0,0,50,200,0,43,43,87,,,,,,,,,,,,,,,,,0.005438280059024692,0.5054382800590247,580.6045265998691,None,580.6045265998691,None,right,1.4678194001317024,580.6045265998691,None,580.6045265998691,None,580.6045265998691,None,580.6045265998691,None,580.6045265998691,None,582.1055630999617,None,582.1055630999617,None,0.005793179851025343,0.5057931798510253,582.1055630999617,None,582.1055630999617,None,582.1055630999617,None,582.1055630999617,None,582.1055630999617,None,582.1055630999617,None,584.836427899776,None,584.836427899776,None,0.0078301802277565,0.5078301802277565,584.836427899776,None,584.836427899776,None,584.836427899776,None,584.836427899776,None,584.836427899776,None,584.836427899776,None,-4.899999999999999,2.034,588.9109272998758,None,400,,,,,,,,,,,,,,,,,,,f,20,humengdan,2022_Jan_11_1533,emotion,2021.1.4,59.983036779759594,
175,partial,50,0.2,0,0.8,blue,200,0.5,50,0.5,red,blue,red,red,blue,72,180,5,67,5,175,"[-6.7, 1.9]","[6, 0]","[-9.3, -1.9]","[10, 0]",50,50,0,200,0,44,44,73,,,,,,,,,,,,,,,,,0.014324439689517021,0.514324439689517,589.9487794998568,None,589.9487794998568,None,right,1.1782230001408607,589.9487794998568,None,589.9487794998568,None,589.9487794998568,None,589.9487794998568,None,589.9487794998568,None,591.1625011998694,None,591.1625011998694,None,0.014317259890958667,0.5143172598909587,591.1625011998694,None,591.1625011998694,None,591.1625011998694,None,591.1625011998694,None,591.1625011998694,None,591.1625011998694,None,593.9503347999416,None,593.9503347999416,None,0.008033780148252845,0.5080337801482528,593.9503347999416,None,593.9503347999416,None,593.9503347999416,None,593.9503347999416,None,593.9503347999416,None,593.9503347999416,None,-1.2000000000000028,2.036,598.0256743999198,None,450,,,,,,,,,,,,,,,,,,,f,20,humengdan,2022_Jan_11_1533,emotion,2021.1.4,59.983036779759594,
293,partial,200,0.2,0,0.8,red,200,0.2,50,0.8,blue,blue,red,blue,red,72,72,77,355,5,67,"[-6.7, 1.9]","[9.3, 1.9]","[-9.3, -1.9]","[6.7, -1.9]",0,200,200,50,0,45,45,56,,,,,,,,,,,,,,,,,0.0063469798769801855,0.5063469798769802,599.0346791998018,None,599.0346791998018,None,right,1.167525100056082,599.0346791998018,None,599.0346791998018,None,599.0346791998018,None,599.0346791998018,None,599.0346791998018,None,600.2334312999155,None,600.2334312999155,None,0.006472679786384106,0.5064726797863841,600.2334312999155,None,600.2334312999155,None,600.2334312999155,None,600.2334312999155,None,600.2334312999155,None,600.2334312999155,None,602.9661883998197,None,602.9661883998197,None,0.007753379875794053,0.507753379875794,602.9661883998197,None,602.9661883998197,None,602.9661883998197,None,602.9661883998197,None,602.9661883998197,None,602.9661883998197,None,7.200000000000003,1.368,606.3741461997852,None,650,,,,,,,,,,,,,,,,,,,f,20,humengdan,2022_Jan_11_1533,emotion,2021.1.4,59.983036779759594,
191,partial,0,0.5,-50,0.5,blue,0,0.8,-200,0.2,red,red,blue,red,blue,180,72,185,355,5,67,"[-10, 0]","[6.7, -1.9]","[-6, 0]","[9.3, 1.9]",0,-200,-50,0,0,46,46,45,,,,,,,,,,,,,,,,,0.015955039765685797,0.5159550397656858,607.410267899977,None,607.410267899977,None,left,1.6473884000442922,607.410267899977,None,607.410267899977,None,607.410267899977,None,607.410267899977,None,607.410267899977,None,609.0914463999216,None,609.0914463999216,None,0.015167060075327754,0.5151670600753278,609.0914463999216,None,609.0914463999216,None,609.0914463999216,None,609.0914463999216,None,609.0914463999216,None,609.0914463999216,None,612.0681904999074,None,612.0681904999074,None,0.006448680069297552,0.5064486800692976,612.0681904999074,None,612.0681904999074,None,612.0681904999074,None,612.0681904999074,None,612.0681904999074,None,612.0681904999074,None,10.0,1.318,615.4220803999342,None,650,,,,,,,,,,,,,,,,,,,f,20,humengdan,2022_Jan_11_1533,emotion,2021.1.4,59.983036779759594,
75,partial,200,0.5,0,0.5,blue,200,0.8,50,0.2,blue,red,blue,red,blue,180,72,185,355,77,355,"[-10, 0]","[6.7, -1.9]","[-6, 0]","[9.3, 1.9]",200,200,0,50,0,47,47,98,,,,,,,,,,,,,,,,,0.001248959917575121,0.5012489599175751,616.4625192999374,None,616.4625192999374,None,right,1.4710056001786143,616.4625192999374,None,616.4625192999374,None,616.4625192999374,None,616.4625192999374,None,616.4625192999374,None,617.9641471998766,None,617.9641471998766,None,0.006534680258482695,0.5065346802584827,617.9641471998766,None,617.9641471998766,None,617.9641471998766,None,617.9641471998766,None,617.9641471998766,None,617.9641471998766,None,620.4946124998387,None,620.4946124998387,None,0.007766680093482137,0.5077666800934821,620.4946124998387,None,620.4946124998387,None,620.4946124998387,None,620.4946124998387,None,620.4946124998387,None,620.4946124998387,None,12.799999999999997,1.219,623.7541001997888,None,850,,,,,,,,,,,,,,,,,,,f,20,humengdan,2022_Jan_11_1533,emotion,2021.1.4,59.983036779759594,
392,partial,50,0.2,0,0.8,red,200,0.2,50,0.8,red,blue,red,blue,red,72,72,77,355,77,355,"[-6.7, 1.9]","[9.3, 1.9]","[-9.3, -1.9]","[6.7, -1.9]",0,50,50,200,0,48,48,55,,,,,,,,,,,,,,,,,0.003761239815503359,0.5037612398155034,624.8071538999211,None,624.8071538999211,None,right,1.296444300096482,624.8071538999211,None,624.8071538999211,None,624.8071538999211,None,624.8071538999211,None,624.8071538999211,None,626.1312737998087,None,626.1312737998087,None,0.006304980022832751,0.5063049800228328,626.1312737998087,None,626.1312737998087,None,626.1312737998087,None,626.1312737998087,None,626.1312737998087,None,626.1312737998087,None,628.7287959998939,None,628.7287959998939,None,0.007476479979231954,0.507476479979232,628.7287959998939,None,628.7287959998939,None,628.7287959998939,None,628.7287959998939,None,628.7287959998939,None,628.7287959998939,None,4.899999999999999,1.393,632.1538037999999,None,900,,,,,,,,,,,,,,,,,,,f,20,humengdan,2022_Jan_11_1533,emotion,2021.1.4,59.983036779759594,
273,partial,50,0.5,0,0.5,red,200,0.5,0,0.5,blue,red,blue,red,blue,180,180,5,175,185,355,"[-10, 0]","[6, 0]","[-6, 0]","[10, 0]",0,200,50,0,0,49,49,78,,,,,,,,,,,,,,,,,0.0032456598710268736,0.5032456598710269,633.1829995999578,None,633.1829995999578,None,right,1.5314732999540865,633.1829995999578,None,633.1829995999578,None,633.1829995999578,None,633.1829995999578,None,633.1829995999578,None,634.7436288997997,None,634.7436288997997,None,0.006640579784289002,0.506640579784289,634.7436288997997,None,634.7436288997997,None,634.7436288997997,None,634.7436288997997,None,634.7436288997997,None,634.7436288997997,None,637.3954884998966,None,637.3954884998966,None,0.007524080108851194,0.5075240801088512,637.3954884998966,None,637.3954884998966,None,637.3954884998966,None,637.3954884998966,None,637.3954884998966,None,637.3954884998966,None,16.900000000000006,1.835,641.2674315997865,None,1100,,,,,,,,,,,,,,,,,,,f,20,humengdan,2022_Jan_11_1533,emotion,2021.1.4,59.983036779759594,
72,partial,50,0.8,0,0.2,blue,200,0.8,50,0.2,blue,red,blue,red,blue,72,72,77,355,77,355,"[-9.3, -1.9]","[6.7, -1.9]","[-6.7, 1.9]","[9.3, 1.9]",50,200,0,50,0,50,50,106,,,,,,,,,,,,,,,,,0.013749439734965563,0.5137494397349656,642.303247799864,None,642.303247799864,None,right,1.9194689998403192,642.303247799864,None,642.303247799864,None,642.303247799864,None,642.303247799864,None,642.303247799864,None,644.2595357999671,None,644.2595357999671,None,0.005509779788553715,0.5055097797885537,644.2595357999671,None,644.2595357999671,None,644.2595357999671,None,644.2595357999671,None,644.2595357999671,None,644.2595357999671,None,647.1735528998543,None,647.1735528998543,None,0.008127380162477493,0.5081273801624775,647.1735528998543,None,647.1735528998543,None,647.1735528998543,None,647.1735528998543,None,647.1735528998543,None,647.1735528998543,None,19.400000000000006,1.251,650.4655200999696,None,1300,,,,,,,,,,,,,,,,,,,f,20,humengdan,2022_Jan_11_1533,emotion,2021.1.4,59.983036779759594,
278,partial,50,0.8,0,0.2,red,200,0.8,0,0.2,blue,red,blue,red,blue,72,72,5,67,77,355,"[-9.3, -1.9]","[6.7, -1.9]","[-6.7, 1.9]","[9.3, 1.9]",0,200,50,0,0,51,51,102,,,,,,,,,,,,,,,,,0.000785960117354989,0.500785960117355,651.5047791998368,None,651.5047791998368,None,right,1.30953190010041,651.5047791998368,None,651.5047791998368,None,651.5047791998368,None,651.5047791998368,None,651.5047791998368,None,652.8423744000029,None,652.8423744000029,None,0.006022880086675286,0.5060228800866753,652.8423744000029,None,652.8423744000029,None,652.8423744000029,None,652.8423744000029,None,652.8423744000029,None,652.8423744000029,None,655.6875521999318,None,655.6875521999318,None,0.008660180028527975,0.508660180028528,655.6875521999318,None,655.6875521999318,None,655.6875521999318,None,655.6875521999318,None,655.6875521999318,None,655.6875521999318,None,20.599999999999994,1.272,658.9972651998978,None,1500,,,,,,,,,,,,,,,,,,,f,20,humengdan,2022_Jan_11_1533,emotion,2021.1.4,59.983036779759594,
69,partial,50,0.2,0,0.8,blue,200,0.8,50,0.2,blue,blue,red,red,blue,72,72,5,67,77,355,"[-6.7, 1.9]","[6.7, -1.9]","[-9.3, -1.9]","[9.3, 1.9]",50,200,0,50,0,52,52,94,,,,,,,,,,,,,,,,,0.00289986003190279,0.5028998600319028,660.0300386999734,None,660.0300386999734,None,right,1.1573709000367671,660.0300386999734,None,660.0300386999734,None,660.0300386999734,None,660.0300386999734,None,660.0300386999734,None,661.2221668998245,None,661.2221668998245,None,0.006633479846641421,0.5066334798466414,661.2221668998245,None,661.2221668998245,None,661.2221668998245,None,661.2221668998245,None,661.2221668998245,None,661.2221668998245,None,663.9548287999351,None,663.9548287999351,None,0.0077547801192849874,0.507754780119285,663.9548287999351,None,663.9548287999351,None,663.9548287999351,None,663.9548287999351,None,663.9548287999351,None,663.9548287999351,None,21.5,1.7,667.6955217998475,None,1700,,,,,,,,,,,,,,,,,,,f,20,humengdan,2022_Jan_11_1533,emotion,2021.1.4,59.983036779759594,
204,partial,0,0.2,-200,0.8,blue,-50,0.8,-200,0.2,red,blue,red,red,blue,72,72,5,67,5,67,"[-6.7, 1.9]","[6.7, -1.9]","[-9.3, -1.9]","[9.3, 1.9]",0,-200,-200,-50,0,53,53,37,,,,,,,,,,,,,,,,,0.004837979795411229,0.5048379797954112,668.7055499998387,None,668.7055499998387,None,right,3.266344100004062,668.7055499998387,None,668.7055499998387,None,668.7055499998387,None,668.7055499998387,None,668.7055499998387,None,672.0047535998747,None,672.0047535998747,None,0.00622477987781167,0.5062247798778117,672.0047535998747,None,672.0047535998747,None,672.0047535998747,None,672.0047535998747,None,672.0047535998747,None,672.0047535998747,None,674.9178644998465,None,674.9178644998465,None,0.007997980108484626,0.5079979801084846,674.9178644998465,None,674.9178644998465,None,674.9178644998465,None,674.9178644998465,None,674.9178644998465,None,674.9178644998465,None,-2.8999999999999986,2.15,679.10994939995,None,1500,,,,,,,,,,,,,,,,,,,f,20,humengdan,2022_Jan_11_1533,emotion,2021.1.4,59.983036779759594,
409,partial,0,0.2,-50,0.8,red,0,0.2,-200,0.8,red,blue,red,blue,red,72,72,77,355,77,355,"[-6.7, 1.9]","[9.3, 1.9]","[-9.3, -1.9]","[6.7, -1.9]",-50,-200,0,0,0,54,54,3,,,,,,,,,,,,,,,,,0.0011604598257690668,0.5011604598257691,680.1518752998672,None,680.1518752998672,None,left,1.3436579999979585,680.1518752998672,None,680.1518752998672,None,680.1518752998672,None,680.1518752998672,None,680.1518752998672,None,681.5364137999713,None,681.5364137999713,None,0.006476379930973053,0.506476379930973,681.5364137999713,None,681.5364137999713,None,681.5364137999713,None,681.5364137999713,None,681.5364137999713,None,681.5364137999713,None,684.2328284999821,None,684.2328284999821,None,0.007745279930531979,0.507745279930532,684.2328284999821,None,684.2328284999821,None,684.2328284999821,None,684.2328284999821,None,684.2328284999821,None,684.2328284999821,None,-3.3999999999999986,1.868,688.1412620998453,None,1450,,,,,,,,,,,,,,,,,,,f,20,humengdan,2022_Jan_11_1533,emotion,2021.1.4,59.983036779759594,
178,partial,50,0.8,0,0.2,blue,200,0.5,50,0.5,red,red,blue,red,blue,72,180,77,355,5,175,"[-9.3, -1.9]","[6, 0]","[-6.7, 1.9]","[10, 0]",50,50,0,200,0,55,55,85,,,,,,,,,,,,,,,,,0.008137559983879328,0.5081375599838793,689.166117799934,None,689.166117799934,None,right,1.1542360000312328,689.166117799934,None,689.166117799934,None,689.166117799934,None,689.166117799934,None,689.166117799934,None,690.3503083998803,None,690.3503083998803,None,0.005776080070063472,0.5057760800700635,690.3503083998803,None,690.3503083998803,None,690.3503083998803,None,690.3503083998803,None,690.3503083998803,None,690.3503083998803,None,693.0648768998217,None,693.0648768998217,None,0.007942579919472337,0.5079425799194723,693.0648768998217,None,693.0648768998217,None,693.0648768998217,None,693.0648768998217,None,693.0648768998217,None,693.0648768998217,None,4.200000000000003,1.418,696.5231297998689,None,1500,,,,,,,,,,,,,,,,,,,f,20,humengdan,2022_Jan_11_1533,emotion,2021.1.4,59.983036779759594,
410,partial,0,0.2,-50,0.8,red,0,0.8,-200,0.2,red,blue,red,red,blue,72,72,77,355,5,67,"[-6.7, 1.9]","[6.7, -1.9]","[-9.3, -1.9]","[9.3, 1.9]",-50,-200,0,0,0,56,56,39,,,,,,,,,,,,,,,,,0.0032162799034267664,0.5032162799034268,697.5355363998096,None,697.5355363998096,None,left,1.3213255000300705,697.5355363998096,None,697.5355363998096,None,697.5355363998096,None,697.5355363998096,None,697.5355363998096,None,698.8810212998651,None,698.8810212998651,None,0.007406479911878705,0.5074064799118787,698.8810212998651,None,698.8810212998651,None,698.8810212998651,None,698.8810212998651,None,698.8810212998651,None,698.8810212998651,None,701.647986699827,None,701.647986699827,None,0.007714380044490099,0.5077143800444901,701.647986699827,None,701.647986699827,None,701.647986699827,None,701.647986699827,None,701.647986699827,None,701.647986699827,None,0.0,7.917,711.603507499909,None,1450,,,,,,,,,,,,,,,,,,,f,20,humengdan,2022_Jan_11_1533,emotion,2021.1.4,59.983036779759594,
170,partial,50,0.8,0,0.2,blue,200,0.8,0,0.2,red,red,blue,red,blue,72,72,77,355,5,67,"[-9.3, -1.9]","[6.7, -1.9]","[-6.7, 1.9]","[9.3, 1.9]",50,0,0,200,0,57,57,105,,,,,,,,,,,,,,,,,0.00581586011685431,0.5058158601168543,712.6391017998103,None,712.6391017998103,None,right,1.4060344998724759,712.6391017998103,None,712.6391017998103,None,712.6391017998103,None,712.6391017998103,None,712.6391017998103,None,714.079892499838,None,714.079892499838,None,0.005934679880738258,0.5059346798807383,714.079892499838,None,714.079892499838,None,714.079892499838,None,714.079892499838,None,714.079892499838,None,714.079892499838,None,716.9428679998964,None,716.9428679998964,None,0.008569779805839062,0.5085697798058391,716.9428679998964,None,716.9428679998964,None,716.9428679998964,None,716.9428679998964,None,716.9428679998964,None,716.9428679998964,None,0.0,3.351,722.3347295999993,None,1450,,,,,,,,,,,,,,,,,,,f,20,humengdan,2022_Jan_11_1533,emotion,2021.1.4,59.983036779759594,
416,partial,0,0.5,-200,0.5,red,-50,0.2,-200,0.8,red,red,blue,blue,red,180,72,5,175,77,355,"[-10, 0]","[9.3, 1.9]","[-6, 0]","[6.7, -1.9]",-200,-200,0,-50,0,58,58,7,,,,,,,,,,,,,,,,,0.011377260321751237,0.5113772603217512,723.3551429999061,None,723.3551429999061,None,left,2.237667700042948,723.3551429999061,None,723.3551429999061,None,723.3551429999061,None,723.3551429999061,None,723.3551429999061,None,725.6370319998823,None,725.6370319998823,None,0.01405356009490788,0.5140535600949079,725.6370319998823,None,725.6370319998823,None,725.6370319998823,None,725.6370319998823,None,725.6370319998823,None,725.6370319998823,None,728.5920126999263,None,728.5920126999263,None,0.007326780119910836,0.5073267801199108,728.5920126999263,None,728.5920126999263,None,728.5920126999263,None,728.5920126999263,None,728.5920126999263,None,728.5920126999263,None,-4.700000000000003,1.418,732.0495036998764,None,1250,,,,,,,,,,,,,,,,,,,f,20,humengdan,2022_Jan_11_1533,emotion,2021.1.4,59.983036779759594,
412,partial,0,0.8,-50,0.2,red,0,0.2,-200,0.8,red,red,blue,blue,red,72,72,5,67,77,355,"[-9.3, -1.9]","[9.3, 1.9]","[-6.7, 1.9]","[6.7, -1.9]",-50,-200,0,0,0,59,59,15,,,,,,,,,,,,,,,,,0.0023368599358946085,0.5023368599358946,733.0810635997914,None,733.0810635997914,None,left,1.6902951998636127,733.0810635997914,None,733.0810635997914,None,733.0810635997914,None,733.0810635997914,None,733.0810635997914,None,734.8091393997893,None,734.8091393997893,None,0.005501579958945513,0.5055015799589455,734.8091393997893,None,734.8091393997893,None,734.8091393997893,None,734.8091393997893,None,734.8091393997893,None,734.8091393997893,None,737.489503499819,None,737.489503499819,None,0.007866480154916644,0.5078664801549166,737.489503499819,None,737.489503499819,None,737.489503499819,None,737.489503499819,None,737.489503499819,None,737.489503499819,None,-9.399999999999999,1.369,740.8977551998105,None,1200,,,,,,,,,,,,,,,,,,,f,20,humengdan,2022_Jan_11_1533,emotion,2021.1.4,59.983036779759594,
312,partial,0,0.2,-200,0.8,red,-50,0.8,-200,0.2,blue,blue,red,red,blue,72,72,77,355,77,355,"[-6.7, 1.9]","[6.7, -1.9]","[-9.3, -1.9]","[9.3, 1.9]",-200,-50,0,-200,0,60,60,40,,,,,,,,,,,,,,,,,0.0038889599964022636,0.5038889599964023,741.9288083999418,None,741.9288083999418,None,right,2.996692599961534,741.9288083999418,None,741.9288083999418,None,741.9288083999418,None,741.9288083999418,None,741.9288083999418,None,744.9554080998059,None,744.9554080998059,None,0.006778880255296826,0.5067788802552968,744.9554080998059,None,744.9554080998059,None,744.9554080998059,None,744.9554080998059,None,744.9554080998059,None,744.9554080998059,None,747.853517399868,None,747.853517399868,None,0.007826079847291112,0.5078260798472911,747.853517399868,None,747.853517399868,None,747.853517399868,None,747.853517399868,None,747.853517399868,None,747.853517399868,None,5.5,1.318,751.2124017998576,None,1150,,,,,,,,,,,,,,,,,,,f,20,humengdan,2022_Jan_11_1533,emotion,2021.1.4,59.983036779759594,
431,partial,0,0.8,-50,0.2,red,-50,0.2,-200,0.8,red,red,blue,blue,red,72,72,5,67,77,355,"[-9.3, -1.9]","[9.3, 1.9]","[-6.7, 1.9]","[6.7, -1.9]",-50,-200,0,-50,0,61,61,17,,,,,,,,,,,,,,,,,0.01285243988968432,0.5128524398896843,752.249664099887,None,752.249664099887,None,left,1.9954034998081625,752.249664099887,None,752.249664099887,None,752.249664099887,None,752.249664099887,None,752.249664099887,None,754.271650099894,None,754.271650099894,None,0.005748579977080226,0.5057485799770802,754.271650099894,None,754.271650099894,None,754.271650099894,None,754.271650099894,None,754.271650099894,None,754.271650099894,None,756.8182869998273,None,756.8182869998273,None,0.007557680131867528,0.5075576801318675,756.8182869998273,None,756.8182869998273,None,756.8182869998273,None,756.8182869998273,None,756.8182869998273,None,756.8182869998273,None,-2.8999999999999986,1.317,760.1773025998846,None,1100,,,,,,,,,,,,,,,,,,,f,20,humengdan,2022_Jan_11_1533,emotion,2021.1.4,59.983036779759594,
281,partial,50,0.5,0,0.5,red,200,0.2,50,0.8,blue,red,blue,blue,red,180,72,5,175,5,67,"[-10, 0]","[9.3, 1.9]","[-6, 0]","[6.7, -1.9]",0,200,50,50,0,62,62,64,,,,,,,,,,,,,,,,,0.0035088600125163794,0.5035088600125164,761.2142688999884,None,761.2142688999884,None,right,1.2525897999294102,761.2142688999884,None,761.2142688999884,None,761.2142688999884,None,761.2142688999884,None,761.2142688999884,None,762.5032137997914,None,762.5032137997914,None,0.0060167801566421986,0.5060167801566422,762.5032137997914,None,762.5032137997914,None,762.5032137997914,None,762.5032137997914,None,762.5032137997914,None,762.5032137997914,None,765.3007635998074,None,765.3007635998074,None,0.007988479919731617,0.5079884799197316,765.3007635998074,None,765.3007635998074,None,765.3007635998074,None,765.3007635998074,None,765.3007635998074,None,765.3007635998074,None,27.0,3.568,770.9085112998728,None,1300,,,,,,,,,,,,,,,,,,,f,20,humengdan,2022_Jan_11_1533,emotion,2021.1.4,59.983036779759594,
210,partial,0,0.5,-50,0.5,blue,-50,0.8,-200,0.2,red,red,blue,red,blue,180,72,185,355,5,67,"[-10, 0]","[6.7, -1.9]","[-6, 0]","[9.3, 1.9]",0,-200,-50,-50,0,63,63,47,,,,,,,,,,,,,,,,,0.006169359898194671,0.5061693598981947,771.934718699893,None,771.934718699893,None,left,1.397821000078693,771.934718699893,None,771.934718699893,None,771.934718699893,None,771.934718699893,None,771.934718699893,None,773.3682660998311,None,773.3682660998311,None,0.006317979888990521,0.5063179798889905,773.3682660998311,None,773.3682660998311,None,773.3682660998311,None,773.3682660998311,None,773.3682660998311,None,773.3682660998311,None,775.9809078997932,None,775.9809078997932,None,0.007699280045926571,0.5076992800459266,775.9809078997932,None,775.9809078997932,None,775.9809078997932,None,775.9809078997932,None,775.9809078997932,None,775.9809078997932,None,15.5,1.135,779.1569475999568,None,1300,,,,,,,,,,,,,,,,,,,f,20,humengdan,2022_Jan_11_1533,emotion,2021.1.4,59.983036779759594,
85,partial,0,0.2,-50,0.8,blue,0,0.2,-200,0.8,blue,blue,red,blue,red,72,72,5,67,5,67,"[-6.7, 1.9]","[9.3, 1.9]","[-9.3, -1.9]","[6.7, -1.9]",0,0,-50,-200,0,64,64,0,,,,,,,,,,,,,,,,,0.006224160082638264,0.5062241600826383,780.1842058999464,None,780.1842058999464,None,left,1.3097676998004317,780.1842058999464,None,780.1842058999464,None,780.1842058999464,None,780.1842058999464,None,780.1842058999464,None,781.5331274999771,None,781.5331274999771,None,0.005523480009287596,0.5055234800092876,781.5331274999771,None,781.5331274999771,None,781.5331274999771,None,781.5331274999771,None,781.5331274999771,None,781.5331274999771,None,784.0962340999395,None,784.0962340999395,None,0.007923580007627606,0.5079235800076276,784.0962340999395,None,784.0962340999395,None,784.0962340999395,None,784.0962340999395,None,784.0962340999395,None,784.0962340999395,None,11.299999999999997,2.202,788.3384174997918,None,1300,,,,,,,,,,,,,,,,,,,f,20,humengdan,2022_Jan_11_1533,emotion,2021.1.4,59.983036779759594,
68,partial,50,0.2,0,0.8,blue,200,0.2,50,0.8,blue,blue,red,blue,red,72,72,5,67,5,67,"[-6.7, 1.9]","[9.3, 1.9]","[-9.3, -1.9]","[6.7, -1.9]",50,200,0,50,0,65,65,58,,,,,,,,,,,,,,,,,0.006680259946733713,0.5066802599467337,789.365042499965,None,789.365042499965,None,right,1.0727307999040931,789.365042499965,None,789.365042499965,None,789.365042499965,None,789.365042499965,None,789.365042499965,None,790.4652486999985,None,790.4652486999985,None,0.005862379912286997,0.505862379912287,790.4652486999985,None,790.4652486999985,None,790.4652486999985,None,790.4652486999985,None,790.4652486999985,None,790.4652486999985,None,793.1611370998435,None,793.1611370998435,None,0.007687180070206523,0.5076871800702065,793.1611370998435,None,793.1611370998435,None,793.1611370998435,None,793.1611370998435,None,793.1611370998435,None,793.1611370998435,None,22.400000000000006,1.585,796.7867862998974,None,1500,,,,,,,,,,,,,,,,,,,f,20,humengdan,2022_Jan_11_1533,emotion,2021.1.4,59.983036779759594,
277,partial,50,0.8,0,0.2,red,200,0.2,0,0.8,blue,red,blue,blue,red,72,72,5,67,5,67,"[-9.3, -1.9]","[9.3, 1.9]","[-6.7, 1.9]","[6.7, -1.9]",0,200,50,0,0,66,66,66,,,,,,,,,,,,,,,,,0.00023846025578677654,0.5002384602557868,797.8213747998234,None,797.8213747998234,None,right,2.1170261001680046,797.8213747998234,None,797.8213747998234,None,797.8213747998234,None,797.8213747998234,None,797.8213747998234,None,800.0270430999808,None,800.0270430999808,None,0.008218619739636779,0.5082186197396368,800.0270430999808,None,800.0270430999808,None,800.0270430999808,None,800.0270430999808,None,800.0270430999808,None,800.0270430999808,None,802.8092422999907,None,802.8092422999907,None,0.007833780255168676,0.5078337802551687,802.8092422999907,None,802.8092422999907,None,802.8092422999907,None,802.8092422999907,None,802.8092422999907,None,802.8092422999907,None,29.200000000000003,1.402,806.2516053998843,None,1700,,,,,,,,,,,,,,,,,,,f,20,humengdan,2022_Jan_11_1533,emotion,2021.1.4,59.983036779759594,
299,partial,0,0.5,-50,0.5,red,0,0.8,-200,0.2,blue,red,blue,red,blue,180,72,5,175,77,355,"[-10, 0]","[6.7, -1.9]","[-6, 0]","[9.3, 1.9]",-50,0,0,-200,0,67,67,42,,,,,,,,,,,,,,,,,0.008438860066235065,0.5084388600662351,807.2737606998999,None,807.2737606998999,None,left,1.389679300133139,807.2737606998999,None,807.2737606998999,None,807.2737606998999,None,807.2737606998999,None,807.2737606998999,None,808.6943450998515,None,808.6943450998515,None,0.0061988800298422575,0.5061988800298423,808.6943450998515,None,808.6943450998515,None,808.6943450998515,None,808.6943450998515,None,808.6943450998515,None,808.6943450998515,None,811.3254492999986,None,811.3254492999986,None,0.008003179682418704,0.5080031796824187,811.3254492999986,None,811.3254492999986,None,811.3254492999986,None,811.3254492999986,None,811.3254492999986,None,811.3254492999986,None,-2.3999999999999986,1.069,814.4334686999209,None,1650,,,,,,,,,,,,,,,,,,,f,20,humengdan,2022_Jan_11_1533,emotion,2021.1.4,59.983036779759594,
393,partial,50,0.2,0,0.8,red,200,0.8,50,0.2,red,blue,red,red,blue,72,72,77,355,5,67,"[-6.7, 1.9]","[6.7, -1.9]","[-9.3, -1.9]","[9.3, 1.9]",0,50,50,200,0,68,68,91,,,,,,,,,,,,,,,,,0.0019500602502375841,0.5019500602502376,815.4646023998503,None,815.4646023998503,None,right,1.142677300143987,815.4646023998503,None,815.4646023998503,None,815.4646023998503,None,815.4646023998503,None,815.4646023998503,None,816.6430664998479,None,816.6430664998479,None,0.00576557987369597,0.505765579873696,816.6430664998479,None,816.6430664998479,None,816.6430664998479,None,816.6430664998479,None,816.6430664998479,None,816.6430664998479,None,819.3404852999374,None,819.3404852999374,None,0.00752837979234755,0.5075283797923476,819.3404852999374,None,819.3404852999374,None,819.3404852999374,None,819.3404852999374,None,819.3404852999374,None,819.3404852999374,None,2.299999999999997,1.452,822.8316530999728,None,1700,,,,,,,,,,,,,,,,,,,f,20,humengdan,2022_Jan_11_1533,emotion,2021.1.4,59.983036779759594,
107,partial,0,0.8,-50,0.2,blue,-50,0.2,-200,0.8,blue,red,blue,blue,red,72,72,77,355,5,67,"[-9.3, -1.9]","[9.3, 1.9]","[-6.7, 1.9]","[6.7, -1.9]",0,-50,-50,-200,0,69,69,14,,,,,,,,,,,,,,,,,0.0018492599483579397,0.5018492599483579,823.8639345997944,None,823.8639345997944,None,left,1.339142199838534,823.8639345997944,None,823.8639345997944,None,823.8639345997944,None,823.8639345997944,None,823.8639345997944,None,825.2415692999493,None,825.2415692999493,None,0.006356780184432864,0.5063567801844329,825.2415692999493,None,825.2415692999493,None,825.2415692999493,None,825.2415692999493,None,825.2415692999493,None,825.2415692999493,None,828.154135499848,None,828.154135499848,None,0.007624379824846983,0.507624379824847,828.154135499848,None,828.154135499848,None,828.154135499848,None,828.154135499848,None,828.154135499848,None,828.154135499848,None,2.1000000000000014,2.233,832.4299233998172,None,1700,,,,,,,,,,,,,,,,,,,f,20,humengdan,2022_Jan_11_1533,emotion,2021.1.4,59.983036779759594,
396,partial,50,0.8,0,0.2,red,200,0.8,50,0.2,red,red,blue,red,blue,72,72,5,67,5,67,"[-9.3, -1.9]","[6.7, -1.9]","[-6.7, 1.9]","[9.3, 1.9]",0,50,50,200,0,70,70,103,,,,,,,,,,,,,,,,,0.004934159805998206,0.5049341598059982,833.4613753999583,None,833.4613753999583,None,right,1.5014787998516113,833.4613753999583,None,833.4613753999583,None,833.4613753999583,None,833.4613753999583,None,833.4613753999583,None,834.9865483997855,None,834.9865483997855,None,0.006999880075454712,0.5069998800754547,834.9865483997855,None,834.9865483997855,None,834.9865483997855,None,834.9865483997855,None,834.9865483997855,None,834.9865483997855,None,837.9352795998566,None,837.9352795998566,None,0.007630479987710714,0.5076304799877107,837.9352795998566,None,837.9352795998566,None,837.9352795998566,None,837.9352795998566,None,837.9352795998566,None,837.9352795998566,None,3.8999999999999986,1.567,841.5446031999309,None,1750,,,,,,,,,,,,,,,,,,,f,20,humengdan,2022_Jan_11_1533,emotion,2021.1.4,59.983036779759594,
413,partial,0,0.8,-50,0.2,red,0,0.8,-200,0.2,red,red,blue,red,blue,72,72,5,67,5,67,"[-9.3, -1.9]","[6.7, -1.9]","[-6.7, 1.9]","[9.3, 1.9]",-50,-200,0,0,0,71,71,51,,,,,,,,,,,,,,,,,0.0013781599700450897,0.5013781599700451,842.5791310998611,None,842.5791310998611,None,left,1.2183566999156028,842.5791310998611,None,842.5791310998611,None,842.5791310998611,None,842.5791310998611,None,842.5791310998611,None,843.8356959999073,None,843.8356959999073,None,0.006592079997062683,0.5065920799970627,843.8356959999073,None,843.8356959999073,None,843.8356959999073,None,843.8356959999073,None,843.8356959999073,None,843.8356959999073,None,846.4187112997752,None,846.4187112997752,None,0.007649779785424471,0.5076497797854245,846.4187112997752,None,846.4187112997752,None,846.4187112997752,None,846.4187112997752,None,846.4187112997752,None,846.4187112997752,None,-3.6000000000000014,1.118,849.5764599998947,None,1700,,,,,,,,,,,,,,,,,,,f,20,humengdan,2022_Jan_11_1533,emotion,2021.1.4,59.983036779759594,
282,partial,50,0.5,0,0.5,red,200,0.8,50,0.2,blue,red,blue,red,blue,180,72,5,175,77,355,"[-10, 0]","[6.7, -1.9]","[-6, 0]","[9.3, 1.9]",0,200,50,50,0,72,72,100,,,,,,,,,,,,,,,,,0.003902160096913576,0.5039021600969136,850.6101583999116,None,850.6101583999116,None,right,1.2165593998506665,850.6101583999116,None,850.6101583999116,None,850.6101583999116,None,850.6101583999116,None,850.6101583999116,None,851.851447999943,None,851.851447999943,None,0.0065703801810741425,0.5065703801810741,851.851447999943,None,851.851447999943,None,851.851447999943,None,851.851447999943,None,851.851447999943,None,851.851447999943,None,854.8327544999775,None,854.8327544999775,None,0.00787567999213934,0.5078756799921393,854.8327544999775,None,854.8327544999775,None,854.8327544999775,None,854.8327544999775,None,854.8327544999775,None,854.8327544999775,None,20.799999999999997,3.252,860.1243654999416,None,1900,,,,,,,,,,,,,,,,,,,f,20,humengdan,2022_Jan_11_1533,emotion,2021.1.4,59.983036779759594,
211,partial,0,0.2,-50,0.8,blue,-50,0.5,-200,0.5,red,blue,red,red,blue,72,180,5,67,5,175,"[-6.7, 1.9]","[6, 0]","[-9.3, -1.9]","[10, 0]",0,-200,-50,-50,0,73,73,23,,,,,,,,,,,,,,,,,0.004212359897792339,0.5042123598977923,861.1524344999343,None,861.1524344999343,None,left,1.270756300073117,861.1524344999343,None,861.1524344999343,None,861.1524344999343,None,861.1524344999343,None,861.1524344999343,None,862.4518279999029,None,862.4518279999029,None,0.006320179905742407,0.5063201799057424,862.4518279999029,None,862.4518279999029,None,862.4518279999029,None,862.4518279999029,None,862.4518279999029,None,862.4518279999029,None,865.3162171998993,None,865.3162171998993,None,0.0077958800829946995,0.5077958800829947,865.3162171998993,None,865.3162171998993,None,865.3162171998993,None,865.3162171998993,None,865.3162171998993,None,865.3162171998993,None,12.799999999999997,1.734,869.0885575998109,None,1900,,,,,,,,,,,,,,,,,,,f,20,humengdan,2022_Jan_11_1533,emotion,2021.1.4,59.983036779759594,
297,partial,200,0.8,0,0.2,red,200,0.8,50,0.2,blue,red,blue,red,blue,72,72,5,67,77,355,"[-9.3, -1.9]","[6.7, -1.9]","[-6.7, 1.9]","[9.3, 1.9]",0,200,200,50,0,74,74,104,,,,,,,,,,,,,,,,,0.00605333992280066,0.5060533399228007,870.1549567999318,None,870.1549567999318,None,right,1.7913168999366462,870.1549567999318,None,870.1549567999318,None,870.1549567999318,None,870.1549567999318,None,870.1549567999318,None,871.9815241999459,None,871.9815241999459,None,0.006546980002894998,0.506546980002895,871.9815241999459,None,871.9815241999459,None,871.9815241999459,None,871.9815241999459,None,871.9815241999459,None,871.9815241999459,None,874.5969648999162,None,874.5969648999162,None,0.00782517995685339,0.5078251799568534,874.5969648999162,None,874.5969648999162,None,874.5969648999162,None,874.5969648999162,None,874.5969648999162,None,874.5969648999162,None,20.900000000000006,1.335,877.9708910000045,None,2100,,,,,,,,,,,,,,,,,,,f,20,humengdan,2022_Jan_11_1533,emotion,2021.1.4,59.983036779759594,
315,partial,0,0.8,-200,0.2,red,-50,0.8,-200,0.2,blue,red,blue,red,blue,72,72,5,67,77,355,"[-9.3, -1.9]","[6.7, -1.9]","[-6.7, 1.9]","[9.3, 1.9]",-200,-50,0,-200,0,75,75,52,,,,,,,,,,,,,,,,,0.013615939766168594,0.5136159397661686,879.0058073999826,None,879.0058073999826,None,left,2.350132300052792,879.0058073999826,None,879.0058073999826,None,879.0058073999826,None,879.0058073999826,None,879.0058073999826,None,881.3959558999632,None,881.3959558999632,None,0.006565780146047473,0.5065657801460475,881.3959558999632,None,881.3959558999632,None,881.3959558999632,None,881.3959558999632,None,881.3959558999632,None,881.3959558999632,None,883.9453908998985,None,883.9453908998985,None,0.007572780130431056,0.5075727801304311,883.9453908998985,None,883.9453908998985,None,883.9453908998985,None,883.9453908998985,None,883.9453908998985,None,883.9453908998985,None,-8.399999999999999,1.784,887.7689176998101,None,1900,,,,,,,,,,,,,,,,,,,f,20,humengdan,2022_Jan_11_1533,emotion,2021.1.4,59.983036779759594,
93,partial,0,0.5,-200,0.5,blue,-50,0.8,-200,0.2,blue,red,blue,red,blue,180,72,185,355,77,355,"[-10, 0]","[6.7, -1.9]","[-6, 0]","[9.3, 1.9]",0,-50,-200,-200,0,76,76,46,,,,,,,,,,,,,,,,,0.010857339715585113,0.5108573397155851,888.8093178998679,None,888.8093178998679,None,left,1.2956796998623759,888.8093178998679,None,888.8093178998679,None,888.8093178998679,None,888.8093178998679,None,888.8093178998679,None,890.1450360999443,None,890.1450360999443,None,0.006081280065700412,0.5060812800657004,890.1450360999443,None,890.1450360999443,None,890.1450360999443,None,890.1450360999443,None,890.1450360999443,None,890.1450360999443,None,892.6932281998452,None,892.6932281998452,None,0.007516579935327172,0.5075165799353272,892.6932281998452,None,892.6932281998452,None,892.6932281998452,None,892.6932281998452,None,892.6932281998452,None,892.6932281998452,None,7.899999999999999,2.351,897.0841731999535,None,1900,,,,,,,,,,,,,,,,,,,f,20,humengdan,2022_Jan_11_1533,emotion,2021.1.4,59.983036779759594,
400,partial,200,0.2,0,0.8,red,200,0.5,50,0.5,red,blue,red,red,blue,72,180,77,355,5,175,"[-6.7, 1.9]","[6, 0]","[-9.3, -1.9]","[10, 0]",0,50,200,200,0,77,77,77,,,,,,,,,,,,,,,,,0.003246980020776391,0.5032469800207764,898.0946701997891,None,898.0946701997891,None,right,1.9167207998689264,898.0946701997891,None,898.0946701997891,None,898.0946701997891,None,898.0946701997891,None,898.0946701997891,None,900.0407325997949,None,900.0407325997949,None,0.006572080077603459,0.5065720800776035,900.0407325997949,None,900.0407325997949,None,900.0407325997949,None,900.0407325997949,None,900.0407325997949,None,900.0407325997949,None,902.7578951998148,None,902.7578951998148,None,0.007413079962134361,0.5074130799621344,902.7578951998148,None,902.7578951998148,None,902.7578951998148,None,902.7578951998148,None,902.7578951998148,None,902.7578951998148,None,6.700000000000003,1.45,906.248458399903,None,1950,,,,,,,,,,,,,,,,,,,f,20,humengdan,2022_Jan_11_1533,emotion,2021.1.4,59.983036779759594,
207,partial,0,0.8,-200,0.2,blue,-50,0.8,-200,0.2,red,red,blue,red,blue,72,72,77,355,5,67,"[-9.3, -1.9]","[6.7, -1.9]","[-6.7, 1.9]","[9.3, 1.9]",0,-200,-200,-50,0,78,78,49,,,,,,,,,,,,,,,,,0.004204560304060578,0.5042045603040606,907.2835420998745,None,907.2835420998745,None,left,1.0968549000099301,907.2835420998745,None,907.2835420998745,None,907.2835420998745,None,907.2835420998745,None,907.2835420998745,None,908.4067971999757,None,908.4067971999757,None,0.006513279862701893,0.5065132798627019,908.4067971999757,None,908.4067971999757,None,908.4067971999757,None,908.4067971999757,None,908.4067971999757,None,908.4067971999757,None,911.2880831998773,None,911.2880831998773,None,0.007623079931363463,0.5076230799313635,911.2880831998773,None,911.2880831998773,None,911.2880831998773,None,911.2880831998773,None,911.2880831998773,None,911.2880831998773,None,15.299999999999997,2.368,915.6968035998289,None,1950,,,,,,,,,,,,,,,,,,,f,20,humengdan,2022_Jan_11_1533,emotion,2021.1.4,59.983036779759594,
86,partial,0,0.2,-50,0.8,blue,0,0.8,-200,0.2,blue,blue,red,red,blue,72,72,5,67,77,355,"[-6.7, 1.9]","[6.7, -1.9]","[-9.3, -1.9]","[9.3, 1.9]",0,0,-50,-200,0,79,79,36,,,,,,,,,,,,,,,,,0.012511039851233363,0.5125110398512334,916.7380284999963,None,916.7380284999963,None,left,2.442670200020075,916.7380284999963,None,916.7380284999963,None,916.7380284999963,None,916.7380284999963,None,916.7380284999963,None,919.2043387999292,None,919.2043387999292,None,0.006641880143433809,0.5066418801434338,919.2043387999292,None,919.2043387999292,None,919.2043387999292,None,919.2043387999292,None,919.2043387999292,None,919.2043387999292,None,921.9690467999317,None,921.9690467999317,None,0.007689380086958408,0.5076893800869584,921.9690467999317,None,921.9690467999317,None,921.9690467999317,None,921.9690467999317,None,921.9690467999317,None,921.9690467999317,None,10.100000000000001,1.566,925.5765805998817,None,1950,,,,,,,,,,,,,,,,,,,f,20,humengdan,2022_Jan_11_1533,emotion,2021.1.4,59.983036779759594,
174,partial,50,0.5,0,0.5,blue,200,0.8,50,0.2,red,red,blue,red,blue,180,72,185,355,5,67,"[-10, 0]","[6.7, -1.9]","[-6, 0]","[9.3, 1.9]",50,50,0,200,0,80,80,97,,,,,,,,,,,,,,,,,0.005372860236093402,0.5053728602360934,926.608022299828,None,926.608022299828,None,right,0.8378077000379562,926.608022299828,None,926.608022299828,None,926.608022299828,None,926.608022299828,None,926.608022299828,None,927.4718829998747,None,927.4718829998747,None,0.005599680123850703,0.5055996801238507,927.4718829998747,None,927.4718829998747,None,927.4718829998747,None,927.4718829998747,None,927.4718829998747,None,927.4718829998747,None,930.4351109999698,None,930.4351109999698,None,0.007751980097964406,0.5077519800979644,930.4351109999698,None,930.4351109999698,None,930.4351109999698,None,930.4351109999698,None,930.4351109999698,None,930.4351109999698,None,-2.1000000000000014,2.118,934.5930584999733,None,2000,,,,,,,,,,,,,,,,,,,f,20,humengdan,2022_Jan_11_1533,emotion,2021.1.4,59.983036779759594,
92,partial,0,0.5,-200,0.5,blue,-50,0.2,-200,0.8,blue,red,blue,blue,red,180,72,185,355,5,67,"[-10, 0]","[9.3, 1.9]","[-6, 0]","[6.7, -1.9]",0,-50,-200,-200,0,81,81,10,,,,,,,,,,,,,,,,,0.004593339748680592,0.5045933397486806,935.6463543998543,None,935.6463543998543,None,left,1.975742699811235,935.6463543998543,None,935.6463543998543,None,935.6463543998543,None,935.6463543998543,None,935.6463543998543,None,937.65223779995,None,937.65223779995,None,0.005526780150830746,0.5055267801508307,937.65223779995,None,937.65223779995,None,937.65223779995,None,937.65223779995,None,937.65223779995,None,937.65223779995,None,940.6001585999038,None,940.6001585999038,None,0.00763868005014956,0.5076386800501496,940.6001585999038,None,940.6001585999038,None,940.6001585999038,None,940.6001585999038,None,940.6001585999038,None,940.6001585999038,None,21.700000000000003,1.4,944.0412614999805,None,2000,,,,,,,,,,,,,,,,,,,f,20,humengdan,2022_Jan_11_1533,emotion,2021.1.4,59.983036779759594,
181,partial,200,0.5,0,0.5,blue,200,0.5,50,0.5,red,red,blue,red,blue,180,180,185,355,5,175,"[-10, 0]","[6, 0]","[-6, 0]","[10, 0]",200,50,0,200,0,82,82,83,,,,,,,,,,,,,,,,,0.0034203599207103252,0.5034203599207103,945.0781911998056,None,945.0781911998056,None,right,1.2156230001710355,945.0781911998056,None,945.0781911998056,None,945.0781911998056,None,945.0781911998056,None,945.0781911998056,None,946.3345100998413,None,946.3345100998413,None,0.006294080056250095,0.5062940800562501,946.3345100998413,None,946.3345100998413,None,946.3345100998413,None,946.3345100998413,None,946.3345100998413,None,946.3345100998413,None,949.2810427998193,None,949.2810427998193,None,0.00761907990090549,0.5076190799009055,949.2810427998193,None,949.2810427998193,None,949.2810427998193,None,949.2810427998193,None,949.2810427998193,None,949.2810427998193,None,6.700000000000003,1.335,952.6561954999343,None,2050,,,,,,,,,,,,,,,,,,,f,20,humengdan,2022_Jan_11_1533,emotion,2021.1.4,59.983036779759594,
79,partial,200,0.8,0,0.2,blue,200,0.5,50,0.5,blue,red,blue,red,blue,72,180,77,355,185,355,"[-9.3, -1.9]","[6, 0]","[-6.7, 1.9]","[10, 0]",200,200,0,50,0,83,83,86,,,,,,,,,,,,,,,,,0.006186140002682805,0.5061861400026828,953.707606199896,None,953.707606199896,None,right,2.4019516999833286,953.707606199896,None,953.707606199896,None,953.707606199896,None,953.707606199896,None,953.707606199896,None,956.1507032997906,None,956.1507032997906,None,0.006528380094096065,0.5065283800940961,956.1507032997906,None,956.1507032997906,None,956.1507032997906,None,956.1507032997906,None,956.1507032997906,None,956.1507032997906,None,959.0279742998537,None,959.0279742998537,None,0.0075984797440469265,0.5075984797440469,959.0279742998537,None,959.0279742998537,None,959.0279742998537,None,959.0279742998537,None,959.0279742998537,None,959.0279742998537,None,16.5,1.37,962.4387520998716,None,2250,,,,,,,,,,,,,,,,,,,f,20,humengdan,2022_Jan_11_1533,emotion,2021.1.4,59.983036779759594,
275,partial,50,0.2,0,0.8,red,200,0.8,0,0.2,blue,blue,red,red,blue,72,72,77,355,77,355,"[-6.7, 1.9]","[6.7, -1.9]","[-9.3, -1.9]","[9.3, 1.9]",0,200,50,0,0,84,84,90,,,,,,,,,,,,,,,,,0.007307559950277209,0.5073075599502772,963.4719921997748,None,963.4719921997748,None,right,1.9216687998268753,963.4719921997748,None,963.4719921997748,None,963.4719921997748,None,963.4719921997748,None,963.4719921997748,None,965.4292970998213,None,965.4292970998213,None,0.006616479950025678,0.5066164799500257,965.4292970998213,None,965.4292970998213,None,965.4292970998213,None,965.4292970998213,None,965.4292970998213,None,965.4292970998213,None,968.0942385999952,None,968.0942385999952,None,0.007298980373889208,0.5072989803738892,968.0942385999952,None,968.0942385999952,None,968.0942385999952,None,968.0942385999952,None,968.0942385999952,None,968.0942385999952,None,20.700000000000003,1.768,971.9022823998239,None,2450,,,,,,,,,,,,,,,,,,,f,20,humengdan,2022_Jan_11_1533,emotion,2021.1.4,59.983036779759594,
63,partial,50,0.8,0,0.2,blue,200,0.5,0,0.5,blue,red,blue,red,blue,72,180,77,355,185,355,"[-9.3, -1.9]","[6, 0]","[-6.7, 1.9]","[10, 0]",50,200,0,0,0,85,85,84,,,,,,,,,,,,,,,,,0.006023560184985399,0.5060235601849854,972.9294272998814,None,972.9294272998814,None,right,1.277076599886641,972.9294272998814,None,972.9294272998814,None,972.9294272998814,None,972.9294272998814,None,972.9294272998814,None,974.2455855999142,None,974.2455855999142,None,0.005298079922795296,0.5052980799227953,974.2455855999142,None,974.2455855999142,None,974.2455855999142,None,974.2455855999142,None,974.2455855999142,None,974.2455855999142,None,976.9928339999169,None,976.9928339999169,None,0.0077780799474567175,0.5077780799474567,976.9928339999169,None,976.9928339999169,None,976.9928339999169,None,976.9928339999169,None,976.9928339999169,None,976.9928339999169,None,19.599999999999994,1.662,980.7007160999347,None,2650,,,,,,,,,,,,,,,,,,,f,20,humengdan,2022_Jan_11_1533,emotion,2021.1.4,59.983036779759594,
199,partial,0,0.5,-200,0.5,blue,-50,0.5,-200,0.5,red,red,blue,red,blue,180,180,185,355,5,175,"[-10, 0]","[6, 0]","[-6, 0]","[10, 0]",0,-200,-200,-50,0,86,86,25,,,,,,,,,,,,,,,,,0.002690959954634309,0.5026909599546343,981.7400941997766,None,981.7400941997766,None,left,1.9828870999626815,981.7400941997766,None,981.7400941997766,None,981.7400941997766,None,981.7400941997766,None,981.7400941997766,None,983.75426899991,None,983.75426899991,None,0.0038546801079064608,0.5038546801079065,983.75426899991,None,983.75426899991,None,983.75426899991,None,983.75426899991,None,983.75426899991,None,983.75426899991,None,986.4899784999434,None,986.4899784999434,None,0.007917380193248391,0.5079173801932484,986.4899784999434,None,986.4899784999434,None,986.4899784999434,None,986.4899784999434,None,986.4899784999434,None,986.4899784999434,None,23.799999999999997,1.702,990.2321864999831,None,2650,,,,,,,,,,,,,,,,,,,f,20,humengdan,2022_Jan_11_1533,emotion,2021.1.4,59.983036779759594,
71,partial,50,0.8,0,0.2,blue,200,0.2,50,0.8,blue,red,blue,blue,red,72,72,77,355,5,67,"[-9.3, -1.9]","[9.3, 1.9]","[-6.7, 1.9]","[6.7, -1.9]",50,200,0,50,0,87,87,70,,,,,,,,,,,,,,,,,0.004695360315963626,0.5046953603159636,991.2589394999668,None,991.2589394999668,None,right,1.7451136999297887,991.2589394999668,None,991.2589394999668,None,991.2589394999668,None,991.2589394999668,None,991.2589394999668,None,993.042144499952,None,993.042144499952,None,0.0057040799874812365,0.5057040799874812,993.042144499952,None,993.042144499952,None,993.042144499952,None,993.042144499952,None,993.042144499952,None,993.042144499952,None,995.5567169999704,None,995.5567169999704,None,0.007750780088827014,0.507750780088827,995.5567169999704,None,995.5567169999704,None,995.5567169999704,None,995.5567169999704,None,995.5567169999704,None,995.5567169999704,None,25.200000000000003,1.419,999.0136925999541,None,2850,,,,,,,,,,,,,,,,,,,f,20,humengdan,2022_Jan_11_1533,emotion,2021.1.4,59.983036779759594,
317,partial,0,0.5,-50,0.5,red,-50,0.2,-200,0.8,blue,red,blue,blue,red,180,72,5,175,5,67,"[-10, 0]","[9.3, 1.9]","[-6, 0]","[6.7, -1.9]",-50,-50,0,-200,0,88,88,8,,,,,,,,,,,,,,,,,0.0038973602931946516,0.5038973602931947,1000.046101299813,None,1000.046101299813,None,left,1.6518481001257896,1000.046101299813,None,1000.046101299813,None,1000.046101299813,None,1000.046101299813,None,1000.046101299813,None,1001.7240239998791,None,1001.7240239998791,None,0.005587979918345809,0.5055879799183458,1001.7240239998791,None,1001.7240239998791,None,1001.7240239998791,None,1001.7240239998791,None,1001.7240239998791,None,1001.7240239998791,None,1004.4717716998421,None,1004.4717716998421,None,0.00733747985213995,0.50733747985214,1004.4717716998421,None,1004.4717716998421,None,1004.4717716998421,None,1004.4717716998421,None,1004.4717716998421,None,1004.4717716998421,None,-0.7000000000000028,2.401,1008.9118198999204,None,2800,,,,,,,,,,,,,,,,,,,f,20,humengdan,2022_Jan_11_1533,emotion,2021.1.4,59.983036779759594,
379,partial,50,0.5,0,0.5,red,200,0.2,0,0.8,red,red,blue,blue,red,180,72,5,175,77,355,"[-10, 0]","[9.3, 1.9]","[-6, 0]","[6.7, -1.9]",0,0,50,200,0,89,89,63,,,,,,,,,,,,,,,,,0.0042504603043198586,0.5042504603043199,1009.9458762998693,None,1009.9458762998693,None,right,1.5592396000865847,1009.9458762998693,None,1009.9458762998693,None,1009.9458762998693,None,1009.9458762998693,None,1009.9458762998693,None,1011.5374865999911,None,1011.5374865999911,None,0.0061184801161289215,0.5061184801161289,1011.5374865999911,None,1011.5374865999911,None,1011.5374865999911,None,1011.5374865999911,None,1011.5374865999911,None,1011.5374865999911,None,1014.5184849998914,None,1014.5184849998914,None,0.008268879959359765,0.5082688799593598,1014.5184849998914,None,1014.5184849998914,None,1014.5184849998914,None,1014.5184849998914,None,1014.5184849998914,None,1014.5184849998914,None,0.0,2.717,1019.2764844999183,None,2800,,,,,,,,,,,,,,,,,,,f,20,humengdan,2022_Jan_11_1533,emotion,2021.1.4,59.983036779759594,
388,partial,50,0.5,0,0.5,red,200,0.5,50,0.5,red,red,blue,red,blue,180,180,5,175,5,175,"[-10, 0]","[6, 0]","[-6, 0]","[10, 0]",0,50,50,200,0,90,90,79,,,,,,,,,,,,,,,,,0.006558379856869578,0.5065583798568696,1020.285615199944,None,1020.285615199944,None,right,1.0121752000413835,1020.285615199944,None,1020.285615199944,None,1020.285615199944,None,1020.285615199944,None,1020.285615199944,None,1021.3359201999847,None,1021.3359201999847,None,0.006335579790174961,0.506335579790175,1021.3359201999847,None,1021.3359201999847,None,1021.3359201999847,None,1021.3359201999847,None,1021.3359201999847,None,1021.3359201999847,None,1024.1665390999988,None,1024.1665390999988,None,0.007882480043917894,0.5078824800439179,1024.1665390999988,None,1024.1665390999988,None,1024.1665390999988,None,1024.1665390999988,None,1024.1665390999988,None,1024.1665390999988,None,1.7000000000000028,1.635,1027.8412496999372,None,2850,,,,,,,,,,,,,,,,,,,f,20,humengdan,2022_Jan_11_1533,emotion,2021.1.4,59.983036779759594,
206,partial,0,0.8,-200,0.2,blue,-50,0.2,-200,0.8,red,red,blue,blue,red,72,72,77,355,77,355,"[-9.3, -1.9]","[9.3, 1.9]","[-6.7, 1.9]","[6.7, -1.9]",0,-200,-200,-50,0,91,91,13,,,,,,,,,,,,,,,,,0.011823739623650908,0.5118237396236509,1028.8803702997975,None,1028.8803702997975,None,left,1.5526916000526398,1028.8803702997975,None,1028.8803702997975,None,1028.8803702997975,None,1028.8803702997975,None,1028.8803702997975,None,1030.4668914999347,None,1030.4668914999347,None,0.005618680035695434,0.5056186800356954,1030.4668914999347,None,1030.4668914999347,None,1030.4668914999347,None,1030.4668914999347,None,1030.4668914999347,None,1030.4668914999347,None,1033.0321980000008,None,1033.0321980000008,None,0.0073861798737198114,0.5073861798737198,1033.0321980000008,None,1033.0321980000008,None,1033.0321980000008,None,1033.0321980000008,None,1033.0321980000008,None,1033.0321980000008,None,12.399999999999999,1.602,1036.6730754999444,None,2850,,,,,,,,,,,,,,,,,,,f,20,humengdan,2022_Jan_11_1533,emotion,2021.1.4,59.983036779759594,
167,partial,50,0.2,0,0.8,blue,200,0.8,0,0.2,red,blue,red,red,blue,72,72,5,67,5,67,"[-6.7, 1.9]","[6.7, -1.9]","[-9.3, -1.9]","[9.3, 1.9]",50,0,0,200,0,92,92,93,,,,,,,,,,,,,,,,,0.0009827599860727787,0.5009827599860728,1037.705142499879,None,1037.705142499879,None,right,1.1382965999655426,1037.705142499879,None,1037.705142499879,None,1037.705142499879,None,1037.705142499879,None,1037.705142499879,None,1038.8836946999654,None,1038.8836946999654,None,0.005680579924955964,0.505680579924956,1038.8836946999654,None,1038.8836946999654,None,1038.8836946999654,None,1038.8836946999654,None,1038.8836946999654,None,1038.8836946999654,None,1041.3960522999987,None,1041.3960522999987,None,0.007236080011352897,0.5072360800113529,1041.3960522999987,None,1041.3960522999987,None,1041.3960522999987,None,1041.3960522999987,None,1041.3960522999987,None,1041.3960522999987,None,-0.3999999999999986,2.852,1046.2877820997965,None,2850,,,,,,,,,,,,,,,,,,,f,20,humengdan,2022_Jan_11_1533,emotion,2021.1.4,59.983036779759594,
399,partial,200,0.5,0,0.5,red,200,0.8,50,0.2,red,red,blue,red,blue,180,72,5,175,5,67,"[-10, 0]","[6.7, -1.9]","[-6, 0]","[9.3, 1.9]",0,50,200,200,0,93,93,101,,,,,,,,,,,,,,,,,0.00311595993116498,0.503115959931165,1047.32495059981,None,1047.32495059981,None,right,1.1020602001808584,1047.32495059981,None,1047.32495059981,None,1047.32495059981,None,1047.32495059981,None,1047.32495059981,None,1048.4606430998538,None,1048.4606430998538,None,0.007459079846739769,0.5074590798467398,1048.4606430998538,None,1048.4606430998538,None,1048.4606430998538,None,1048.4606430998538,None,1048.4606430998538,None,1048.4606430998538,None,1051.09458429995,None,1051.09458429995,None,0.008252779953181744,0.5082527799531817,1051.09458429995,None,1051.09458429995,None,1051.09458429995,None,1051.09458429995,None,1051.09458429995,None,1051.09458429995,None,0.0,3.134,1056.2689694999717,None,2900,,,,,,,,,,,,,,,,,,,f,20,humengdan,2022_Jan_11_1533,emotion,2021.1.4,59.983036779759594,
432,partial,0,0.8,-50,0.2,red,-50,0.8,-200,0.2,red,red,blue,red,blue,72,72,5,67,5,67,"[-9.3, -1.9]","[6.7, -1.9]","[-6.7, 1.9]","[9.3, 1.9]",-50,-200,0,-50,0,94,94,53,,,,,,,,,,,,,,,,,0.007782359840348363,0.5077823598403484,1057.2939761998132,None,1057.2939761998132,None,left,1.0847946999128908,1057.2939761998132,None,1057.2939761998132,None,1057.2939761998132,None,1057.2939761998132,None,1057.2939761998132,None,1058.4118415999692,None,1058.4118415999692,None,0.006462680175900459,0.5064626801759005,1058.4118415999692,None,1058.4118415999692,None,1058.4118415999692,None,1058.4118415999692,None,1058.4118415999692,None,1058.4118415999692,None,1061.0766733000055,None,1061.0766733000055,None,0.007432480342686176,0.5074324803426862,1061.0766733000055,None,1061.0766733000055,None,1061.0766733000055,None,1061.0766733000055,None,1061.0766733000055,None,1061.0766733000055,None,1.5,4.574,1067.6836051999126,None,2850,,,,,,,,,,,,,,,,,,,f,20,humengdan,2022_Jan_11_1533,emotion,2021.1.4,59.983036779759594,
294,partial,200,0.2,0,0.8,red,200,0.8,50,0.2,blue,blue,red,red,blue,72,72,77,355,77,355,"[-6.7, 1.9]","[6.7, -1.9]","[-9.3, -1.9]","[9.3, 1.9]",0,200,200,50,0,95,95,92,,,,,,,,,,,,,,,,,0.0010525600519031286,0.5010525600519031,1068.7249572998844,None,1068.7249572998844,None,right,1.0073054998647422,1068.7249572998844,None,1068.7249572998844,None,1068.7249572998844,None,1068.7249572998844,None,1068.7249572998844,None,1069.7606194999535,None,1069.7606194999535,None,0.005852879956364632,0.5058528799563646,1069.7606194999535,None,1069.7606194999535,None,1069.7606194999535,None,1069.7606194999535,None,1069.7606194999535,None,1069.7606194999535,None,1072.3580973998178,None,1072.3580973998178,None,0.007708779769018292,0.5077087797690183,1072.3580973998178,None,1072.3580973998178,None,1072.3580973998178,None,1072.3580973998178,None,1072.3580973998178,None,1072.3580973998178,None,17.400000000000006,2.101,1076.498554599937,None,3050,,,,,,,,,,,,,,,,,,,f,20,humengdan,2022_Jan_11_1533,emotion,2021.1.4,59.983036779759594,
203,partial,0,0.2,-200,0.8,blue,-50,0.2,-200,0.8,red,blue,red,blue,red,72,72,5,67,77,355,"[-6.7, 1.9]","[9.3, 1.9]","[-9.3, -1.9]","[6.7, -1.9]",0,-200,-200,-50,0,96,96,1,,,,,,,,,,,,,,,,,0.005671880207955837,0.5056718802079558,1077.5084863998927,None,1077.5084863998927,None,left,1.8594875000417233,1077.5084863998927,None,1077.5084863998927,None,1077.5084863998927,None,1077.5084863998927,None,1077.5084863998927,None,1079.4084050999954,None,1079.4084050999954,None,0.006407980108633637,0.5064079801086336,1079.4084050999954,None,1079.4084050999954,None,1079.4084050999954,None,1079.4084050999954,None,1079.4084050999954,None,1079.4084050999954,None,1082.287607099861,None,1082.287607099861,None,0.007714080158621073,0.5077140801586211,1082.287607099861,None,1082.287607099861,None,1082.287607099861,None,1082.287607099861,None,1082.287607099861,None,1082.287607099861,None,18.200000000000003,3.301,1087.6297407997772,None,3050,,,,,,,,,,,,,,,,,,,f,20,humengdan,2022_Jan_11_1533,emotion,2021.1.4,59.983036779759594,
84,partial,0,0.5,-50,0.5,blue,0,0.5,-200,0.5,blue,red,blue,red,blue,180,180,185,355,185,355,"[-10, 0]","[6, 0]","[-6, 0]","[10, 0]",0,0,-50,-200,0,97,97,24,,,,,,,,,,,,,,,,,0.00017005996778607368,0.5001700599677861,1088.6667886998039,None,1088.6667886998039,None,left,1.1387049001641572,1088.6667886998039,None,1088.6667886998039,None,1088.6667886998039,None,1088.6667886998039,None,1088.6667886998039,None,1089.8372045999859,None,1089.8372045999859,None,0.006613679928705096,0.5066136799287051,1089.8372045999859,None,1089.8372045999859,None,1089.8372045999859,None,1089.8372045999859,None,1089.8372045999859,None,1089.8372045999859,None,1092.5856731999665,None,1092.5856731999665,None,0.00757788005284965,0.5075778800528497,1092.5856731999665,None,1092.5856731999665,None,1092.5856731999665,None,1092.5856731999665,None,1092.5856731999665,None,1092.5856731999665,None,3.6000000000000014,1.152,1095.7779853998218,None,3050,,,,,,,,,,,,,,,,,,,f,20,humengdan,2022_Jan_11_1533,emotion,2021.1.4,59.983036779759594,
