trialNumber,trialType,x1,p,y1,p2,outcome1,x2,q,y2,q2,outcome2,LWedgeCol,LCircleCol,RWedgeCol,RCircleCol,Lslice,Rslice,L1,L2,R1,R2,x1Pos,x2Pos,y1Pos,y2Pos,leftPoints,rightPoints,LeftYourUn,RightYouUn,trials.thisRepN,trials.thisTrialN,trials.thisN,trials.thisIndex,trials_2.thisRepN,trials_2.thisTrialN,trials_2.thisN,trials_2.thisIndex,image.started,image.stopped,key_resp_5.keys,key_resp_5.rt,key_resp_5.started,key_resp_5.stopped,image_2.started,image_2.stopped,key_resp_2.keys,key_resp_2.rt,key_resp_2.started,key_resp_2.stopped,ISI_2.started,ISI_2.stopped,arrowL_2.started,arrowL_2.stopped,arrowR_2.started,arrowR_2.stopped,key_resp_4.keys,key_resp_4.rt,key_resp_4.started,key_resp_4.stopped,blueLVal_2.started,blueLVal_2.stopped,blueRVal_2.started,blueRVal_2.stopped,redLVal_2.started,redLVal_2.stopped,redRVal_2.started,redRVal_2.stopped,right.started,right.stopped,left.started,left.stopped,ISI.started,ISI.stopped,arrowL.started,arrowL.stopped,arrowR.started,arrowR.stopped,blueLVal.started,blueLVal.stopped,blueRVal.started,blueRVal.stopped,redLVal.started,redLVal.stopped,redRVal.started,redRVal.stopped,right_2.started,right_2.stopped,left_2.started,left_2.stopped,ISI_4.started,ISI_4.stopped,arrowL_3.started,arrowL_3.stopped,arrowR_3.started,arrowR_3.stopped,blueLVal_3.started,blueLVal_3.stopped,blueRVal_3.started,blueRVal_3.stopped,redLVal_3.started,redLVal_3.stopped,redRVal_3.started,redRVal_3.stopped,rating,ratingrt,text_5.started,text_5.stopped,totalScore,image_4.started,image_4.stopped,key_resp_3.keys,key_resp_3.rt,key_resp_3.started,key_resp_3.stopped,image_5.started,image_5.stopped,key_resp.keys,key_resp.rt,key_resp.started,key_resp.stopped,image_3.started,image_3.stopped,key_resp_9.keys,key_resp_9.rt,key_resp_9.started,key_resp_9.stopped,gender,age,participant,date,expName,psychopyVersion,frameRate,
,,,,,,,,,,,,,,,,,,,,,,,,,,,,,,,,,,,,,,45.85840749996714,None,space,2.6755528000649065,45.85840749996714,None,,,,,,,,,,,,,,,,,,,,,,,,,,,,,,,,,,,,,,,,,,,,,,,,,,,,,,,,,,,,,,,,,,,,,,,,,,,,,,,,,,,,f,19,jukexin,2022_Jan_09_1608,emotion,2021.1.4,59.97404323193473,
,,,,,,,,,,,,,,,,,,,,,,,,,,,,,,,,,,,,,,,,,,,,48.55433929990977,None,space,1.2170318998396397,48.55433929990977,None,,,,,,,,,,,,,,,,,,,,,,,,,,,,,,,,,,,,,,,,,,,,,,,,,,,,,,,,,,,,,,,,,,,,,,,,,,,,,,f,19,jukexin,2022_Jan_09_1608,emotion,2021.1.4,59.97404323193473,
200,partial,0,0.5,-200,0.5,blue,-50,0.2,-200,0.8,red,red,blue,blue,red,180,72,185,355,77,355,"[-10, 0]","[9.3, 1.9]","[-6, 0]","[6.7, -1.9]",0,-200,-200,-50,0,0,0,10,,,,,,,,,,,,,,,,,0.001315220259130001,0.50131522025913,50.05287040001713,None,50.05287040001713,None,left,4.526046700077131,50.05287040001713,None,50.05287040001713,None,50.05287040001713,None,50.05287040001713,None,50.05287040001713,None,54.61400009994395,None,54.61400009994395,None,0.004914270015433431,0.5049142700154334,54.61400009994395,None,54.61400009994395,None,54.61400009994395,None,54.61400009994395,None,54.61400009994395,None,54.61400009994395,None,57.61188340000808,None,57.61188340000808,None,0.006432069931179285,0.5064320699311793,57.61188340000808,None,57.61188340000808,None,57.61188340000808,None,57.61188340000808,None,57.61188340000808,None,57.61188340000808,None,0.0,3.091,62.78649690002203,None,0,,,,,,,,,,,,,,,,,,,f,19,jukexin,2022_Jan_09_1608,emotion,2021.1.4,59.97404323193473,
407,partial,0,0.5,-50,0.5,red,0,0.8,-200,0.2,red,red,blue,red,blue,180,72,5,175,5,67,"[-10, 0]","[6.7, -1.9]","[-6, 0]","[9.3, 1.9]",-50,-200,0,0,0,1,1,42,,,,,,,,,,,,,,,,,0.015063239959999919,0.5150632399599999,63.79987349989824,None,63.79987349989824,None,left,6.723170100012794,63.79987349989824,None,63.79987349989824,None,63.79987349989824,None,63.79987349989824,None,63.79987349989824,None,70.55994990002364,None,70.55994990002364,None,0.005695870378986001,0.505695870378986,70.55994990002364,None,70.55994990002364,None,70.55994990002364,None,70.55994990002364,None,70.55994990002364,None,70.55994990002364,None,73.45786150009371,None,73.45786150009371,None,0.00799337006174028,0.5079933700617403,73.45786150009371,None,73.45786150009371,None,73.45786150009371,None,73.45786150009371,None,73.45786150009371,None,73.45786150009371,None,-2.8999999999999986,3.266,78.78294240008108,None,-50,,,,,,,,,,,,,,,,,,,f,19,jukexin,2022_Jan_09_1608,emotion,2021.1.4,59.97404323193473,
411,partial,0,0.2,-50,0.8,red,0,0.5,-200,0.5,red,blue,red,red,blue,72,180,77,355,5,175,"[-6.7, 1.9]","[6, 0]","[-9.3, -1.9]","[10, 0]",-50,-200,0,0,0,2,2,18,,,,,,,,,,,,,,,,,0.0002690700348466635,0.5002690700348467,79.81274629989639,None,79.81274629989639,None,right,8.418471800163388,79.81274629989639,None,79.81274629989639,None,79.81274629989639,None,79.81274629989639,None,79.81274629989639,None,88.25729659991339,None,88.25729659991339,None,0.005432770121842623,0.5054327701218426,88.25729659991339,None,88.25729659991339,None,88.25729659991339,None,88.25729659991339,None,88.25729659991339,None,88.25729659991339,None,91.07055320008658,None,91.07055320008658,None,0.008373070042580366,0.5083730700425804,91.07055320008658,None,91.07055320008658,None,91.07055320008658,None,91.07055320008658,None,91.07055320008658,None,91.07055320008658,None,-6.799999999999997,2.067,95.17877759994008,None,-250,,,,,,,,,,,,,,,,,,,f,19,jukexin,2022_Jan_09_1608,emotion,2021.1.4,59.97404323193473,
95,partial,0,0.2,-200,0.8,blue,-50,0.2,-200,0.8,blue,blue,red,blue,red,72,72,5,67,5,67,"[-6.7, 1.9]","[9.3, 1.9]","[-9.3, -1.9]","[6.7, -1.9]",0,-50,-200,-200,0,3,3,1,,,,,,,,,,,,,,,,,0.0056100699584931135,0.5056100699584931,96.18741780007258,None,96.18741780007258,None,left,13.57265660003759,96.18741780007258,None,96.18741780007258,None,96.18741780007258,None,96.18741780007258,None,96.18741780007258,None,109.78613350004889,None,109.78613350004889,None,0.006063970038667321,0.5060639700386673,109.78613350004889,None,109.78613350004889,None,109.78613350004889,None,109.78613350004889,None,109.78613350004889,None,109.78613350004889,None,112.64831240009516,None,112.64831240009516,None,0.007780070183798671,0.5077800701837987,112.64831240009516,None,112.64831240009516,None,112.64831240009516,None,112.64831240009516,None,112.64831240009516,None,112.64831240009516,None,2.0,2.468,117.15774799999781,None,-250,,,,,,,,,,,,,,,,,,,f,19,jukexin,2022_Jan_09_1608,emotion,2021.1.4,59.97404323193473,
419,partial,0,0.2,-200,0.8,red,-50,0.2,-200,0.8,red,blue,red,blue,red,72,72,77,355,77,355,"[-6.7, 1.9]","[9.3, 1.9]","[-9.3, -1.9]","[6.7, -1.9]",-200,-200,0,-50,0,4,4,4,,,,,,,,,,,,,,,,,0.00519216968677938,0.5051921696867794,118.16641440009698,None,118.16641440009698,None,left,6.491010199999437,118.16641440009698,None,118.16641440009698,None,118.16641440009698,None,118.16641440009698,None,118.16641440009698,None,124.68432569992729,None,124.68432569992729,None,0.0055734699126333,0.5055734699126333,124.68432569992729,None,124.68432569992729,None,124.68432569992729,None,124.68432569992729,None,124.68432569992729,None,124.68432569992729,None,127.34694029996172,None,127.34694029996172,None,0.007952769985422492,0.5079527699854225,127.34694029996172,None,127.34694029996172,None,127.34694029996172,None,127.34694029996172,None,127.34694029996172,None,127.34694029996172,None,-9.700000000000003,2.117,131.50577590009198,None,-450,,,,,,,,,,,,,,,,,,,f,19,jukexin,2022_Jan_09_1608,emotion,2021.1.4,59.97404323193473,
183,partial,200,0.5,0,0.5,blue,200,0.8,50,0.2,red,red,blue,red,blue,180,72,185,355,5,67,"[-10, 0]","[6.7, -1.9]","[-6, 0]","[9.3, 1.9]",200,50,0,200,0,5,5,98,,,,,,,,,,,,,,,,,0.005254769930616021,0.505254769930616,132.51482039992698,None,132.51482039992698,None,right,3.673028899822384,132.51482039992698,None,132.51482039992698,None,132.51482039992698,None,132.51482039992698,None,132.51482039992698,None,136.21591480006464,None,136.21591480006464,None,0.005274969851598144,0.5052749698515981,136.21591480006464,None,136.21591480006464,None,136.21591480006464,None,136.21591480006464,None,136.21591480006464,None,136.21591480006464,None,139.12798690004274,None,139.12798690004274,None,0.007721270201727748,0.5077212702017277,139.12798690004274,None,139.12798690004274,None,139.12798690004274,None,139.12798690004274,None,139.12798690004274,None,139.12798690004274,None,5.799999999999997,2.069,143.23698999988846,None,-400,,,,,,,,,,,,,,,,,,,f,19,jukexin,2022_Jan_09_1608,emotion,2021.1.4,59.97404323193473,
57,partial,50,0.5,0,0.5,blue,200,0.5,0,0.5,blue,red,blue,red,blue,180,180,185,355,185,355,"[-10, 0]","[6, 0]","[-6, 0]","[10, 0]",50,200,0,0,0,6,6,81,,,,,,,,,,,,,,,,,0.00593756977468729,0.5059375697746873,144.24539400008507,None,144.24539400008507,None,right,2.7984575999435037,144.24539400008507,None,144.24539400008507,None,144.24539400008507,None,144.24539400008507,None,144.24539400008507,None,147.07940150005743,None,147.07940150005743,None,0.004751369822770357,0.5047513698227704,147.07940150005743,None,147.07940150005743,None,147.07940150005743,None,147.07940150005743,None,147.07940150005743,None,147.07940150005743,None,150.0077969999984,None,150.0077969999984,None,0.008500369964167476,0.5085003699641675,150.0077969999984,None,150.0077969999984,None,150.0077969999984,None,150.0077969999984,None,150.0077969999984,None,150.0077969999984,None,8.899999999999999,2.087,154.13366260007024,None,-200,,,,,,,,,,,,,,,,,,,f,19,jukexin,2022_Jan_09_1608,emotion,2021.1.4,59.97404323193473,
61,partial,50,0.8,0,0.2,blue,200,0.2,0,0.8,blue,red,blue,blue,red,72,72,77,355,5,67,"[-9.3, -1.9]","[9.3, 1.9]","[-6.7, 1.9]","[6.7, -1.9]",50,200,0,0,0,7,7,69,,,,,,,,,,,,,,,,,0.005541470134630799,0.5055414701346308,155.142562400084,None,155.142562400084,None,right,5.184657300123945,155.142562400084,None,155.142562400084,None,155.142562400084,None,155.142562400084,None,155.142562400084,None,160.35950009990484,None,160.35950009990484,None,0.006262969924136996,0.506262969924137,160.35950009990484,None,160.35950009990484,None,160.35950009990484,None,160.35950009990484,None,160.35950009990484,None,160.35950009990484,None,163.3059193000663,None,163.3059193000663,None,0.008174970047548413,0.5081749700475484,163.3059193000663,None,163.3059193000663,None,163.3059193000663,None,163.3059193000663,None,163.3059193000663,None,163.3059193000663,None,11.5,3.101,168.44850869989023,None,0,,,,,,,,,,,,,,,,,,,f,19,jukexin,2022_Jan_09_1608,emotion,2021.1.4,59.97404323193473,
78,partial,200,0.2,0,0.8,blue,200,0.8,50,0.2,blue,blue,red,red,blue,72,72,5,67,77,355,"[-6.7, 1.9]","[6.7, -1.9]","[-9.3, -1.9]","[9.3, 1.9]",200,200,0,50,0,8,8,95,,,,,,,,,,,,,,,,,0.004800969967618585,0.5048009699676186,169.457389799878,None,169.457389799878,None,right,1.9861272999551147,169.457389799878,None,169.457389799878,None,169.457389799878,None,169.457389799878,None,169.457389799878,None,171.47398440004326,None,171.47398440004326,None,0.005518170073628426,0.5055181700736284,171.47398440004326,None,171.47398440004326,None,171.47398440004326,None,171.47398440004326,None,171.47398440004326,None,171.47398440004326,None,174.05452880007215,None,174.05452880007215,None,0.007402670104056597,0.5074026701040566,174.05452880007215,None,174.05452880007215,None,174.05452880007215,None,174.05452880007215,None,174.05452880007215,None,174.05452880007215,None,11.0,5.467,181.56264239992015,None,200,,,,,,,,,,,,,,,,,,,f,19,jukexin,2022_Jan_09_1608,emotion,2021.1.4,59.97404323193473,
176,partial,50,0.2,0,0.8,blue,200,0.2,50,0.8,red,blue,red,blue,red,72,72,5,67,77,355,"[-6.7, 1.9]","[9.3, 1.9]","[-9.3, -1.9]","[6.7, -1.9]",50,50,0,200,0,9,9,58,,,,,,,,,,,,,,,,,0.007284069899469614,0.5072840698994696,182.5862308999058,None,182.5862308999058,None,right,3.2321373999584466,182.5862308999058,None,182.5862308999058,None,182.5862308999058,None,182.5862308999058,None,182.5862308999058,None,185.85355890006758,None,185.85355890006758,None,0.0055885701440274715,0.5055885701440275,185.85355890006758,None,185.85355890006758,None,185.85355890006758,None,185.85355890006758,None,185.85355890006758,None,185.85355890006758,None,188.4519857999403,None,188.4519857999403,None,0.007423470029607415,0.5074234700296074,188.4519857999403,None,188.4519857999403,None,188.4519857999403,None,188.4519857999403,None,188.4519857999403,None,188.4519857999403,None,9.200000000000003,1.885,192.37616099999286,None,250,,,,,,,,,,,,,,,,,,,f,19,jukexin,2022_Jan_09_1608,emotion,2021.1.4,59.97404323193473,
290,partial,200,0.5,0,0.5,red,200,0.2,50,0.8,blue,red,blue,blue,red,180,72,5,175,5,67,"[-10, 0]","[9.3, 1.9]","[-6, 0]","[6.7, -1.9]",0,200,200,50,0,10,10,65,,,,,,,,,,,,,,,,,0.012041739886626601,0.5120417398866266,193.3948333999142,None,193.3948333999142,None,right,12.085910900030285,193.3948333999142,None,193.3948333999142,None,193.3948333999142,None,193.3948333999142,None,193.3948333999142,None,205.51797379995696,None,205.51797379995696,None,0.006083769956603646,0.5060837699566036,205.51797379995696,None,205.51797379995696,None,205.51797379995696,None,205.51797379995696,None,205.51797379995696,None,205.51797379995696,None,208.1149365999736,None,208.1149365999736,None,0.008023069938644767,0.5080230699386448,208.1149365999736,None,208.1149365999736,None,208.1149365999736,None,208.1149365999736,None,208.1149365999736,None,208.1149365999736,None,16.400000000000006,1.318,211.47345799999312,None,450,,,,,,,,,,,,,,,,,,,f,19,jukexin,2022_Jan_09_1608,emotion,2021.1.4,59.97404323193473,
70,partial,50,0.8,0,0.2,blue,200,0.5,50,0.5,blue,red,blue,red,blue,72,180,77,355,185,355,"[-9.3, -1.9]","[6, 0]","[-6.7, 1.9]","[10, 0]",50,200,0,50,0,11,11,85,,,,,,,,,,,,,,,,,0.005902969976887107,0.5059029699768871,212.4812676999718,None,212.4812676999718,None,right,1.2697674001101404,212.4812676999718,None,212.4812676999718,None,212.4812676999718,None,212.4812676999718,None,212.4812676999718,None,213.78262470010668,None,213.78262470010668,None,0.005757869919762015,0.505757869919762,213.78262470010668,None,213.78262470010668,None,213.78262470010668,None,213.78262470010668,None,213.78262470010668,None,213.78262470010668,None,216.56285530002788,None,216.56285530002788,None,0.00775006995536387,0.5077500699553639,216.56285530002788,None,216.56285530002788,None,216.56285530002788,None,216.56285530002788,None,216.56285530002788,None,216.56285530002788,None,16.0,1.621,220.22293339995667,None,650,,,,,,,,,,,,,,,,,,,f,19,jukexin,2022_Jan_09_1608,emotion,2021.1.4,59.97404323193473,
67,partial,50,0.2,0,0.8,blue,200,0.5,50,0.5,blue,blue,red,red,blue,72,180,5,67,185,355,"[-6.7, 1.9]","[6, 0]","[-9.3, -1.9]","[10, 0]",50,200,0,50,0,12,12,73,,,,,,,,,,,,,,,,,0.0073995699640363455,0.5073995699640363,221.24517200002447,None,221.24517200002447,None,right,0.9425782000180334,221.24517200002447,None,221.24517200002447,None,221.24517200002447,None,221.24517200002447,None,221.24517200002447,None,222.21621560002677,None,222.21621560002677,None,0.005486570065841079,0.5054865700658411,222.21621560002677,None,222.21621560002677,None,222.21621560002677,None,222.21621560002677,None,222.21621560002677,None,222.21621560002677,None,224.76122220000252,None,224.76122220000252,None,0.00811416981741786,0.5081141698174179,224.76122220000252,None,224.76122220000252,None,224.76122220000252,None,224.76122220000252,None,224.76122220000252,None,224.76122220000252,None,15.5,1.414,228.21928930003196,None,850,,,,,,,,,,,,,,,,,,,f,19,jukexin,2022_Jan_09_1608,emotion,2021.1.4,59.97404323193473,
301,partial,0,0.2,-50,0.8,red,0,0.2,-200,0.8,blue,blue,red,blue,red,72,72,77,355,5,67,"[-6.7, 1.9]","[9.3, 1.9]","[-9.3, -1.9]","[6.7, -1.9]",-50,0,0,-200,0,13,13,3,,,,,,,,,,,,,,,,,0.0050518698990345,0.5050518698990345,229.22879229998216,None,229.22879229998216,None,left,5.13463840004988,229.22879229998216,None,229.22879229998216,None,229.22879229998216,None,229.22879229998216,None,229.22879229998216,None,234.4138734000735,None,234.4138734000735,None,0.0010452698916196823,0.5010452698916197,234.4138734000735,None,234.4138734000735,None,234.4138734000735,None,234.4138734000735,None,234.4138734000735,None,234.4138734000735,None,237.12515629990958,None,237.12515629990958,None,0.007876269984990358,0.5078762699849904,237.12515629990958,None,237.12515629990958,None,237.12515629990958,None,237.12515629990958,None,237.12515629990958,None,237.12515629990958,None,5.5,3.119,242.284234700026,None,800,,,,,,,,,,,,,,,,,,,f,19,jukexin,2022_Jan_09_1608,emotion,2021.1.4,59.97404323193473,
313,partial,0,0.8,-200,0.2,red,-50,0.5,-200,0.5,blue,red,blue,red,blue,72,180,5,67,185,355,"[-9.3, -1.9]","[6, 0]","[-6.7, 1.9]","[10, 0]",-200,-50,0,-200,0,14,14,31,,,,,,,,,,,,,,,,,0.007106469944119453,0.5071064699441195,243.30788469989784,None,243.30788469989784,None,right,7.913424599915743,243.30788469989784,None,243.30788469989784,None,243.30788469989784,None,243.30788469989784,None,243.30788469989784,None,251.27910239994526,None,251.27910239994526,None,0.004942170111462474,0.5049421701114625,251.27910239994526,None,251.27910239994526,None,251.27910239994526,None,251.27910239994526,None,251.27910239994526,None,251.27910239994526,None,254.123008799972,None,254.123008799972,None,0.007187670096755028,0.507187670096755,254.123008799972,None,254.123008799972,None,254.123008799972,None,254.123008799972,None,254.123008799972,None,254.123008799972,None,3.0,2.933,259.09734479989856,None,750,,,,,,,,,,,,,,,,,,,f,19,jukexin,2022_Jan_09_1608,emotion,2021.1.4,59.97404323193473,
394,partial,50,0.8,0,0.2,red,200,0.5,50,0.5,red,red,blue,red,blue,72,180,5,67,5,175,"[-9.3, -1.9]","[6, 0]","[-6.7, 1.9]","[10, 0]",0,50,50,200,0,15,15,88,,,,,,,,,,,,,,,,,0.0050835697911679745,0.505083569791168,260.12280100001954,None,260.12280100001954,None,right,0.8562322999350727,260.12280100001954,None,260.12280100001954,None,260.12280100001954,None,260.12280100001954,None,260.12280100001954,None,261.00833679991774,None,261.00833679991774,None,0.005619169911369681,0.5056191699113697,261.00833679991774,None,261.00833679991774,None,261.00833679991774,None,261.00833679991774,None,261.00833679991774,None,261.00833679991774,None,263.9032032000832,None,263.9032032000832,None,0.007519270293414593,0.5075192702934146,263.9032032000832,None,263.9032032000832,None,263.9032032000832,None,263.9032032000832,None,263.9032032000832,None,263.9032032000832,None,10.299999999999997,1.351,267.2949922999833,None,800,,,,,,,,,,,,,,,,,,,f,19,jukexin,2022_Jan_09_1608,emotion,2021.1.4,59.97404323193473,
295,partial,200,0.8,0,0.2,red,200,0.5,50,0.5,blue,red,blue,red,blue,72,180,5,67,185,355,"[-9.3, -1.9]","[6, 0]","[-6.7, 1.9]","[10, 0]",0,200,200,50,0,16,16,89,,,,,,,,,,,,,,,,,0.004944870015606284,0.5049448700156063,268.3048119000159,None,268.3048119000159,None,right,0.6921937000006437,268.3048119000159,None,268.3048119000159,None,268.3048119000159,None,268.3048119000159,None,268.3048119000159,None,269.021726799896,None,269.021726799896,None,0.005587270017713308,0.5055872700177133,269.021726799896,None,269.021726799896,None,269.021726799896,None,269.021726799896,None,269.021726799896,None,269.021726799896,None,271.6690732999705,None,271.6690732999705,None,0.007189369993284345,0.5071893699932843,271.6690732999705,None,271.6690732999705,None,271.6690732999705,None,271.6690732999705,None,271.6690732999705,None,271.6690732999705,None,14.400000000000006,1.735,275.4433015999384,None,1000,,,,,,,,,,,,,,,,,,,f,19,jukexin,2022_Jan_09_1608,emotion,2021.1.4,59.97404323193473,
397,partial,200,0.5,0,0.5,red,200,0.5,50,0.5,red,red,blue,red,blue,180,180,5,175,5,175,"[-10, 0]","[6, 0]","[-6, 0]","[10, 0]",0,50,200,200,0,17,17,80,,,,,,,,,,,,,,,,,0.005545170046389103,0.5055451700463891,276.4520195000805,None,276.4520195000805,None,right,1.1707913998980075,276.4520195000805,None,276.4520195000805,None,276.4520195000805,None,276.4520195000805,None,276.4520195000805,None,277.6538166999817,None,277.6538166999817,None,0.005567970219999552,0.5055679702199996,277.6538166999817,None,277.6538166999817,None,277.6538166999817,None,277.6538166999817,None,277.6538166999817,None,277.6538166999817,None,280.2000307000708,None,280.2000307000708,None,0.007882969919592142,0.5078829699195921,280.2000307000708,None,280.2000307000708,None,280.2000307000708,None,280.2000307000708,None,280.2000307000708,None,280.2000307000708,None,12.700000000000003,2.0,284.24170150002465,None,1050,,,,,,,,,,,,,,,,,,,f,19,jukexin,2022_Jan_09_1608,emotion,2021.1.4,59.97404323193473,
96,partial,0,0.2,-200,0.8,blue,-50,0.8,-200,0.2,blue,blue,red,red,blue,72,72,5,67,77,355,"[-6.7, 1.9]","[6.7, -1.9]","[-9.3, -1.9]","[9.3, 1.9]",0,-50,-200,-200,0,18,18,37,,,,,,,,,,,,,,,,,0.005111970007419586,0.5051119700074196,285.2517494999338,None,285.2517494999338,None,right,4.689098299946636,285.2517494999338,None,285.2517494999338,None,285.2517494999338,None,285.2517494999338,None,285.2517494999338,None,289.96672399993986,None,289.96672399993986,None,0.005728269927203655,0.5057282699272037,289.96672399993986,None,289.96672399993986,None,289.96672399993986,None,289.96672399993986,None,289.96672399993986,None,289.96672399993986,None,292.7656984999776,None,292.7656984999776,None,0.007317369803786278,0.5073173698037863,292.7656984999776,None,292.7656984999776,None,292.7656984999776,None,292.7656984999776,None,292.7656984999776,None,292.7656984999776,None,1.5,2.868,297.6721355000045,None,1000,,,,,,,,,,,,,,,,,,,f,19,jukexin,2022_Jan_09_1608,emotion,2021.1.4,59.97404323193473,
80,partial,200,0.8,0,0.2,blue,200,0.2,50,0.8,blue,red,blue,blue,red,72,72,77,355,5,67,"[-9.3, -1.9]","[9.3, 1.9]","[-6.7, 1.9]","[6.7, -1.9]",200,200,0,50,0,19,19,71,,,,,,,,,,,,,,,,,0.005853569833561778,0.5058535698335618,298.68119550007395,None,298.68119550007395,None,right,1.8120197001844645,298.68119550007395,None,298.68119550007395,None,298.68119550007395,None,298.68119550007395,None,298.68119550007395,None,300.5313987999689,None,300.5313987999689,None,0.005778770195320249,0.5057787701953202,300.5313987999689,None,300.5313987999689,None,300.5313987999689,None,300.5313987999689,None,300.5313987999689,None,300.5313987999689,None,303.0299806999974,None,303.0299806999974,None,0.007785869995132089,0.5077858699951321,303.0299806999974,None,303.0299806999974,None,303.0299806999974,None,303.0299806999974,None,303.0299806999974,None,303.0299806999974,None,11.5,1.869,306.93709159991704,None,1200,,,,,,,,,,,,,,,,,,,f,19,jukexin,2022_Jan_09_1608,emotion,2021.1.4,59.97404323193473,
106,partial,0,0.8,-50,0.2,blue,-50,0.5,-200,0.5,blue,red,blue,red,blue,72,180,77,355,185,355,"[-9.3, -1.9]","[6, 0]","[-6.7, 1.9]","[10, 0]",0,-50,-50,-200,0,20,20,35,,,,,,,,,,,,,,,,,0.005697870161384344,0.5056978701613843,307.9464018999133,None,307.9464018999133,None,left,1.8960146000608802,307.9464018999133,None,307.9464018999133,None,307.9464018999133,None,307.9464018999133,None,307.9464018999133,None,309.881244600052,None,309.881244600052,None,0.006490670144557953,0.506490670144558,309.881244600052,None,309.881244600052,None,309.881244600052,None,309.881244600052,None,309.881244600052,None,309.881244600052,None,312.8615963999182,None,312.8615963999182,None,0.007787870010361075,0.5077878700103611,312.8615963999182,None,312.8615963999182,None,312.8615963999182,None,312.8615963999182,None,312.8615963999182,None,312.8615963999182,None,8.0,1.153,316.05267319991253,None,1200,,,,,,,,,,,,,,,,,,,f,19,jukexin,2022_Jan_09_1608,emotion,2021.1.4,59.97404323193473,
62,partial,50,0.8,0,0.2,blue,200,0.8,0,0.2,blue,red,blue,red,blue,72,72,77,355,77,355,"[-9.3, -1.9]","[6.7, -1.9]","[-6.7, 1.9]","[9.3, 1.9]",50,200,0,0,0,21,21,105,,,,,,,,,,,,,,,,,0.005911469925194979,0.505911469925195,317.0613422000315,None,317.0613422000315,None,right,1.192431400064379,317.0613422000315,None,317.0613422000315,None,317.0613422000315,None,317.0613422000315,None,317.0613422000315,None,318.2968417000957,None,318.2968417000957,None,0.005626470083370805,0.5056264700833708,318.2968417000957,None,318.2968417000957,None,318.2968417000957,None,318.2968417000957,None,318.2968417000957,None,318.2968417000957,None,320.809606899973,None,320.809606899973,None,0.007638569921255112,0.5076385699212551,320.809606899973,None,320.809606899973,None,320.809606899973,None,320.809606899973,None,320.809606899973,None,320.809606899973,None,11.200000000000003,1.803,324.65097650000826,None,1400,,,,,,,,,,,,,,,,,,,f,19,jukexin,2022_Jan_09_1608,emotion,2021.1.4,59.97404323193473,
194,partial,0,0.2,-50,0.8,blue,0,0.8,-200,0.2,red,blue,red,red,blue,72,72,5,67,5,67,"[-6.7, 1.9]","[6.7, -1.9]","[-9.3, -1.9]","[9.3, 1.9]",0,-200,-50,0,0,22,22,36,,,,,,,,,,,,,,,,,0.0055486701894551516,0.5055486701894552,325.6601329999976,None,325.6601329999976,None,left,1.6598387998528779,325.6601329999976,None,325.6601329999976,None,325.6601329999976,None,325.6601329999976,None,325.6601329999976,None,327.3598938998766,None,327.3598938998766,None,0.0066087699960917234,0.5066087699960917,327.3598938998766,None,327.3598938998766,None,327.3598938998766,None,327.3598938998766,None,327.3598938998766,None,327.3598938998766,None,329.85776949999854,None,329.85776949999854,None,0.007631569867953658,0.5076315698679537,329.85776949999854,None,329.85776949999854,None,329.85776949999854,None,329.85776949999854,None,329.85776949999854,None,329.85776949999854,None,11.399999999999999,1.22,333.115866899956,None,1400,,,,,,,,,,,,,,,,,,,f,19,jukexin,2022_Jan_09_1608,emotion,2021.1.4,59.97404323193473,
172,partial,50,0.5,0,0.5,blue,200,0.5,50,0.5,red,red,blue,red,blue,180,180,185,355,5,175,"[-10, 0]","[6, 0]","[-6, 0]","[10, 0]",50,50,0,200,0,23,23,82,,,,,,,,,,,,,,,,,0.005543069913983345,0.5055430699139833,334.12396829994395,None,334.12396829994395,None,right,0.9026829998474568,334.12396829994395,None,334.12396829994395,None,334.12396829994395,None,334.12396829994395,None,334.12396829994395,None,335.05757649987936,None,335.05757649987936,None,0.00625666999258101,0.506256669992581,335.05757649987936,None,335.05757649987936,None,335.05757649987936,None,335.05757649987936,None,335.05757649987936,None,335.05757649987936,None,337.9226236999966,None,337.9226236999966,None,0.00761577021330595,0.507615770213306,337.9226236999966,None,337.9226236999966,None,337.9226236999966,None,337.9226236999966,None,337.9226236999966,None,337.9226236999966,None,11.899999999999999,2.469,342.43077529990114,None,1450,,,,,,,,,,,,,,,,,,,f,19,jukexin,2022_Jan_09_1608,emotion,2021.1.4,59.97404323193473,
77,partial,200,0.2,0,0.8,blue,200,0.2,50,0.8,blue,blue,red,blue,red,72,72,5,67,5,67,"[-6.7, 1.9]","[9.3, 1.9]","[-9.3, -1.9]","[6.7, -1.9]",200,200,0,50,0,24,24,59,,,,,,,,,,,,,,,,,0.005305570084601641,0.5053055700846016,343.43878010008484,None,343.43878010008484,None,right,0.762602600036189,343.43878010008484,None,343.43878010008484,None,343.43878010008484,None,343.43878010008484,None,343.43878010008484,None,344.24063370004296,None,344.24063370004296,None,0.005594870075583458,0.5055948700755835,344.24063370004296,None,344.24063370004296,None,344.24063370004296,None,344.24063370004296,None,344.24063370004296,None,344.24063370004296,None,346.97180570010096,None,346.97180570010096,None,0.007428670069202781,0.5074286700692028,346.97180570010096,None,346.97180570010096,None,346.97180570010096,None,346.97180570010096,None,346.97180570010096,None,346.97180570010096,None,12.799999999999997,2.297,351.3128505998757,None,1650,,,,,,,,,,,,,,,,,,,f,19,jukexin,2022_Jan_09_1608,emotion,2021.1.4,59.97404323193473,
98,partial,0,0.8,-200,0.2,blue,-50,0.2,-200,0.8,blue,red,blue,blue,red,72,72,77,355,5,67,"[-9.3, -1.9]","[9.3, 1.9]","[-6.7, 1.9]","[6.7, -1.9]",0,-50,-200,-200,0,25,25,13,,,,,,,,,,,,,,,,,0.007082369877025485,0.5070823698770255,352.3370209999848,None,352.3370209999848,None,left,3.1121229000855237,352.3370209999848,None,352.3370209999848,None,352.3370209999848,None,352.3370209999848,None,352.3370209999848,None,355.48881000000983,None,355.48881000000983,None,0.005578669952228665,0.5055786699522287,355.48881000000983,None,355.48881000000983,None,355.48881000000983,None,355.48881000000983,None,355.48881000000983,None,355.48881000000983,None,358.434852699982,None,358.434852699982,None,0.008008470293134451,0.5080084702931345,358.434852699982,None,358.434852699982,None,358.434852699982,None,358.434852699982,None,358.434852699982,None,358.434852699982,None,12.600000000000001,2.37,362.8434888999909,None,1650,,,,,,,,,,,,,,,,,,,f,19,jukexin,2022_Jan_09_1608,emotion,2021.1.4,59.97404323193473,
406,partial,0,0.5,-50,0.5,red,0,0.2,-200,0.8,red,red,blue,blue,red,180,72,5,175,77,355,"[-10, 0]","[9.3, 1.9]","[-6, 0]","[6.7, -1.9]",-50,-200,0,0,0,26,26,6,,,,,,,,,,,,,,,,,0.0056139701046049595,0.505613970104605,363.8510032999329,None,363.8510032999329,None,left,1.7151692998595536,363.8510032999329,None,363.8510032999329,None,363.8510032999329,None,363.8510032999329,None,363.8510032999329,None,365.6027548999991,None,365.6027548999991,None,0.005410769954323769,0.5054107699543238,365.6027548999991,None,365.6027548999991,None,365.6027548999991,None,365.6027548999991,None,365.6027548999991,None,365.6027548999991,None,368.3005339000374,None,368.3005339000374,None,0.008140870137140155,0.5081408701371402,368.3005339000374,None,368.3005339000374,None,368.3005339000374,None,368.3005339000374,None,368.3005339000374,None,368.3005339000374,None,7.100000000000001,1.436,371.78070449992083,None,1600,,,,,,,,,,,,,,,,,,,f,19,jukexin,2022_Jan_09_1608,emotion,2021.1.4,59.97404323193473,
324,partial,0,0.8,-50,0.2,red,-50,0.8,-200,0.2,blue,red,blue,red,blue,72,72,5,67,77,355,"[-9.3, -1.9]","[6.7, -1.9]","[-6.7, 1.9]","[9.3, 1.9]",-50,-50,0,-200,0,27,27,53,,,,,,,,,,,,,,,,,0.007140170084312558,0.5071401700843126,372.7997371000238,None,372.7997371000238,None,left,1.2912085999269038,372.7997371000238,None,372.7997371000238,None,372.7997371000238,None,372.7997371000238,None,372.7997371000238,None,374.1192224000115,None,374.1192224000115,None,0.005276369862258434,0.5052763698622584,374.1192224000115,None,374.1192224000115,None,374.1192224000115,None,374.1192224000115,None,374.1192224000115,None,374.1192224000115,None,377.0985103000421,None,377.0985103000421,None,0.007263069972395897,0.5072630699723959,377.0985103000421,None,377.0985103000421,None,377.0985103000421,None,377.0985103000421,None,377.0985103000421,None,377.0985103000421,None,6.399999999999999,2.019,381.1566240999382,None,1550,,,,,,,,,,,,,,,,,,,f,19,jukexin,2022_Jan_09_1608,emotion,2021.1.4,59.97404323193473,
316,partial,0,0.5,-50,0.5,red,-50,0.5,-200,0.5,blue,red,blue,red,blue,180,180,5,175,185,355,"[-10, 0]","[6, 0]","[-6, 0]","[10, 0]",-50,-50,0,-200,0,28,28,29,,,,,,,,,,,,,,,,,0.007149769924581051,0.507149769924581,382.192057200009,None,382.192057200009,None,left,1.4056833998765796,382.192057200009,None,382.192057200009,None,382.192057200009,None,382.192057200009,None,382.192057200009,None,383.63740550004877,None,383.63740550004877,None,0.0003742703702300787,0.5003742703702301,383.63740550004877,None,383.63740550004877,None,383.63740550004877,None,383.63740550004877,None,383.63740550004877,None,383.63740550004877,None,386.374407999916,None,386.374407999916,None,0.007599370088428259,0.5075993700884283,386.374407999916,None,386.374407999916,None,386.374407999916,None,386.374407999916,None,386.374407999916,None,386.374407999916,None,7.5,1.668,390.08825480006635,None,1500,,,,,,,,,,,,,,,,,,,f,19,jukexin,2022_Jan_09_1608,emotion,2021.1.4,59.97404323193473,
73,partial,200,0.5,0,0.5,blue,200,0.5,50,0.5,blue,red,blue,red,blue,180,180,185,355,185,355,"[-10, 0]","[6, 0]","[-6, 0]","[10, 0]",200,200,0,50,0,29,29,83,,,,,,,,,,,,,,,,,0.005543070146813989,0.505543070146814,391.0974351000041,None,391.0974351000041,None,right,0.7770385998301208,391.0974351000041,None,391.0974351000041,None,391.0974351000041,None,391.0974351000041,None,391.0974351000041,None,391.9155876999721,None,391.9155876999721,None,0.0054468701127916574,0.5054468701127917,391.9155876999721,None,391.9155876999721,None,391.9155876999721,None,391.9155876999721,None,391.9155876999721,None,391.9155876999721,None,394.76602409989573,None,394.76602409989573,None,0.00795556977391243,0.5079555697739124,394.76602409989573,None,394.76602409989573,None,394.76602409989573,None,394.76602409989573,None,394.76602409989573,None,394.76602409989573,None,13.200000000000003,2.152,398.9553402001038,None,1700,,,,,,,,,,,,,,,,,,,f,19,jukexin,2022_Jan_09_1608,emotion,2021.1.4,59.97404323193473,
213,partial,0,0.2,-50,0.8,blue,-50,0.8,-200,0.2,red,blue,red,red,blue,72,72,5,67,5,67,"[-6.7, 1.9]","[6.7, -1.9]","[-9.3, -1.9]","[9.3, 1.9]",0,-200,-50,-50,0,30,30,38,,,,,,,,,,,,,,,,,0.01315603987313807,0.5131560398731381,399.98649669997394,None,399.98649669997394,None,left,1.418244499946013,399.98649669997394,None,399.98649669997394,None,399.98649669997394,None,399.98649669997394,None,399.98649669997394,None,401.4467617000919,None,401.4467617000919,None,0.00566686992533505,0.505666869925335,401.4467617000919,None,401.4467617000919,None,401.4467617000919,None,401.4467617000919,None,401.4467617000919,None,401.4467617000919,None,404.25734529993497,None,404.25734529993497,None,0.007248670095577836,0.5072486700955778,404.25734529993497,None,404.25734529993497,None,404.25734529993497,None,404.25734529993497,None,404.25734529993497,None,404.25734529993497,None,12.399999999999999,1.519,407.81721020000987,None,1700,,,,,,,,,,,,,,,,,,,f,19,jukexin,2022_Jan_09_1608,emotion,2021.1.4,59.97404323193473,
163,partial,50,0.5,0,0.5,blue,200,0.2,0,0.8,red,red,blue,blue,red,180,72,185,355,77,355,"[-10, 0]","[9.3, 1.9]","[-6, 0]","[6.7, -1.9]",50,0,0,200,0,31,31,60,,,,,,,,,,,,,,,,,0.006222370080649853,0.5062223700806499,408.8262897999957,None,408.8262897999957,None,right,1.34001180017367,408.8262897999957,None,408.8262897999957,None,408.8262897999957,None,408.8262897999957,None,408.8262897999957,None,410.19407409988344,None,410.19407409988344,None,0.006330169970169663,0.5063301699701697,410.19407409988344,None,410.19407409988344,None,410.19407409988344,None,410.19407409988344,None,410.19407409988344,None,410.19407409988344,None,412.80700349994004,None,412.80700349994004,None,0.007796670077368617,0.5077966700773686,412.80700349994004,None,412.80700349994004,None,412.80700349994004,None,412.80700349994004,None,412.80700349994004,None,412.80700349994004,None,8.100000000000001,1.251,416.0997083000839,None,1700,,,,,,,,,,,,,,,,,,,f,19,jukexin,2022_Jan_09_1608,emotion,2021.1.4,59.97404323193473,
58,partial,50,0.2,0,0.8,blue,200,0.2,0,0.8,blue,blue,red,blue,red,72,72,5,67,5,67,"[-6.7, 1.9]","[9.3, 1.9]","[-9.3, -1.9]","[6.7, -1.9]",50,200,0,0,0,32,32,57,,,,,,,,,,,,,,,,,0.014226580038666725,0.5142265800386667,417.1485452998895,None,417.1485452998895,None,right,0.8789680998306721,417.1485452998895,None,417.1485452998895,None,417.1485452998895,None,417.1485452998895,None,417.1485452998895,None,418.05986339994706,None,418.05986339994706,None,0.005632869899272919,0.5056328698992729,418.05986339994706,None,418.05986339994706,None,418.05986339994706,None,418.05986339994706,None,418.05986339994706,None,418.05986339994706,None,420.8059102999978,None,420.8059102999978,None,0.007912470027804375,0.5079124700278044,420.8059102999978,None,420.8059102999978,None,420.8059102999978,None,420.8059102999978,None,420.8059102999978,None,420.8059102999978,None,12.799999999999997,1.967,424.8146863000002,None,1900,,,,,,,,,,,,,,,,,,,f,19,jukexin,2022_Jan_09_1608,emotion,2021.1.4,59.97404323193473,
383,partial,50,0.2,0,0.8,red,200,0.8,0,0.2,red,blue,red,red,blue,72,72,77,355,5,67,"[-6.7, 1.9]","[6.7, -1.9]","[-9.3, -1.9]","[9.3, 1.9]",0,0,50,200,0,33,33,90,,,,,,,,,,,,,,,,,0.006051969947293401,0.5060519699472934,425.82343699992634,None,425.82343699992634,None,right,1.211954099824652,425.82343699992634,None,425.82343699992634,None,425.82343699992634,None,425.82343699992634,None,425.82343699992634,None,427.0749458000064,None,427.0749458000064,None,0.0056914701126515865,0.5056914701126516,427.0749458000064,None,427.0749458000064,None,427.0749458000064,None,427.0749458000064,None,427.0749458000064,None,427.0749458000064,None,430.07288910006173,None,430.07288910006173,None,0.0067138702142983675,0.5067138702142984,430.07288910006173,None,430.07288910006173,None,430.07288910006173,None,430.07288910006173,None,430.07288910006173,None,430.07288910006173,None,10.200000000000003,4.301,436.41235610004514,None,1900,,,,,,,,,,,,,,,,,,,f,19,jukexin,2022_Jan_09_1608,emotion,2021.1.4,59.97404323193473,
65,partial,50,0.5,0,0.5,blue,200,0.2,50,0.8,blue,red,blue,blue,red,180,72,185,355,5,67,"[-10, 0]","[9.3, 1.9]","[-6, 0]","[6.7, -1.9]",50,200,0,50,0,34,34,61,,,,,,,,,,,,,,,,,0.005585270002484322,0.5055852700024843,437.421271200059,None,437.421271200059,None,right,0.9412101001944393,437.421271200059,None,437.421271200059,None,437.421271200059,None,437.421271200059,None,437.421271200059,None,438.389993699966,None,438.389993699966,None,0.005346570163965225,0.5053465701639652,438.389993699966,None,438.389993699966,None,438.389993699966,None,438.389993699966,None,438.389993699966,None,438.389993699966,None,441.01873059989884,None,441.01873059989884,None,0.007796670077368617,0.5077966700773686,441.01873059989884,None,441.01873059989884,None,441.01873059989884,None,441.01873059989884,None,441.01873059989884,None,441.01873059989884,None,13.899999999999999,2.093,445.16017529997043,None,2100,,,,,,,,,,,,,,,,,,,f,19,jukexin,2022_Jan_09_1608,emotion,2021.1.4,59.97404323193473,
87,partial,0,0.2,-50,0.8,blue,0,0.5,-200,0.5,blue,blue,red,red,blue,72,180,5,67,185,355,"[-6.7, 1.9]","[6, 0]","[-9.3, -1.9]","[10, 0]",0,0,-50,-200,0,35,35,21,,,,,,,,,,,,,,,,,0.006002169800922275,0.5060021698009223,446.1698733998928,None,446.1698733998928,None,left,3.077404099982232,446.1698733998928,None,446.1698733998928,None,446.1698733998928,None,446.1698733998928,None,446.1698733998928,None,449.2874829999637,None,449.2874829999637,None,0.005396069958806038,0.505396069958806,449.2874829999637,None,449.2874829999637,None,449.2874829999637,None,449.2874829999637,None,449.2874829999637,None,449.2874829999637,None,452.19868750008754,None,452.19868750008754,None,0.007997870212420821,0.5079978702124208,452.19868750008754,None,452.19868750008754,None,452.19868750008754,None,452.19868750008754,None,452.19868750008754,None,452.19868750008754,None,11.100000000000001,3.152,457.3914944001008,None,2100,,,,,,,,,,,,,,,,,,,f,19,jukexin,2022_Jan_09_1608,emotion,2021.1.4,59.97404323193473,
405,partial,200,0.8,0,0.2,red,200,0.8,50,0.2,red,red,blue,red,blue,72,72,5,67,5,67,"[-9.3, -1.9]","[6.7, -1.9]","[-6.7, 1.9]","[9.3, 1.9]",0,50,200,200,0,36,36,104,,,,,,,,,,,,,,,,,0.006090170005336404,0.5060901700053364,458.39925129991025,None,458.39925129991025,None,right,0.8676958000287414,458.39925129991025,None,458.39925129991025,None,458.39925129991025,None,458.39925129991025,None,458.39925129991025,None,459.30149909993634,None,459.30149909993634,None,0.005851970054209232,0.5058519700542092,459.30149909993634,None,459.30149909993634,None,459.30149909993634,None,459.30149909993634,None,459.30149909993634,None,459.30149909993634,None,461.9537186999805,None,461.9537186999805,None,0.0007918700575828552,0.5007918700575829,461.9537186999805,None,461.9537186999805,None,461.9537186999805,None,461.9537186999805,None,461.9537186999805,None,461.9537186999805,None,12.399999999999999,1.836,465.8233366999775,None,2150,,,,,,,,,,,,,,,,,,,f,19,jukexin,2022_Jan_09_1608,emotion,2021.1.4,59.97404323193473,
415,partial,0,0.5,-200,0.5,red,-50,0.5,-200,0.5,red,red,blue,red,blue,180,180,5,175,5,175,"[-10, 0]","[6, 0]","[-6, 0]","[10, 0]",-200,-200,0,-50,0,37,37,28,,,,,,,,,,,,,,,,,0.0054198699072003365,0.5054198699072003,466.8325592998881,None,466.8325592998881,None,left,2.372405300149694,466.8325592998881,None,466.8325592998881,None,466.8325592998881,None,466.8325592998881,None,466.8325592998881,None,469.23397559998557,None,469.23397559998557,None,0.0053590701427310705,0.5053590701427311,469.23397559998557,None,469.23397559998557,None,469.23397559998557,None,469.23397559998557,None,469.23397559998557,None,469.23397559998557,None,471.74687710008584,None,471.74687710008584,None,0.007619970012456179,0.5076199700124562,471.74687710008584,None,471.74687710008584,None,471.74687710008584,None,471.74687710008584,None,471.74687710008584,None,471.74687710008584,None,12.899999999999999,2.302,476.087949299952,None,1950,,,,,,,,,,,,,,,,,,,f,19,jukexin,2022_Jan_09_1608,emotion,2021.1.4,59.97404323193473,
205,partial,0,0.8,-200,0.2,blue,-50,0.5,-200,0.5,red,red,blue,red,blue,72,180,77,355,5,175,"[-9.3, -1.9]","[6, 0]","[-6.7, 1.9]","[10, 0]",0,-200,-200,-50,0,38,38,34,,,,,,,,,,,,,,,,,0.004922070074826479,0.5049220700748265,477.0974584000651,None,477.0974584000651,None,left,2.9193525000009686,477.0974584000651,None,477.0974584000651,None,477.0974584000651,None,477.0974584000651,None,477.0974584000651,None,480.04742079996504,None,480.04742079996504,None,0.005141369765624404,0.5051413697656244,480.04742079996504,None,480.04742079996504,None,480.04742079996504,None,480.04742079996504,None,480.04742079996504,None,480.04742079996504,None,482.61210749996826,None,482.61210749996826,None,0.006543369963765144,0.5065433699637651,482.61210749996826,None,482.61210749996826,None,482.61210749996826,None,482.61210749996826,None,482.61210749996826,None,482.61210749996826,None,10.700000000000003,1.952,486.6023989999667,None,1950,,,,,,,,,,,,,,,,,,,f,19,jukexin,2022_Jan_09_1608,emotion,2021.1.4,59.97404323193473,
414,partial,0,0.8,-50,0.2,red,0,0.5,-200,0.5,red,red,blue,red,blue,72,180,5,67,5,175,"[-9.3, -1.9]","[6, 0]","[-6.7, 1.9]","[10, 0]",-50,-200,0,0,0,39,39,30,,,,,,,,,,,,,,,,,0.00601496989838779,0.5060149698983878,487.61086050001904,None,487.61086050001904,None,left,1.5491730000358075,487.61086050001904,None,487.61086050001904,None,487.61086050001904,None,487.61086050001904,None,487.61086050001904,None,489.195615200093,None,489.195615200093,None,0.005997770000249147,0.5059977700002491,489.195615200093,None,489.195615200093,None,489.195615200093,None,489.195615200093,None,489.195615200093,None,489.195615200093,None,491.89192779990844,None,491.89192779990844,None,0.007648169994354248,0.5076481699943542,491.89192779990844,None,491.89192779990844,None,491.89192779990844,None,491.89192779990844,None,491.89192779990844,None,491.89192779990844,None,10.700000000000003,2.052,495.983300199965,None,1900,,,,,,,,,,,,,,,,,,,f,19,jukexin,2022_Jan_09_1608,emotion,2021.1.4,59.97404323193473,
179,partial,50,0.8,0,0.2,blue,200,0.2,50,0.8,red,red,blue,blue,red,72,72,77,355,77,355,"[-9.3, -1.9]","[9.3, 1.9]","[-6.7, 1.9]","[6.7, -1.9]",50,50,0,200,0,40,40,70,,,,,,,,,,,,,,,,,0.004823470022529364,0.5048234700225294,496.9944766999688,None,496.9944766999688,None,right,1.13194189989008,496.9944766999688,None,496.9944766999688,None,496.9944766999688,None,496.9944766999688,None,496.9944766999688,None,498.15921900002286,None,498.15921900002286,None,0.00576166994869709,0.5057616699486971,498.15921900002286,None,498.15921900002286,None,498.15921900002286,None,498.15921900002286,None,498.15921900002286,None,498.15921900002286,None,500.65709750005044,None,500.65709750005044,None,0.007283170009031892,0.5072831700090319,500.65709750005044,None,500.65709750005044,None,500.65709750005044,None,500.65709750005044,None,500.65709750005044,None,500.65709750005044,None,11.0,1.869,504.5649419000838,None,1950,,,,,,,,,,,,,,,,,,,f,19,jukexin,2022_Jan_09_1608,emotion,2021.1.4,59.97404323193473,
321,partial,0,0.2,-50,0.8,red,-50,0.8,-200,0.2,blue,blue,red,red,blue,72,72,77,355,77,355,"[-6.7, 1.9]","[6.7, -1.9]","[-9.3, -1.9]","[9.3, 1.9]",-50,-50,0,-200,0,41,41,41,,,,,,,,,,,,,,,,,0.004953969968482852,0.5049539699684829,505.57509749988094,None,505.57509749988094,None,left,1.3357083001174033,505.57509749988094,None,505.57509749988094,None,505.57509749988094,None,505.57509749988094,None,505.57509749988094,None,506.9408241000492,None,506.9408241000492,None,0.006452969973906875,0.5064529699739069,506.9408241000492,None,506.9408241000492,None,506.9408241000492,None,506.9408241000492,None,506.9408241000492,None,506.9408241000492,None,509.80587229994126,None,509.80587229994126,None,0.007192469900473952,0.507192469900474,509.80587229994126,None,509.80587229994126,None,509.80587229994126,None,509.80587229994126,None,509.80587229994126,None,509.80587229994126,None,10.200000000000003,1.467,513.3133237999864,None,1900,,,,,,,,,,,,,,,,,,,f,19,jukexin,2022_Jan_09_1608,emotion,2021.1.4,59.97404323193473,
404,partial,200,0.8,0,0.2,red,200,0.2,50,0.8,red,red,blue,blue,red,72,72,5,67,77,355,"[-9.3, -1.9]","[9.3, 1.9]","[-6.7, 1.9]","[6.7, -1.9]",0,50,200,200,0,42,42,68,,,,,,,,,,,,,,,,,0.005431569879874587,0.5054315698798746,514.3229213999584,None,514.3229213999584,None,right,0.7105471999384463,514.3229213999584,None,514.3229213999584,None,514.3229213999584,None,514.3229213999584,None,514.3229213999584,None,515.0726769999601,None,515.0726769999601,None,0.004866670351475477,0.5048666703514755,515.0726769999601,None,515.0726769999601,None,515.0726769999601,None,515.0726769999601,None,515.0726769999601,None,515.0726769999601,None,517.6698268000036,None,517.6698268000036,None,0.007752669975161552,0.5077526699751616,517.6698268000036,None,517.6698268000036,None,517.6698268000036,None,517.6698268000036,None,517.6698268000036,None,517.6698268000036,None,9.899999999999999,1.928,521.6458993998822,None,1950,,,,,,,,,,,,,,,,,,,f,19,jukexin,2022_Jan_09_1608,emotion,2021.1.4,59.97404323193473,
215,partial,0,0.8,-50,0.2,blue,-50,0.2,-200,0.8,red,red,blue,blue,red,72,72,77,355,77,355,"[-9.3, -1.9]","[9.3, 1.9]","[-6.7, 1.9]","[6.7, -1.9]",0,-200,-50,-50,0,43,43,14,,,,,,,,,,,,,,,,,0.006236970191821456,0.5062369701918215,522.6534122999292,None,522.6534122999292,None,left,1.1092467999551445,522.6534122999292,None,522.6534122999292,None,522.6534122999292,None,522.6534122999292,None,522.6534122999292,None,523.788874699967,None,523.788874699967,None,0.0053821702022105455,0.5053821702022105,523.788874699967,None,523.788874699967,None,523.788874699967,None,523.788874699967,None,523.788874699967,None,523.788874699967,None,526.3352308999747,None,526.3352308999747,None,0.007917470065876842,0.5079174700658768,526.3352308999747,None,526.3352308999747,None,526.3352308999747,None,526.3352308999747,None,526.3352308999747,None,526.3352308999747,None,9.100000000000001,1.201,529.5766710001044,None,1950,,,,,,,,,,,,,,,,,,,f,19,jukexin,2022_Jan_09_1608,emotion,2021.1.4,59.97404323193473,
102,partial,0,0.5,-50,0.5,blue,-50,0.8,-200,0.2,blue,red,blue,red,blue,180,72,185,355,77,355,"[-10, 0]","[6.7, -1.9]","[-6, 0]","[9.3, 1.9]",0,-50,-50,-200,0,44,44,47,,,,,,,,,,,,,,,,,8.107023313641548e-05,0.5000810702331364,530.5910183000378,None,530.5910183000378,None,left,2.071019400143996,530.5910183000378,None,530.5910183000378,None,530.5910183000378,None,530.5910183000378,None,530.5910183000378,None,532.7053700000979,None,532.7053700000979,None,0.005345470039173961,0.505345470039174,532.7053700000979,None,532.7053700000979,None,532.7053700000979,None,532.7053700000979,None,532.7053700000979,None,532.7053700000979,None,535.5174739998765,None,535.5174739998765,None,0.007475769845768809,0.5074757698457688,535.5174739998765,None,535.5174739998765,None,535.5174739998765,None,535.5174739998765,None,535.5174739998765,None,535.5174739998765,None,8.899999999999999,2.85,540.4077403000556,None,1950,,,,,,,,,,,,,,,,,,,f,19,jukexin,2022_Jan_09_1608,emotion,2021.1.4,59.97404323193473,
177,partial,50,0.2,0,0.8,blue,200,0.8,50,0.2,red,blue,red,red,blue,72,72,5,67,5,67,"[-6.7, 1.9]","[6.7, -1.9]","[-9.3, -1.9]","[9.3, 1.9]",50,50,0,200,0,45,45,94,,,,,,,,,,,,,,,,,0.005453869933262467,0.5054538699332625,541.4168875000905,None,541.4168875000905,None,right,0.9194978999439627,541.4168875000905,None,541.4168875000905,None,541.4168875000905,None,541.4168875000905,None,541.4168875000905,None,542.3697496000677,None,542.3697496000677,None,0.005194569937884808,0.5051945699378848,542.3697496000677,None,542.3697496000677,None,542.3697496000677,None,542.3697496000677,None,542.3697496000677,None,542.3697496000677,None,545.1150344999041,None,545.1150344999041,None,0.00740797002799809,0.5074079700279981,545.1150344999041,None,545.1150344999041,None,545.1150344999041,None,545.1150344999041,None,545.1150344999041,None,545.1150344999041,None,8.600000000000001,1.585,548.7455058998894,None,2000,,,,,,,,,,,,,,,,,,,f,19,jukexin,2022_Jan_09_1608,emotion,2021.1.4,59.97404323193473,
386,partial,50,0.8,0,0.2,red,200,0.8,0,0.2,red,red,blue,red,blue,72,72,5,67,5,67,"[-9.3, -1.9]","[6.7, -1.9]","[-6.7, 1.9]","[9.3, 1.9]",0,0,50,200,0,46,46,102,,,,,,,,,,,,,,,,,0.007525469874963164,0.5075254698749632,549.7648283001035,None,549.7648283001035,None,right,1.2299015999305993,549.7648283001035,None,549.7648283001035,None,549.7648283001035,None,549.7648283001035,None,549.7648283001035,None,551.0322247000877,None,551.0322247000877,None,0.00596047006547451,0.5059604700654745,551.0322247000877,None,551.0322247000877,None,551.0322247000877,None,551.0322247000877,None,551.0322247000877,None,551.0322247000877,None,553.7803805998992,None,553.7803805998992,None,0.008143970044329762,0.5081439700443298,553.7803805998992,None,553.7803805998992,None,553.7803805998992,None,553.7803805998992,None,553.7803805998992,None,553.7803805998992,None,6.600000000000001,3.517,559.338299300056,None,2000,,,,,,,,,,,,,,,,,,,f,19,jukexin,2022_Jan_09_1608,emotion,2021.1.4,59.97404323193473,
385,partial,50,0.8,0,0.2,red,200,0.2,0,0.8,red,red,blue,blue,red,72,72,5,67,77,355,"[-9.3, -1.9]","[9.3, 1.9]","[-6.7, 1.9]","[6.7, -1.9]",0,0,50,200,0,47,47,66,,,,,,,,,,,,,,,,,0.007110669976100326,0.5071106699761003,560.3625461999327,None,560.3625461999327,None,right,3.174782000016421,560.3625461999327,None,560.3625461999327,None,560.3625461999327,None,560.3625461999327,None,560.3625461999327,None,563.564495800063,None,563.564495800063,None,0.005353569984436035,0.505353569984436,563.564495800063,None,563.564495800063,None,563.564495800063,None,563.564495800063,None,563.564495800063,None,563.564495800063,None,566.312047699932,None,566.312047699932,None,0.007614470086991787,0.5076144700869918,566.312047699932,None,566.312047699932,None,566.312047699932,None,566.312047699932,None,566.312047699932,None,566.312047699932,None,6.600000000000001,3.167,571.5190801999997,None,2000,,,,,,,,,,,,,,,,,,,f,19,jukexin,2022_Jan_09_1608,emotion,2021.1.4,59.97404323193473,
402,partial,200,0.2,0,0.8,red,200,0.8,50,0.2,red,blue,red,red,blue,72,72,77,355,5,67,"[-6.7, 1.9]","[6.7, -1.9]","[-9.3, -1.9]","[9.3, 1.9]",0,50,200,200,0,48,48,92,,,,,,,,,,,,,,,,,0.01653713989071548,0.5165371398907155,572.5329692999367,None,572.5329692999367,None,right,0.6742294998839498,572.5329692999367,None,572.5329692999367,None,572.5329692999367,None,572.5329692999367,None,572.5329692999367,None,573.2455182999838,None,573.2455182999838,None,0.00615597004070878,0.5061559700407088,573.2455182999838,None,573.2455182999838,None,573.2455182999838,None,573.2455182999838,None,573.2455182999838,None,573.2455182999838,None,576.1241303998977,None,576.1241303998977,None,0.00777267012745142,0.5077726701274514,576.1241303998977,None,576.1241303998977,None,576.1241303998977,None,576.1241303998977,None,576.1241303998977,None,576.1241303998977,None,7.799999999999997,3.518,581.6832775999792,None,2050,,,,,,,,,,,,,,,,,,,f,19,jukexin,2022_Jan_09_1608,emotion,2021.1.4,59.97404323193473,
389,partial,50,0.5,0,0.5,red,200,0.2,50,0.8,red,red,blue,blue,red,180,72,5,175,77,355,"[-10, 0]","[9.3, 1.9]","[-6, 0]","[6.7, -1.9]",0,50,50,200,0,49,49,64,,,,,,,,,,,,,,,,,0.006064269924536347,0.5060642699245363,582.6925081000663,None,582.6925081000663,None,right,0.6509372000582516,582.6925081000663,None,582.6925081000663,None,582.6925081000663,None,582.6925081000663,None,582.6925081000663,None,583.3780881999992,None,583.3780881999992,None,0.005386770004406571,0.5053867700044066,583.3780881999992,None,583.3780881999992,None,583.3780881999992,None,583.3780881999992,None,583.3780881999992,None,583.3780881999992,None,586.1071218000725,None,586.1071218000725,None,0.007719570072367787,0.5077195700723678,586.1071218000725,None,586.1071218000725,None,586.1071218000725,None,586.1071218000725,None,586.1071218000725,None,586.1071218000725,None,8.600000000000001,1.834,589.9816495999694,None,2100,,,,,,,,,,,,,,,,,,,f,19,jukexin,2022_Jan_09_1608,emotion,2021.1.4,59.97404323193473,
182,partial,200,0.5,0,0.5,blue,200,0.2,50,0.8,red,red,blue,blue,red,180,72,185,355,77,355,"[-10, 0]","[9.3, 1.9]","[-6, 0]","[6.7, -1.9]",200,50,0,200,0,50,50,62,,,,,,,,,,,,,,,,,0.0051420696545392275,0.5051420696545392,590.9928657000419,None,590.9928657000419,None,left,1.7057716001290828,590.9928657000419,None,590.9928657000419,None,590.9928657000419,None,590.9928657000419,None,590.9928657000419,None,592.726585800061,None,592.726585800061,None,0.005754769779741764,0.5057547697797418,592.726585800061,None,592.726585800061,None,592.726585800061,None,592.726585800061,None,592.726585800061,None,592.726585800061,None,595.5952486998867,None,595.5952486998867,None,0.016039740294218063,0.5160397402942181,595.5952486998867,None,595.5952486998867,None,595.5952486998867,None,595.5952486998867,None,595.5952486998867,None,595.5952486998867,None,12.299999999999997,1.17,598.7974429999013,None,2300,,,,,,,,,,,,,,,,,,,f,19,jukexin,2022_Jan_09_1608,emotion,2021.1.4,59.97404323193473,
292,partial,200,0.2,0,0.8,red,200,0.5,50,0.5,blue,blue,red,red,blue,72,180,77,355,185,355,"[-6.7, 1.9]","[6, 0]","[-9.3, -1.9]","[10, 0]",0,200,200,50,0,51,51,77,,,,,,,,,,,,,,,,,0.005179770058020949,0.505179770058021,599.8067113000434,None,599.8067113000434,None,right,2.7489619001280516,599.8067113000434,None,599.8067113000434,None,599.8067113000434,None,599.8067113000434,None,599.8067113000434,None,602.5921060000546,None,602.5921060000546,None,0.00434236996807158,0.5043423699680716,602.5921060000546,None,602.5921060000546,None,602.5921060000546,None,602.5921060000546,None,602.5921060000546,None,602.5921060000546,None,605.2026869000401,None,605.2026869000401,None,0.008051569806411862,0.5080515698064119,605.2026869000401,None,605.2026869000401,None,605.2026869000401,None,605.2026869000401,None,605.2026869000401,None,605.2026869000401,None,13.0,2.634,609.8786287000403,None,2500,,,,,,,,,,,,,,,,,,,f,19,jukexin,2022_Jan_09_1608,emotion,2021.1.4,59.97404323193473,
285,partial,50,0.2,0,0.8,red,200,0.8,50,0.2,blue,blue,red,red,blue,72,72,77,355,77,355,"[-6.7, 1.9]","[6.7, -1.9]","[-9.3, -1.9]","[9.3, 1.9]",0,200,50,50,0,52,52,91,,,,,,,,,,,,,,,,,0.0056245699524879456,0.505624569952488,610.8875609999523,None,610.8875609999523,None,right,1.2236573998816311,610.8875609999523,None,610.8875609999523,None,610.8875609999523,None,610.8875609999523,None,610.8875609999523,None,612.1379638998769,None,612.1379638998769,None,0.005963670089840889,0.5059636700898409,612.1379638998769,None,612.1379638998769,None,612.1379638998769,None,612.1379638998769,None,612.1379638998769,None,612.1379638998769,None,614.7177216999698,None,614.7177216999698,None,0.008031269768252969,0.508031269768253,614.7177216999698,None,614.7177216999698,None,614.7177216999698,None,614.7177216999698,None,614.7177216999698,None,614.7177216999698,None,15.799999999999997,1.201,617.9599870999809,None,2700,,,,,,,,,,,,,,,,,,,f,19,jukexin,2022_Jan_09_1608,emotion,2021.1.4,59.97404323193473,
103,partial,0,0.2,-50,0.8,blue,-50,0.5,-200,0.5,blue,blue,red,red,blue,72,180,5,67,185,355,"[-6.7, 1.9]","[6, 0]","[-9.3, -1.9]","[10, 0]",0,-50,-50,-200,0,53,53,23,,,,,,,,,,,,,,,,,0.005639470182359219,0.5056394701823592,618.9705193999689,None,618.9705193999689,None,left,2.5228307000361383,618.9705193999689,None,618.9705193999689,None,618.9705193999689,None,618.9705193999689,None,618.9705193999689,None,621.5207299001049,None,621.5207299001049,None,0.005651270039379597,0.5056512700393796,621.5207299001049,None,621.5207299001049,None,621.5207299001049,None,621.5207299001049,None,621.5207299001049,None,621.5207299001049,None,624.4819857000839,None,624.4819857000839,None,0.008174269925802946,0.508174269925803,624.4819857000839,None,624.4819857000839,None,624.4819857000839,None,624.4819857000839,None,624.4819857000839,None,624.4819857000839,None,13.0,1.768,628.2914638000075,None,2700,,,,,,,,,,,,,,,,,,,f,19,jukexin,2022_Jan_09_1608,emotion,2021.1.4,59.97404323193473,
390,partial,50,0.5,0,0.5,red,200,0.8,50,0.2,red,red,blue,red,blue,180,72,5,175,5,67,"[-10, 0]","[6.7, -1.9]","[-6, 0]","[9.3, 1.9]",0,50,50,200,0,54,54,100,,,,,,,,,,,,,,,,,0.006248570280149579,0.5062485702801496,629.319666299969,None,629.319666299969,None,right,1.4389739001635462,629.319666299969,None,629.319666299969,None,629.319666299969,None,629.319666299969,None,629.319666299969,None,630.8011439000256,None,630.8011439000256,None,0.006078169913962483,0.5060781699139625,630.8011439000256,None,630.8011439000256,None,630.8011439000256,None,630.8011439000256,None,630.8011439000256,None,630.8011439000256,None,633.314323999919,None,633.314323999919,None,0.008052769815549254,0.5080527698155493,633.314323999919,None,633.314323999919,None,633.314323999919,None,633.314323999919,None,633.314323999919,None,633.314323999919,None,13.700000000000003,2.27,637.6222008001059,None,2750,,,,,,,,,,,,,,,,,,,f,19,jukexin,2022_Jan_09_1608,emotion,2021.1.4,59.97404323193473,
425,partial,0,0.5,-50,0.5,red,-50,0.2,-200,0.8,red,red,blue,blue,red,180,72,5,175,77,355,"[-10, 0]","[9.3, 1.9]","[-6, 0]","[6.7, -1.9]",-50,-200,0,-50,0,55,55,8,,,,,,,,,,,,,,,,,0.005185869988054037,0.505185869988054,638.6314759999514,None,638.6314759999514,None,left,1.4154590000398457,638.6314759999514,None,638.6314759999514,None,638.6314759999514,None,638.6314759999514,None,638.6314759999514,None,640.0819280999713,None,640.0819280999713,None,0.006134869996458292,0.5061348699964583,640.0819280999713,None,640.0819280999713,None,640.0819280999713,None,640.0819280999713,None,640.0819280999713,None,640.0819280999713,None,642.9491868000478,None,642.9491868000478,None,0.0067148697562515736,0.5067148697562516,642.9491868000478,None,642.9491868000478,None,642.9491868000478,None,642.9491868000478,None,642.9491868000478,None,642.9491868000478,None,13.600000000000001,2.686,647.670388400089,None,2700,,,,,,,,,,,,,,,,,,,f,19,jukexin,2022_Jan_09_1608,emotion,2021.1.4,59.97404323193473,
272,partial,50,0.5,0,0.5,red,200,0.8,0,0.2,blue,red,blue,red,blue,180,72,5,175,77,355,"[-10, 0]","[6.7, -1.9]","[-6, 0]","[9.3, 1.9]",0,200,50,0,0,56,56,99,,,,,,,,,,,,,,,,,0.005712569924071431,0.5057125699240714,648.6792774000205,None,648.6792774000205,None,right,1.2341108999680728,648.6792774000205,None,648.6792774000205,None,648.6792774000205,None,648.6792774000205,None,648.6792774000205,None,649.9515666000079,None,649.9515666000079,None,0.00401657004840672,0.5040165700484067,649.9515666000079,None,649.9515666000079,None,649.9515666000079,None,649.9515666000079,None,649.9515666000079,None,649.9515666000079,None,652.8434236999601,None,652.8434236999601,None,0.007910770131275058,0.5079107701312751,652.8434236999601,None,652.8434236999601,None,652.8434236999601,None,652.8434236999601,None,652.8434236999601,None,652.8434236999601,None,16.200000000000003,2.069,656.9516976000741,None,2900,,,,,,,,,,,,,,,,,,,f,19,jukexin,2022_Jan_09_1608,emotion,2021.1.4,59.97404323193473,
83,partial,0,0.5,-50,0.5,blue,0,0.8,-200,0.2,blue,red,blue,red,blue,180,72,185,355,77,355,"[-10, 0]","[6.7, -1.9]","[-6, 0]","[9.3, 1.9]",0,0,-50,-200,0,57,57,45,,,,,,,,,,,,,,,,,0.00485936994664371,0.5048593699466437,657.9619126999751,None,657.9619126999751,None,left,1.4176332999486476,657.9619126999751,None,657.9619126999751,None,657.9619126999751,None,657.9619126999751,None,657.9619126999751,None,659.4113690000959,None,659.4113690000959,None,0.005301970057189465,0.5053019700571895,659.4113690000959,None,659.4113690000959,None,659.4113690000959,None,659.4113690000959,None,659.4113690000959,None,659.4113690000959,None,661.992196300067,None,661.992196300067,None,0.007600970100611448,0.5076009701006114,661.992196300067,None,661.992196300067,None,661.992196300067,None,661.992196300067,None,661.992196300067,None,661.992196300067,None,15.5,2.833,666.8672927999869,None,2900,,,,,,,,,,,,,,,,,,,f,19,jukexin,2022_Jan_09_1608,emotion,2021.1.4,59.97404323193473,
430,partial,0,0.8,-50,0.2,red,-50,0.5,-200,0.5,red,red,blue,red,blue,72,180,5,67,5,175,"[-9.3, -1.9]","[6, 0]","[-6.7, 1.9]","[10, 0]",-50,-200,0,-50,0,58,58,32,,,,,,,,,,,,,,,,,0.005947069963440299,0.5059470699634403,667.8748443999793,None,667.8748443999793,None,left,1.8035225998610258,667.8748443999793,None,667.8748443999793,None,667.8748443999793,None,667.8748443999793,None,667.8748443999793,None,669.7095967999194,None,669.7095967999194,None,0.004972469760105014,0.504972469760105,669.7095967999194,None,669.7095967999194,None,669.7095967999194,None,669.7095967999194,None,669.7095967999194,None,669.7095967999194,None,672.383927699877,None,672.383927699877,None,0.00708947004750371,0.5070894700475037,672.383927699877,None,672.383927699877,None,672.383927699877,None,672.383927699877,None,672.383927699877,None,672.383927699877,None,14.099999999999994,2.527,676.9650183001067,None,2850,,,,,,,,,,,,,,,,,,,f,19,jukexin,2022_Jan_09_1608,emotion,2021.1.4,59.97404323193473,
423,partial,0,0.8,-200,0.2,red,-50,0.8,-200,0.2,red,red,blue,red,blue,72,72,5,67,5,67,"[-9.3, -1.9]","[6.7, -1.9]","[-6.7, 1.9]","[9.3, 1.9]",-200,-200,0,-50,0,59,59,52,,,,,,,,,,,,,,,,,0.006995170144364238,0.5069951701443642,677.9886167999357,None,677.9886167999357,None,left,2.5966568998992443,677.9886167999357,None,677.9886167999357,None,677.9886167999357,None,677.9886167999357,None,677.9886167999357,None,680.6370170998853,None,680.6370170998853,None,0.0054388700518757105,0.5054388700518757,680.6370170998853,None,680.6370170998853,None,680.6370170998853,None,680.6370170998853,None,680.6370170998853,None,680.6370170998853,None,683.155976699898,None,683.155976699898,None,0.0066854702308773994,0.5066854702308774,683.155976699898,None,683.155976699898,None,683.155976699898,None,683.155976699898,None,683.155976699898,None,683.155976699898,None,8.600000000000001,2.182,687.3788695000112,None,2650,,,,,,,,,,,,,,,,,,,f,19,jukexin,2022_Jan_09_1608,emotion,2021.1.4,59.97404323193473,
192,partial,0,0.5,-50,0.5,blue,0,0.5,-200,0.5,red,red,blue,red,blue,180,180,185,355,5,175,"[-10, 0]","[6, 0]","[-6, 0]","[10, 0]",0,-200,-50,0,0,60,60,24,,,,,,,,,,,,,,,,,0.015465839998796582,0.5154658399987966,688.3951423999388,None,688.3951423999388,None,left,1.5837769000791013,688.3951423999388,None,688.3951423999388,None,688.3951423999388,None,688.3951423999388,None,688.3951423999388,None,690.0055493998807,None,690.0055493998807,None,0.005653470056131482,0.5056534700561315,690.0055493998807,None,690.0055493998807,None,690.0055493998807,None,690.0055493998807,None,690.0055493998807,None,690.0055493998807,None,692.6362628000788,None,692.6362628000788,None,0.008211869979277253,0.5082118699792773,692.6362628000788,None,692.6362628000788,None,692.6362628000788,None,692.6362628000788,None,692.6362628000788,None,692.6362628000788,None,8.700000000000003,2.518,697.1949066000525,None,2650,,,,,,,,,,,,,,,,,,,f,19,jukexin,2022_Jan_09_1608,emotion,2021.1.4,59.97404323193473,
201,partial,0,0.5,-200,0.5,blue,-50,0.8,-200,0.2,red,red,blue,red,blue,180,72,185,355,5,67,"[-10, 0]","[6.7, -1.9]","[-6, 0]","[9.3, 1.9]",0,-200,-200,-50,0,61,61,46,,,,,,,,,,,,,,,,,0.006914570229128003,0.506914570229128,698.2194324000739,None,698.2194324000739,None,right,2.78354509989731,698.2194324000739,None,698.2194324000739,None,698.2194324000739,None,698.2194324000739,None,698.2194324000739,None,701.0375186998863,None,701.0375186998863,None,0.0050266701728105545,0.5050266701728106,701.0375186998863,None,701.0375186998863,None,701.0375186998863,None,701.0375186998863,None,701.0375186998863,None,701.0375186998863,None,703.7673335000873,None,703.7673335000873,None,0.007462270325049758,0.5074622703250498,703.7673335000873,None,703.7673335000873,None,703.7673335000873,None,703.7673335000873,None,703.7673335000873,None,703.7673335000873,None,6.700000000000003,2.666,708.4759885999374,None,2450,,,,,,,,,,,,,,,,,,,f,19,jukexin,2022_Jan_09_1608,emotion,2021.1.4,59.97404323193473,
287,partial,50,0.8,0,0.2,red,200,0.2,50,0.8,blue,red,blue,blue,red,72,72,5,67,5,67,"[-9.3, -1.9]","[9.3, 1.9]","[-6.7, 1.9]","[6.7, -1.9]",0,200,50,50,0,62,62,67,,,,,,,,,,,,,,,,,0.005503069842234254,0.5055030698422343,709.4847412998788,None,709.4847412998788,None,right,0.7686220000032336,709.4847412998788,None,709.4847412998788,None,709.4847412998788,None,709.4847412998788,None,709.4847412998788,None,710.2839923000429,None,710.2839923000429,None,0.005643669981509447,0.5056436699815094,710.2839923000429,None,710.2839923000429,None,710.2839923000429,None,710.2839923000429,None,710.2839923000429,None,710.2839923000429,None,712.8814314000774,None,712.8814314000774,None,0.008219070034101605,0.5082190700341016,712.8814314000774,None,712.8814314000774,None,712.8814314000774,None,712.8814314000774,None,712.8814314000774,None,712.8814314000774,None,12.5,1.709,716.6399987000041,None,2650,,,,,,,,,,,,,,,,,,,f,19,jukexin,2022_Jan_09_1608,emotion,2021.1.4,59.97404323193473,
164,partial,50,0.5,0,0.5,blue,200,0.8,0,0.2,red,red,blue,red,blue,180,72,185,355,5,67,"[-10, 0]","[6.7, -1.9]","[-6, 0]","[9.3, 1.9]",50,0,0,200,0,63,63,96,,,,,,,,,,,,,,,,,0.005859469762071967,0.505859469762072,717.649653499946,None,717.649653499946,None,right,1.0344812001567334,717.649653499946,None,717.649653499946,None,717.649653499946,None,717.649653499946,None,717.649653499946,None,718.7161703999154,None,718.7161703999154,None,0.005948669975623488,0.5059486699756235,718.7161703999154,None,718.7161703999154,None,718.7161703999154,None,718.7161703999154,None,718.7161703999154,None,718.7161703999154,None,721.2462927999441,None,721.2462927999441,None,0.008094070013612509,0.5080940700136125,721.2462927999441,None,721.2462927999441,None,721.2462927999441,None,721.2462927999441,None,721.2462927999441,None,721.2462927999441,None,10.299999999999997,0.967,724.2557681000326,None,2650,,,,,,,,,,,,,,,,,,,f,19,jukexin,2022_Jan_09_1608,emotion,2021.1.4,59.97404323193473,
59,partial,50,0.2,0,0.8,blue,200,0.8,0,0.2,blue,blue,red,red,blue,72,72,5,67,77,355,"[-6.7, 1.9]","[6.7, -1.9]","[-9.3, -1.9]","[9.3, 1.9]",50,200,0,0,0,64,64,93,,,,,,,,,,,,,,,,,0.004579570144414902,0.5045795701444149,725.2644891000818,None,725.2644891000818,None,right,0.8908647999633104,725.2644891000818,None,725.2644891000818,None,725.2644891000818,None,725.2644891000818,None,725.2644891000818,None,726.1839757000562,None,726.1839757000562,None,0.005360669922083616,0.5053606699220836,726.1839757000562,None,726.1839757000562,None,726.1839757000562,None,726.1839757000562,None,726.1839757000562,None,726.1839757000562,None,729.0399827999063,None,729.0399827999063,None,0.013382740085944533,0.5133827400859445,729.0399827999063,None,729.0399827999063,None,729.0399827999063,None,729.0399827999063,None,729.0399827999063,None,729.0399827999063,None,13.899999999999999,1.435,732.5212179000955,None,2850,,,,,,,,,,,,,,,,,,,f,19,jukexin,2022_Jan_09_1608,emotion,2021.1.4,59.97404323193473,
310,partial,0,0.2,-200,0.8,red,-50,0.5,-200,0.5,blue,blue,red,red,blue,72,180,77,355,185,355,"[-6.7, 1.9]","[6, 0]","[-9.3, -1.9]","[10, 0]",-200,-50,0,-200,0,65,65,19,,,,,,,,,,,,,,,,,0.005023670149967074,0.5050236701499671,733.5294516999274,None,733.5294516999274,None,right,6.065342999994755,733.5294516999274,None,733.5294516999274,None,733.5294516999274,None,733.5294516999274,None,733.5294516999274,None,739.6311252000742,None,739.6311252000742,None,0.0051995699759572744,0.5051995699759573,739.6311252000742,None,739.6311252000742,None,739.6311252000742,None,739.6311252000742,None,739.6311252000742,None,739.6311252000742,None,742.5101699999068,None,742.5101699999068,None,0.007137969834730029,0.50713796983473,742.5101699999068,None,742.5101699999068,None,742.5101699999068,None,742.5101699999068,None,742.5101699999068,None,742.5101699999068,None,16.0,1.317,745.867936299881,None,2800,,,,,,,,,,,,,,,,,,,f,19,jukexin,2022_Jan_09_1608,emotion,2021.1.4,59.97404323193473,
91,partial,0,0.5,-200,0.5,blue,-50,0.5,-200,0.5,blue,red,blue,red,blue,180,180,185,355,185,355,"[-10, 0]","[6, 0]","[-6, 0]","[10, 0]",0,-50,-200,-200,0,66,66,25,,,,,,,,,,,,,,,,,0.005863569909706712,0.5058635699097067,746.8790315000806,None,746.8790315000806,None,left,3.7295554999727756,746.8790315000806,None,746.8790315000806,None,746.8790315000806,None,746.8790315000806,None,746.8790315000806,None,750.644549000077,None,750.644549000077,None,0.004882370121777058,0.5048823701217771,750.644549000077,None,750.644549000077,None,750.644549000077,None,750.644549000077,None,750.644549000077,None,750.644549000077,None,753.3577717998996,None,753.3577717998996,None,0.008024570066481829,0.5080245700664818,753.3577717998996,None,753.3577717998996,None,753.3577717998996,None,753.3577717998996,None,753.3577717998996,None,753.3577717998996,None,18.599999999999994,0.952,756.3495287999976,None,2800,,,,,,,,,,,,,,,,,,,f,19,jukexin,2022_Jan_09_1608,emotion,2021.1.4,59.97404323193473,
168,partial,50,0.2,0,0.8,blue,200,0.5,0,0.5,red,blue,red,red,blue,72,180,5,67,5,175,"[-6.7, 1.9]","[6, 0]","[-9.3, -1.9]","[10, 0]",50,0,0,200,0,67,67,72,,,,,,,,,,,,,,,,,0.005686069838702679,0.5056860698387027,757.359431500081,None,757.359431500081,None,right,1.3507368001155555,757.359431500081,None,757.359431500081,None,757.359431500081,None,757.359431500081,None,757.359431500081,None,758.7416401999071,None,758.7416401999071,None,0.006406869972124696,0.5064068699721247,758.7416401999071,None,758.7416401999071,None,758.7416401999071,None,758.7416401999071,None,758.7416401999071,None,758.7416401999071,None,761.4402326999698,None,761.4402326999698,None,0.007268870249390602,0.5072688702493906,761.4402326999698,None,761.4402326999698,None,761.4402326999698,None,761.4402326999698,None,761.4402326999698,None,761.4402326999698,None,15.200000000000003,1.934,765.4146392999683,None,2800,,,,,,,,,,,,,,,,,,,f,19,jukexin,2022_Jan_09_1608,emotion,2021.1.4,59.97404323193473,
391,partial,50,0.2,0,0.8,red,200,0.5,50,0.5,red,blue,red,red,blue,72,180,77,355,5,175,"[-6.7, 1.9]","[6, 0]","[-9.3, -1.9]","[10, 0]",0,50,50,200,0,68,68,76,,,,,,,,,,,,,,,,,0.005208170041441917,0.5052081700414419,766.4239807999693,None,766.4239807999693,None,right,1.0298162999097258,766.4239807999693,None,766.4239807999693,None,766.4239807999693,None,766.4239807999693,None,766.4239807999693,None,767.492343599908,None,767.492343599908,None,0.005432069767266512,0.5054320697672665,767.492343599908,None,767.492343599908,None,767.492343599908,None,767.492343599908,None,767.492343599908,None,767.492343599908,None,770.255015600007,None,770.255015600007,None,0.007931670174002647,0.5079316701740026,770.255015600007,None,770.255015600007,None,770.255015600007,None,770.255015600007,None,770.255015600007,None,770.255015600007,None,11.5,1.885,774.1795971998945,None,2850,,,,,,,,,,,,,,,,,,,f,19,jukexin,2022_Jan_09_1608,emotion,2021.1.4,59.97404323193473,
288,partial,50,0.8,0,0.2,red,200,0.8,50,0.2,blue,red,blue,red,blue,72,72,5,67,77,355,"[-9.3, -1.9]","[6.7, -1.9]","[-6.7, 1.9]","[9.3, 1.9]",0,200,50,50,0,69,69,103,,,,,,,,,,,,,,,,,0.0043788698967546225,0.5043788698967546,775.189130899962,None,775.189130899962,None,right,0.9434943001251668,775.189130899962,None,775.189130899962,None,775.189130899962,None,775.189130899962,None,775.189130899962,None,776.1725844000466,None,776.1725844000466,None,0.005141669884324074,0.5051416698843241,776.1725844000466,None,776.1725844000466,None,776.1725844000466,None,776.1725844000466,None,776.1725844000466,None,776.1725844000466,None,779.0031926000956,None,779.0031926000956,None,0.007616070099174976,0.507616070099175,779.0031926000956,None,779.0031926000956,None,779.0031926000956,None,779.0031926000956,None,779.0031926000956,None,779.0031926000956,None,17.299999999999997,3.484,784.5265993999783,None,3050,,,,,,,,,,,,,,,,,,,f,19,jukexin,2022_Jan_09_1608,emotion,2021.1.4,59.97404323193473,
382,partial,50,0.2,0,0.8,red,200,0.2,0,0.8,red,blue,red,blue,red,72,72,77,355,77,355,"[-6.7, 1.9]","[9.3, 1.9]","[-9.3, -1.9]","[6.7, -1.9]",0,0,50,200,0,70,70,54,,,,,,,,,,,,,,,,,0.004962770035490394,0.5049627700354904,785.5389382001013,None,785.5389382001013,None,right,1.2947337001096457,785.5389382001013,None,785.5389382001013,None,785.5389382001013,None,785.5389382001013,None,785.5389382001013,None,786.8696147999726,None,786.8696147999726,None,0.005109070101752877,0.5051090701017529,786.8696147999726,None,786.8696147999726,None,786.8696147999726,None,786.8696147999726,None,786.8696147999726,None,786.8696147999726,None,789.8670880999416,None,789.8670880999416,None,0.007655269932001829,0.5076552699320018,789.8670880999416,None,789.8670880999416,None,789.8670880999416,None,789.8670880999416,None,789.8670880999416,None,789.8670880999416,None,9.299999999999997,1.949,793.9087153000291,None,3050,,,,,,,,,,,,,,,,,,,f,19,jukexin,2022_Jan_09_1608,emotion,2021.1.4,59.97404323193473,
197,partial,0,0.8,-50,0.2,blue,0,0.8,-200,0.2,red,red,blue,red,blue,72,72,77,355,5,67,"[-9.3, -1.9]","[6.7, -1.9]","[-6.7, 1.9]","[9.3, 1.9]",0,-200,-50,0,0,71,71,48,,,,,,,,,,,,,,,,,0.0051250699907541275,0.5051250699907541,794.9167853998952,None,794.9167853998952,None,left,1.6088217999786139,794.9167853998952,None,794.9167853998952,None,794.9167853998952,None,794.9167853998952,None,794.9167853998952,None,796.5522588000167,None,796.5522588000167,None,0.005194070050492883,0.5051940700504929,796.5522588000167,None,796.5522588000167,None,796.5522588000167,None,796.5522588000167,None,796.5522588000167,None,796.5522588000167,None,799.4654645000119,None,799.4654645000119,None,0.007055569905787706,0.5070555699057877,799.4654645000119,None,799.4654645000119,None,799.4654645000119,None,799.4654645000119,None,799.4654645000119,None,799.4654645000119,None,5.200000000000003,2.285,803.7894955000374,None,3050,,,,,,,,,,,,,,,,,,,f,19,jukexin,2022_Jan_09_1608,emotion,2021.1.4,59.97404323193473,
422,partial,0,0.8,-200,0.2,red,-50,0.2,-200,0.8,red,red,blue,blue,red,72,72,5,67,77,355,"[-9.3, -1.9]","[9.3, 1.9]","[-6.7, 1.9]","[6.7, -1.9]",-200,-200,0,-50,0,72,72,16,,,,,,,,,,,,,,,,,0.005357570247724652,0.5053575702477247,804.7991673999932,None,804.7991673999932,None,left,5.7831761001143605,804.7991673999932,None,804.7991673999932,None,804.7991673999932,None,804.7991673999932,None,804.7991673999932,None,810.6146907000802,None,810.6146907000802,None,0.005435869796201587,0.5054358697962016,810.6146907000802,None,810.6146907000802,None,810.6146907000802,None,810.6146907000802,None,810.6146907000802,None,810.6146907000802,None,813.4280356999952,None,813.4280356999952,None,0.0071745701134204865,0.5071745701134205,813.4280356999952,None,813.4280356999952,None,813.4280356999952,None,813.4280356999952,None,813.4280356999952,None,813.4280356999952,None,-3.0,1.751,817.2210124998819,None,2850,,,,,,,,,,,,,,,,,,,f,19,jukexin,2022_Jan_09_1608,emotion,2021.1.4,59.97404323193473,
276,partial,50,0.2,0,0.8,red,200,0.5,0,0.5,blue,blue,red,red,blue,72,180,77,355,185,355,"[-6.7, 1.9]","[6, 0]","[-9.3, -1.9]","[10, 0]",0,200,50,0,0,73,73,75,,,,,,,,,,,,,,,,,0.005532769951969385,0.5055327699519694,818.2305713000242,None,818.2305713000242,None,right,0.956429700134322,818.2305713000242,None,818.2305713000242,None,818.2305713000242,None,818.2305713000242,None,818.2305713000242,None,819.2144784999546,None,819.2144784999546,None,0.005350670078769326,0.5053506700787693,819.2144784999546,None,819.2144784999546,None,819.2144784999546,None,819.2144784999546,None,819.2144784999546,None,819.2144784999546,None,822.0607942999341,None,822.0607942999341,None,0.007223970023915172,0.5072239700239152,822.0607942999341,None,822.0607942999341,None,822.0607942999341,None,822.0607942999341,None,822.0607942999341,None,822.0607942999341,None,5.0,2.351,826.4516712001059,None,3050,,,,,,,,,,,,,,,,,,,f,19,jukexin,2022_Jan_09_1608,emotion,2021.1.4,59.97404323193473,
420,partial,0,0.2,-200,0.8,red,-50,0.8,-200,0.2,red,blue,red,red,blue,72,72,77,355,5,67,"[-6.7, 1.9]","[6.7, -1.9]","[-9.3, -1.9]","[9.3, 1.9]",-200,-200,0,-50,0,74,74,40,,,,,,,,,,,,,,,,,0.004986869869753718,0.5049868698697537,827.4618762999307,None,827.4618762999307,None,right,4.140810899902135,827.4618762999307,None,827.4618762999307,None,827.4618762999307,None,827.4618762999307,None,827.4618762999307,None,831.6275967000984,None,831.6275967000984,None,0.005273069953545928,0.5052730699535459,831.6275967000984,None,831.6275967000984,None,831.6275967000984,None,831.6275967000984,None,831.6275967000984,None,831.6275967000984,None,834.1912827000488,None,834.1912827000488,None,0.007565369829535484,0.5075653698295355,834.1912827000488,None,834.1912827000488,None,834.1912827000488,None,834.1912827000488,None,834.1912827000488,None,834.1912827000488,None,-1.7000000000000028,1.652,837.8834669999778,None,2850,,,,,,,,,,,,,,,,,,,f,19,jukexin,2022_Jan_09_1608,emotion,2021.1.4,59.97404323193473,
309,partial,0,0.5,-200,0.5,red,-50,0.8,-200,0.2,blue,red,blue,red,blue,180,72,5,175,77,355,"[-10, 0]","[6.7, -1.9]","[-6, 0]","[9.3, 1.9]",-200,-50,0,-200,0,75,75,43,,,,,,,,,,,,,,,,,0.00494307023473084,0.5049430702347308,838.8929580999538,None,838.8929580999538,None,left,2.518062900053337,838.8929580999538,None,838.8929580999538,None,838.8929580999538,None,838.8929580999538,None,838.8929580999538,None,841.4437637999654,None,841.4437637999654,None,0.006182970013469458,0.5061829700134695,841.4437637999654,None,841.4437637999654,None,841.4437637999654,None,841.4437637999654,None,841.4437637999654,None,841.4437637999654,None,844.1722864999902,None,844.1722864999902,None,0.006955970078706741,0.5069559700787067,844.1722864999902,None,844.1722864999902,None,844.1722864999902,None,844.1722864999902,None,844.1722864999902,None,844.1722864999902,None,-5.200000000000003,2.027,848.2474549999461,None,2650,,,,,,,,,,,,,,,,,,,f,19,jukexin,2022_Jan_09_1608,emotion,2021.1.4,59.97404323193473,
180,partial,50,0.8,0,0.2,blue,200,0.8,50,0.2,red,red,blue,red,blue,72,72,77,355,5,67,"[-9.3, -1.9]","[6.7, -1.9]","[-6.7, 1.9]","[9.3, 1.9]",50,50,0,200,0,76,76,106,,,,,,,,,,,,,,,,,0.0007916698232293129,0.5007916698232293,849.2618678999133,None,849.2618678999133,None,right,0.7627612999640405,849.2618678999133,None,849.2618678999133,None,849.2618678999133,None,849.2618678999133,None,849.2618678999133,None,850.0591851999052,None,850.0591851999052,None,0.005203970009461045,0.505203970009461,850.0591851999052,None,850.0591851999052,None,850.0591851999052,None,850.0591851999052,None,850.0591851999052,None,850.0591851999052,None,852.7392806999851,None,852.7392806999851,None,0.007285069674253464,0.5072850696742535,852.7392806999851,None,852.7392806999851,None,852.7392806999851,None,852.7392806999851,None,852.7392806999851,None,852.7392806999851,None,-0.20000000000000284,1.967,856.7459786999971,None,2700,,,,,,,,,,,,,,,,,,,f,19,jukexin,2022_Jan_09_1608,emotion,2021.1.4,59.97404323193473,
427,partial,0,0.2,-50,0.8,red,-50,0.5,-200,0.5,red,blue,red,red,blue,72,180,77,355,5,175,"[-6.7, 1.9]","[6, 0]","[-9.3, -1.9]","[10, 0]",-50,-200,0,-50,0,77,77,20,,,,,,,,,,,,,,,,,0.0054001701064407825,0.5054001701064408,857.7542381000239,None,857.7542381000239,None,left,1.2156224998179823,857.7542381000239,None,857.7542381000239,None,857.7542381000239,None,857.7542381000239,None,857.7542381000239,None,859.0112755000591,None,859.0112755000591,None,0.015721839852631092,0.5157218398526311,859.0112755000591,None,859.0112755000591,None,859.0112755000591,None,859.0112755000591,None,859.0112755000591,None,859.0112755000591,None,861.9683344999794,None,861.9683344999794,None,0.008091370109468699,0.5080913701094687,861.9683344999794,None,861.9683344999794,None,861.9683344999794,None,861.9683344999794,None,861.9683344999794,None,861.9683344999794,None,-1.6000000000000014,2.159,866.1775386000518,None,2650,,,,,,,,,,,,,,,,,,,f,19,jukexin,2022_Jan_09_1608,emotion,2021.1.4,59.97404323193473,
101,partial,0,0.5,-50,0.5,blue,-50,0.2,-200,0.8,blue,red,blue,blue,red,180,72,185,355,5,67,"[-10, 0]","[9.3, 1.9]","[-6, 0]","[6.7, -1.9]",0,-50,-50,-200,0,78,78,11,,,,,,,,,,,,,,,,,0.005123570095747709,0.5051235700957477,867.1901489999145,None,867.1901489999145,None,left,1.2247305000200868,867.1901489999145,None,867.1901489999145,None,867.1901489999145,None,867.1901489999145,None,867.1901489999145,None,868.4546866000164,None,868.4546866000164,None,0.00548276980407536,0.5054827698040754,868.4546866000164,None,868.4546866000164,None,868.4546866000164,None,868.4546866000164,None,868.4546866000164,None,868.4546866000164,None,871.1012810999528,None,871.1012810999528,None,0.007963970070704818,0.5079639700707048,871.1012810999528,None,871.1012810999528,None,871.1012810999528,None,871.1012810999528,None,871.1012810999528,None,871.1012810999528,None,-1.0,2.304,875.4430909999646,None,2650,,,,,,,,,,,,,,,,,,,f,19,jukexin,2022_Jan_09_1608,emotion,2021.1.4,59.97404323193473,
212,partial,0,0.2,-50,0.8,blue,-50,0.2,-200,0.8,red,blue,red,blue,red,72,72,5,67,77,355,"[-6.7, 1.9]","[9.3, 1.9]","[-9.3, -1.9]","[6.7, -1.9]",0,-200,-50,-50,0,79,79,2,,,,,,,,,,,,,,,,,0.0042636701837182045,0.5042636701837182,876.4542606000323,None,876.4542606000323,None,left,1.3877725000493228,876.4542606000323,None,876.4542606000323,None,876.4542606000323,None,876.4542606000323,None,876.4542606000323,None,877.8707737000659,None,877.8707737000659,None,0.005401170114055276,0.5054011701140553,877.8707737000659,None,877.8707737000659,None,877.8707737000659,None,877.8707737000659,None,877.8707737000659,None,877.8707737000659,None,880.46575079998,None,880.46575079998,None,0.007685469929128885,0.5076854699291289,880.46575079998,None,880.46575079998,None,880.46575079998,None,880.46575079998,None,880.46575079998,None,880.46575079998,None,0.0,1.936,884.4408879000694,None,2650,,,,,,,,,,,,,,,,,,,f,19,jukexin,2022_Jan_09_1608,emotion,2021.1.4,59.97404323193473,
90,partial,0,0.8,-50,0.2,blue,0,0.5,-200,0.5,blue,red,blue,red,blue,72,180,77,355,185,355,"[-9.3, -1.9]","[6, 0]","[-6.7, 1.9]","[10, 0]",0,0,-50,-200,0,80,80,33,,,,,,,,,,,,,,,,,0.005666670156642795,0.5056666701566428,885.4502173000947,None,885.4502173000947,None,left,2.7700673998333514,885.4502173000947,None,885.4502173000947,None,885.4502173000947,None,885.4502173000947,None,885.4502173000947,None,888.2513850000687,None,888.2513850000687,None,0.005823969841003418,0.5058239698410034,888.2513850000687,None,888.2513850000687,None,888.2513850000687,None,888.2513850000687,None,888.2513850000687,None,888.2513850000687,None,890.8576944998931,None,890.8576944998931,None,0.013461939990520477,0.5134619399905205,890.8576944998931,None,890.8576944998931,None,890.8576944998931,None,890.8576944998931,None,890.8576944998931,None,890.8576944998931,None,0.29999999999999716,4.149,897.0386763999704,None,2650,,,,,,,,,,,,,,,,,,,f,19,jukexin,2022_Jan_09_1608,emotion,2021.1.4,59.97404323193473,
193,partial,0,0.2,-50,0.8,blue,0,0.2,-200,0.8,red,blue,red,blue,red,72,72,5,67,77,355,"[-6.7, 1.9]","[9.3, 1.9]","[-9.3, -1.9]","[6.7, -1.9]",0,-200,-50,0,0,81,81,0,,,,,,,,,,,,,,,,,0.005570670124143362,0.5055706701241434,898.0477195999119,None,898.0477195999119,None,left,1.7573774999473244,898.0477195999119,None,898.0477195999119,None,898.0477195999119,None,898.0477195999119,None,898.0477195999119,None,899.8331180000678,None,899.8331180000678,None,0.006205169949680567,0.5062051699496806,899.8331180000678,None,899.8331180000678,None,899.8331180000678,None,899.8331180000678,None,899.8331180000678,None,899.8331180000678,None,902.3953134000767,None,902.3953134000767,None,0.007886070059612393,0.5078860700596124,902.3953134000767,None,902.3953134000767,None,902.3953134000767,None,902.3953134000767,None,902.3953134000767,None,902.3953134000767,None,1.0,1.619,906.053506599972,None,2650,,,,,,,,,,,,,,,,,,,f,19,jukexin,2022_Jan_09_1608,emotion,2021.1.4,59.97404323193473,
323,partial,0,0.8,-50,0.2,red,-50,0.2,-200,0.8,blue,red,blue,blue,red,72,72,5,67,5,67,"[-9.3, -1.9]","[9.3, 1.9]","[-6.7, 1.9]","[6.7, -1.9]",-50,-50,0,-200,0,82,82,17,,,,,,,,,,,,,,,,,0.005779170198366046,0.505779170198366,907.0624810999725,None,907.0624810999725,None,left,1.0244486001320183,907.0624810999725,None,907.0624810999725,None,907.0624810999725,None,907.0624810999725,None,907.0624810999725,None,908.1143791000359,None,908.1143791000359,None,0.0056186700239777565,0.5056186700239778,908.1143791000359,None,908.1143791000359,None,908.1143791000359,None,908.1143791000359,None,908.1143791000359,None,908.1143791000359,None,910.9766496999655,None,910.9766496999655,None,0.007910070242360234,0.5079100702423602,910.9766496999655,None,910.9766496999655,None,910.9766496999655,None,910.9766496999655,None,910.9766496999655,None,910.9766496999655,None,0.3999999999999986,2.151,915.1684826000128,None,2600,,,,,,,,,,,,,,,,,,,f,19,jukexin,2022_Jan_09_1608,emotion,2021.1.4,59.97404323193473,
308,partial,0,0.5,-200,0.5,red,-50,0.2,-200,0.8,blue,red,blue,blue,red,180,72,5,175,5,67,"[-10, 0]","[9.3, 1.9]","[-6, 0]","[6.7, -1.9]",-200,-50,0,-200,0,83,83,7,,,,,,,,,,,,,,,,,0.004467269871383905,0.5044672698713839,916.1789637000766,None,916.1789637000766,None,right,4.260219599818811,916.1789637000766,None,916.1789637000766,None,916.1789637000766,None,916.1789637000766,None,916.1789637000766,None,920.4783191001043,None,920.4783191001043,None,0.005194370169192553,0.5051943701691926,920.4783191001043,None,920.4783191001043,None,920.4783191001043,None,920.4783191001043,None,920.4783191001043,None,920.4783191001043,None,923.4581643000711,None,923.4581643000711,None,0.007305470062419772,0.5073054700624198,923.4581643000711,None,923.4581643000711,None,923.4581643000711,None,923.4581643000711,None,923.4581643000711,None,923.4581643000711,None,4.100000000000001,1.854,927.3496898000594,None,2550,,,,,,,,,,,,,,,,,,,f,19,jukexin,2022_Jan_09_1608,emotion,2021.1.4,59.97404323193473,
305,partial,0,0.8,-50,0.2,red,0,0.8,-200,0.2,blue,red,blue,red,blue,72,72,5,67,77,355,"[-9.3, -1.9]","[6.7, -1.9]","[-6.7, 1.9]","[9.3, 1.9]",-50,0,0,-200,0,84,84,51,,,,,,,,,,,,,,,,,0.0069081701803952456,0.5069081701803952,928.3733715000562,None,928.3733715000562,None,left,1.0095408000051975,928.3733715000562,None,928.3733715000562,None,928.3733715000562,None,928.3733715000562,None,928.3733715000562,None,929.4107661000453,None,929.4107661000453,None,0.005458269966766238,0.5054582699667662,929.4107661000453,None,929.4107661000453,None,929.4107661000453,None,929.4107661000453,None,929.4107661000453,None,929.4107661000453,None,931.9058135999367,None,931.9058135999367,None,0.007749370066449046,0.507749370066449,931.9058135999367,None,931.9058135999367,None,931.9058135999367,None,931.9058135999367,None,931.9058135999367,None,931.9058135999367,None,2.700000000000003,2.518,936.4635807001032,None,2500,,,,,,,,,,,,,,,,,,,f,19,jukexin,2022_Jan_09_1608,emotion,2021.1.4,59.97404323193473,
271,partial,50,0.5,0,0.5,red,200,0.2,0,0.8,blue,red,blue,blue,red,180,72,5,175,5,67,"[-10, 0]","[9.3, 1.9]","[-6, 0]","[6.7, -1.9]",0,200,50,0,0,85,85,63,,,,,,,,,,,,,,,,,0.006329869851469994,0.50632986985147,937.4731932000723,None,937.4731932000723,None,right,0.7273847002070397,937.4731932000723,None,937.4731932000723,None,937.4731932000723,None,937.4731932000723,None,937.4731932000723,None,938.243397800019,None,938.243397800019,None,0.0055834699887782335,0.5055834699887782,938.243397800019,None,938.243397800019,None,938.243397800019,None,938.243397800019,None,938.243397800019,None,938.243397800019,None,941.220095800003,None,941.220095800003,None,0.008460769895464182,0.5084607698954642,941.220095800003,None,941.220095800003,None,941.220095800003,None,941.220095800003,None,941.220095800003,None,941.220095800003,None,10.200000000000003,0.885,944.1452840000857,None,2700,,,,,,,,,,,,,,,,,,,f,19,jukexin,2022_Jan_09_1608,emotion,2021.1.4,59.97404323193473,
426,partial,0,0.5,-50,0.5,red,-50,0.8,-200,0.2,red,red,blue,red,blue,180,72,5,175,5,67,"[-10, 0]","[6.7, -1.9]","[-6, 0]","[9.3, 1.9]",-50,-200,0,-50,0,86,86,44,,,,,,,,,,,,,,,,,0.0037817698903381824,0.5037817698903382,945.1566989999264,None,945.1566989999264,None,left,0.9512130001094192,945.1566989999264,None,945.1566989999264,None,945.1566989999264,None,945.1566989999264,None,945.1566989999264,None,946.1402888998855,None,946.1402888998855,None,0.005061069969087839,0.5050610699690878,946.1402888998855,None,946.1402888998855,None,946.1402888998855,None,946.1402888998855,None,946.1402888998855,None,946.1402888998855,None,949.0693558000494,None,949.0693558000494,None,0.007612970191985369,0.5076129701919854,949.0693558000494,None,949.0693558000494,None,949.0693558000494,None,949.0693558000494,None,949.0693558000494,None,949.0693558000494,None,9.200000000000003,2.15,953.2611392999534,None,2650,,,,,,,,,,,,,,,,,,,f,19,jukexin,2022_Jan_09_1608,emotion,2021.1.4,59.97404323193473,
99,partial,0,0.8,-200,0.2,blue,-50,0.8,-200,0.2,blue,red,blue,red,blue,72,72,77,355,77,355,"[-9.3, -1.9]","[6.7, -1.9]","[-6.7, 1.9]","[9.3, 1.9]",0,-50,-200,-200,0,87,87,49,,,,,,,,,,,,,,,,,0.00629227003082633,0.5062922700308263,954.2696296998765,None,954.2696296998765,None,right,3.8417225999291986,954.2696296998765,None,954.2696296998765,None,954.2696296998765,None,954.2696296998765,None,954.2696296998765,None,958.1540794998873,None,958.1540794998873,None,0.0056677700486034155,0.5056677700486034,958.1540794998873,None,958.1540794998873,None,958.1540794998873,None,958.1540794998873,None,958.1540794998873,None,958.1540794998873,None,961.0162001999561,None,961.0162001999561,None,0.00824647000990808,0.5082464700099081,961.0162001999561,None,961.0162001999561,None,961.0162001999561,None,961.0162001999561,None,961.0162001999561,None,961.0162001999561,None,4.200000000000003,2.402,965.4586738999933,None,2600,,,,,,,,,,,,,,,,,,,f,19,jukexin,2022_Jan_09_1608,emotion,2021.1.4,59.97404323193473,
381,partial,50,0.5,0,0.5,red,200,0.5,0,0.5,red,red,blue,red,blue,180,180,5,175,5,175,"[-10, 0]","[6, 0]","[-6, 0]","[10, 0]",0,0,50,200,0,88,88,78,,,,,,,,,,,,,,,,,0.0060521699488162994,0.5060521699488163,966.4675569999963,None,966.4675569999963,None,right,0.6911477998364717,966.4675569999963,None,966.4675569999963,None,966.4675569999963,None,966.4675569999963,None,966.4675569999963,None,967.1858695999254,None,967.1858695999254,None,0.005945869954302907,0.5059458699543029,967.1858695999254,None,967.1858695999254,None,967.1858695999254,None,967.1858695999254,None,967.1858695999254,None,967.1858695999254,None,970.0324953000527,None,970.0324953000527,None,0.008157469797879457,0.5081574697978795,970.0324953000527,None,970.0324953000527,None,970.0324953000527,None,970.0324953000527,None,970.0324953000527,None,970.0324953000527,None,-2.5,1.418,973.4896170999855,None,2600,,,,,,,,,,,,,,,,,,,f,19,jukexin,2022_Jan_09_1608,emotion,2021.1.4,59.97404323193473,
304,partial,0,0.8,-50,0.2,red,0,0.2,-200,0.8,blue,red,blue,blue,red,72,72,5,67,5,67,"[-9.3, -1.9]","[9.3, 1.9]","[-6.7, 1.9]","[6.7, -1.9]",-50,0,0,-200,0,89,89,15,,,,,,,,,,,,,,,,,0.005493270233273506,0.5054932702332735,974.4993614999112,None,974.4993614999112,None,left,1.0423992997966707,974.4993614999112,None,974.4993614999112,None,974.4993614999112,None,974.4993614999112,None,974.4993614999112,None,975.5836720999796,None,975.5836720999796,None,0.00604156986810267,0.5060415698681027,975.5836720999796,None,975.5836720999796,None,975.5836720999796,None,975.5836720999796,None,975.5836720999796,None,975.5836720999796,None,978.5469883999322,None,978.5469883999322,None,0.007636270020157099,0.5076362700201571,978.5469883999322,None,978.5469883999322,None,978.5469883999322,None,978.5469883999322,None,978.5469883999322,None,978.5469883999322,None,-6.600000000000001,2.167,982.7552652999293,None,2550,,,,,,,,,,,,,,,,,,,f,19,jukexin,2022_Jan_09_1608,emotion,2021.1.4,59.97404323193473,
280,partial,50,0.5,0,0.5,red,200,0.5,50,0.5,blue,red,blue,red,blue,180,180,5,175,185,355,"[-10, 0]","[6, 0]","[-6, 0]","[10, 0]",0,200,50,50,0,90,90,79,,,,,,,,,,,,,,,,,0.00020326999947428703,0.5002032699994743,983.7691627000459,None,983.7691627000459,None,right,0.8539188001304865,983.7691627000459,None,983.7691627000459,None,983.7691627000459,None,983.7691627000459,None,983.7691627000459,None,984.650032900041,None,984.650032900041,None,0.0053735701367259026,0.5053735701367259,984.650032900041,None,984.650032900041,None,984.650032900041,None,984.650032900041,None,984.650032900041,None,984.650032900041,None,987.4121284999419,None,987.4121284999419,None,0.007358670001849532,0.5073586700018495,987.4121284999419,None,987.4121284999419,None,987.4121284999419,None,987.4121284999419,None,987.4121284999419,None,987.4121284999419,None,3.3999999999999986,1.234,990.6863989999983,None,2750,,,,,,,,,,,,,,,,,,,f,19,jukexin,2022_Jan_09_1608,emotion,2021.1.4,59.97404323193473,
401,partial,200,0.2,0,0.8,red,200,0.2,50,0.8,red,blue,red,blue,red,72,72,77,355,77,355,"[-6.7, 1.9]","[9.3, 1.9]","[-9.3, -1.9]","[6.7, -1.9]",0,50,200,200,0,91,91,56,,,,,,,,,,,,,,,,,0.005714869825169444,0.5057148698251694,991.6955007999204,None,991.6955007999204,None,right,0.7743712000083178,991.6955007999204,None,991.6955007999204,None,991.6955007999204,None,991.6955007999204,None,991.6955007999204,None,992.4982145999093,None,992.4982145999093,None,0.00580916996113956,0.5058091699611396,992.4982145999093,None,992.4982145999093,None,992.4982145999093,None,992.4982145999093,None,992.4982145999093,None,992.4982145999093,None,995.3104387000203,None,995.3104387000203,None,0.007888769963756204,0.5078887699637562,995.3104387000203,None,995.3104387000203,None,995.3104387000203,None,995.3104387000203,None,995.3104387000203,None,995.3104387000203,None,5.100000000000001,2.084,999.4358260999434,None,2800,,,,,,,,,,,,,,,,,,,f,19,jukexin,2022_Jan_09_1608,emotion,2021.1.4,59.97404323193473,
82,partial,0,0.5,-50,0.5,blue,0,0.2,-200,0.8,blue,red,blue,blue,red,180,72,185,355,5,67,"[-10, 0]","[9.3, 1.9]","[-6, 0]","[6.7, -1.9]",0,0,-50,-200,0,92,92,9,,,,,,,,,,,,,,,,,0.005063769873231649,0.5050637698732316,1000.4446038999595,None,1000.4446038999595,None,left,1.0673223999328911,1000.4446038999595,None,1000.4446038999595,None,1000.4446038999595,None,1000.4446038999595,None,1000.4446038999595,None,1001.5458398999181,None,1001.5458398999181,None,0.0050792701076716185,0.5050792701076716,1001.5458398999181,None,1001.5458398999181,None,1001.5458398999181,None,1001.5458398999181,None,1001.5458398999181,None,1001.5458398999181,None,1004.0748936999589,None,1004.0748936999589,None,0.007239769911393523,0.5072397699113935,1004.0748936999589,None,1004.0748936999589,None,1004.0748936999589,None,1004.0748936999589,None,1004.0748936999589,None,1004.0748936999589,None,6.5,2.801,1008.9665904999711,None,2800,,,,,,,,,,,,,,,,,,,f,19,jukexin,2022_Jan_09_1608,emotion,2021.1.4,59.97404323193473,
291,partial,200,0.5,0,0.5,red,200,0.8,50,0.2,blue,red,blue,red,blue,180,72,5,175,77,355,"[-10, 0]","[6.7, -1.9]","[-6, 0]","[9.3, 1.9]",0,200,200,50,0,93,93,101,,,,,,,,,,,,,,,,,0.0050383699126541615,0.5050383699126542,1009.9753753000405,None,1009.9753753000405,None,left,2.091200100025162,1009.9753753000405,None,1009.9753753000405,None,1009.9753753000405,None,1009.9753753000405,None,1009.9753753000405,None,1012.0929403000046,None,1012.0929403000046,None,0.006407070206478238,0.5064070702064782,1012.0929403000046,None,1012.0929403000046,None,1012.0929403000046,None,1012.0929403000046,None,1012.0929403000046,None,1012.0929403000046,None,1014.7394685000181,None,1014.7394685000181,None,0.007543769897893071,0.5075437698978931,1014.7394685000181,None,1014.7394685000181,None,1014.7394685000181,None,1014.7394685000181,None,1014.7394685000181,None,1014.7394685000181,None,-1.0,1.485,1018.2647567999084,None,2800,,,,,,,,,,,,,,,,,,,f,19,jukexin,2022_Jan_09_1608,emotion,2021.1.4,59.97404323193473,
284,partial,50,0.2,0,0.8,red,200,0.2,50,0.8,blue,blue,red,blue,red,72,72,77,355,5,67,"[-6.7, 1.9]","[9.3, 1.9]","[-9.3, -1.9]","[6.7, -1.9]",0,200,50,50,0,94,94,55,,,,,,,,,,,,,,,,,0.006036669947206974,0.506036669947207,1019.2734399000183,None,1019.2734399000183,None,right,1.107288699829951,1019.2734399000183,None,1019.2734399000183,None,1019.2734399000183,None,1019.2734399000183,None,1019.2734399000183,None,1020.4080471999478,None,1020.4080471999478,None,0.006344370078295469,0.5063443700782955,1020.4080471999478,None,1020.4080471999478,None,1020.4080471999478,None,1020.4080471999478,None,1020.4080471999478,None,1020.4080471999478,None,1022.9043093998916,None,1022.9043093998916,None,0.007935669971629977,0.50793566997163,1022.9043093998916,None,1022.9043093998916,None,1022.9043093998916,None,1022.9043093998916,None,1022.9043093998916,None,1022.9043093998916,None,5.0,1.236,1026.179353500018,None,3000,,,,,,,,,,,,,,,,,,,f,19,jukexin,2022_Jan_09_1608,emotion,2021.1.4,59.97404323193473,
187,partial,200,0.8,0,0.2,blue,200,0.5,50,0.5,red,red,blue,red,blue,72,180,77,355,5,175,"[-9.3, -1.9]","[6, 0]","[-6.7, 1.9]","[10, 0]",200,50,0,200,0,95,95,86,,,,,,,,,,,,,,,,,0.004953670082613826,0.5049536700826138,1027.1900279999245,None,1027.1900279999245,None,right,2.665693199960515,1027.1900279999245,None,1027.1900279999245,None,1027.1900279999245,None,1027.1900279999245,None,1027.1900279999245,None,1029.8896453999914,None,1029.8896453999914,None,0.005835269810631871,0.5058352698106319,1029.8896453999914,None,1029.8896453999914,None,1029.8896453999914,None,1029.8896453999914,None,1029.8896453999914,None,1029.8896453999914,None,1032.5355702999514,None,1032.5355702999514,None,0.0076098700519651175,0.5076098700519651,1032.5355702999514,None,1032.5355702999514,None,1032.5355702999514,None,1032.5355702999514,None,1032.5355702999514,None,1032.5355702999514,None,5.200000000000003,2.767,1037.3444236998912,None,3050,,,,,,,,,,,,,,,,,,,f,19,jukexin,2022_Jan_09_1608,emotion,2021.1.4,59.97404323193473,
196,partial,0,0.8,-50,0.2,blue,0,0.2,-200,0.8,red,red,blue,blue,red,72,72,77,355,77,355,"[-9.3, -1.9]","[9.3, 1.9]","[-6.7, 1.9]","[6.7, -1.9]",0,-200,-50,0,0,96,96,12,,,,,,,,,,,,,,,,,0.005470369942486286,0.5054703699424863,1038.3535428999458,None,1038.3535428999458,None,left,1.5633712999988347,1038.3535428999458,None,1038.3535428999458,None,1038.3535428999458,None,1038.3535428999458,None,1038.3535428999458,None,1039.9535542000085,None,1039.9535542000085,None,0.006105170119553804,0.5061051701195538,1039.9535542000085,None,1039.9535542000085,None,1039.9535542000085,None,1039.9535542000085,None,1039.9535542000085,None,1039.9535542000085,None,1042.7685364999343,None,1042.7685364999343,None,0.0072655698750168085,0.5072655698750168,1042.7685364999343,None,1042.7685364999343,None,1042.7685364999343,None,1042.7685364999343,None,1042.7685364999343,None,1042.7685364999343,None,3.3999999999999986,1.635,1046.442674400052,None,3050,,,,,,,,,,,,,,,,,,,f,19,jukexin,2022_Jan_09_1608,emotion,2021.1.4,59.97404323193473,
66,partial,50,0.5,0,0.5,blue,200,0.8,50,0.2,blue,red,blue,red,blue,180,72,185,355,77,355,"[-10, 0]","[6.7, -1.9]","[-6, 0]","[9.3, 1.9]",50,200,0,50,0,97,97,97,,,,,,,,,,,,,,,,,0.004812170285731554,0.5048121702857316,1047.4529142000247,None,1047.4529142000247,None,right,1.2316913998220116,1047.4529142000247,None,1047.4529142000247,None,1047.4529142000247,None,1047.4529142000247,None,1047.4529142000247,None,1048.7184478999116,None,1048.7184478999116,None,0.0063358701299875975,0.5063358701299876,1048.7184478999116,None,1048.7184478999116,None,1048.7184478999116,None,1048.7184478999116,None,1048.7184478999116,None,1048.7184478999116,None,1051.5829594999086,None,1051.5829594999086,None,0.007792469812557101,0.5077924698125571,1051.5829594999086,None,1051.5829594999086,None,1051.5829594999086,None,1051.5829594999086,None,1051.5829594999086,None,1051.5829594999086,None,7.700000000000003,1.285,1054.9076294999104,None,3250,,,,,,,,,,,,,,,,,,,f,19,jukexin,2022_Jan_09_1608,emotion,2021.1.4,59.97404323193473,
