trialNumber,trialType,x1,p,y1,p2,outcome1,x2,q,y2,q2,outcome2,LWedgeCol,LCircleCol,RWedgeCol,RCircleCol,Lslice,Rslice,L1,L2,R1,R2,x1Pos,x2Pos,y1Pos,y2Pos,leftPoints,rightPoints,LeftYourUn,RightYouUn,trials.thisRepN,trials.thisTrialN,trials.thisN,trials.thisIndex,trials_2.thisRepN,trials_2.thisTrialN,trials_2.thisN,trials_2.thisIndex,image.started,image.stopped,key_resp_5.keys,key_resp_5.rt,key_resp_5.started,key_resp_5.stopped,image_2.started,image_2.stopped,key_resp_2.keys,key_resp_2.rt,key_resp_2.started,key_resp_2.stopped,ISI_2.started,ISI_2.stopped,arrowL_2.started,arrowL_2.stopped,arrowR_2.started,arrowR_2.stopped,key_resp_4.keys,key_resp_4.rt,key_resp_4.started,key_resp_4.stopped,blueLVal_2.started,blueLVal_2.stopped,blueRVal_2.started,blueRVal_2.stopped,redLVal_2.started,redLVal_2.stopped,redRVal_2.started,redRVal_2.stopped,right.started,right.stopped,left.started,left.stopped,ISI.started,ISI.stopped,arrowL.started,arrowL.stopped,arrowR.started,arrowR.stopped,blueLVal.started,blueLVal.stopped,blueRVal.started,blueRVal.stopped,redLVal.started,redLVal.stopped,redRVal.started,redRVal.stopped,right_2.started,right_2.stopped,left_2.started,left_2.stopped,ISI_4.started,ISI_4.stopped,arrowL_3.started,arrowL_3.stopped,arrowR_3.started,arrowR_3.stopped,blueLVal_3.started,blueLVal_3.stopped,blueRVal_3.started,blueRVal_3.stopped,redLVal_3.started,redLVal_3.stopped,redRVal_3.started,redRVal_3.stopped,rating,ratingrt,text_5.started,text_5.stopped,totalScore,image_4.started,image_4.stopped,key_resp_3.keys,key_resp_3.rt,key_resp_3.started,key_resp_3.stopped,image_5.started,image_5.stopped,key_resp.keys,key_resp.rt,key_resp.started,key_resp.stopped,image_3.started,image_3.stopped,key_resp_9.keys,key_resp_9.rt,key_resp_9.started,key_resp_9.stopped,gender,age,participant,date,expName,psychopyVersion,frameRate,
,,,,,,,,,,,,,,,,,,,,,,,,,,,,,,,,,,,,,,35.29304289998254,None,space,2.7072887000103947,35.29304289998254,None,,,,,,,,,,,,,,,,,,,,,,,,,,,,,,,,,,,,,,,,,,,,,,,,,,,,,,,,,,,,,,,,,,,,,,,,,,,,,,,,,,,,f,24,lijia,2022_Jan_09_1815,emotion,2021.2.3,60.01601227522506,
,,,,,,,,,,,,,,,,,,,,,,,,,,,,,,,,,,,,,,,,,,,,38.03654489998007,None,space,2.3386247000016738,38.03654489998007,None,,,,,,,,,,,,,,,,,,,,,,,,,,,,,,,,,,,,,,,,,,,,,,,,,,,,,,,,,,,,,,,,,,,,,,,,,,,,,,f,24,lijia,2022_Jan_09_1815,emotion,2021.2.3,60.01601227522506,
398,partial,200,0.5,0,0.5,red,200,0.2,50,0.8,red,red,blue,blue,red,180,72,5,175,77,355,"[-10, 0]","[9.3, 1.9]","[-6, 0]","[6.7, -1.9]",0,50,200,200,0,0,0,65,,,,,,,,,,,,,,,,,0.010429199988720939,0.5104291999887209,40.87367939998512,None,40.87367939998512,None,left,4.725893899973016,40.87367939998512,None,40.87367939998512,None,40.87367939998512,None,40.87367939998512,None,40.87367939998512,None,45.65875629999209,None,45.65875629999209,None,0.013044299994362518,0.5130442999943625,45.65875629999209,None,45.65875629999209,None,45.65875629999209,None,45.65875629999209,None,45.65875629999209,None,45.65875629999209,None,49.99094519999926,None,49.99094519999926,None,0.0016396499995607883,0.5016396499995608,49.99094519999926,None,49.99094519999926,None,49.99094519999926,None,49.99094519999926,None,49.99094519999926,None,49.99094519999926,None,-9.5,8.307,60.44201279999106,None,0,,,,,,,,,,,,,,,,,,,f,24,lijia,2022_Jan_09_1815,emotion,2021.2.3,60.01601227522506,
416,partial,0,0.5,-200,0.5,red,-50,0.2,-200,0.8,red,red,blue,blue,red,180,72,5,175,77,355,"[-10, 0]","[9.3, 1.9]","[-6, 0]","[6.7, -1.9]",-200,-200,0,-50,0,1,1,7,,,,,,,,,,,,,,,,,0.0121742999763228,0.5121742999763228,61.47188319999259,None,61.47188319999259,None,left,15.821425600006478,61.47188319999259,None,61.47188319999259,None,61.47188319999259,None,61.47188319999259,None,61.47188319999259,None,77.36924309999449,None,77.36924309999449,None,0.01426319996244274,0.5142631999624427,77.36924309999449,None,77.36924309999449,None,77.36924309999449,None,77.36924309999449,None,77.36924309999449,None,77.36924309999449,None,81.64770439997665,None,81.64770439997665,None,0.014446699962718412,0.5144466999627184,81.64770439997665,None,81.64770439997665,None,81.64770439997665,None,81.64770439997665,None,81.64770439997665,None,81.64770439997665,None,10.600000000000001,6.034,89.84003359999042,None,-200,,,,,,,,,,,,,,,,,,,f,24,lijia,2022_Jan_09_1815,emotion,2021.2.3,60.01601227522506,
84,partial,0,0.5,-50,0.5,blue,0,0.5,-200,0.5,blue,red,blue,red,blue,180,180,185,355,185,355,"[-10, 0]","[6, 0]","[-6, 0]","[10, 0]",0,0,-50,-200,0,2,2,24,,,,,,,,,,,,,,,,,0.01356045002466999,0.51356045002467,90.88850839997758,None,90.88850839997758,None,left,5.821857700007968,90.88850839997758,None,90.88850839997758,None,90.88850839997758,None,90.88850839997758,None,90.88850839997758,None,96.79603779999889,None,96.79603779999889,None,0.0014008999860379845,0.501400899986038,96.79603779999889,None,96.79603779999889,None,96.79603779999889,None,96.79603779999889,None,96.79603779999889,None,96.79603779999889,None,100.64490220000152,None,100.64490220000152,None,0.002682050020666793,0.5026820500206668,100.64490220000152,None,100.64490220000152,None,100.64490220000152,None,100.64490220000152,None,100.64490220000152,None,100.64490220000152,None,23.400000000000006,9.498,112.2314086999977,None,-200,,,,,,,,,,,,,,,,,,,f,24,lijia,2022_Jan_09_1815,emotion,2021.2.3,60.01601227522506,
421,partial,0,0.8,-200,0.2,red,-50,0.5,-200,0.5,red,red,blue,red,blue,72,180,5,67,5,175,"[-9.3, -1.9]","[6, 0]","[-6.7, 1.9]","[10, 0]",-200,-200,0,-50,0,3,3,31,,,,,,,,,,,,,,,,,0.00865409997641109,0.5086540999764111,113.2796463999839,None,113.2796463999839,None,left,6.9553145999962,113.2796463999839,None,113.2796463999839,None,113.2796463999839,None,113.2796463999839,None,113.2796463999839,None,120.2770888999803,None,120.2770888999803,None,0.002959150035167113,0.5029591500351671,120.2770888999803,None,120.2770888999803,None,120.2770888999803,None,120.2770888999803,None,120.2770888999803,None,120.2770888999803,None,124.70171669998672,None,124.70171669998672,None,0.0003271500172559172,0.5003271500172559,124.70171669998672,None,124.70171669998672,None,124.70171669998672,None,124.70171669998672,None,124.70171669998672,None,124.70171669998672,None,-12.200000000000003,6.651,133.4187821999949,None,-400,,,,,,,,,,,,,,,,,,,f,24,lijia,2022_Jan_09_1815,emotion,2021.2.3,60.01601227522506,
281,partial,50,0.5,0,0.5,red,200,0.2,50,0.8,blue,red,blue,blue,red,180,72,5,175,5,67,"[-10, 0]","[9.3, 1.9]","[-6, 0]","[6.7, -1.9]",0,200,50,50,0,4,4,64,,,,,,,,,,,,,,,,,0.008926899987272918,0.5089268999872729,134.4607744999812,None,134.4607744999812,None,right,6.325074799999129,134.4607744999812,None,134.4607744999812,None,134.4607744999812,None,134.4607744999812,None,134.4607744999812,None,140.836110299977,None,140.836110299977,None,0.002436650014715269,0.5024366500147153,140.836110299977,None,140.836110299977,None,140.836110299977,None,140.836110299977,None,140.836110299977,None,140.836110299977,None,144.7667022999958,None,144.7667022999958,None,0.003788350004469976,0.50378835000447,144.7667022999958,None,144.7667022999958,None,144.7667022999958,None,144.7667022999958,None,144.7667022999958,None,144.7667022999958,None,5.100000000000001,4.044,150.90161029997398,None,-200,,,,,,,,,,,,,,,,,,,f,24,lijia,2022_Jan_09_1815,emotion,2021.2.3,60.01601227522506,
175,partial,50,0.2,0,0.8,blue,200,0.5,50,0.5,red,blue,red,red,blue,72,180,5,67,5,175,"[-6.7, 1.9]","[6, 0]","[-9.3, -1.9]","[10, 0]",50,50,0,200,0,5,5,73,,,,,,,,,,,,,,,,,0.013919549965066835,0.5139195499650668,151.95315049999044,None,151.95315049999044,None,right,2.4523078999773134,151.95315049999044,None,151.95315049999044,None,151.95315049999044,None,151.95315049999044,None,151.95315049999044,None,154.46525809998275,None,154.46525809998275,None,0.0013178499939385802,0.5013178499939386,154.46525809998275,None,154.46525809998275,None,154.46525809998275,None,154.46525809998275,None,154.46525809998275,None,154.46525809998275,None,158.62946469997405,None,158.62946469997405,None,0.003177050006343052,0.503177050006343,158.62946469997405,None,158.62946469997405,None,158.62946469997405,None,158.62946469997405,None,158.62946469997405,None,158.62946469997405,None,-0.10000000000000142,4.065,164.79527750000125,None,-150,,,,,,,,,,,,,,,,,,,f,24,lijia,2022_Jan_09_1815,emotion,2021.2.3,60.01601227522506,
314,partial,0,0.8,-200,0.2,red,-50,0.2,-200,0.8,blue,red,blue,blue,red,72,72,5,67,5,67,"[-9.3, -1.9]","[9.3, 1.9]","[-6.7, 1.9]","[6.7, -1.9]",-200,-50,0,-200,0,6,6,16,,,,,,,,,,,,,,,,,0.00044800000614486635,0.5004480000061449,165.84144799999194,None,165.84144799999194,None,left,7.687292599992361,165.84144799999194,None,165.84144799999194,None,165.84144799999194,None,165.84144799999194,None,165.84144799999194,None,173.5946508999914,None,173.5946508999914,None,0.0012050500081386417,0.5012050500081386,173.5946508999914,None,173.5946508999914,None,173.5946508999914,None,173.5946508999914,None,173.5946508999914,None,173.5946508999914,None,177.33323499999824,None,177.33323499999824,None,0.0037455499987117946,0.5037455499987118,177.33323499999824,None,177.33323499999824,None,177.33323499999824,None,177.33323499999824,None,177.33323499999824,None,177.33323499999824,None,-4.100000000000001,4.217,183.6546512999921,None,-350,,,,,,,,,,,,,,,,,,,f,24,lijia,2022_Jan_09_1815,emotion,2021.2.3,60.01601227522506,
432,partial,0,0.8,-50,0.2,red,-50,0.8,-200,0.2,red,red,blue,red,blue,72,72,5,67,5,67,"[-9.3, -1.9]","[6.7, -1.9]","[-6.7, 1.9]","[9.3, 1.9]",-50,-200,0,-50,0,7,7,53,,,,,,,,,,,,,,,,,0.011458499997388572,0.5114584999973886,184.67872779999743,None,184.67872779999743,None,left,4.431604599987622,184.67872779999743,None,184.67872779999743,None,184.67872779999743,None,184.67872779999743,None,184.67872779999743,None,189.16217939998023,None,189.16217939998023,None,0.0012289500155020505,0.501228950015502,189.16217939998023,None,189.16217939998023,None,189.16217939998023,None,189.16217939998023,None,189.16217939998023,None,189.16217939998023,None,192.90115729998797,None,192.90115729998797,None,0.00256834999890998,0.50256834999891,192.90115729998797,None,192.90115729998797,None,192.90115729998797,None,192.90115729998797,None,192.90115729998797,None,192.90115729998797,None,24.599999999999994,2.87,197.87904629998957,None,-400,,,,,,,,,,,,,,,,,,,f,24,lijia,2022_Jan_09_1815,emotion,2021.2.3,60.01601227522506,
85,partial,0,0.2,-50,0.8,blue,0,0.2,-200,0.8,blue,blue,red,blue,red,72,72,5,67,5,67,"[-6.7, 1.9]","[9.3, 1.9]","[-9.3, -1.9]","[6.7, -1.9]",0,0,-50,-200,0,8,8,0,,,,,,,,,,,,,,,,,0.01454725000075996,0.51454725000076,198.9185697999783,None,198.9185697999783,None,left,3.6790555999905337,198.9185697999783,None,198.9185697999783,None,198.9185697999783,None,198.9185697999783,None,198.9185697999783,None,202.66799029998947,None,202.66799029998947,None,0.002220349997514859,0.5022203499975149,202.66799029998947,None,202.66799029998947,None,202.66799029998947,None,202.66799029998947,None,202.66799029998947,None,202.66799029998947,None,206.8962055000011,None,206.8962055000011,None,0.003377650020411238,0.5033776500204112,206.8962055000011,None,206.8962055000011,None,206.8962055000011,None,206.8962055000011,None,206.8962055000011,None,206.8962055000011,None,25.200000000000003,4.782,213.76907569999457,None,-400,,,,,,,,,,,,,,,,,,,f,24,lijia,2022_Jan_09_1815,emotion,2021.2.3,60.01601227522506,
395,partial,50,0.8,0,0.2,red,200,0.2,50,0.8,red,red,blue,blue,red,72,72,5,67,77,355,"[-9.3, -1.9]","[9.3, 1.9]","[-6.7, 1.9]","[6.7, -1.9]",0,50,50,200,0,9,9,67,,,,,,,,,,,,,,,,,0.005404699972132221,0.5054046999721322,214.80472439998994,None,214.80472439998994,None,right,4.382556199998362,214.80472439998994,None,214.80472439998994,None,214.80472439998994,None,214.80472439998994,None,214.80472439998994,None,219.22851349998382,None,219.22851349998382,None,0.0033741499937605113,0.5033741499937605,219.22851349998382,None,219.22851349998382,None,219.22851349998382,None,219.22851349998382,None,219.22851349998382,None,219.22851349998382,None,222.88281270000152,None,222.88281270000152,None,0.002797650027787313,0.5027976500277873,222.88281270000152,None,222.88281270000152,None,222.88281270000152,None,222.88281270000152,None,222.88281270000152,None,222.88281270000152,None,18.400000000000006,2.243,227.19107699999586,None,-350,,,,,,,,,,,,,,,,,,,f,24,lijia,2022_Jan_09_1815,emotion,2021.2.3,60.01601227522506,
210,partial,0,0.5,-50,0.5,blue,-50,0.8,-200,0.2,red,red,blue,red,blue,180,72,185,355,5,67,"[-10, 0]","[6.7, -1.9]","[-6, 0]","[9.3, 1.9]",0,-200,-50,-50,0,10,10,47,,,,,,,,,,,,,,,,,0.009811750001972541,0.5098117500019725,228.23840809997637,None,228.23840809997637,None,left,4.5608343000058085,228.23840809997637,None,228.23840809997637,None,228.23840809997637,None,228.23840809997637,None,228.23840809997637,None,232.85304299998097,None,232.85304299998097,None,0.0012892500089947134,0.5012892500089947,232.85304299998097,None,232.85304299998097,None,232.85304299998097,None,232.85304299998097,None,232.85304299998097,None,232.85304299998097,None,237.20786129997578,None,237.20786129997578,None,0.004622449981980026,0.50462244998198,237.20786129997578,None,237.20786129997578,None,237.20786129997578,None,237.20786129997578,None,237.20786129997578,None,237.20786129997578,None,-0.10000000000000142,3.032,242.32716739998432,None,-350,,,,,,,,,,,,,,,,,,,f,24,lijia,2022_Jan_09_1815,emotion,2021.2.3,60.01601227522506,
170,partial,50,0.8,0,0.2,blue,200,0.8,0,0.2,red,red,blue,red,blue,72,72,77,355,5,67,"[-9.3, -1.9]","[6.7, -1.9]","[-6.7, 1.9]","[9.3, 1.9]",50,0,0,200,0,11,11,105,,,,,,,,,,,,,,,,,0.014458949997788295,0.5144589499977883,243.37893129998702,None,243.37893129998702,None,right,4.4498499000037555,243.37893129998702,None,243.37893129998702,None,243.37893129998702,None,243.37893129998702,None,243.37893129998702,None,247.87314329997753,None,247.87314329997753,None,0.0009439499990548939,0.5009439499990549,247.87314329997753,None,247.87314329997753,None,247.87314329997753,None,247.87314329997753,None,247.87314329997753,None,247.87314329997753,None,252.18542879997403,None,252.18542879997403,None,0.0008125500462483615,0.5008125500462484,252.18542879997403,None,252.18542879997403,None,252.18542879997403,None,252.18542879997403,None,252.18542879997403,None,252.18542879997403,None,-1.7000000000000028,6.151,260.3821355999971,None,-350,,,,,,,,,,,,,,,,,,,f,24,lijia,2022_Jan_09_1815,emotion,2021.2.3,60.01601227522506,
105,partial,0,0.2,-50,0.8,blue,-50,0.8,-200,0.2,blue,blue,red,red,blue,72,72,5,67,77,355,"[-6.7, 1.9]","[6.7, -1.9]","[-9.3, -1.9]","[9.3, 1.9]",0,-50,-50,-200,0,12,12,38,,,,,,,,,,,,,,,,,0.0021971999667584896,0.5021971999667585,261.4368184999912,None,261.4368184999912,None,left,6.588665199989919,261.4368184999912,None,261.4368184999912,None,261.4368184999912,None,261.4368184999912,None,261.4368184999912,None,268.0914842999773,None,268.0914842999773,None,0.001006549980957061,0.5010065499809571,268.0914842999773,None,268.0914842999773,None,268.0914842999773,None,268.0914842999773,None,268.0914842999773,None,268.0914842999773,None,272.2705156999873,None,272.2705156999873,None,0.0034513500286266208,0.5034513500286266,272.2705156999873,None,272.2705156999873,None,272.2705156999873,None,272.2705156999873,None,272.2705156999873,None,272.2705156999873,None,4.899999999999999,1.827,276.1622154999932,None,-350,,,,,,,,,,,,,,,,,,,f,24,lijia,2022_Jan_09_1815,emotion,2021.2.3,60.01601227522506,
100,partial,0,0.5,-50,0.5,blue,-50,0.5,-200,0.5,blue,red,blue,red,blue,180,180,185,355,185,355,"[-10, 0]","[6, 0]","[-6, 0]","[10, 0]",0,-50,-50,-200,0,13,13,26,,,,,,,,,,,,,,,,,0.013921050005592406,0.5139210500055924,277.23722679997445,None,277.23722679997445,None,left,2.3258385000226554,277.23722679997445,None,277.23722679997445,None,277.23722679997445,None,277.23722679997445,None,277.23722679997445,None,279.6062019999954,None,279.6062019999954,None,0.0021737500210292637,0.5021737500210293,279.6062019999954,None,279.6062019999954,None,279.6062019999954,None,279.6062019999954,None,279.6062019999954,None,279.6062019999954,None,283.90595179999946,None,283.90595179999946,None,0.002917249978054315,0.5029172499780543,283.90595179999946,None,283.90595179999946,None,283.90595179999946,None,283.90595179999946,None,283.90595179999946,None,283.90595179999946,None,-0.29999999999999716,3.019,288.98274979999405,None,-350,,,,,,,,,,,,,,,,,,,f,24,lijia,2022_Jan_09_1815,emotion,2021.2.3,60.01601227522506,
75,partial,200,0.5,0,0.5,blue,200,0.8,50,0.2,blue,red,blue,red,blue,180,72,185,355,77,355,"[-10, 0]","[6.7, -1.9]","[-6, 0]","[9.3, 1.9]",200,200,0,50,0,14,14,98,,,,,,,,,,,,,,,,,0.005046500009484589,0.5050465000094846,290.03761119997944,None,290.03761119997944,None,right,5.074890899995808,290.03761119997944,None,290.03761119997944,None,290.03761119997944,None,290.03761119997944,None,290.03761119997944,None,295.1759746999887,None,295.1759746999887,None,0.0014676500286441296,0.5014676500286441,295.1759746999887,None,295.1759746999887,None,295.1759746999887,None,295.1759746999887,None,295.1759746999887,None,295.1759746999887,None,298.8793908999942,None,298.8793908999942,None,0.004872549994615838,0.5048725499946158,298.8793908999942,None,298.8793908999942,None,298.8793908999942,None,298.8793908999942,None,298.8793908999942,None,298.8793908999942,None,-0.10000000000000142,2.287,303.23941149999155,None,-150,,,,,,,,,,,,,,,,,,,f,24,lijia,2022_Jan_09_1815,emotion,2021.2.3,60.01601227522506,
317,partial,0,0.5,-50,0.5,red,-50,0.2,-200,0.8,blue,red,blue,blue,red,180,72,5,175,5,67,"[-10, 0]","[9.3, 1.9]","[-6, 0]","[6.7, -1.9]",-50,-50,0,-200,0,15,15,8,,,,,,,,,,,,,,,,,0.008613100013462827,0.5086131000134628,304.27289119997295,None,304.27289119997295,None,left,6.273561100009829,304.27289119997295,None,304.27289119997295,None,304.27289119997295,None,304.27289119997295,None,304.27289119997295,None,310.6226317999826,None,310.6226317999826,None,0.011588699970161542,0.5115886999701615,310.6226317999826,None,310.6226317999826,None,310.6226317999826,None,310.6226317999826,None,310.6226317999826,None,310.6226317999826,None,314.2983484999859,None,314.2983484999859,None,0.0050717499980237335,0.5050717499980237,314.2983484999859,None,314.2983484999859,None,314.2983484999859,None,314.2983484999859,None,314.2983484999859,None,314.2983484999859,None,0.20000000000000284,3.786,320.1751882999961,None,-200,,,,,,,,,,,,,,,,,,,f,24,lijia,2022_Jan_09_1815,emotion,2021.2.3,60.01601227522506,
380,partial,50,0.5,0,0.5,red,200,0.8,0,0.2,red,red,blue,red,blue,180,72,5,175,5,67,"[-10, 0]","[6.7, -1.9]","[-6, 0]","[9.3, 1.9]",0,0,50,200,0,16,16,99,,,,,,,,,,,,,,,,,0.013959450006950647,0.5139594500069506,321.2114510999818,None,321.2114510999818,None,right,3.7116496000089683,321.2114510999818,None,321.2114510999818,None,321.2114510999818,None,321.2114510999818,None,321.2114510999818,None,324.98198859998956,None,324.98198859998956,None,0.001107949996367097,0.5011079499963671,324.98198859998956,None,324.98198859998956,None,324.98198859998956,None,324.98198859998956,None,324.98198859998956,None,324.98198859998956,None,329.4668731999991,None,329.4668731999991,None,0.00485165003919974,0.5048516500391997,329.4668731999991,None,329.4668731999991,None,329.4668731999991,None,329.4668731999991,None,329.4668731999991,None,329.4668731999991,None,0.10000000000000142,3.69,335.2515386999876,None,-200,,,,,,,,,,,,,,,,,,,f,24,lijia,2022_Jan_09_1815,emotion,2021.2.3,60.01601227522506,
388,partial,50,0.5,0,0.5,red,200,0.5,50,0.5,red,red,blue,red,blue,180,180,5,175,5,175,"[-10, 0]","[6, 0]","[-6, 0]","[10, 0]",0,50,50,200,0,17,17,79,,,,,,,,,,,,,,,,,0.01474865002091974,0.5147486500209197,336.3164574999828,None,336.3164574999828,None,right,1.9996860999963246,336.3164574999828,None,336.3164574999828,None,336.3164574999828,None,336.3164574999828,None,336.3164574999828,None,338.36313469999004,None,338.36313469999004,None,0.0011534499935805798,0.5011534499935806,338.36313469999004,None,338.36313469999004,None,338.36313469999004,None,338.36313469999004,None,338.36313469999004,None,338.36313469999004,None,342.41937659998075,None,342.41937659998075,None,0.004884750000201166,0.5048847500002012,342.41937659998075,None,342.41937659998075,None,342.41937659998075,None,342.41937659998075,None,342.41937659998075,None,342.41937659998075,None,-2.5,3.769,348.2536094999814,None,-150,,,,,,,,,,,,,,,,,,,f,24,lijia,2022_Jan_09_1815,emotion,2021.2.3,60.01601227522506,
71,partial,50,0.8,0,0.2,blue,200,0.2,50,0.8,blue,red,blue,blue,red,72,72,77,355,5,67,"[-9.3, -1.9]","[9.3, 1.9]","[-6.7, 1.9]","[6.7, -1.9]",50,200,0,50,0,18,18,70,,,,,,,,,,,,,,,,,0.014925249997759238,0.5149252499977592,349.29729499999667,None,349.29729499999667,None,right,3.2326812999963295,349.29729499999667,None,349.29729499999667,None,349.29729499999667,None,349.29729499999667,None,349.29729499999667,None,352.58494619998964,None,352.58494619998964,None,0.001087550015654415,0.5010875500156544,352.58494619998964,None,352.58494619998964,None,352.58494619998964,None,352.58494619998964,None,352.58494619998964,None,352.58494619998964,None,356.35164670000086,None,356.35164670000086,None,0.0034087499952875078,0.5034087499952875,356.35164670000086,None,356.35164670000086,None,356.35164670000086,None,356.35164670000086,None,356.35164670000086,None,356.35164670000086,None,-0.10000000000000142,1.921,360.3566567999951,None,50,,,,,,,,,,,,,,,,,,,f,24,lijia,2022_Jan_09_1815,emotion,2021.2.3,60.01601227522506,
209,partial,0,0.5,-50,0.5,blue,-50,0.2,-200,0.8,red,red,blue,blue,red,180,72,185,355,77,355,"[-10, 0]","[9.3, 1.9]","[-6, 0]","[6.7, -1.9]",0,-200,-50,-50,0,19,19,11,,,,,,,,,,,,,,,,,0.0011761999630834907,0.5011761999630835,361.3960750999977,None,361.3960750999977,None,left,3.770445300004212,361.3960750999977,None,361.3960750999977,None,361.3960750999977,None,361.3960750999977,None,361.3960750999977,None,365.21419829997467,None,365.21419829997467,None,0.0159939999866765,0.5159939999866765,365.21419829997467,None,365.21419829997467,None,365.21419829997467,None,365.21419829997467,None,365.21419829997467,None,365.21419829997467,None,369.4979686999868,None,369.4979686999868,None,0.004156550014158711,0.5041565500141587,369.4979686999868,None,369.4979686999868,None,369.4979686999868,None,369.4979686999868,None,369.4979686999868,None,369.4979686999868,None,-0.20000000000000284,2.235,373.8189078999858,None,50,,,,,,,,,,,,,,,,,,,f,24,lijia,2022_Jan_09_1815,emotion,2021.2.3,60.01601227522506,
108,partial,0,0.8,-50,0.2,blue,-50,0.8,-200,0.2,blue,red,blue,red,blue,72,72,77,355,77,355,"[-9.3, -1.9]","[6.7, -1.9]","[-6.7, 1.9]","[9.3, 1.9]",0,-50,-50,-200,0,20,20,50,,,,,,,,,,,,,,,,,0.006822900002589449,0.5068229000025894,374.8609612,None,374.8609612,None,left,4.64550759998383,374.8609612,None,374.8609612,None,374.8609612,None,374.8609612,None,374.8609612,None,379.5654225999897,None,379.5654225999897,None,0.0036393500049598515,0.5036393500049599,379.5654225999897,None,379.5654225999897,None,379.5654225999897,None,379.5654225999897,None,379.5654225999897,None,379.5654225999897,None,383.7868266000005,None,383.7868266000005,None,0.0028582500235643238,0.5028582500235643,383.7868266000005,None,383.7868266000005,None,383.7868266000005,None,383.7868266000005,None,383.7868266000005,None,383.7868266000005,None,2.200000000000003,1.912,387.749599999981,None,50,,,,,,,,,,,,,,,,,,,f,24,lijia,2022_Jan_09_1815,emotion,2021.2.3,60.01601227522506,
418,partial,0,0.2,-200,0.8,red,-50,0.5,-200,0.5,red,blue,red,red,blue,72,180,77,355,5,175,"[-6.7, 1.9]","[6, 0]","[-9.3, -1.9]","[10, 0]",-200,-200,0,-50,0,21,21,19,,,,,,,,,,,,,,,,,0.01393599997390993,0.5139359999739099,388.79016299999785,None,388.79016299999785,None,right,7.857508799992502,388.79016299999785,None,388.79016299999785,None,388.79016299999785,None,388.79016299999785,None,388.79016299999785,None,396.6957514999958,None,396.6957514999958,None,0.0014932500198483467,0.5014932500198483,396.6957514999958,None,396.6957514999958,None,396.6957514999958,None,396.6957514999958,None,396.6957514999958,None,396.6957514999958,None,400.536246499978,None,400.536246499978,None,0.003130950004560873,0.5031309500045609,400.536246499978,None,400.536246499978,None,400.536246499978,None,400.536246499978,None,400.536246499978,None,400.536246499978,None,-6.200000000000003,2.768,405.3772909999825,None,-150,,,,,,,,,,,,,,,,,,,f,24,lijia,2022_Jan_09_1815,emotion,2021.2.3,60.01601227522506,
429,partial,0,0.2,-50,0.8,red,-50,0.8,-200,0.2,red,blue,red,red,blue,72,72,77,355,5,67,"[-6.7, 1.9]","[6.7, -1.9]","[-9.3, -1.9]","[9.3, 1.9]",-50,-200,0,-50,0,22,22,41,,,,,,,,,,,,,,,,,0.016504850005730987,0.516504850005731,406.42421040000045,None,406.42421040000045,None,left,4.132450600009179,406.42421040000045,None,406.42421040000045,None,406.42421040000045,None,406.42421040000045,None,406.42421040000045,None,410.61877000000095,None,410.61877000000095,None,0.0033254500303883106,0.5033254500303883,410.61877000000095,None,410.61877000000095,None,410.61877000000095,None,410.61877000000095,None,410.61877000000095,None,410.61877000000095,None,414.8862961999839,None,414.8862961999839,None,0.003172949975123629,0.5031729499751236,414.8862961999839,None,414.8862961999839,None,414.8862961999839,None,414.8862961999839,None,414.8862961999839,None,414.8862961999839,None,-6.100000000000001,2.08,419.0641619999951,None,-200,,,,,,,,,,,,,,,,,,,f,24,lijia,2022_Jan_09_1815,emotion,2021.2.3,60.01601227522506,
275,partial,50,0.2,0,0.8,red,200,0.8,0,0.2,blue,blue,red,red,blue,72,72,77,355,77,355,"[-6.7, 1.9]","[6.7, -1.9]","[-9.3, -1.9]","[9.3, 1.9]",0,200,50,0,0,23,23,90,,,,,,,,,,,,,,,,,0.014676499966299161,0.5146764999662992,420.10783619998256,None,420.10783619998256,None,right,5.929366199998185,420.10783619998256,None,420.10783619998256,None,420.10783619998256,None,420.10783619998256,None,420.10783619998256,None,426.09951609998825,None,426.09951609998825,None,0.0015956500137690455,0.501595650013769,426.09951609998825,None,426.09951609998825,None,426.09951609998825,None,426.09951609998825,None,426.09951609998825,None,426.09951609998825,None,429.87445269999444,None,429.87445269999444,None,0.0014534500369336456,0.5014534500369336,429.87445269999444,None,429.87445269999444,None,429.87445269999444,None,429.87445269999444,None,429.87445269999444,None,429.87445269999444,None,6.200000000000003,2.419,434.3837541999819,None,0,,,,,,,,,,,,,,,,,,,f,24,lijia,2022_Jan_09_1815,emotion,2021.2.3,60.01601227522506,
211,partial,0,0.2,-50,0.8,blue,-50,0.5,-200,0.5,red,blue,red,red,blue,72,180,5,67,5,175,"[-6.7, 1.9]","[6, 0]","[-9.3, -1.9]","[10, 0]",0,-200,-50,-50,0,24,24,23,,,,,,,,,,,,,,,,,0.01372335001360625,0.5137233500136063,435.42880069999956,None,435.42880069999956,None,left,15.335692799999379,435.42880069999956,None,435.42880069999956,None,435.42880069999956,None,435.42880069999956,None,435.42880069999956,None,450.8304372999992,None,450.8304372999992,None,0.0035038500209338963,0.5035038500209339,450.8304372999992,None,450.8304372999992,None,450.8304372999992,None,450.8304372999992,None,450.8304372999992,None,450.8304372999992,None,454.81460149999475,None,454.81460149999475,None,0.0027006500167772174,0.5027006500167772,454.81460149999475,None,454.81460149999475,None,454.81460149999475,None,454.81460149999475,None,454.81460149999475,None,454.81460149999475,None,-0.10000000000000142,3.316,460.2149886999978,None,0,,,,,,,,,,,,,,,,,,,f,24,lijia,2022_Jan_09_1815,emotion,2021.2.3,60.01601227522506,
431,partial,0,0.8,-50,0.2,red,-50,0.2,-200,0.8,red,red,blue,blue,red,72,72,5,67,77,355,"[-9.3, -1.9]","[9.3, 1.9]","[-6.7, 1.9]","[6.7, -1.9]",-50,-200,0,-50,0,25,25,17,,,,,,,,,,,,,,,,,0.015240099979564548,0.5152400999795645,461.2481296999904,None,461.2481296999904,None,left,4.235834599996451,461.2481296999904,None,461.2481296999904,None,461.2481296999904,None,461.2481296999904,None,461.2481296999904,None,465.5280904999818,None,465.5280904999818,None,0.0038044500397518277,0.5038044500397518,465.5280904999818,None,465.5280904999818,None,465.5280904999818,None,465.5280904999818,None,465.5280904999818,None,465.5280904999818,None,469.2211330999853,None,469.2211330999853,None,0.0033110500080510974,0.5033110500080511,469.2211330999853,None,469.2211330999853,None,469.2211330999853,None,469.2211330999853,None,469.2211330999853,None,469.2211330999853,None,0.0,3.698,474.9953050999902,None,-50,,,,,,,,,,,,,,,,,,,f,24,lijia,2022_Jan_09_1815,emotion,2021.2.3,60.01601227522506,
204,partial,0,0.2,-200,0.8,blue,-50,0.8,-200,0.2,red,blue,red,red,blue,72,72,5,67,5,67,"[-6.7, 1.9]","[6.7, -1.9]","[-9.3, -1.9]","[9.3, 1.9]",0,-200,-200,-50,0,26,26,37,,,,,,,,,,,,,,,,,0.001297099981456995,0.501297099981457,476.04927889999817,None,476.04927889999817,None,left,6.175882699986687,476.04927889999817,None,476.04927889999817,None,476.04927889999817,None,476.04927889999817,None,476.04927889999817,None,482.29059299998335,None,482.29059299998335,None,0.015462399955140427,0.5154623999551404,482.29059299998335,None,482.29059299998335,None,482.29059299998335,None,482.29059299998335,None,482.29059299998335,None,482.29059299998335,None,485.984481099993,None,485.984481099993,None,0.002712349989451468,0.5027123499894515,485.984481099993,None,485.984481099993,None,485.984481099993,None,485.984481099993,None,485.984481099993,None,485.984481099993,None,-0.20000000000000284,3.715,491.8059278999863,None,-50,,,,,,,,,,,,,,,,,,,f,24,lijia,2022_Jan_09_1815,emotion,2021.2.3,60.01601227522506,
93,partial,0,0.5,-200,0.5,blue,-50,0.8,-200,0.2,blue,red,blue,red,blue,180,72,185,355,77,355,"[-10, 0]","[6.7, -1.9]","[-6, 0]","[9.3, 1.9]",0,-50,-200,-200,0,27,27,46,,,,,,,,,,,,,,,,,0.009969799953978509,0.5099697999539785,492.8554161999782,None,492.8554161999782,None,left,6.569661199988332,492.8554161999782,None,492.8554161999782,None,492.8554161999782,None,492.8554161999782,None,492.8554161999782,None,499.46674659999553,None,499.46674659999553,None,0.002242150017991662,0.5022421500179917,499.46674659999553,None,499.46674659999553,None,499.46674659999553,None,499.46674659999553,None,499.46674659999553,None,499.46674659999553,None,503.79719829998794,None,503.79719829998794,None,0.002817750006215647,0.5028177500062156,503.79719829998794,None,503.79719829998794,None,503.79719829998794,None,503.79719829998794,None,503.79719829998794,None,503.79719829998794,None,0.0,8.198,514.0665521999763,None,-50,,,,,,,,,,,,,,,,,,,f,24,lijia,2022_Jan_09_1815,emotion,2021.2.3,60.01601227522506,
412,partial,0,0.8,-50,0.2,red,0,0.2,-200,0.8,red,red,blue,blue,red,72,72,5,67,77,355,"[-9.3, -1.9]","[9.3, 1.9]","[-6.7, 1.9]","[6.7, -1.9]",-50,-200,0,0,0,28,28,15,,,,,,,,,,,,,,,,,0.01477759997942485,0.5147775999794248,515.1007324999955,None,515.1007324999955,None,left,6.192950399999972,515.1007324999955,None,515.1007324999955,None,515.1007324999955,None,515.1007324999955,None,515.1007324999955,None,521.3562314999872,None,521.3562314999872,None,0.003075949993217364,0.5030759499932174,521.3562314999872,None,521.3562314999872,None,521.3562314999872,None,521.3562314999872,None,521.3562314999872,None,521.3562314999872,None,525.4835156999761,None,525.4835156999761,None,0.00034905000939033926,0.5003490500093903,525.4835156999761,None,525.4835156999761,None,525.4835156999761,None,525.4835156999761,None,525.4835156999761,None,525.4835156999761,None,-0.3999999999999986,2.702,530.2626024999772,None,-100,,,,,,,,,,,,,,,,,,,f,24,lijia,2022_Jan_09_1815,emotion,2021.2.3,60.01601227522506,
315,partial,0,0.8,-200,0.2,red,-50,0.8,-200,0.2,blue,red,blue,red,blue,72,72,5,67,77,355,"[-9.3, -1.9]","[6.7, -1.9]","[-6.7, 1.9]","[9.3, 1.9]",-200,-50,0,-200,0,29,29,52,,,,,,,,,,,,,,,,,0.015410749998409301,0.5154107499984093,531.3002380999969,None,531.3002380999969,None,left,4.459184099978302,531.3002380999969,None,531.3002380999969,None,531.3002380999969,None,531.3002380999969,None,531.3002380999969,None,535.800501699996,None,535.800501699996,None,0.0010067500115837902,0.5010067500115838,535.800501699996,None,535.800501699996,None,535.800501699996,None,535.800501699996,None,535.800501699996,None,535.800501699996,None,539.7455640999833,None,539.7455640999833,None,0.003032550011994317,0.5030325500119943,539.7455640999833,None,539.7455640999833,None,539.7455640999833,None,539.7455640999833,None,539.7455640999833,None,539.7455640999833,None,-7.299999999999997,3.942,545.7888016999932,None,-300,,,,,,,,,,,,,,,,,,,f,24,lijia,2022_Jan_09_1815,emotion,2021.2.3,60.01601227522506,
94,partial,0,0.2,-200,0.8,blue,-50,0.5,-200,0.5,blue,blue,red,red,blue,72,180,5,67,185,355,"[-6.7, 1.9]","[6, 0]","[-9.3, -1.9]","[10, 0]",0,-50,-200,-200,0,30,30,22,,,,,,,,,,,,,,,,,0.016150100011145696,0.5161501000111457,546.8511088999803,None,546.8511088999803,None,left,5.354437700007111,546.8511088999803,None,546.8511088999803,None,546.8511088999803,None,546.8511088999803,None,546.8511088999803,None,552.2745898999856,None,552.2745898999856,None,0.013459099980536848,0.5134590999805368,552.2745898999856,None,552.2745898999856,None,552.2745898999856,None,552.2745898999856,None,552.2745898999856,None,552.2745898999856,None,556.2712855999998,None,556.2712855999998,None,0.0042806499695871025,0.5042806499695871,556.2712855999998,None,556.2712855999998,None,556.2712855999998,None,556.2712855999998,None,556.2712855999998,None,556.2712855999998,None,1.5,4.525,562.8748154999921,None,-300,,,,,,,,,,,,,,,,,,,f,24,lijia,2022_Jan_09_1815,emotion,2021.2.3,60.01601227522506,
189,partial,200,0.8,0,0.2,blue,200,0.8,50,0.2,red,red,blue,red,blue,72,72,77,355,5,67,"[-9.3, -1.9]","[6.7, -1.9]","[-6.7, 1.9]","[9.3, 1.9]",200,50,0,200,0,31,31,107,,,,,,,,,,,,,,,,,0.003478599974187091,0.5034785999741871,563.9374560999859,None,563.9374560999859,None,right,5.006150700006401,563.9374560999859,None,563.9374560999859,None,563.9374560999859,None,563.9374560999859,None,563.9374560999859,None,568.9864044999995,None,568.9864044999995,None,0.0011614499962888658,0.5011614499962889,568.9864044999995,None,568.9864044999995,None,568.9864044999995,None,568.9864044999995,None,568.9864044999995,None,568.9864044999995,None,573.1961743999855,None,573.1961743999855,None,0.0024929500359576195,0.5024929500359576,573.1961743999855,None,573.1961743999855,None,573.1961743999855,None,573.1961743999855,None,573.1961743999855,None,573.1961743999855,None,0.20000000000000284,2.316,577.5904682999826,None,-250,,,,,,,,,,,,,,,,,,,f,24,lijia,2022_Jan_09_1815,emotion,2021.2.3,60.01601227522506,
278,partial,50,0.8,0,0.2,red,200,0.8,0,0.2,blue,red,blue,red,blue,72,72,5,67,77,355,"[-9.3, -1.9]","[6.7, -1.9]","[-6.7, 1.9]","[9.3, 1.9]",0,200,50,0,0,32,32,102,,,,,,,,,,,,,,,,,0.0019311999785713851,0.5019311999785714,578.6384727999975,None,578.6384727999975,None,right,3.1248451999854296,578.6384727999975,None,578.6384727999975,None,578.6384727999975,None,578.6384727999975,None,578.6384727999975,None,581.8077402999916,None,581.8077402999916,None,0.0011018500081263483,0.5011018500081263,581.8077402999916,None,581.8077402999916,None,581.8077402999916,None,581.8077402999916,None,581.8077402999916,None,581.8077402999916,None,585.6987083999848,None,585.6987083999848,None,0.003350850020069629,0.5033508500200696,585.6987083999848,None,585.6987083999848,None,585.6987083999848,None,585.6987083999848,None,585.6987083999848,None,585.6987083999848,None,2.5,2.883,590.6787643999851,None,-50,,,,,,,,,,,,,,,,,,,f,24,lijia,2022_Jan_09_1815,emotion,2021.2.3,60.01601227522506,
60,partial,50,0.2,0,0.8,blue,200,0.5,0,0.5,blue,blue,red,red,blue,72,180,5,67,185,355,"[-6.7, 1.9]","[6, 0]","[-9.3, -1.9]","[10, 0]",50,200,0,0,0,33,33,72,,,,,,,,,,,,,,,,,0.011737049993826076,0.5117370499938261,591.7333190999925,None,591.7333190999925,None,right,12.375578600011067,591.7333190999925,None,591.7333190999925,None,591.7333190999925,None,591.7333190999925,None,591.7333190999925,None,604.1495523999911,None,604.1495523999911,None,0.0013680499978363514,0.5013680499978364,604.1495523999911,None,604.1495523999911,None,604.1495523999911,None,604.1495523999911,None,604.1495523999911,None,604.1495523999911,None,608.6013806999836,None,608.6013806999836,None,0.004108050023205578,0.5041080500232056,608.6013806999836,None,608.6013806999836,None,608.6013806999836,None,608.6013806999836,None,608.6013806999836,None,608.6013806999836,None,7.399999999999999,2.714,613.4120170999959,None,150,,,,,,,,,,,,,,,,,,,f,24,lijia,2022_Jan_09_1815,emotion,2021.2.3,60.01601227522506,
199,partial,0,0.5,-200,0.5,blue,-50,0.5,-200,0.5,red,red,blue,red,blue,180,180,185,355,5,175,"[-10, 0]","[6, 0]","[-6, 0]","[10, 0]",0,-200,-200,-50,0,34,34,25,,,,,,,,,,,,,,,,,0.013411950028967112,0.5134119500289671,614.4605152999866,None,614.4605152999866,None,right,7.981070299982093,614.4605152999866,None,614.4605152999866,None,614.4605152999866,None,614.4605152999866,None,614.4605152999866,None,622.4903241999855,None,622.4903241999855,None,0.002740650001214817,0.5027406500012148,622.4903241999855,None,622.4903241999855,None,622.4903241999855,None,622.4903241999855,None,622.4903241999855,None,622.4903241999855,None,626.2297108999919,None,626.2297108999919,None,0.002715950016863644,0.5027159500168636,626.2297108999919,None,626.2297108999919,None,626.2297108999919,None,626.2297108999919,None,626.2297108999919,None,626.2297108999919,None,-6.399999999999999,2.219,630.5424228999764,None,-50,,,,,,,,,,,,,,,,,,,f,24,lijia,2022_Jan_09_1815,emotion,2021.2.3,60.01601227522506,
169,partial,50,0.8,0,0.2,blue,200,0.2,0,0.8,red,red,blue,blue,red,72,72,77,355,77,355,"[-9.3, -1.9]","[9.3, 1.9]","[-6.7, 1.9]","[6.7, -1.9]",50,0,0,200,0,35,35,69,,,,,,,,,,,,,,,,,0.003013599955011159,0.5030135999550112,631.5866677000013,None,631.5866677000013,None,right,3.3565515999798663,631.5866677000013,None,631.5866677000013,None,631.5866677000013,None,631.5866677000013,None,631.5866677000013,None,635.0044398999889,None,635.0044398999889,None,0.0015531500102952123,0.5015531500102952,635.0044398999889,None,635.0044398999889,None,635.0044398999889,None,635.0044398999889,None,635.0044398999889,None,635.0044398999889,None,638.8081684999925,None,638.8081684999925,None,0.0049073500267695636,0.5049073500267696,638.8081684999925,None,638.8081684999925,None,638.8081684999925,None,638.8081684999925,None,638.8081684999925,None,638.8081684999925,None,-5.299999999999997,4.037,644.9350588999805,None,-50,,,,,,,,,,,,,,,,,,,f,24,lijia,2022_Jan_09_1815,emotion,2021.2.3,60.01601227522506,
274,partial,50,0.2,0,0.8,red,200,0.2,0,0.8,blue,blue,red,blue,red,72,72,77,355,5,67,"[-6.7, 1.9]","[9.3, 1.9]","[-9.3, -1.9]","[6.7, -1.9]",0,200,50,0,0,36,36,54,,,,,,,,,,,,,,,,,0.014675549988169223,0.5146755499881692,645.9975396999798,None,645.9975396999798,None,right,2.2520973999926355,645.9975396999798,None,645.9975396999798,None,645.9975396999798,None,645.9975396999798,None,645.9975396999798,None,648.3123764999909,None,648.3123764999909,None,0.0035561499826144427,0.5035561499826144,648.3123764999909,None,648.3123764999909,None,648.3123764999909,None,648.3123764999909,None,648.3123764999909,None,648.3123764999909,None,652.30161949998,None,652.30161949998,None,0.0034630500013008714,0.5034630500013009,652.30161949998,None,652.30161949998,None,652.30161949998,None,652.30161949998,None,652.30161949998,None,652.30161949998,None,2.299999999999997,2.352,656.7100144999858,None,150,,,,,,,,,,,,,,,,,,,f,24,lijia,2022_Jan_09_1815,emotion,2021.2.3,60.01601227522506,
186,partial,200,0.2,0,0.8,blue,200,0.8,50,0.2,red,blue,red,red,blue,72,72,5,67,5,67,"[-6.7, 1.9]","[6.7, -1.9]","[-9.3, -1.9]","[9.3, 1.9]",200,50,0,200,0,37,37,95,,,,,,,,,,,,,,,,,0.005385999975260347,0.5053859999752603,657.7382195999962,None,657.7382195999962,None,right,8.932034800003748,657.7382195999962,None,657.7382195999962,None,657.7382195999962,None,657.7382195999962,None,657.7382195999962,None,666.7229396999755,None,666.7229396999755,None,0.0012318500375840813,0.5012318500375841,666.7229396999755,None,666.7229396999755,None,666.7229396999755,None,666.7229396999755,None,666.7229396999755,None,666.7229396999755,None,671.0681851999834,None,671.0681851999834,None,0.0025778499839361757,0.5025778499839362,671.0681851999834,None,671.0681851999834,None,671.0681851999834,None,671.0681851999834,None,671.0681851999834,None,671.0681851999834,None,-5.799999999999997,3.986,677.1573157999956,None,200,,,,,,,,,,,,,,,,,,,f,24,lijia,2022_Jan_09_1815,emotion,2021.2.3,60.01601227522506,
181,partial,200,0.5,0,0.5,blue,200,0.5,50,0.5,red,red,blue,red,blue,180,180,185,355,5,175,"[-10, 0]","[6, 0]","[-6, 0]","[10, 0]",200,50,0,200,0,38,38,83,,,,,,,,,,,,,,,,,0.0021078000136185437,0.5021078000136185,678.1985251999868,None,678.1985251999868,None,right,4.021495299995877,678.1985251999868,None,678.1985251999868,None,678.1985251999868,None,678.1985251999868,None,678.1985251999868,None,682.2830262999923,None,682.2830262999923,None,0.0017020500090438873,0.5017020500090439,682.2830262999923,None,682.2830262999923,None,682.2830262999923,None,682.2830262999923,None,682.2830262999923,None,682.2830262999923,None,685.9684528999787,None,685.9684528999787,None,0.003011550026712939,0.5030115500267129,685.9684528999787,None,685.9684528999787,None,685.9684528999787,None,685.9684528999787,None,685.9684528999787,None,685.9684528999787,None,2.8999999999999986,4.796,692.8670923999744,None,250,,,,,,,,,,,,,,,,,,,f,24,lijia,2022_Jan_09_1815,emotion,2021.2.3,60.01601227522506,
410,partial,0,0.2,-50,0.8,red,0,0.8,-200,0.2,red,blue,red,red,blue,72,72,77,355,5,67,"[-6.7, 1.9]","[6.7, -1.9]","[-9.3, -1.9]","[9.3, 1.9]",-50,-200,0,0,0,39,39,39,,,,,,,,,,,,,,,,,0.0032562999986112118,0.5032562999986112,693.8982116999978,None,693.8982116999978,None,left,16.23390580000705,693.8982116999978,None,693.8982116999978,None,693.8982116999978,None,693.8982116999978,None,693.8982116999978,None,710.181758199993,None,710.181758199993,None,0.001237050018971786,0.5012370500189718,710.181758199993,None,710.181758199993,None,710.181758199993,None,710.181758199993,None,710.181758199993,None,710.181758199993,None,714.4779432999785,None,714.4779432999785,None,0.0036719500203616917,0.5036719500203617,714.4779432999785,None,714.4779432999785,None,714.4779432999785,None,714.4779432999785,None,714.4779432999785,None,714.4779432999785,None,-0.20000000000000284,2.85,719.4295063999889,None,200,,,,,,,,,,,,,,,,,,,f,24,lijia,2022_Jan_09_1815,emotion,2021.2.3,60.01601227522506,
319,partial,0,0.2,-50,0.8,red,-50,0.5,-200,0.5,blue,blue,red,red,blue,72,180,77,355,185,355,"[-6.7, 1.9]","[6, 0]","[-9.3, -1.9]","[10, 0]",-50,-50,0,-200,0,40,40,20,,,,,,,,,,,,,,,,,0.01315959997009486,0.5131595999700949,720.5130800999759,None,720.5130800999759,None,left,5.2670669999788515,720.5130800999759,None,720.5130800999759,None,720.5130800999759,None,720.5130800999759,None,720.5130800999759,None,725.8447127999971,None,725.8447127999971,None,0.0010860500042326748,0.5010860500042327,725.8447127999971,None,725.8447127999971,None,725.8447127999971,None,725.8447127999971,None,725.8447127999971,None,725.8447127999971,None,729.7464854999853,None,729.7464854999853,None,0.003579450014512986,0.503579450014513,729.7464854999853,None,729.7464854999853,None,729.7464854999853,None,729.7464854999853,None,729.7464854999853,None,729.7464854999853,None,-0.10000000000000142,2.553,734.3903160999762,None,150,,,,,,,,,,,,,,,,,,,f,24,lijia,2022_Jan_09_1815,emotion,2021.2.3,60.01601227522506,
282,partial,50,0.5,0,0.5,red,200,0.8,50,0.2,blue,red,blue,red,blue,180,72,5,175,77,355,"[-10, 0]","[6.7, -1.9]","[-6, 0]","[9.3, 1.9]",0,200,50,50,0,41,41,100,,,,,,,,,,,,,,,,,0.005578299984335899,0.5055782999843359,735.4196345999953,None,735.4196345999953,None,right,3.5926767000055406,735.4196345999953,None,735.4196345999953,None,735.4196345999953,None,735.4196345999953,None,735.4196345999953,None,739.071263299993,None,739.071263299993,None,0.015628299996023998,0.515628299996024,739.071263299993,None,739.071263299993,None,739.071263299993,None,739.071263299993,None,739.071263299993,None,739.071263299993,None,742.73396339998,None,742.73396339998,None,0.00490195001475513,0.5049019500147551,742.73396339998,None,742.73396339998,None,742.73396339998,None,742.73396339998,None,742.73396339998,None,742.73396339998,None,0.0,2.664,747.4958653999784,None,350,,,,,,,,,,,,,,,,,,,f,24,lijia,2022_Jan_09_1815,emotion,2021.2.3,60.01601227522506,
428,partial,0,0.2,-50,0.8,red,-50,0.2,-200,0.8,red,blue,red,blue,red,72,72,77,355,77,355,"[-6.7, 1.9]","[9.3, 1.9]","[-9.3, -1.9]","[6.7, -1.9]",-50,-200,0,-50,0,42,42,5,,,,,,,,,,,,,,,,,0.009842150000622496,0.5098421500006225,748.5566103999736,None,748.5566103999736,None,left,3.4505480999941938,748.5566103999736,None,748.5566103999736,None,748.5566103999736,None,748.5566103999736,None,748.5566103999736,None,752.073842999991,None,752.073842999991,None,0.015040600002976134,0.5150406000029761,752.073842999991,None,752.073842999991,None,752.073842999991,None,752.073842999991,None,752.073842999991,None,752.073842999991,None,755.9051207999873,None,755.9051207999873,None,0.004919250000966713,0.5049192500009667,755.9051207999873,None,755.9051207999873,None,755.9051207999873,None,755.9051207999873,None,755.9051207999873,None,755.9051207999873,None,-4.200000000000003,2.56,760.560903399979,None,300,,,,,,,,,,,,,,,,,,,f,24,lijia,2022_Jan_09_1815,emotion,2021.2.3,60.01601227522506,
185,partial,200,0.2,0,0.8,blue,200,0.2,50,0.8,red,blue,red,blue,red,72,72,5,67,77,355,"[-6.7, 1.9]","[9.3, 1.9]","[-9.3, -1.9]","[6.7, -1.9]",200,50,0,200,0,43,43,59,,,,,,,,,,,,,,,,,0.011979000002611428,0.5119790000026114,761.5977658999909,None,761.5977658999909,None,right,5.172523100016406,761.5977658999909,None,761.5977658999909,None,761.5977658999909,None,761.5977658999909,None,761.5977658999909,None,766.8313284999749,None,766.8313284999749,None,0.003121549991192296,0.5031215499911923,766.8313284999749,None,766.8313284999749,None,766.8313284999749,None,766.8313284999749,None,766.8313284999749,None,766.8313284999749,None,770.595749399974,None,770.595749399974,None,0.0026077500078827143,0.5026077500078827,770.595749399974,None,770.595749399974,None,770.595749399974,None,770.595749399974,None,770.595749399974,None,770.595749399974,None,-4.100000000000001,2.223,774.9221948999912,None,350,,,,,,,,,,,,,,,,,,,f,24,lijia,2022_Jan_09_1815,emotion,2021.2.3,60.01601227522506,
74,partial,200,0.5,0,0.5,blue,200,0.2,50,0.8,blue,red,blue,blue,red,180,72,185,355,5,67,"[-10, 0]","[9.3, 1.9]","[-6, 0]","[6.7, -1.9]",200,200,0,50,0,44,44,62,,,,,,,,,,,,,,,,,0.003851999994367361,0.5038519999943674,775.9654114999867,None,775.9654114999867,None,left,9.07457820000127,775.9654114999867,None,775.9654114999867,None,775.9654114999867,None,775.9654114999867,None,775.9654114999867,None,785.0917665000015,None,785.0917665000015,None,0.0013886500091757625,0.5013886500091758,785.0917665000015,None,785.0917665000015,None,785.0917665000015,None,785.0917665000015,None,785.0917665000015,None,785.0917665000015,None,789.2305652999785,None,789.2305652999785,None,0.0034159500210080296,0.503415950021008,789.2305652999785,None,789.2305652999785,None,789.2305652999785,None,789.2305652999785,None,789.2305652999785,None,789.2305652999785,None,-0.20000000000000284,3.385,794.7165723999788,None,550,,,,,,,,,,,,,,,,,,,f,24,lijia,2022_Jan_09_1815,emotion,2021.2.3,60.01601227522506,
86,partial,0,0.2,-50,0.8,blue,0,0.8,-200,0.2,blue,blue,red,red,blue,72,72,5,67,77,355,"[-6.7, 1.9]","[6.7, -1.9]","[-9.3, -1.9]","[9.3, 1.9]",0,0,-50,-200,0,45,45,36,,,,,,,,,,,,,,,,,0.0071709000039845705,0.5071709000039846,795.7481682999933,None,795.7481682999933,None,left,8.381838700006483,795.7481682999933,None,795.7481682999933,None,795.7481682999933,None,795.7481682999933,None,795.7481682999933,None,804.1900410999951,None,804.1900410999951,None,0.0032267500064335763,0.5032267500064336,804.1900410999951,None,804.1900410999951,None,804.1900410999951,None,804.1900410999951,None,804.1900410999951,None,804.1900410999951,None,807.8960246999923,None,807.8960246999923,None,0.003247450018534437,0.5032474500185344,807.8960246999923,None,807.8960246999923,None,807.8960246999923,None,807.8960246999923,None,807.8960246999923,None,807.8960246999923,None,-0.10000000000000142,3.609,813.6050885999866,None,550,,,,,,,,,,,,,,,,,,,f,24,lijia,2022_Jan_09_1815,emotion,2021.2.3,60.01601227522506,
298,partial,0,0.5,-50,0.5,red,0,0.2,-200,0.8,blue,red,blue,blue,red,180,72,5,175,5,67,"[-10, 0]","[9.3, 1.9]","[-6, 0]","[6.7, -1.9]",-50,0,0,-200,0,46,46,6,,,,,,,,,,,,,,,,,0.001882049982668832,0.5018820499826688,814.6654470999783,None,814.6654470999783,None,left,6.174200499983272,814.6654470999783,None,814.6654470999783,None,814.6654470999783,None,814.6654470999783,None,814.6654470999783,None,820.902755099989,None,820.902755099989,None,0.0015722500102128834,0.5015722500102129,820.902755099989,None,820.902755099989,None,820.902755099989,None,820.902755099989,None,820.902755099989,None,820.902755099989,None,824.7416644999757,None,824.7416644999757,None,0.0032726500066928566,0.5032726500066929,824.7416644999757,None,824.7416644999757,None,824.7416644999757,None,824.7416644999757,None,824.7416644999757,None,824.7416644999757,None,-5.5,1.712,828.5291107999801,None,500,,,,,,,,,,,,,,,,,,,f,24,lijia,2022_Jan_09_1815,emotion,2021.2.3,60.01601227522506,
277,partial,50,0.8,0,0.2,red,200,0.2,0,0.8,blue,red,blue,blue,red,72,72,5,67,5,67,"[-9.3, -1.9]","[9.3, 1.9]","[-6.7, 1.9]","[6.7, -1.9]",0,200,50,0,0,47,47,66,,,,,,,,,,,,,,,,,0.009421900002053007,0.509421900002053,829.5658047999896,None,829.5658047999896,None,right,5.562230000010459,829.5658047999896,None,829.5658047999896,None,829.5658047999896,None,829.5658047999896,None,829.5658047999896,None,835.1851607999997,None,835.1851607999997,None,0.0011283500061836094,0.5011283500061836,835.1851607999997,None,835.1851607999997,None,835.1851607999997,None,835.1851607999997,None,835.1851607999997,None,835.1851607999997,None,838.8406688999967,None,838.8406688999967,None,0.004103150014998391,0.5041031500149984,838.8406688999967,None,838.8406688999967,None,838.8406688999967,None,838.8406688999967,None,838.8406688999967,None,838.8406688999967,None,1.7999999999999972,5.962,846.8922518999898,None,700,,,,,,,,,,,,,,,,,,,f,24,lijia,2022_Jan_09_1815,emotion,2021.2.3,60.01601227522506,
424,partial,0,0.5,-50,0.5,red,-50,0.5,-200,0.5,red,red,blue,red,blue,180,180,5,175,5,175,"[-10, 0]","[6, 0]","[-6, 0]","[10, 0]",-50,-200,0,-50,0,48,48,29,,,,,,,,,,,,,,,,,0.013354950031498447,0.5133549500314984,847.9502586999733,None,847.9502586999733,None,left,2.87864979999722,847.9502586999733,None,847.9502586999733,None,847.9502586999733,None,847.9502586999733,None,847.9502586999733,None,850.8729181999806,None,850.8729181999806,None,0.0009992500126827508,0.5009992500126828,850.8729181999806,None,850.8729181999806,None,850.8729181999806,None,850.8729181999806,None,850.8729181999806,None,850.8729181999806,None,854.6250505999778,None,854.6250505999778,None,0.004056250007124618,0.5040562500071246,854.6250505999778,None,854.6250505999778,None,854.6250505999778,None,854.6250505999778,None,854.6250505999778,None,854.6250505999778,None,-5.0,3.397,860.1284580999927,None,650,,,,,,,,,,,,,,,,,,,f,24,lijia,2022_Jan_09_1815,emotion,2021.2.3,60.01601227522506,
79,partial,200,0.8,0,0.2,blue,200,0.5,50,0.5,blue,red,blue,red,blue,72,180,77,355,185,355,"[-9.3, -1.9]","[6, 0]","[-6.7, 1.9]","[10, 0]",200,200,0,50,0,49,49,86,,,,,,,,,,,,,,,,,0.0065788500069174916,0.5065788500069175,861.1782028999878,None,861.1782028999878,None,left,8.182877400016878,861.1782028999878,None,861.1782028999878,None,861.1782028999878,None,861.1782028999878,None,861.1782028999878,None,869.4107819999917,None,869.4107819999917,None,0.0024907499901019037,0.5024907499901019,869.4107819999917,None,869.4107819999917,None,869.4107819999917,None,869.4107819999917,None,869.4107819999917,None,869.4107819999917,None,873.4522300999961,None,873.4522300999961,None,0.0047674500092398375,0.5047674500092398,873.4522300999961,None,873.4522300999961,None,873.4522300999961,None,873.4522300999961,None,873.4522300999961,None,873.4522300999961,None,2.299999999999997,3.029,878.5844010000001,None,850,,,,,,,,,,,,,,,,,,,f,24,lijia,2022_Jan_09_1815,emotion,2021.2.3,60.01601227522506,
195,partial,0,0.2,-50,0.8,blue,0,0.5,-200,0.5,red,blue,red,red,blue,72,180,5,67,5,175,"[-6.7, 1.9]","[6, 0]","[-9.3, -1.9]","[10, 0]",0,-200,-50,0,0,50,50,21,,,,,,,,,,,,,,,,,0.0003507000219542533,0.5003507000219543,879.6319863999961,None,879.6319863999961,None,left,5.0914905999961775,879.6319863999961,None,879.6319863999961,None,879.6319863999961,None,879.6319863999961,None,879.6319863999961,None,884.7690767999738,None,884.7690767999738,None,0.0016760500147938728,0.5016760500147939,884.7690767999738,None,884.7690767999738,None,884.7690767999738,None,884.7690767999738,None,884.7690767999738,None,884.7690767999738,None,888.6994542999892,None,888.6994542999892,None,0.002958250028314069,0.5029582500283141,888.6994542999892,None,888.6994542999892,None,888.6994542999892,None,888.6994542999892,None,888.6994542999892,None,888.6994542999892,None,0.0,2.671,893.4590939999907,None,850,,,,,,,,,,,,,,,,,,,f,24,lijia,2022_Jan_09_1815,emotion,2021.2.3,60.01601227522506,
283,partial,50,0.2,0,0.8,red,200,0.5,50,0.5,blue,blue,red,red,blue,72,180,77,355,185,355,"[-6.7, 1.9]","[6, 0]","[-9.3, -1.9]","[10, 0]",0,200,50,50,0,51,51,76,,,,,,,,,,,,,,,,,0.015383850026410073,0.5153838500264101,894.5135429999791,None,894.5135429999791,None,right,3.2513136000197846,894.5135429999791,None,894.5135429999791,None,894.5135429999791,None,894.5135429999791,None,894.5135429999791,None,897.8280106999737,None,897.8280106999737,None,0.0036119500000495464,0.5036119500000495,897.8280106999737,None,897.8280106999737,None,897.8280106999737,None,897.8280106999737,None,897.8280106999737,None,897.8280106999737,None,901.7949465999845,None,901.7949465999845,None,0.00557154999114573,0.5055715499911457,901.7949465999845,None,901.7949465999845,None,901.7949465999845,None,901.7949465999845,None,901.7949465999845,None,901.7949465999845,None,2.6000000000000014,2.484,906.3581361999968,None,1050,,,,,,,,,,,,,,,,,,,f,24,lijia,2022_Jan_09_1815,emotion,2021.2.3,60.01601227522506,
190,partial,0,0.5,-50,0.5,blue,0,0.2,-200,0.8,red,red,blue,blue,red,180,72,185,355,77,355,"[-10, 0]","[9.3, 1.9]","[-6, 0]","[6.7, -1.9]",0,-200,-50,0,0,52,52,9,,,,,,,,,,,,,,,,,0.014011849998496473,0.5140118499984965,907.39999179999,None,907.39999179999,None,left,7.9078085999935865,907.39999179999,None,907.39999179999,None,907.39999179999,None,907.39999179999,None,907.39999179999,None,915.3796237999923,None,915.3796237999923,None,0.013523599976906553,0.5135235999769066,915.3796237999923,None,915.3796237999923,None,915.3796237999923,None,915.3796237999923,None,915.3796237999923,None,915.3796237999923,None,919.6361419999739,None,919.6361419999739,None,0.002797650027787313,0.5027976500277873,919.6361419999739,None,919.6361419999739,None,919.6361419999739,None,919.6361419999739,None,919.6361419999739,None,919.6361419999739,None,0.10000000000000142,4.086,925.8088948999939,None,1050,,,,,,,,,,,,,,,,,,,f,24,lijia,2022_Jan_09_1815,emotion,2021.2.3,60.01601227522506,
289,partial,200,0.5,0,0.5,red,200,0.5,50,0.5,blue,red,blue,red,blue,180,180,5,175,185,355,"[-10, 0]","[6, 0]","[-6, 0]","[10, 0]",0,200,200,50,0,53,53,80,,,,,,,,,,,,,,,,,0.015865699999267235,0.5158656999992672,926.8475325999898,None,926.8475325999898,None,right,2.3633432000060566,926.8475325999898,None,926.8475325999898,None,926.8475325999898,None,926.8475325999898,None,926.8475325999898,None,929.2641236999771,None,929.2641236999771,None,0.0035562500124797225,0.5035562500124797,929.2641236999771,None,929.2641236999771,None,929.2641236999771,None,929.2641236999771,None,929.2641236999771,None,929.2641236999771,None,933.2849929999793,None,933.2849929999793,None,0.0034770499914884567,0.5034770499914885,933.2849929999793,None,933.2849929999793,None,933.2849929999793,None,933.2849929999793,None,933.2849929999793,None,933.2849929999793,None,3.3999999999999986,5.577,940.924196899985,None,1250,,,,,,,,,,,,,,,,,,,f,24,lijia,2022_Jan_09_1815,emotion,2021.2.3,60.01601227522506,
312,partial,0,0.2,-200,0.8,red,-50,0.8,-200,0.2,blue,blue,red,red,blue,72,72,77,355,77,355,"[-6.7, 1.9]","[6.7, -1.9]","[-9.3, -1.9]","[9.3, 1.9]",-200,-50,0,-200,0,54,54,40,,,,,,,,,,,,,,,,,0.002766199962934479,0.5027661999629345,941.9564797999919,None,941.9564797999919,None,right,8.72551239997847,941.9564797999919,None,941.9564797999919,None,941.9564797999919,None,941.9564797999919,None,941.9564797999919,None,950.746728899976,None,950.746728899976,None,0.0029206500039435923,0.5029206500039436,950.746728899976,None,950.746728899976,None,950.746728899976,None,950.746728899976,None,950.746728899976,None,950.746728899976,None,954.6565792999754,None,954.6565792999754,None,0.004497949994402006,0.504497949994402,954.6565792999754,None,954.6565792999754,None,954.6565792999754,None,954.6565792999754,None,954.6565792999754,None,954.6565792999754,None,4.200000000000003,4.148,960.8939130999788,None,1200,,,,,,,,,,,,,,,,,,,f,24,lijia,2022_Jan_09_1815,emotion,2021.2.3,60.01601227522506,
307,partial,0,0.5,-200,0.5,red,-50,0.5,-200,0.5,blue,red,blue,red,blue,180,180,5,175,185,355,"[-10, 0]","[6, 0]","[-6, 0]","[10, 0]",-200,-50,0,-200,0,55,55,28,,,,,,,,,,,,,,,,,0.016112349985633045,0.516112349985633,961.9354262999841,None,961.9354262999841,None,left,7.4494841000123415,961.9354262999841,None,961.9354262999841,None,961.9354262999841,None,961.9354262999841,None,961.9354262999841,None,969.4326868999924,None,969.4326868999924,None,0.0013091500150039792,0.501309150015004,969.4326868999924,None,969.4326868999924,None,969.4326868999924,None,969.4326868999924,None,969.4326868999924,None,969.4326868999924,None,973.6538208999846,None,973.6538208999846,None,0.004377150005893782,0.5043771500058938,973.6538208999846,None,973.6538208999846,None,973.6538208999846,None,973.6538208999846,None,973.6538208999846,None,973.6538208999846,None,-8.200000000000003,1.972,977.7297864999855,None,1000,,,,,,,,,,,,,,,,,,,f,24,lijia,2022_Jan_09_1815,emotion,2021.2.3,60.01601227522506,
318,partial,0,0.5,-50,0.5,red,-50,0.8,-200,0.2,blue,red,blue,red,blue,180,72,5,175,77,355,"[-10, 0]","[6.7, -1.9]","[-6, 0]","[9.3, 1.9]",-50,-50,0,-200,0,56,56,44,,,,,,,,,,,,,,,,,0.01414125002338551,0.5141412500233855,978.7784502999857,None,978.7784502999857,None,left,6.285419699997874,978.7784502999857,None,978.7784502999857,None,978.7784502999857,None,978.7784502999857,None,978.7784502999857,None,985.1160211999959,None,985.1160211999959,None,0.000740550021873787,0.5007405500218738,985.1160211999959,None,985.1160211999959,None,985.1160211999959,None,985.1160211999959,None,985.1160211999959,None,985.1160211999959,None,988.7904732999741,None,988.7904732999741,None,0.004667450004490092,0.5046674500044901,988.7904732999741,None,988.7904732999741,None,988.7904732999741,None,988.7904732999741,None,988.7904732999741,None,988.7904732999741,None,-11.600000000000001,2.94,993.8362060999789,None,950,,,,,,,,,,,,,,,,,,,f,24,lijia,2022_Jan_09_1815,emotion,2021.2.3,60.01601227522506,
413,partial,0,0.8,-50,0.2,red,0,0.8,-200,0.2,red,red,blue,red,blue,72,72,5,67,5,67,"[-9.3, -1.9]","[6.7, -1.9]","[-6.7, 1.9]","[9.3, 1.9]",-50,-200,0,0,0,57,57,51,,,,,,,,,,,,,,,,,0.006341600004816428,0.5063416000048164,994.8707805000013,None,994.8707805000013,None,left,2.191664199985098,994.8707805000013,None,994.8707805000013,None,994.8707805000013,None,994.8707805000013,None,994.8707805000013,None,997.1039708999742,None,997.1039708999742,None,0.0005405500123742968,0.5005405500123743,997.1039708999742,None,997.1039708999742,None,997.1039708999742,None,997.1039708999742,None,997.1039708999742,None,997.1039708999742,None,1000.7405289000017,None,1000.7405289000017,None,0.004741149983601645,0.5047411499836016,1000.7405289000017,None,1000.7405289000017,None,1000.7405289000017,None,1000.7405289000017,None,1000.7405289000017,None,1000.7405289000017,None,-6.5,3.125,1005.9726110999763,None,900,,,,,,,,,,,,,,,,,,,f,24,lijia,2022_Jan_09_1815,emotion,2021.2.3,60.01601227522506,
72,partial,50,0.8,0,0.2,blue,200,0.8,50,0.2,blue,red,blue,red,blue,72,72,77,355,77,355,"[-9.3, -1.9]","[6.7, -1.9]","[-6.7, 1.9]","[9.3, 1.9]",50,200,0,50,0,58,58,106,,,,,,,,,,,,,,,,,0.014564050012268126,0.5145640500122681,1007.0102879999904,None,1007.0102879999904,None,right,2.98034410001128,1007.0102879999904,None,1007.0102879999904,None,1007.0102879999904,None,1007.0102879999904,None,1007.0102879999904,None,1010.0400892999896,None,1010.0400892999896,None,0.0012457500270102173,0.5012457500270102,1010.0400892999896,None,1010.0400892999896,None,1010.0400892999896,None,1010.0400892999896,None,1010.0400892999896,None,1010.0400892999896,None,1013.7369532999874,None,1013.7369532999874,None,0.0031974500161595643,0.5031974500161596,1013.7369532999874,None,1013.7369532999874,None,1013.7369532999874,None,1013.7369532999874,None,1013.7369532999874,None,1013.7369532999874,None,-2.1000000000000014,2.398,1018.2233020999993,None,1100,,,,,,,,,,,,,,,,,,,f,24,lijia,2022_Jan_09_1815,emotion,2021.2.3,60.01601227522506,
379,partial,50,0.5,0,0.5,red,200,0.2,0,0.8,red,red,blue,blue,red,180,72,5,175,77,355,"[-10, 0]","[9.3, 1.9]","[-6, 0]","[6.7, -1.9]",0,0,50,200,0,59,59,63,,,,,,,,,,,,,,,,,0.012688149989116937,0.5126881499891169,1019.2649793999735,None,1019.2649793999735,None,right,8.01252619997831,1019.2649793999735,None,1019.2649793999735,None,1019.2649793999735,None,1019.2649793999735,None,1019.2649793999735,None,1027.3224771999812,None,1027.3224771999812,None,0.0004570500459522009,0.5004570500459522,1027.3224771999812,None,1027.3224771999812,None,1027.3224771999812,None,1027.3224771999812,None,1027.3224771999812,None,1027.3224771999812,None,1031.514303599979,None,1031.514303599979,None,0.005435150000266731,0.5054351500002667,1031.514303599979,None,1031.514303599979,None,1031.514303599979,None,1031.514303599979,None,1031.514303599979,None,1031.514303599979,None,0.0,4.555,1038.1522994999832,None,1100,,,,,,,,,,,,,,,,,,,f,24,lijia,2022_Jan_09_1815,emotion,2021.2.3,60.01601227522506,
273,partial,50,0.5,0,0.5,red,200,0.5,0,0.5,blue,red,blue,red,blue,180,180,5,175,185,355,"[-10, 0]","[6, 0]","[-6, 0]","[10, 0]",0,200,50,0,0,60,60,78,,,,,,,,,,,,,,,,,0.008100899955024943,0.5081008999550249,1039.2034047999769,None,1039.2034047999769,None,right,2.7456546999746934,1039.2034047999769,None,1039.2034047999769,None,1039.2034047999769,None,1039.2034047999769,None,1039.2034047999769,None,1042.0298706999747,None,1042.0298706999747,None,0.007895700022345409,0.5078957000223454,1042.0298706999747,None,1042.0298706999747,None,1042.0298706999747,None,1042.0298706999747,None,1042.0298706999747,None,1042.0298706999747,None,1046.0784141999902,None,1046.0784141999902,None,0.0010080500214826316,0.5010080500214826,1046.0784141999902,None,1046.0784141999902,None,1046.0784141999902,None,1046.0784141999902,None,1046.0784141999902,None,1046.0784141999902,None,1.0,2.801,1050.9636478999746,None,1300,,,,,,,,,,,,,,,,,,,f,24,lijia,2022_Jan_09_1815,emotion,2021.2.3,60.01601227522506,
68,partial,50,0.2,0,0.8,blue,200,0.2,50,0.8,blue,blue,red,blue,red,72,72,5,67,5,67,"[-6.7, 1.9]","[9.3, 1.9]","[-9.3, -1.9]","[6.7, -1.9]",50,200,0,50,0,61,61,58,,,,,,,,,,,,,,,,,0.0010751999798230827,0.5010751999798231,1051.9966740999953,None,1051.9966740999953,None,right,3.8872940999863204,1051.9966740999953,None,1051.9966740999953,None,1051.9966740999953,None,1051.9966740999953,None,1051.9966740999953,None,1055.9270296999894,None,1055.9270296999894,None,0.0012313500337768346,0.5012313500337768,1055.9270296999894,None,1055.9270296999894,None,1055.9270296999894,None,1055.9270296999894,None,1055.9270296999894,None,1055.9270296999894,None,1059.6086302999756,None,1059.6086302999756,None,0.0025945500237867236,0.5025945500237867,1059.6086302999756,None,1059.6086302999756,None,1059.6086302999756,None,1059.6086302999756,None,1059.6086302999756,None,1059.6086302999756,None,5.200000000000003,2.321,1064.0336394999758,None,1500,,,,,,,,,,,,,,,,,,,f,24,lijia,2022_Jan_09_1815,emotion,2021.2.3,60.01601227522506,
299,partial,0,0.5,-50,0.5,red,0,0.8,-200,0.2,blue,red,blue,red,blue,180,72,5,175,77,355,"[-10, 0]","[6.7, -1.9]","[-6, 0]","[9.3, 1.9]",-50,0,0,-200,0,62,62,42,,,,,,,,,,,,,,,,,0.0018568999657873064,0.5018568999657873,1065.0711157999758,None,1065.0711157999758,None,left,17.258187800005544,1065.0711157999758,None,1065.0711157999758,None,1065.0711157999758,None,1065.0711157999758,None,1065.0711157999758,None,1082.3930404999992,None,1082.3930404999992,None,0.00097565000760369,0.5009756500076037,1082.3930404999992,None,1082.3930404999992,None,1082.3930404999992,None,1082.3930404999992,None,1082.3930404999992,None,1082.3930404999992,None,1086.2172182999784,None,1086.2172182999784,None,0.0030704500095453113,0.5030704500095453,1086.2172182999784,None,1086.2172182999784,None,1086.2172182999784,None,1086.2172182999784,None,1086.2172182999784,None,1086.2172182999784,None,-3.1000000000000014,4.986,1093.2950037999835,None,1450,,,,,,,,,,,,,,,,,,,f,24,lijia,2022_Jan_09_1815,emotion,2021.2.3,60.01601227522506,
417,partial,0,0.5,-200,0.5,red,-50,0.8,-200,0.2,red,red,blue,red,blue,180,72,5,175,5,67,"[-10, 0]","[6.7, -1.9]","[-6, 0]","[9.3, 1.9]",-200,-200,0,-50,0,63,63,43,,,,,,,,,,,,,,,,,0.0015233000158332288,0.5015233000158332,1094.3370070999954,None,1094.3370070999954,None,right,8.88663799999631,1094.3370070999954,None,1094.3370070999954,None,1094.3370070999954,None,1094.3370070999954,None,1094.3370070999954,None,1103.265337299992,None,1103.265337299992,None,0.0007550500158686191,0.5007550500158686,1103.265337299992,None,1103.265337299992,None,1103.265337299992,None,1103.265337299992,None,1103.265337299992,None,1103.265337299992,None,1107.6186782000004,None,1107.6186782000004,None,0.004281550005543977,0.504281550005544,1107.6186782000004,None,1107.6186782000004,None,1107.6186782000004,None,1107.6186782000004,None,1107.6186782000004,None,1107.6186782000004,None,-8.600000000000001,2.327,1112.0518219999794,None,1250,,,,,,,,,,,,,,,,,,,f,24,lijia,2022_Jan_09_1815,emotion,2021.2.3,60.01601227522506,
92,partial,0,0.5,-200,0.5,blue,-50,0.2,-200,0.8,blue,red,blue,blue,red,180,72,185,355,5,67,"[-10, 0]","[9.3, 1.9]","[-6, 0]","[6.7, -1.9]",0,-50,-200,-200,0,64,64,10,,,,,,,,,,,,,,,,,0.011386649974156171,0.5113866499741562,1113.0971195999882,None,1113.0971195999882,None,left,6.697495800006436,1113.0971195999882,None,1113.0971195999882,None,1113.0971195999882,None,1113.0971195999882,None,1113.0971195999882,None,1119.8607955999905,None,1119.8607955999905,None,0.002255550032714382,0.5022555500327144,1119.8607955999905,None,1119.8607955999905,None,1119.8607955999905,None,1119.8607955999905,None,1119.8607955999905,None,1119.8607955999905,None,1123.7805802999937,None,1123.7805802999937,None,0.0027909499767702073,0.5027909499767702,1123.7805802999937,None,1123.7805802999937,None,1123.7805802999937,None,1123.7805802999937,None,1123.7805802999937,None,1123.7805802999937,None,-0.29999999999999716,2.851,1128.72790659999,None,1250,,,,,,,,,,,,,,,,,,,f,24,lijia,2022_Jan_09_1815,emotion,2021.2.3,60.01601227522506,
296,partial,200,0.8,0,0.2,red,200,0.2,50,0.8,blue,red,blue,blue,red,72,72,5,67,5,67,"[-9.3, -1.9]","[9.3, 1.9]","[-6.7, 1.9]","[6.7, -1.9]",0,200,200,50,0,65,65,68,,,,,,,,,,,,,,,,,0.00927040001261048,0.5092704000126105,1129.7736552999995,None,1129.7736552999995,None,left,15.523591000004672,1129.7736552999995,None,1129.7736552999995,None,1129.7736552999995,None,1129.7736552999995,None,1129.7736552999995,None,1145.3470995999814,None,1145.3470995999814,None,0.0031834499968681484,0.5031834499968681,1145.3470995999814,None,1145.3470995999814,None,1145.3470995999814,None,1145.3470995999814,None,1145.3470995999814,None,1145.3470995999814,None,1149.412619699986,None,1149.412619699986,None,0.005223150015808642,0.5052231500158086,1149.412619699986,None,1149.412619699986,None,1149.412619699986,None,1149.412619699986,None,1149.412619699986,None,1149.412619699986,None,-0.10000000000000142,2.957,1154.4349727999943,None,1250,,,,,,,,,,,,,,,,,,,f,24,lijia,2022_Jan_09_1815,emotion,2021.2.3,60.01601227522506,
55,partial,50,0.5,0,0.5,blue,200,0.2,0,0.8,blue,red,blue,blue,red,180,72,185,355,5,67,"[-10, 0]","[9.3, 1.9]","[-6, 0]","[6.7, -1.9]",50,200,0,0,0,66,66,60,,,,,,,,,,,,,,,,,0.0008573999803047627,0.5008573999803048,1155.499250199995,None,1155.499250199995,None,right,4.767942499980563,1155.499250199995,None,1155.499250199995,None,1155.499250199995,None,1155.499250199995,None,1155.499250199995,None,1160.3137901999871,None,1160.3137901999871,None,0.01588739998987876,0.5158873999898788,1160.3137901999871,None,1160.3137901999871,None,1160.3137901999871,None,1160.3137901999871,None,1160.3137901999871,None,1160.3137901999871,None,1164.559577899985,None,1164.559577899985,None,0.0044866499956697226,0.5044866499956697,1164.559577899985,None,1164.559577899985,None,1164.559577899985,None,1164.559577899985,None,1164.559577899985,None,1164.559577899985,None,1.7999999999999972,5.353,1171.9876989999902,None,1450,,,,,,,,,,,,,,,,,,,f,24,lijia,2022_Jan_09_1815,emotion,2021.2.3,60.01601227522506,
198,partial,0,0.8,-50,0.2,blue,0,0.5,-200,0.5,red,red,blue,red,blue,72,180,77,355,5,175,"[-9.3, -1.9]","[6, 0]","[-6.7, 1.9]","[10, 0]",0,-200,-50,0,0,67,67,33,,,,,,,,,,,,,,,,,0.015821649983990937,0.5158216499839909,1173.01683529999,None,1173.01683529999,None,left,5.748371499998029,1173.01683529999,None,1173.01683529999,None,1173.01683529999,None,1173.01683529999,None,1173.01683529999,None,1178.808537999983,None,1178.808537999983,None,0.000604350003413856,0.5006043500034139,1178.808537999983,None,1178.808537999983,None,1178.808537999983,None,1178.808537999983,None,1178.808537999983,None,1178.808537999983,None,1182.7131066999864,None,1182.7131066999864,None,0.004380250029498711,0.5043802500294987,1182.7131066999864,None,1182.7131066999864,None,1182.7131066999864,None,1182.7131066999864,None,1182.7131066999864,None,1182.7131066999864,None,0.0,2.246,1187.0398421999998,None,1450,,,,,,,,,,,,,,,,,,,f,24,lijia,2022_Jan_09_1815,emotion,2021.2.3,60.01601227522506,
293,partial,200,0.2,0,0.8,red,200,0.2,50,0.8,blue,blue,red,blue,red,72,72,77,355,5,67,"[-6.7, 1.9]","[9.3, 1.9]","[-9.3, -1.9]","[6.7, -1.9]",0,200,200,50,0,68,68,56,,,,,,,,,,,,,,,,,0.015225450013531372,0.5152254500135314,1188.097568199999,None,1188.097568199999,None,right,3.1291426999960095,1188.097568199999,None,1188.097568199999,None,1188.097568199999,None,1188.097568199999,None,1188.097568199999,None,1191.2730733999924,None,1191.2730733999924,None,0.0025063499924726784,0.5025063499924727,1191.2730733999924,None,1191.2730733999924,None,1191.2730733999924,None,1191.2730733999924,None,1191.2730733999924,None,1191.2730733999924,None,1195.3137829999905,None,1195.3137829999905,None,0.004865150025580078,0.5048651500255801,1195.3137829999905,None,1195.3137829999905,None,1195.3137829999905,None,1195.3137829999905,None,1195.3137829999905,None,1195.3137829999905,None,2.3999999999999986,3.878,1201.264340099995,None,1650,,,,,,,,,,,,,,,,,,,f,24,lijia,2022_Jan_09_1815,emotion,2021.2.3,60.01601227522506,
174,partial,50,0.5,0,0.5,blue,200,0.8,50,0.2,red,red,blue,red,blue,180,72,185,355,5,67,"[-10, 0]","[6.7, -1.9]","[-6, 0]","[9.3, 1.9]",50,50,0,200,0,69,69,97,,,,,,,,,,,,,,,,,0.008726800006115809,0.5087268000061158,1202.2991704999877,None,1202.2991704999877,None,right,2.8449289000127465,1202.2991704999877,None,1202.2991704999877,None,1202.2991704999877,None,1202.2991704999877,None,1202.2991704999877,None,1205.2008886999974,None,1205.2008886999974,None,0.01608140001189895,0.516081400011899,1205.2008886999974,None,1205.2008886999974,None,1205.2008886999974,None,1205.2008886999974,None,1205.2008886999974,None,1205.2008886999974,None,1209.0263949999935,None,1209.0263949999935,None,0.003238550038076937,0.5032385500380769,1209.0263949999935,None,1209.0263949999935,None,1209.0263949999935,None,1209.0263949999935,None,1209.0263949999935,None,1209.0263949999935,None,5.0,2.205,1213.3167477999814,None,1700,,,,,,,,,,,,,,,,,,,f,24,lijia,2022_Jan_09_1815,emotion,2021.2.3,60.01601227522506,
178,partial,50,0.8,0,0.2,blue,200,0.5,50,0.5,red,red,blue,red,blue,72,180,77,355,5,175,"[-9.3, -1.9]","[6, 0]","[-6.7, 1.9]","[10, 0]",50,50,0,200,0,70,70,85,,,,,,,,,,,,,,,,,0.015700849995482713,0.5157008499954827,1214.3778368999774,None,1214.3778368999774,None,right,2.567663199995877,1214.3778368999774,None,1214.3778368999774,None,1214.3778368999774,None,1214.3778368999774,None,1214.3778368999774,None,1216.9968133999791,None,1216.9968133999791,None,0.0018327499856241047,0.5018327499856241,1216.9968133999791,None,1216.9968133999791,None,1216.9968133999791,None,1216.9968133999791,None,1216.9968133999791,None,1216.9968133999791,None,1221.2573300999939,None,1221.2573300999939,None,0.005412850005086511,0.5054128500050865,1221.2573300999939,None,1221.2573300999939,None,1221.2573300999939,None,1221.2573300999939,None,1221.2573300999939,None,1221.2573300999939,None,7.799999999999997,2.029,1225.3762848999759,None,1750,,,,,,,,,,,,,,,,,,,f,24,lijia,2022_Jan_09_1815,emotion,2021.2.3,60.01601227522506,
69,partial,50,0.2,0,0.8,blue,200,0.8,50,0.2,blue,blue,red,red,blue,72,72,5,67,77,355,"[-6.7, 1.9]","[6.7, -1.9]","[-9.3, -1.9]","[9.3, 1.9]",50,200,0,50,0,71,71,94,,,,,,,,,,,,,,,,,0.006479350005974993,0.506479350005975,1226.4518486999732,None,1226.4518486999732,None,right,2.1932682000042405,1226.4518486999732,None,1226.4518486999732,None,1226.4518486999732,None,1226.4518486999732,None,1226.4518486999732,None,1228.6993275999848,None,1228.6993275999848,None,0.0038863500230945647,0.5038863500230946,1228.6993275999848,None,1228.6993275999848,None,1228.6993275999848,None,1228.6993275999848,None,1228.6993275999848,None,1228.6993275999848,None,1233.107515199983,None,1233.107515199983,None,0.00457895002909936,0.5045789500290994,1233.107515199983,None,1233.107515199983,None,1233.107515199983,None,1233.107515199983,None,1233.107515199983,None,1233.107515199983,None,9.200000000000003,2.101,1237.294710599992,None,1950,,,,,,,,,,,,,,,,,,,f,24,lijia,2022_Jan_09_1815,emotion,2021.2.3,60.01601227522506,
403,partial,200,0.8,0,0.2,red,200,0.5,50,0.5,red,red,blue,red,blue,72,180,5,67,5,175,"[-9.3, -1.9]","[6, 0]","[-6.7, 1.9]","[10, 0]",0,50,200,200,0,72,72,89,,,,,,,,,,,,,,,,,0.014407550013856962,0.514407550013857,1238.3437029999914,None,1238.3437029999914,None,right,6.802853900007904,1238.3437029999914,None,1238.3437029999914,None,1238.3437029999914,None,1238.3437029999914,None,1238.3437029999914,None,1245.2120996000012,None,1245.2120996000012,None,0.01625909999711439,0.5162590999971144,1245.2120996000012,None,1245.2120996000012,None,1245.2120996000012,None,1245.2120996000012,None,1245.2120996000012,None,1245.2120996000012,None,1248.9297886999848,None,1248.9297886999848,None,0.005370750033762306,0.5053707500337623,1248.9297886999848,None,1248.9297886999848,None,1248.9297886999848,None,1248.9297886999848,None,1248.9297886999848,None,1248.9297886999848,None,4.899999999999999,4.601,1255.6265141999756,None,2000,,,,,,,,,,,,,,,,,,,f,24,lijia,2022_Jan_09_1815,emotion,2021.2.3,60.01601227522506,
188,partial,200,0.8,0,0.2,blue,200,0.2,50,0.8,red,red,blue,blue,red,72,72,77,355,77,355,"[-9.3, -1.9]","[9.3, 1.9]","[-6.7, 1.9]","[6.7, -1.9]",200,50,0,200,0,73,73,71,,,,,,,,,,,,,,,,,0.001998799998546019,0.501998799998546,1256.6738508999988,None,1256.6738508999988,None,left,5.499555499991402,1256.6738508999988,None,1256.6738508999988,None,1256.6738508999988,None,1256.6738508999988,None,1256.6738508999988,None,1262.217515299999,None,1262.217515299999,None,0.0006827500183135271,0.5006827500183135,1262.217515299999,None,1262.217515299999,None,1262.217515299999,None,1262.217515299999,None,1262.217515299999,None,1262.217515299999,None,1266.385087099974,None,1266.385087099974,None,0.0029954499914310873,0.5029954499914311,1266.385087099974,None,1266.385087099974,None,1266.385087099974,None,1266.385087099974,None,1266.385087099974,None,1266.385087099974,None,9.799999999999997,2.4,1270.880517499987,None,2200,,,,,,,,,,,,,,,,,,,f,24,lijia,2022_Jan_09_1815,emotion,2021.2.3,60.01601227522506,
409,partial,0,0.2,-50,0.8,red,0,0.2,-200,0.8,red,blue,red,blue,red,72,72,77,355,77,355,"[-6.7, 1.9]","[9.3, 1.9]","[-9.3, -1.9]","[6.7, -1.9]",-50,-200,0,0,0,74,74,3,,,,,,,,,,,,,,,,,0.016537250019609928,0.5165372500196099,1271.9275065999827,None,1271.9275065999827,None,left,2.061895299993921,1271.9275065999827,None,1271.9275065999827,None,1271.9275065999827,None,1271.9275065999827,None,1271.9275065999827,None,1274.0565946999996,None,1274.0565946999996,None,0.0018329499871470034,0.501832949987147,1274.0565946999996,None,1274.0565946999996,None,1274.0565946999996,None,1274.0565946999996,None,1274.0565946999996,None,1274.0565946999996,None,1277.9773740999808,None,1277.9773740999808,None,0.003379250003490597,0.5033792500034906,1277.9773740999808,None,1277.9773740999808,None,1277.9773740999808,None,1277.9773740999808,None,1277.9773740999808,None,1277.9773740999808,None,2.299999999999997,2.404,1282.4787232999806,None,2150,,,,,,,,,,,,,,,,,,,f,24,lijia,2022_Jan_09_1815,emotion,2021.2.3,60.01601227522506,
297,partial,200,0.8,0,0.2,red,200,0.8,50,0.2,blue,red,blue,red,blue,72,72,5,67,77,355,"[-9.3, -1.9]","[6.7, -1.9]","[-6.7, 1.9]","[9.3, 1.9]",0,200,200,50,0,75,75,104,,,,,,,,,,,,,,,,,0.0009605000086594373,0.5009605000086594,1283.519631699979,None,1283.519631699979,None,right,2.2283385999908205,1283.519631699979,None,1283.519631699979,None,1283.519631699979,None,1283.519631699979,None,1283.519631699979,None,1285.7976413999859,None,1285.7976413999859,None,0.0010286500328220427,0.501028650032822,1285.7976413999859,None,1285.7976413999859,None,1285.7976413999859,None,1285.7976413999859,None,1285.7976413999859,None,1285.7976413999859,None,1290.1262597999885,None,1290.1262597999885,None,0.0032291500247083604,0.5032291500247084,1290.1262597999885,None,1290.1262597999885,None,1290.1262597999885,None,1290.1262597999885,None,1290.1262597999885,None,1290.1262597999885,None,10.700000000000003,2.52,1294.7509940999735,None,2350,,,,,,,,,,,,,,,,,,,f,24,lijia,2022_Jan_09_1815,emotion,2021.2.3,60.01601227522506,
107,partial,0,0.8,-50,0.2,blue,-50,0.2,-200,0.8,blue,red,blue,blue,red,72,72,77,355,5,67,"[-9.3, -1.9]","[9.3, 1.9]","[-6.7, 1.9]","[6.7, -1.9]",0,-50,-50,-200,0,76,76,14,,,,,,,,,,,,,,,,,0.003976899984991178,0.5039768999849912,1295.7908973000012,None,1295.7908973000012,None,left,3.983398800017312,1295.7908973000012,None,1295.7908973000012,None,1295.7908973000012,None,1295.7908973000012,None,1295.7908973000012,None,1299.8210562999884,None,1299.8210562999884,None,0.0006616500322706997,0.5006616500322707,1299.8210562999884,None,1299.8210562999884,None,1299.8210562999884,None,1299.8210562999884,None,1299.8210562999884,None,1299.8210562999884,None,1303.4735604999878,None,1303.4735604999878,None,0.00478645003749989,0.5047864500374999,1303.4735604999878,None,1303.4735604999878,None,1303.4735604999878,None,1303.4735604999878,None,1303.4735604999878,None,1303.4735604999878,None,19.599999999999994,2.118,1307.6758147999935,None,2350,,,,,,,,,,,,,,,,,,,f,24,lijia,2022_Jan_09_1815,emotion,2021.2.3,60.01601227522506,
392,partial,50,0.2,0,0.8,red,200,0.2,50,0.8,red,blue,red,blue,red,72,72,77,355,77,355,"[-6.7, 1.9]","[9.3, 1.9]","[-9.3, -1.9]","[6.7, -1.9]",0,50,50,200,0,77,77,55,,,,,,,,,,,,,,,,,0.014480699959676713,0.5144806999596767,1308.7035424999776,None,1308.7035424999776,None,right,2.713938300003065,1308.7035424999776,None,1308.7035424999776,None,1308.7035424999776,None,1308.7035424999776,None,1308.7035424999776,None,1311.4847745999868,None,1311.4847745999868,None,0.0023402500082738698,0.5023402500082739,1311.4847745999868,None,1311.4847745999868,None,1311.4847745999868,None,1311.4847745999868,None,1311.4847745999868,None,1311.4847745999868,None,1315.2656752999756,None,1315.2656752999756,None,0.004957450000802055,0.504957450000802,1315.2656752999756,None,1315.2656752999756,None,1315.2656752999756,None,1315.2656752999756,None,1315.2656752999756,None,1315.2656752999756,None,10.0,2.549,1319.9032824999886,None,2400,,,,,,,,,,,,,,,,,,,f,24,lijia,2022_Jan_09_1815,emotion,2021.2.3,60.01601227522506,
396,partial,50,0.8,0,0.2,red,200,0.8,50,0.2,red,red,blue,red,blue,72,72,5,67,5,67,"[-9.3, -1.9]","[6.7, -1.9]","[-6.7, 1.9]","[9.3, 1.9]",0,50,50,200,0,78,78,103,,,,,,,,,,,,,,,,,0.004333799995947629,0.5043337999959476,1320.9375872999954,None,1320.9375872999954,None,right,1.838892300002044,1320.9375872999954,None,1320.9375872999954,None,1320.9375872999954,None,1320.9375872999954,None,1320.9375872999954,None,1322.8367708000005,None,1322.8367708000005,None,0.002635950018884614,0.5026359500188846,1322.8367708000005,None,1322.8367708000005,None,1322.8367708000005,None,1322.8367708000005,None,1322.8367708000005,None,1322.8367708000005,None,1326.5327355999907,None,1326.5327355999907,None,0.004695650015491992,0.504695650015492,1326.5327355999907,None,1326.5327355999907,None,1326.5327355999907,None,1326.5327355999907,None,1326.5327355999907,None,1326.5327355999907,None,6.600000000000001,3.432,1332.0638767999772,None,2450,,,,,,,,,,,,,,,,,,,f,24,lijia,2022_Jan_09_1815,emotion,2021.2.3,60.01601227522506,
97,partial,0,0.8,-200,0.2,blue,-50,0.5,-200,0.5,blue,red,blue,red,blue,72,180,77,355,185,355,"[-9.3, -1.9]","[6, 0]","[-6.7, 1.9]","[10, 0]",0,-50,-200,-200,0,79,79,34,,,,,,,,,,,,,,,,,0.010572449973551556,0.5105724499735516,1333.1116596999927,None,1333.1116596999927,None,right,6.106156399997417,1333.1116596999927,None,1333.1116596999927,None,1333.1116596999927,None,1333.1116596999927,None,1333.1116596999927,None,1339.281659899978,None,1339.281659899978,None,0.0008243500196840614,0.5008243500196841,1339.281659899978,None,1339.281659899978,None,1339.281659899978,None,1339.281659899978,None,1339.281659899978,None,1339.281659899978,None,1343.5069141999993,None,1343.5069141999993,None,0.002988249994814396,0.5029882499948144,1343.5069141999993,None,1343.5069141999993,None,1343.5069141999993,None,1343.5069141999993,None,1343.5069141999993,None,1343.5069141999993,None,2.6000000000000014,2.913,1348.5308577999822,None,2400,,,,,,,,,,,,,,,,,,,f,24,lijia,2022_Jan_09_1815,emotion,2021.2.3,60.01601227522506,
322,partial,0,0.8,-50,0.2,red,-50,0.5,-200,0.5,blue,red,blue,red,blue,72,180,5,67,185,355,"[-9.3, -1.9]","[6, 0]","[-6.7, 1.9]","[10, 0]",-50,-50,0,-200,0,80,80,32,,,,,,,,,,,,,,,,,0.014546849997714162,0.5145468499977142,1349.5731986999745,None,1349.5731986999745,None,left,3.52979420000338,1349.5731986999745,None,1349.5731986999745,None,1349.5731986999745,None,1349.5731986999745,None,1349.5731986999745,None,1353.1836222999846,None,1353.1836222999846,None,0.007144699979107827,0.5071446999791078,1353.1836222999846,None,1353.1836222999846,None,1353.1836222999846,None,1353.1836222999846,None,1353.1836222999846,None,1353.1836222999846,None,1356.934165099985,None,1356.934165099985,None,0.004604149988153949,0.504604149988154,1356.934165099985,None,1356.934165099985,None,1356.934165099985,None,1356.934165099985,None,1356.934165099985,None,1356.934165099985,None,0.0,7.899,1366.9375841,None,2350,,,,,,,,,,,,,,,,,,,f,24,lijia,2022_Jan_09_1815,emotion,2021.2.3,60.01601227522506,
56,partial,50,0.5,0,0.5,blue,200,0.8,0,0.2,blue,red,blue,red,blue,180,72,185,355,77,355,"[-10, 0]","[6.7, -1.9]","[-6, 0]","[9.3, 1.9]",50,200,0,0,0,81,81,96,,,,,,,,,,,,,,,,,0.016312149964505807,0.5163121499645058,1367.995210699999,None,1367.995210699999,None,right,4.74520560001838,1367.995210699999,None,1367.995210699999,None,1367.995210699999,None,1367.995210699999,None,1367.995210699999,None,1372.8014700999775,None,1372.8014700999775,None,0.003385050018550828,0.5033850500185508,1372.8014700999775,None,1372.8014700999775,None,1372.8014700999775,None,1372.8014700999775,None,1372.8014700999775,None,1372.8014700999775,None,1376.852177599998,None,1376.852177599998,None,0.005130250006914139,0.5051302500069141,1376.852177599998,None,1376.852177599998,None,1376.852177599998,None,1376.852177599998,None,1376.852177599998,None,1376.852177599998,None,5.0,2.435,1381.3843237999827,None,2550,,,,,,,,,,,,,,,,,,,f,24,lijia,2022_Jan_09_1815,emotion,2021.2.3,60.01601227522506,
89,partial,0,0.8,-50,0.2,blue,0,0.8,-200,0.2,blue,red,blue,red,blue,72,72,77,355,77,355,"[-9.3, -1.9]","[6.7, -1.9]","[-6.7, 1.9]","[9.3, 1.9]",0,0,-50,-200,0,82,82,48,,,,,,,,,,,,,,,,,0.007461550005245954,0.507461550005246,1382.448248199973,None,1382.448248199973,None,left,2.271857400017325,1382.448248199973,None,1382.448248199973,None,1382.448248199973,None,1382.448248199973,None,1382.448248199973,None,1384.7763456999965,None,1384.7763456999965,None,0.0035910500155296177,0.5035910500155296,1384.7763456999965,None,1384.7763456999965,None,1384.7763456999965,None,1384.7763456999965,None,1384.7763456999965,None,1384.7763456999965,None,1388.8515610999893,None,1388.8515610999893,None,0.004593150020809844,0.5045931500208098,1388.8515610999893,None,1388.8515610999893,None,1388.8515610999893,None,1388.8515610999893,None,1388.8515610999893,None,1388.8515610999893,None,7.399999999999999,2.332,1393.2618183000013,None,2550,,,,,,,,,,,,,,,,,,,f,24,lijia,2022_Jan_09_1815,emotion,2021.2.3,60.01601227522506,
214,partial,0,0.8,-50,0.2,blue,-50,0.5,-200,0.5,red,red,blue,red,blue,72,180,77,355,5,175,"[-9.3, -1.9]","[6, 0]","[-6.7, 1.9]","[10, 0]",0,-200,-50,-50,0,83,83,35,,,,,,,,,,,,,,,,,0.0038258999993558973,0.5038258999993559,1394.3229762999981,None,1394.3229762999981,None,left,4.417393599986099,1394.3229762999981,None,1394.3229762999981,None,1394.3229762999981,None,1394.3229762999981,None,1394.3229762999981,None,1398.7836109999917,None,1398.7836109999917,None,0.0011386500264052302,0.5011386500264052,1398.7836109999917,None,1398.7836109999917,None,1398.7836109999917,None,1398.7836109999917,None,1398.7836109999917,None,1398.7836109999917,None,1402.7244633999944,None,1402.7244633999944,None,0.004525350028416142,0.5045253500284161,1402.7244633999944,None,1402.7244633999944,None,1402.7244633999944,None,1402.7244633999944,None,1402.7244633999944,None,1402.7244633999944,None,3.3999999999999986,2.545,1407.3158376999781,None,2550,,,,,,,,,,,,,,,,,,,f,24,lijia,2022_Jan_09_1815,emotion,2021.2.3,60.01601227522506,
63,partial,50,0.8,0,0.2,blue,200,0.5,0,0.5,blue,red,blue,red,blue,72,180,77,355,185,355,"[-9.3, -1.9]","[6, 0]","[-6.7, 1.9]","[10, 0]",50,200,0,0,0,84,84,84,,,,,,,,,,,,,,,,,0.010225300007732585,0.5102253000077326,1408.3632018999779,None,1408.3632018999779,None,right,4.361320399999386,1408.3632018999779,None,1408.3632018999779,None,1408.3632018999779,None,1408.3632018999779,None,1408.3632018999779,None,1412.789827599976,None,1412.789827599976,None,0.0006976500153541565,0.5006976500153542,1412.789827599976,None,1412.789827599976,None,1412.789827599976,None,1412.789827599976,None,1412.789827599976,None,1412.789827599976,None,1417.195136800001,None,1417.195136800001,None,0.0050581500108819455,0.505058150010882,1417.195136800001,None,1417.195136800001,None,1417.195136800001,None,1417.195136800001,None,1417.195136800001,None,1417.195136800001,None,5.899999999999999,2.225,1421.502723099984,None,2750,,,,,,,,,,,,,,,,,,,f,24,lijia,2022_Jan_09_1815,emotion,2021.2.3,60.01601227522506,
306,partial,0,0.8,-50,0.2,red,0,0.5,-200,0.5,blue,red,blue,red,blue,72,180,5,67,185,355,"[-9.3, -1.9]","[6, 0]","[-6.7, 1.9]","[10, 0]",-50,0,0,-200,0,85,85,30,,,,,,,,,,,,,,,,,0.006230700004380196,0.5062307000043802,1422.5332588999881,None,1422.5332588999881,None,left,2.8355009999941103,1422.5332588999881,None,1422.5332588999881,None,1422.5332588999881,None,1422.5332588999881,None,1422.5332588999881,None,1425.4258556999848,None,1425.4258556999848,None,0.0012074499973095953,0.5012074499973096,1425.4258556999848,None,1425.4258556999848,None,1425.4258556999848,None,1425.4258556999848,None,1425.4258556999848,None,1425.4258556999848,None,1429.4424466999772,None,1429.4424466999772,None,0.002904150023823604,0.5029041500238236,1429.4424466999772,None,1429.4424466999772,None,1429.4424466999772,None,1429.4424466999772,None,1429.4424466999772,None,1429.4424466999772,None,-3.700000000000003,4.656,1436.1896434999944,None,2700,,,,,,,,,,,,,,,,,,,f,24,lijia,2022_Jan_09_1815,emotion,2021.2.3,60.01601227522506,
88,partial,0,0.8,-50,0.2,blue,0,0.2,-200,0.8,blue,red,blue,blue,red,72,72,77,355,5,67,"[-9.3, -1.9]","[9.3, 1.9]","[-6.7, 1.9]","[6.7, -1.9]",0,0,-50,-200,0,86,86,12,,,,,,,,,,,,,,,,,0.013453199993818998,0.513453199993819,1437.2083912999951,None,1437.2083912999951,None,left,3.9693125000048894,1437.2083912999951,None,1437.2083912999951,None,1437.2083912999951,None,1437.2083912999951,None,1437.2083912999951,None,1441.2355473999924,None,1441.2355473999924,None,0.003096050029853359,0.5030960500298534,1441.2355473999924,None,1441.2355473999924,None,1441.2355473999924,None,1441.2355473999924,None,1441.2355473999924,None,1441.2355473999924,None,1445.664676299988,None,1445.664676299988,None,0.0076209999970160425,0.507620999997016,1445.664676299988,None,1445.664676299988,None,1445.664676299988,None,1445.664676299988,None,1445.664676299988,None,1445.664676299988,None,-0.20000000000000284,2.936,1450.6995411999815,None,2700,,,,,,,,,,,,,,,,,,,f,24,lijia,2022_Jan_09_1815,emotion,2021.2.3,60.01601227522506,
311,partial,0,0.2,-200,0.8,red,-50,0.2,-200,0.8,blue,blue,red,blue,red,72,72,77,355,5,67,"[-6.7, 1.9]","[9.3, 1.9]","[-9.3, -1.9]","[6.7, -1.9]",-200,-50,0,-200,0,87,87,4,,,,,,,,,,,,,,,,,0.001803999999538064,0.5018039999995381,1451.7503452999808,None,1451.7503452999808,None,left,3.992088499973761,1451.7503452999808,None,1451.7503452999808,None,1451.7503452999808,None,1451.7503452999808,None,1451.7503452999808,None,1455.8053482999967,None,1455.8053482999967,None,0.0031610500009264797,0.5031610500009265,1455.8053482999967,None,1455.8053482999967,None,1455.8053482999967,None,1455.8053482999967,None,1455.8053482999967,None,1455.8053482999967,None,1459.5315623999923,None,1459.5315623999923,None,0.004295250022551045,0.504295250022551,1459.5315623999923,None,1459.5315623999923,None,1459.5315623999923,None,1459.5315623999923,None,1459.5315623999923,None,1459.5315623999923,None,-10.399999999999999,1.872,1463.4815000999952,None,2500,,,,,,,,,,,,,,,,,,,f,24,lijia,2022_Jan_09_1815,emotion,2021.2.3,60.01601227522506,
206,partial,0,0.8,-200,0.2,blue,-50,0.2,-200,0.8,red,red,blue,blue,red,72,72,77,355,77,355,"[-9.3, -1.9]","[9.3, 1.9]","[-6.7, 1.9]","[6.7, -1.9]",0,-200,-200,-50,0,88,88,13,,,,,,,,,,,,,,,,,0.0020161000138614327,0.5020161000138614,1464.5294785999868,None,1464.5294785999868,None,left,6.193827599985525,1464.5294785999868,None,1464.5294785999868,None,1464.5294785999868,None,1464.5294785999868,None,1464.5294785999868,None,1470.7645296999835,None,1470.7645296999835,None,0.0007217499951366335,0.5007217499951366,1470.7645296999835,None,1470.7645296999835,None,1470.7645296999835,None,1470.7645296999835,None,1470.7645296999835,None,1470.7645296999835,None,1475.1318387999781,None,1475.1318387999781,None,0.004615050012944266,0.5046150500129443,1475.1318387999781,None,1475.1318387999781,None,1475.1318387999781,None,1475.1318387999781,None,1475.1318387999781,None,1475.1318387999781,None,0.0,2.749,1479.969525099994,None,2500,,,,,,,,,,,,,,,,,,,f,24,lijia,2022_Jan_09_1815,emotion,2021.2.3,60.01601227522506,
64,partial,50,0.5,0,0.5,blue,200,0.5,50,0.5,blue,red,blue,red,blue,180,180,185,355,185,355,"[-10, 0]","[6, 0]","[-6, 0]","[10, 0]",50,200,0,50,0,89,89,82,,,,,,,,,,,,,,,,,0.007462100038537756,0.5074621000385378,1481.010119899991,None,1481.010119899991,None,right,1.9859270000015385,1481.010119899991,None,1481.010119899991,None,1481.010119899991,None,1481.010119899991,None,1481.010119899991,None,1483.062781799992,None,1483.062781799992,None,0.01567809996777214,0.5156780999677721,1483.062781799992,None,1483.062781799992,None,1483.062781799992,None,1483.062781799992,None,1483.062781799992,None,1483.062781799992,None,1487.1200045000005,None,1487.1200045000005,None,0.003193350014043972,0.503193350014044,1487.1200045000005,None,1487.1200045000005,None,1487.1200045000005,None,1487.1200045000005,None,1487.1200045000005,None,1487.1200045000005,None,2.700000000000003,2.178,1491.370872999978,None,2700,,,,,,,,,,,,,,,,,,,f,24,lijia,2022_Jan_09_1815,emotion,2021.2.3,60.01601227522506,
294,partial,200,0.2,0,0.8,red,200,0.8,50,0.2,blue,blue,red,red,blue,72,72,77,355,77,355,"[-6.7, 1.9]","[6.7, -1.9]","[-9.3, -1.9]","[9.3, 1.9]",0,200,200,50,0,90,90,92,,,,,,,,,,,,,,,,,0.016348150005796924,0.5163481500057969,1492.404446599976,None,1492.404446599976,None,right,2.035886900004698,1492.404446599976,None,1492.404446599976,None,1492.404446599976,None,1492.404446599976,None,1492.404446599976,None,1494.4855971999932,None,1494.4855971999932,None,0.0019309500057715923,0.5019309500057716,1494.4855971999932,None,1494.4855971999932,None,1494.4855971999932,None,1494.4855971999932,None,1494.4855971999932,None,1494.4855971999932,None,1498.5782642999839,None,1498.5782642999839,None,0.004206150013487786,0.5042061500134878,1498.5782642999839,None,1498.5782642999839,None,1498.5782642999839,None,1498.5782642999839,None,1498.5782642999839,None,1498.5782642999839,None,6.799999999999997,1.715,1502.3800377000007,None,2900,,,,,,,,,,,,,,,,,,,f,24,lijia,2022_Jan_09_1815,emotion,2021.2.3,60.01601227522506,
167,partial,50,0.2,0,0.8,blue,200,0.8,0,0.2,red,blue,red,red,blue,72,72,5,67,5,67,"[-6.7, 1.9]","[6.7, -1.9]","[-9.3, -1.9]","[9.3, 1.9]",50,0,0,200,0,91,91,93,,,,,,,,,,,,,,,,,0.014767699962249026,0.514767699962249,1503.4000304999936,None,1503.4000304999936,None,right,3.022647500009043,1503.4000304999936,None,1503.4000304999936,None,1503.4000304999936,None,1503.4000304999936,None,1503.4000304999936,None,1506.4738439999928,None,1506.4738439999928,None,0.016070399986347184,0.5160703999863472,1506.4738439999928,None,1506.4738439999928,None,1506.4738439999928,None,1506.4738439999928,None,1506.4738439999928,None,1506.4738439999928,None,1510.1331838999758,None,1510.1331838999758,None,0.004478850023588166,0.5044788500235882,1510.1331838999758,None,1510.1331838999758,None,1510.1331838999758,None,1510.1331838999758,None,1510.1331838999758,None,1510.1331838999758,None,8.700000000000003,3.2,1515.4104847999988,None,2900,,,,,,,,,,,,,,,,,,,f,24,lijia,2022_Jan_09_1815,emotion,2021.2.3,60.01601227522506,
76,partial,200,0.2,0,0.8,blue,200,0.5,50,0.5,blue,blue,red,red,blue,72,180,5,67,185,355,"[-6.7, 1.9]","[6, 0]","[-9.3, -1.9]","[10, 0]",200,200,0,50,0,92,92,74,,,,,,,,,,,,,,,,,0.00799330000882037,0.5079933000088204,1516.4505059999938,None,1516.4505059999938,None,right,1.974094100005459,1516.4505059999938,None,1516.4505059999938,None,1516.4505059999938,None,1516.4505059999938,None,1516.4505059999938,None,1518.4671835999761,None,1518.4671835999761,None,0.0006799499969929457,0.500679949996993,1518.4671835999761,None,1518.4671835999761,None,1518.4671835999761,None,1518.4671835999761,None,1518.4671835999761,None,1518.4671835999761,None,1522.708736199973,None,1522.708736199973,None,0.0031696500082034618,0.5031696500082035,1522.708736199973,None,1522.708736199973,None,1522.708736199973,None,1522.708736199973,None,1522.708736199973,None,1522.708736199973,None,12.600000000000001,2.713,1527.4889729999995,None,3100,,,,,,,,,,,,,,,,,,,f,24,lijia,2022_Jan_09_1815,emotion,2021.2.3,60.01601227522506,
408,partial,0,0.5,-50,0.5,red,0,0.5,-200,0.5,red,red,blue,red,blue,180,180,5,175,5,175,"[-10, 0]","[6, 0]","[-6, 0]","[10, 0]",-50,-200,0,0,0,93,93,27,,,,,,,,,,,,,,,,,0.003253800008678809,0.5032538000086788,1528.5200462999928,None,1528.5200462999928,None,left,2.4158222999831196,1528.5200462999928,None,1528.5200462999928,None,1528.5200462999928,None,1528.5200462999928,None,1528.5200462999928,None,1530.9934973999916,None,1530.9934973999916,None,0.015504300012253225,0.5155043000122532,1530.9934973999916,None,1530.9934973999916,None,1530.9934973999916,None,1530.9934973999916,None,1530.9934973999916,None,1530.9934973999916,None,1534.8603089999815,None,1534.8603089999815,None,0.002634450007462874,0.5026344500074629,1534.8603089999815,None,1534.8603089999815,None,1534.8603089999815,None,1534.8603089999815,None,1534.8603089999815,None,1534.8603089999815,None,2.299999999999997,3.015,1539.9645191000018,None,3050,,,,,,,,,,,,,,,,,,,f,24,lijia,2022_Jan_09_1815,emotion,2021.2.3,60.01601227522506,
166,partial,50,0.2,0,0.8,blue,200,0.2,0,0.8,red,blue,red,blue,red,72,72,5,67,77,355,"[-6.7, 1.9]","[9.3, 1.9]","[-9.3, -1.9]","[6.7, -1.9]",50,0,0,200,0,94,94,57,,,,,,,,,,,,,,,,,0.0052792000060435385,0.5052792000060435,1541.003212999989,None,1541.003212999989,None,right,2.893440699990606,1541.003212999989,None,1541.003212999989,None,1541.003212999989,None,1541.003212999989,None,1541.003212999989,None,1543.9427458999853,None,1543.9427458999853,None,0.0007757500279694796,0.5007757500279695,1543.9427458999853,None,1543.9427458999853,None,1543.9427458999853,None,1543.9427458999853,None,1543.9427458999853,None,1543.9427458999853,None,1548.2931397999928,None,1548.2931397999928,None,0.005140150024089962,0.50514015002409,1548.2931397999928,None,1548.2931397999928,None,1548.2931397999928,None,1548.2931397999928,None,1548.2931397999928,None,1548.2931397999928,None,-0.29999999999999716,5.958,1556.3463219999976,None,3050,,,,,,,,,,,,,,,,,,,f,24,lijia,2022_Jan_09_1815,emotion,2021.2.3,60.01601227522506,
286,partial,50,0.8,0,0.2,red,200,0.5,50,0.5,blue,red,blue,red,blue,72,180,5,67,185,355,"[-9.3, -1.9]","[6, 0]","[-6.7, 1.9]","[10, 0]",0,200,50,50,0,95,95,88,,,,,,,,,,,,,,,,,0.004597300023306161,0.5045973000233062,1557.3870250999753,None,1557.3870250999753,None,right,2.3508892000245396,1557.3870250999753,None,1557.3870250999753,None,1557.3870250999753,None,1557.3870250999753,None,1557.3870250999753,None,1559.7894182999735,None,1559.7894182999735,None,0.0008482499979436398,0.5008482499979436,1559.7894182999735,None,1559.7894182999735,None,1559.7894182999735,None,1559.7894182999735,None,1559.7894182999735,None,1559.7894182999735,None,1563.4734941999777,None,1563.4734941999777,None,0.0030724499956704676,0.5030724499956705,1563.4734941999777,None,1563.4734941999777,None,1563.4734941999777,None,1563.4734941999777,None,1563.4734941999777,None,1563.4734941999777,None,5.399999999999999,2.256,1567.797293599986,None,3250,,,,,,,,,,,,,,,,,,,f,24,lijia,2022_Jan_09_1815,emotion,2021.2.3,60.01601227522506,
207,partial,0,0.8,-200,0.2,blue,-50,0.8,-200,0.2,red,red,blue,red,blue,72,72,77,355,5,67,"[-9.3, -1.9]","[6.7, -1.9]","[-6.7, 1.9]","[9.3, 1.9]",0,-200,-200,-50,0,96,96,49,,,,,,,,,,,,,,,,,0.006000850000418723,0.5060008500004187,1568.8446828999731,None,1568.8446828999731,None,left,5.93994399998337,1568.8446828999731,None,1568.8446828999731,None,1568.8446828999731,None,1568.8446828999731,None,1568.8446828999731,None,1574.8444109999982,None,1574.8444109999982,None,0.0008649500086903572,0.5008649500086904,1574.8444109999982,None,1574.8444109999982,None,1574.8444109999982,None,1574.8444109999982,None,1574.8444109999982,None,1574.8444109999982,None,1579.012029799982,None,1579.012029799982,None,0.004460250027477741,0.5044602500274777,1579.012029799982,None,1579.012029799982,None,1579.012029799982,None,1579.012029799982,None,1579.012029799982,None,1579.012029799982,None,3.700000000000003,2.056,1583.1508634999918,None,3250,,,,,,,,,,,,,,,,,,,f,24,lijia,2022_Jan_09_1815,emotion,2021.2.3,60.01601227522506,
384,partial,50,0.2,0,0.8,red,200,0.5,0,0.5,red,blue,red,red,blue,72,180,77,355,5,175,"[-6.7, 1.9]","[6, 0]","[-9.3, -1.9]","[10, 0]",0,0,50,200,0,97,97,75,,,,,,,,,,,,,,,,,0.002841000008629635,0.5028410000086296,1584.19602079998,None,1584.19602079998,None,right,4.500789500016253,1584.19602079998,None,1584.19602079998,None,1584.19602079998,None,1584.19602079998,None,1584.19602079998,None,1588.7429316999915,None,1588.7429316999915,None,0.0015232500154525042,0.5015232500154525,1588.7429316999915,None,1588.7429316999915,None,1588.7429316999915,None,1588.7429316999915,None,1588.7429316999915,None,1588.7429316999915,None,1592.401800599997,None,1592.401800599997,None,0.004193850007141009,0.504193850007141,1592.401800599997,None,1592.401800599997,None,1592.401800599997,None,1592.401800599997,None,1592.401800599997,None,1592.401800599997,None,-0.10000000000000142,5.058,1599.5299378999916,None,3250,,,,,,,,,,,,,,,,,,,f,24,lijia,2022_Jan_09_1815,emotion,2021.2.3,60.01601227522506,
