trialNumber,trialType,x1,p,y1,p2,outcome1,x2,q,y2,q2,outcome2,LWedgeCol,LCircleCol,RWedgeCol,RCircleCol,Lslice,Rslice,L1,L2,R1,R2,x1Pos,x2Pos,y1Pos,y2Pos,leftPoints,rightPoints,LeftYourUn,RightYouUn,trials.thisRepN,trials.thisTrialN,trials.thisN,trials.thisIndex,trials_2.thisRepN,trials_2.thisTrialN,trials_2.thisN,trials_2.thisIndex,image.started,image.stopped,key_resp_5.keys,key_resp_5.rt,key_resp_5.started,key_resp_5.stopped,image_2.started,image_2.stopped,key_resp_2.keys,key_resp_2.rt,key_resp_2.started,key_resp_2.stopped,ISI_2.started,ISI_2.stopped,arrowL_2.started,arrowL_2.stopped,arrowR_2.started,arrowR_2.stopped,key_resp_4.keys,key_resp_4.rt,key_resp_4.started,key_resp_4.stopped,blueLVal_2.started,blueLVal_2.stopped,blueRVal_2.started,blueRVal_2.stopped,redLVal_2.started,redLVal_2.stopped,redRVal_2.started,redRVal_2.stopped,right.started,right.stopped,left.started,left.stopped,ISI.started,ISI.stopped,arrowL.started,arrowL.stopped,arrowR.started,arrowR.stopped,blueLVal.started,blueLVal.stopped,blueRVal.started,blueRVal.stopped,redLVal.started,redLVal.stopped,redRVal.started,redRVal.stopped,right_2.started,right_2.stopped,left_2.started,left_2.stopped,ISI_4.started,ISI_4.stopped,arrowL_3.started,arrowL_3.stopped,arrowR_3.started,arrowR_3.stopped,blueLVal_3.started,blueLVal_3.stopped,blueRVal_3.started,blueRVal_3.stopped,redLVal_3.started,redLVal_3.stopped,redRVal_3.started,redRVal_3.stopped,rating,ratingrt,text_5.started,text_5.stopped,totalScore,image_4.started,image_4.stopped,key_resp_3.keys,key_resp_3.rt,key_resp_3.started,key_resp_3.stopped,image_5.started,image_5.stopped,key_resp.keys,key_resp.rt,key_resp.started,key_resp.stopped,image_3.started,image_3.stopped,key_resp_9.keys,key_resp_9.rt,key_resp_9.started,key_resp_9.stopped,gender,age,participant,date,expName,psychopyVersion,frameRate,
,,,,,,,,,,,,,,,,,,,,,,,,,,,,,,,,,,,,,,37.92152710002847,None,space,15.413400099845603,37.92152710002847,None,,,,,,,,,,,,,,,,,,,,,,,,,,,,,,,,,,,,,,,,,,,,,,,,,,,,,,,,,,,,,,,,,,,,,,,,,,,,,,,,,,,,f,27,lilihong,2022_Jan_10_1824,emotion,2021.1.4,59.97091412254835,
,,,,,,,,,,,,,,,,,,,,,,,,,,,,,,,,,,,,,,,,,,,,53.359064100077376,None,space,3.2421258999966085,53.359064100077376,None,,,,,,,,,,,,,,,,,,,,,,,,,,,,,,,,,,,,,,,,,,,,,,,,,,,,,,,,,,,,,,,,,,,,,,,,,,,,,,f,27,lilihong,2022_Jan_10_1824,emotion,2021.1.4,59.97091412254835,
425,partial,0,0.5,-50,0.5,red,-50,0.2,-200,0.8,red,red,blue,blue,red,180,72,5,175,77,355,"[-10, 0]","[9.3, 1.9]","[-6, 0]","[6.7, -1.9]",-50,-200,0,-50,0,0,0,8,,,,,,,,,,,,,,,,,0.001572619890794158,0.5015726198907942,56.88574289996177,None,56.88574289996177,None,left,5.9894469999708235,56.88574289996177,None,56.88574289996177,None,56.88574289996177,None,56.88574289996177,None,56.88574289996177,None,62.91544319991954,None,62.91544319991954,None,0.003256219904869795,0.5032562199048698,62.91544319991954,None,62.91544319991954,None,62.91544319991954,None,62.91544319991954,None,62.91544319991954,None,62.91544319991954,None,65.61052410001867,None,65.61052410001867,None,0.006806219927966595,0.5068062199279666,65.61052410001867,None,65.61052410001867,None,65.61052410001867,None,65.61052410001867,None,65.61052410001867,None,65.61052410001867,None,18.099999999999994,3.953,71.65407499996945,None,-50,,,,,,,,,,,,,,,,,,,f,27,lilihong,2022_Jan_10_1824,emotion,2021.1.4,59.97091412254835,
168,partial,50,0.2,0,0.8,blue,200,0.5,0,0.5,red,blue,red,red,blue,72,180,5,67,5,175,"[-6.7, 1.9]","[6, 0]","[-9.3, -1.9]","[10, 0]",50,0,0,200,0,1,1,72,,,,,,,,,,,,,,,,,0.004729340085759759,0.5047293400857598,72.70312969991937,None,72.70312969991937,None,right,4.255948799895123,72.70312969991937,None,72.70312969991937,None,72.70312969991937,None,72.70312969991937,None,72.70312969991937,None,76.99338799994439,None,76.99338799994439,None,0.005887419683858752,0.5058874196838588,76.99338799994439,None,76.99338799994439,None,76.99338799994439,None,76.99338799994439,None,76.99338799994439,None,76.99338799994439,None,79.52348069986328,None,79.52348069986328,None,0.008040319895371795,0.5080403198953718,79.52348069986328,None,79.52348069986328,None,79.52348069986328,None,79.52348069986328,None,79.52348069986328,None,79.52348069986328,None,16.5,3.269,84.84815289988182,None,-50,,,,,,,,,,,,,,,,,,,f,27,lilihong,2022_Jan_10_1824,emotion,2021.1.4,59.97091412254835,
103,partial,0,0.2,-50,0.8,blue,-50,0.5,-200,0.5,blue,blue,red,red,blue,72,180,5,67,185,355,"[-6.7, 1.9]","[6, 0]","[-9.3, -1.9]","[10, 0]",0,-50,-50,-200,0,2,2,23,,,,,,,,,,,,,,,,,0.004044719971716404,0.5040447199717164,85.85783610004,None,85.85783610004,None,left,3.5812633000314236,85.85783610004,None,85.85783610004,None,85.85783610004,None,85.85783610004,None,85.85783610004,None,89.47292810003273,None,89.47292810003273,None,0.006027519935742021,0.506027519935742,89.47292810003273,None,89.47292810003273,None,89.47292810003273,None,89.47292810003273,None,89.47292810003273,None,89.47292810003273,None,92.12173389992677,None,92.12173389992677,None,0.0076475199311971664,0.5076475199311972,92.12173389992677,None,92.12173389992677,None,92.12173389992677,None,92.12173389992677,None,92.12173389992677,None,92.12173389992677,None,4.0,2.818,96.97923219995573,None,-50,,,,,,,,,,,,,,,,,,,f,27,lilihong,2022_Jan_10_1824,emotion,2021.1.4,59.97091412254835,
385,partial,50,0.8,0,0.2,red,200,0.2,0,0.8,red,red,blue,blue,red,72,72,5,67,77,355,"[-9.3, -1.9]","[9.3, 1.9]","[-6.7, 1.9]","[6.7, -1.9]",0,0,50,200,0,3,3,66,,,,,,,,,,,,,,,,,0.012132239993661642,0.5121322399936616,98.00060479994863,None,98.00060479994863,None,left,5.306262099882588,98.00060479994863,None,98.00060479994863,None,98.00060479994863,None,98.00060479994863,None,98.00060479994863,None,103.33705069986172,None,103.33705069986172,None,0.006192419910803437,0.5061924199108034,103.33705069986172,None,103.33705069986172,None,103.33705069986172,None,103.33705069986172,None,103.33705069986172,None,103.33705069986172,None,106.23429400008172,None,106.23429400008172,None,0.007989919977262616,0.5079899199772626,106.23429400008172,None,106.23429400008172,None,106.23429400008172,None,106.23429400008172,None,106.23429400008172,None,106.23429400008172,None,-4.600000000000001,4.502,112.77623789990321,None,-50,,,,,,,,,,,,,,,,,,,f,27,lilihong,2022_Jan_10_1824,emotion,2021.1.4,59.97091412254835,
423,partial,0,0.8,-200,0.2,red,-50,0.8,-200,0.2,red,red,blue,red,blue,72,72,5,67,5,67,"[-9.3, -1.9]","[6.7, -1.9]","[-6.7, 1.9]","[9.3, 1.9]",-200,-200,0,-50,0,4,4,52,,,,,,,,,,,,,,,,,0.0058400200214236975,0.5058400200214237,113.78338690008968,None,113.78338690008968,None,left,5.152377899968997,113.78338690008968,None,113.78338690008968,None,113.78338690008968,None,113.78338690008968,None,113.78338690008968,None,118.967149999924,None,118.967149999924,None,0.006672020070254803,0.5066720200702548,118.967149999924,None,118.967149999924,None,118.967149999924,None,118.967149999924,None,118.967149999924,None,118.967149999924,None,122.0390862999484,None,122.0390862999484,None,0.007932219887152314,0.5079322198871523,122.0390862999484,None,122.0390862999484,None,122.0390862999484,None,122.0390862999484,None,122.0390862999484,None,122.0390862999484,None,6.100000000000001,2.585,126.65709499991499,None,-250,,,,,,,,,,,,,,,,,,,f,27,lilihong,2022_Jan_10_1824,emotion,2021.1.4,59.97091412254835,
426,partial,0,0.5,-50,0.5,red,-50,0.8,-200,0.2,red,red,blue,red,blue,180,72,5,175,5,67,"[-10, 0]","[6.7, -1.9]","[-6, 0]","[9.3, 1.9]",-50,-200,0,-50,0,5,5,44,,,,,,,,,,,,,,,,,0.005629420047625899,0.5056294200476259,127.66520679998212,None,127.66520679998212,None,left,5.136644900077954,127.66520679998212,None,127.66520679998212,None,127.66520679998212,None,127.66520679998212,None,127.66520679998212,None,132.84136489988305,None,132.84136489988305,None,0.01290004001930356,0.5129000400193036,132.84136489988305,None,132.84136489988305,None,132.84136489988305,None,132.84136489988305,None,132.84136489988305,None,132.84136489988305,None,135.51172739989124,None,135.51172739989124,None,0.007719520246610045,0.50771952024661,135.51172739989124,None,135.51172739989124,None,135.51172739989124,None,135.51172739989124,None,135.51172739989124,None,135.51172739989124,None,8.399999999999999,2.685,140.2373078998644,None,-300,,,,,,,,,,,,,,,,,,,f,27,lilihong,2022_Jan_10_1824,emotion,2021.1.4,59.97091412254835,
90,partial,0,0.8,-50,0.2,blue,0,0.5,-200,0.5,blue,red,blue,red,blue,72,180,77,355,185,355,"[-9.3, -1.9]","[6, 0]","[-6.7, 1.9]","[10, 0]",0,0,-50,-200,0,6,6,33,,,,,,,,,,,,,,,,,0.01288006012327969,0.5128800601232797,141.27581760007888,None,141.27581760007888,None,left,8.808329500025138,141.27581760007888,None,141.27581760007888,None,141.27581760007888,None,141.27581760007888,None,141.27581760007888,None,150.11232999991626,None,150.11232999991626,None,0.005631619831547141,0.5056316198315471,150.11232999991626,None,150.11232999991626,None,150.11232999991626,None,150.11232999991626,None,150.11232999991626,None,150.11232999991626,None,152.64216360007413,None,152.64216360007413,None,0.007878419943153858,0.5078784199431539,152.64216360007413,None,152.64216360007413,None,152.64216360007413,None,152.64216360007413,None,152.64216360007413,None,152.64216360007413,None,17.299999999999997,2.75,157.43399280006997,None,-300,,,,,,,,,,,,,,,,,,,f,27,lilihong,2022_Jan_10_1824,emotion,2021.1.4,59.97091412254835,
164,partial,50,0.5,0,0.5,blue,200,0.8,0,0.2,red,red,blue,red,blue,180,72,185,355,5,67,"[-10, 0]","[6.7, -1.9]","[-6, 0]","[9.3, 1.9]",50,0,0,200,0,7,7,96,,,,,,,,,,,,,,,,,0.005835140356794,0.505835140356794,158.46309019997716,None,158.46309019997716,None,right,4.4902045000344515,158.46309019997716,None,158.46309019997716,None,158.46309019997716,None,158.46309019997716,None,158.46309019997716,None,162.99284389987588,None,162.99284389987588,None,0.005682719871401787,0.5056827198714018,162.99284389987588,None,162.99284389987588,None,162.99284389987588,None,162.99284389987588,None,162.99284389987588,None,162.99284389987588,None,165.82247460004874,None,165.82247460004874,None,0.008026119787245989,0.508026119787246,165.82247460004874,None,165.82247460004874,None,165.82247460004874,None,165.82247460004874,None,165.82247460004874,None,165.82247460004874,None,-4.0,3.201,171.0643535000272,None,-300,,,,,,,,,,,,,,,,,,,f,27,lilihong,2022_Jan_10_1824,emotion,2021.1.4,59.97091412254835,
280,partial,50,0.5,0,0.5,red,200,0.5,50,0.5,blue,red,blue,red,blue,180,180,5,175,185,355,"[-10, 0]","[6, 0]","[-6, 0]","[10, 0]",0,200,50,50,0,8,8,79,,,,,,,,,,,,,,,,,0.003136240178719163,0.5031362401787192,172.10308500006795,None,172.10308500006795,None,right,2.232894500019029,172.10308500006795,None,172.10308500006795,None,172.10308500006795,None,172.10308500006795,None,172.10308500006795,None,174.36371659999713,None,174.36371659999713,None,0.0024452200159430504,0.502445220015943,174.36371659999713,None,174.36371659999713,None,174.36371659999713,None,174.36371659999713,None,174.36371659999713,None,174.36371659999713,None,177.35407359991223,None,177.35407359991223,None,0.00802261964417994,0.5080226196441799,177.35407359991223,None,177.35407359991223,None,177.35407359991223,None,177.35407359991223,None,177.35407359991223,None,177.35407359991223,None,38.0,3.118,182.5152883999981,None,-100,,,,,,,,,,,,,,,,,,,f,27,lilihong,2022_Jan_10_1824,emotion,2021.1.4,59.97091412254835,
415,partial,0,0.5,-200,0.5,red,-50,0.5,-200,0.5,red,red,blue,red,blue,180,180,5,175,5,175,"[-10, 0]","[6, 0]","[-6, 0]","[10, 0]",-200,-200,0,-50,0,9,9,28,,,,,,,,,,,,,,,,,0.009362239856272936,0.5093622398562729,183.55258110002615,None,183.55258110002615,None,left,4.7252264998387545,183.55258110002615,None,183.55258110002615,None,183.55258110002615,None,183.55258110002615,None,183.55258110002615,None,188.3065774999559,None,188.3065774999559,None,0.0053210200276225805,0.5053210200276226,188.3065774999559,None,188.3065774999559,None,188.3065774999559,None,188.3065774999559,None,188.3065774999559,None,188.3065774999559,None,190.90098989987746,None,190.90098989987746,None,0.008062220178544521,0.5080622201785445,190.90098989987746,None,190.90098989987746,None,190.90098989987746,None,190.90098989987746,None,190.90098989987746,None,190.90098989987746,None,-5.5,2.786,195.72646780009381,None,-300,,,,,,,,,,,,,,,,,,,f,27,lilihong,2022_Jan_10_1824,emotion,2021.1.4,59.97091412254835,
200,partial,0,0.5,-200,0.5,blue,-50,0.2,-200,0.8,red,red,blue,blue,red,180,72,185,355,77,355,"[-10, 0]","[9.3, 1.9]","[-6, 0]","[6.7, -1.9]",0,-200,-200,-50,0,10,10,10,,,,,,,,,,,,,,,,,0.0071882400661706924,0.5071882400661707,196.75849219993688,None,196.75849219993688,None,left,3.6022754998411983,196.75849219993688,None,196.75849219993688,None,196.75849219993688,None,196.75849219993688,None,196.75849219993688,None,200.40273529989645,None,200.40273529989645,None,0.006581519963219762,0.5065815199632198,200.40273529989645,None,200.40273529989645,None,200.40273529989645,None,200.40273529989645,None,200.40273529989645,None,200.40273529989645,None,203.0327073999215,None,203.0327073999215,None,0.007537819677963853,0.5075378196779639,203.0327073999215,None,203.0327073999215,None,203.0327073999215,None,203.0327073999215,None,203.0327073999215,None,203.0327073999215,None,6.100000000000001,1.918,206.9931705999188,None,-300,,,,,,,,,,,,,,,,,,,f,27,lilihong,2022_Jan_10_1824,emotion,2021.1.4,59.97091412254835,
397,partial,200,0.5,0,0.5,red,200,0.5,50,0.5,red,red,blue,red,blue,180,180,5,175,5,175,"[-10, 0]","[6, 0]","[-6, 0]","[10, 0]",0,50,200,200,0,11,11,80,,,,,,,,,,,,,,,,,0.010029940167441964,0.510029940167442,208.03858330007643,None,208.03858330007643,None,right,3.8530906001105905,208.03858330007643,None,208.03858330007643,None,208.03858330007643,None,208.03858330007643,None,208.03858330007643,None,211.91569230007008,None,211.91569230007008,None,0.006839820183813572,0.5068398201838136,211.91569230007008,None,211.91569230007008,None,211.91569230007008,None,211.91569230007008,None,211.91569230007008,None,211.91569230007008,None,214.93010660004802,None,214.93010660004802,None,0.00755511992610991,0.5075551199261099,214.93010660004802,None,214.93010660004802,None,214.93010660004802,None,214.93010660004802,None,214.93010660004802,None,214.93010660004802,None,4.299999999999997,2.843,219.82010650006123,None,-250,,,,,,,,,,,,,,,,,,,f,27,lilihong,2022_Jan_10_1824,emotion,2021.1.4,59.97091412254835,
171,partial,50,0.8,0,0.2,blue,200,0.5,0,0.5,red,red,blue,red,blue,72,180,77,355,5,175,"[-9.3, -1.9]","[6, 0]","[-6.7, 1.9]","[10, 0]",50,0,0,200,0,12,12,84,,,,,,,,,,,,,,,,,0.015208859695121646,0.5152088596951216,220.85944340005517,None,220.85944340005517,None,right,5.4337472000624985,220.85944340005517,None,220.85944340005517,None,220.85944340005517,None,220.85944340005517,None,220.85944340005517,None,226.32901079999283,None,226.32901079999283,None,0.005938919959589839,0.5059389199595898,226.32901079999283,None,226.32901079999283,None,226.32901079999283,None,226.32901079999283,None,226.32901079999283,None,226.32901079999283,None,229.04425080004148,None,229.04425080004148,None,0.00840391987003386,0.5084039198700339,229.04425080004148,None,229.04425080004148,None,229.04425080004148,None,229.04425080004148,None,229.04425080004148,None,229.04425080004148,None,-3.5,4.118,235.20216710004024,None,-250,,,,,,,,,,,,,,,,,,,f,27,lilihong,2022_Jan_10_1824,emotion,2021.1.4,59.97091412254835,
61,partial,50,0.8,0,0.2,blue,200,0.2,0,0.8,blue,red,blue,blue,red,72,72,77,355,5,67,"[-9.3, -1.9]","[9.3, 1.9]","[-6.7, 1.9]","[6.7, -1.9]",50,200,0,0,0,13,13,69,,,,,,,,,,,,,,,,,0.0003435402177274227,0.5003435402177274,236.25259789987467,None,236.25259789987467,None,left,10.199036699952558,236.25259789987467,None,236.25259789987467,None,236.25259789987467,None,236.25259789987467,None,236.25259789987467,None,246.49379329988733,None,246.49379329988733,None,0.00537981977686286,0.5053798197768629,246.49379329988733,None,246.49379329988733,None,246.49379329988733,None,246.49379329988733,None,246.49379329988733,None,246.49379329988733,None,249.02355779986829,None,249.02355779986829,None,0.007913419743999839,0.5079134197439998,249.02355779986829,None,249.02355779986829,None,249.02355779986829,None,249.02355779986829,None,249.02355779986829,None,249.02355779986829,None,10.899999999999999,2.464,253.53276499989443,None,-200,,,,,,,,,,,,,,,,,,,f,27,lilihong,2022_Jan_10_1824,emotion,2021.1.4,59.97091412254835,
316,partial,0,0.5,-50,0.5,red,-50,0.5,-200,0.5,blue,red,blue,red,blue,180,180,5,175,185,355,"[-10, 0]","[6, 0]","[-6, 0]","[10, 0]",-50,-50,0,-200,0,14,14,29,,,,,,,,,,,,,,,,,0.008151040179654956,0.508151040179655,254.5564774000086,None,254.5564774000086,None,left,4.269440299831331,254.5564774000086,None,254.5564774000086,None,254.5564774000086,None,254.5564774000086,None,254.5564774000086,None,258.8733266000636,None,258.8733266000636,None,0.00541602005250752,0.5054160200525075,258.8733266000636,None,258.8733266000636,None,258.8733266000636,None,258.8733266000636,None,258.8733266000636,None,258.8733266000636,None,261.472131999908,None,261.472131999908,None,0.00792491971515119,0.5079249197151512,261.472131999908,None,261.472131999908,None,261.472131999908,None,261.472131999908,None,261.472131999908,None,261.472131999908,None,6.200000000000003,2.117,265.62931569991633,None,-250,,,,,,,,,,,,,,,,,,,f,27,lilihong,2022_Jan_10_1824,emotion,2021.1.4,59.97091412254835,
414,partial,0,0.8,-50,0.2,red,0,0.5,-200,0.5,red,red,blue,red,blue,72,180,5,67,5,175,"[-9.3, -1.9]","[6, 0]","[-6.7, 1.9]","[10, 0]",-50,-200,0,0,0,15,15,30,,,,,,,,,,,,,,,,,0.008357940008863807,0.5083579400088638,266.66045779990964,None,266.66045779990964,None,left,7.2169003000017256,266.66045779990964,None,266.66045779990964,None,266.66045779990964,None,266.66045779990964,None,266.66045779990964,None,273.9049022998661,None,273.9049022998661,None,0.005657019792124629,0.5056570197921246,273.9049022998661,None,273.9049022998661,None,273.9049022998661,None,273.9049022998661,None,273.9049022998661,None,273.9049022998661,None,276.7846365000587,None,276.7846365000587,None,0.008026419673115015,0.508026419673115,276.7846365000587,None,276.7846365000587,None,276.7846365000587,None,276.7846365000587,None,276.7846365000587,None,276.7846365000587,None,6.299999999999997,3.119,281.942791899899,None,-300,,,,,,,,,,,,,,,,,,,f,27,lilihong,2022_Jan_10_1824,emotion,2021.1.4,59.97091412254835,
271,partial,50,0.5,0,0.5,red,200,0.2,0,0.8,blue,red,blue,blue,red,180,72,5,175,5,67,"[-10, 0]","[9.3, 1.9]","[-6, 0]","[6.7, -1.9]",0,200,50,0,0,16,16,63,,,,,,,,,,,,,,,,,0.005840320140123367,0.5058403201401234,282.95171869988553,None,282.95171869988553,None,right,5.991688600042835,282.95171869988553,None,282.95171869988553,None,282.95171869988553,None,282.95171869988553,None,282.95171869988553,None,288.9674003000837,None,288.9674003000837,None,0.006701920181512833,0.5067019201815128,288.9674003000837,None,288.9674003000837,None,288.9674003000837,None,288.9674003000837,None,288.9674003000837,None,288.9674003000837,None,291.61591130006127,None,291.61591130006127,None,0.00785902002826333,0.5078590200282633,291.61591130006127,None,291.61591130006127,None,291.61591130006127,None,291.61591130006127,None,291.61591130006127,None,291.61591130006127,None,37.3,3.264,296.9232639998663,None,-100,,,,,,,,,,,,,,,,,,,f,27,lilihong,2022_Jan_10_1824,emotion,2021.1.4,59.97091412254835,
98,partial,0,0.8,-200,0.2,blue,-50,0.2,-200,0.8,blue,red,blue,blue,red,72,72,77,355,5,67,"[-9.3, -1.9]","[9.3, 1.9]","[-6.7, 1.9]","[6.7, -1.9]",0,-50,-200,-200,0,17,17,13,,,,,,,,,,,,,,,,,0.012046139920130372,0.5120461399201304,297.9437965999823,None,297.9437965999823,None,left,6.530159200076014,297.9437965999823,None,297.9437965999823,None,297.9437965999823,None,297.9437965999823,None,297.9437965999823,None,304.5156666999683,None,304.5156666999683,None,0.0057385198306292295,0.5057385198306292,304.5156666999683,None,304.5156666999683,None,304.5156666999683,None,304.5156666999683,None,304.5156666999683,None,304.5156666999683,None,307.2952566999011,None,307.2952566999011,None,0.008077920181676745,0.5080779201816767,307.2952566999011,None,307.2952566999011,None,307.2952566999011,None,307.2952566999011,None,307.2952566999011,None,307.2952566999011,None,10.600000000000001,3.492,312.82019359990954,None,-100,,,,,,,,,,,,,,,,,,,f,27,lilihong,2022_Jan_10_1824,emotion,2021.1.4,59.97091412254835,
208,partial,0,0.5,-50,0.5,blue,-50,0.5,-200,0.5,red,red,blue,red,blue,180,180,185,355,5,175,"[-10, 0]","[6, 0]","[-6, 0]","[10, 0]",0,-200,-50,-50,0,18,18,26,,,,,,,,,,,,,,,,,0.00852406001649797,0.508524060016498,313.8622483999934,None,313.8622483999934,None,left,3.317176400218159,313.8622483999934,None,313.8622483999934,None,313.8622483999934,None,313.8622483999934,None,313.8622483999934,None,317.2126559999306,None,317.2126559999306,None,0.0058351196348667145,0.5058351196348667,317.2126559999306,None,317.2126559999306,None,317.2126559999306,None,317.2126559999306,None,317.2126559999306,None,317.2126559999306,None,320.19277269998565,None,320.19277269998565,None,0.007771119941025972,0.507771119941026,320.19277269998565,None,320.19277269998565,None,320.19277269998565,None,320.19277269998565,None,320.19277269998565,None,320.19277269998565,None,18.700000000000003,1.942,324.1681709999684,None,-100,,,,,,,,,,,,,,,,,,,f,27,lilihong,2022_Jan_10_1824,emotion,2021.1.4,59.97091412254835,
291,partial,200,0.5,0,0.5,red,200,0.8,50,0.2,blue,red,blue,red,blue,180,72,5,175,77,355,"[-10, 0]","[6.7, -1.9]","[-6, 0]","[9.3, 1.9]",0,200,200,50,0,19,19,101,,,,,,,,,,,,,,,,,0.0028524398803710938,0.5028524398803711,325.20084129995666,None,325.20084129995666,None,right,6.953564600087702,325.20084129995666,None,325.20084129995666,None,325.20084129995666,None,325.20084129995666,None,325.20084129995666,None,332.1943443000782,None,332.1943443000782,None,0.006688819965347648,0.5066888199653476,332.1943443000782,None,332.1943443000782,None,332.1943443000782,None,332.1943443000782,None,332.1943443000782,None,332.1943443000782,None,334.8403113000095,None,334.8403113000095,None,0.008054920006543398,0.5080549200065434,334.8403113000095,None,334.8403113000095,None,334.8403113000095,None,334.8403113000095,None,334.8403113000095,None,334.8403113000095,None,40.5,3.25,340.1300222000573,None,100,,,,,,,,,,,,,,,,,,,f,27,lilihong,2022_Jan_10_1824,emotion,2021.1.4,59.97091412254835,
196,partial,0,0.8,-50,0.2,blue,0,0.2,-200,0.8,red,red,blue,blue,red,72,72,77,355,77,355,"[-9.3, -1.9]","[9.3, 1.9]","[-6.7, 1.9]","[6.7, -1.9]",0,-200,-50,0,0,20,20,12,,,,,,,,,,,,,,,,,0.013785860035568476,0.5137858600355685,341.16778700007126,None,341.16778700007126,None,left,5.684295300161466,341.16778700007126,None,341.16778700007126,None,341.16778700007126,None,341.16778700007126,None,341.16778700007126,None,346.8877916999627,None,346.8877916999627,None,0.0074679197277873755,0.5074679197277874,346.8877916999627,None,346.8877916999627,None,346.8877916999627,None,346.8877916999627,None,346.8877916999627,None,346.8877916999627,None,349.5888185999356,None,349.5888185999356,None,0.007575019728392363,0.5075750197283924,349.5888185999356,None,349.5888185999356,None,349.5888185999356,None,349.5888185999356,None,349.5888185999356,None,349.5888185999356,None,21.799999999999997,2.461,354.0951638999395,None,100,,,,,,,,,,,,,,,,,,,f,27,lilihong,2022_Jan_10_1824,emotion,2021.1.4,59.97091412254835,
300,partial,0,0.5,-50,0.5,red,0,0.5,-200,0.5,blue,red,blue,red,blue,180,180,5,175,185,355,"[-10, 0]","[6, 0]","[-6, 0]","[10, 0]",-50,0,0,-200,0,21,21,27,,,,,,,,,,,,,,,,,0.01651085983030498,0.516510859830305,355.13689349987544,None,355.13689349987544,None,left,5.944963499903679,355.13689349987544,None,355.13689349987544,None,355.13689349987544,None,355.13689349987544,None,355.13689349987544,None,361.1198273000773,None,361.1198273000773,None,0.006433119997382164,0.5064331199973822,361.1198273000773,None,361.1198273000773,None,361.1198273000773,None,361.1198273000773,None,361.1198273000773,None,361.1198273000773,None,363.9012750000693,None,363.9012750000693,None,0.007776919985190034,0.50777691998519,363.9012750000693,None,363.9012750000693,None,363.9012750000693,None,363.9012750000693,None,363.9012750000693,None,363.9012750000693,None,10.0,2.138,368.0759602000471,None,50,,,,,,,,,,,,,,,,,,,f,27,lilihong,2022_Jan_10_1824,emotion,2021.1.4,59.97091412254835,
305,partial,0,0.8,-50,0.2,red,0,0.8,-200,0.2,blue,red,blue,red,blue,72,72,5,67,77,355,"[-9.3, -1.9]","[6.7, -1.9]","[-6.7, 1.9]","[9.3, 1.9]",-50,0,0,-200,0,22,22,51,,,,,,,,,,,,,,,,,0.006270639831200242,0.5062706398312002,369.1113424000796,None,369.1113424000796,None,left,4.1240817999932915,369.1113424000796,None,369.1113424000796,None,369.1113424000796,None,369.1113424000796,None,369.1113424000796,None,373.2693493999541,None,373.2693493999541,None,0.004469119943678379,0.5044691199436784,373.2693493999541,None,373.2693493999541,None,373.2693493999541,None,373.2693493999541,None,373.2693493999541,None,373.2693493999541,None,376.0489892999176,None,376.0489892999176,None,0.007922119926661253,0.5079221199266613,376.0489892999176,None,376.0489892999176,None,376.0489892999176,None,376.0489892999176,None,376.0489892999176,None,376.0489892999176,None,6.700000000000003,2.001,380.0900641998742,None,0,,,,,,,,,,,,,,,,,,,f,27,lilihong,2022_Jan_10_1824,emotion,2021.1.4,59.97091412254835,
73,partial,200,0.5,0,0.5,blue,200,0.5,50,0.5,blue,red,blue,red,blue,180,180,185,355,185,355,"[-10, 0]","[6, 0]","[-6, 0]","[10, 0]",200,200,0,50,0,23,23,83,,,,,,,,,,,,,,,,,0.009452240075916052,0.509452240075916,381.1191845999565,None,381.1191845999565,None,right,2.552687300136313,381.1191845999565,None,381.1191845999565,None,381.1191845999565,None,381.1191845999565,None,381.1191845999565,None,383.70054910006,None,383.70054910006,None,0.007251319941133261,0.5072513199411333,383.70054910006,None,383.70054910006,None,383.70054910006,None,383.70054910006,None,383.70054910006,None,383.70054910006,None,386.46337820007466,None,386.46337820007466,None,0.007907219929620624,0.5079072199296206,386.46337820007466,None,386.46337820007466,None,386.46337820007466,None,386.46337820007466,None,386.46337820007466,None,386.46337820007466,None,38.2,2.503,391.0045058000833,None,200,,,,,,,,,,,,,,,,,,,f,27,lilihong,2022_Jan_10_1824,emotion,2021.1.4,59.97091412254835,
205,partial,0,0.8,-200,0.2,blue,-50,0.5,-200,0.5,red,red,blue,red,blue,72,180,77,355,5,175,"[-9.3, -1.9]","[6, 0]","[-6.7, 1.9]","[10, 0]",0,-200,-200,-50,0,24,24,34,,,,,,,,,,,,,,,,,0.005484340013936162,0.5054843400139362,392.03632219997235,None,392.03632219997235,None,left,3.5007185998838395,392.03632219997235,None,392.03632219997235,None,392.03632219997235,None,392.03632219997235,None,392.03632219997235,None,395.5629280998837,None,395.5629280998837,None,0.005102419760078192,0.5051024197600782,395.5629280998837,None,395.5629280998837,None,395.5629280998837,None,395.5629280998837,None,395.5629280998837,None,395.5629280998837,None,398.56196089996956,None,398.56196089996956,None,0.008035419974476099,0.5080354199744761,398.56196089996956,None,398.56196089996956,None,398.56196089996956,None,398.56196089996956,None,398.56196089996956,None,398.56196089996956,None,17.5,1.734,402.33580000000075,None,200,,,,,,,,,,,,,,,,,,,f,27,lilihong,2022_Jan_10_1824,emotion,2021.1.4,59.97091412254835,
197,partial,0,0.8,-50,0.2,blue,0,0.8,-200,0.2,red,red,blue,red,blue,72,72,77,355,5,67,"[-9.3, -1.9]","[6.7, -1.9]","[-6.7, 1.9]","[9.3, 1.9]",0,-200,-50,0,0,25,25,48,,,,,,,,,,,,,,,,,0.0035539199598133564,0.5035539199598134,403.3474447999615,None,403.3474447999615,None,left,2.8010009999852628,403.3474447999615,None,403.3474447999615,None,403.3474447999615,None,403.3474447999615,None,403.3474447999615,None,406.1787536998745,None,406.1787536998745,None,0.005655620014294982,0.505655620014295,406.1787536998745,None,406.1787536998745,None,406.1787536998745,None,406.1787536998745,None,406.1787536998745,None,406.1787536998745,None,408.82636529998854,None,408.82636529998854,None,0.00771371996961534,0.5077137199696153,408.82636529998854,None,408.82636529998854,None,408.82636529998854,None,408.82636529998854,None,408.82636529998854,None,408.82636529998854,None,24.599999999999994,2.315,413.1838338000234,None,200,,,,,,,,,,,,,,,,,,,f,27,lilihong,2022_Jan_10_1824,emotion,2021.1.4,59.97091412254835,
78,partial,200,0.2,0,0.8,blue,200,0.8,50,0.2,blue,blue,red,red,blue,72,72,5,67,77,355,"[-6.7, 1.9]","[6.7, -1.9]","[-9.3, -1.9]","[9.3, 1.9]",200,200,0,50,0,26,26,95,,,,,,,,,,,,,,,,,0.0033226399682462215,0.5033226399682462,414.2146461000666,None,414.2146461000666,None,right,4.671898300061002,414.2146461000666,None,414.2146461000666,None,414.2146461000666,None,414.2146461000666,None,414.2146461000666,None,418.92638029996306,None,418.92638029996306,None,0.005947219906374812,0.5059472199063748,418.92638029996306,None,418.92638029996306,None,418.92638029996306,None,418.92638029996306,None,418.92638029996306,None,418.92638029996306,None,421.5061967000365,None,421.5061967000365,None,0.00815921975299716,0.5081592197529972,421.5061967000365,None,421.5061967000365,None,421.5061967000365,None,421.5061967000365,None,421.5061967000365,None,421.5061967000365,None,42.5,2.049,425.5980215999298,None,400,,,,,,,,,,,,,,,,,,,f,27,lilihong,2022_Jan_10_1824,emotion,2021.1.4,59.97091412254835,
163,partial,50,0.5,0,0.5,blue,200,0.2,0,0.8,red,red,blue,blue,red,180,72,185,355,77,355,"[-10, 0]","[9.3, 1.9]","[-6, 0]","[6.7, -1.9]",50,0,0,200,0,27,27,60,,,,,,,,,,,,,,,,,0.013827040093019605,0.5138270400930196,426.61623779986985,None,426.61623779986985,None,left,6.181170100113377,426.61623779986985,None,426.61623779986985,None,426.61623779986985,None,426.61623779986985,None,426.61623779986985,None,432.8231220000889,None,432.8231220000889,None,0.00538151990622282,0.5053815199062228,432.8231220000889,None,432.8231220000889,None,432.8231220000889,None,432.8231220000889,None,432.8231220000889,None,432.8231220000889,None,435.403698900016,None,435.403698900016,None,0.008058119798079133,0.5080581197980791,435.403698900016,None,435.403698900016,None,435.403698900016,None,435.403698900016,None,435.403698900016,None,435.403698900016,None,22.099999999999994,3.284,440.7288786000572,None,450,,,,,,,,,,,,,,,,,,,f,27,lilihong,2022_Jan_10_1824,emotion,2021.1.4,59.97091412254835,
290,partial,200,0.5,0,0.5,red,200,0.2,50,0.8,blue,red,blue,blue,red,180,72,5,175,5,67,"[-10, 0]","[9.3, 1.9]","[-6, 0]","[6.7, -1.9]",0,200,200,50,0,28,28,65,,,,,,,,,,,,,,,,,0.008814039872959256,0.5088140398729593,441.7535107000731,None,441.7535107000731,None,left,3.4305633998010308,441.7535107000731,None,441.7535107000731,None,441.7535107000731,None,441.7535107000731,None,441.7535107000731,None,445.2221876999829,None,445.2221876999829,None,0.005516619887202978,0.505516619887203,445.2221876999829,None,445.2221876999829,None,445.2221876999829,None,445.2221876999829,None,445.2221876999829,None,445.2221876999829,None,447.98628970002756,None,447.98628970002756,None,0.008053220110014081,0.5080532201100141,447.98628970002756,None,447.98628970002756,None,447.98628970002756,None,447.98628970002756,None,447.98628970002756,None,447.98628970002756,None,26.400000000000006,2.551,452.57608040003106,None,450,,,,,,,,,,,,,,,,,,,f,27,lilihong,2022_Jan_10_1824,emotion,2021.1.4,59.97091412254835,
427,partial,0,0.2,-50,0.8,red,-50,0.5,-200,0.5,red,blue,red,red,blue,72,180,77,355,5,175,"[-6.7, 1.9]","[6, 0]","[-9.3, -1.9]","[10, 0]",-50,-200,0,-50,0,29,29,20,,,,,,,,,,,,,,,,,0.0028531402349472046,0.5028531402349472,453.60700910002925,None,453.60700910002925,None,left,3.133400100050494,453.60700910002925,None,453.60700910002925,None,453.60700910002925,None,453.60700910002925,None,453.60700910002925,None,456.7688209998887,None,456.7688209998887,None,0.005768519826233387,0.5057685198262334,456.7688209998887,None,456.7688209998887,None,456.7688209998887,None,456.7688209998887,None,456.7688209998887,None,456.7688209998887,None,459.3831583999563,None,459.3831583999563,None,0.007826919667422771,0.5078269196674228,459.3831583999563,None,459.3831583999563,None,459.3831583999563,None,459.3831583999563,None,459.3831583999563,None,459.3831583999563,None,6.100000000000001,1.65,463.0740338000469,None,400,,,,,,,,,,,,,,,,,,,f,27,lilihong,2022_Jan_10_1824,emotion,2021.1.4,59.97091412254835,
419,partial,0,0.2,-200,0.8,red,-50,0.2,-200,0.8,red,blue,red,blue,red,72,72,77,355,77,355,"[-6.7, 1.9]","[9.3, 1.9]","[-9.3, -1.9]","[6.7, -1.9]",-200,-200,0,-50,0,30,30,4,,,,,,,,,,,,,,,,,0.004318939987570047,0.50431893998757,464.1035430000629,None,464.1035430000629,None,left,4.648457400035113,464.1035430000629,None,464.1035430000629,None,464.1035430000629,None,464.1035430000629,None,464.1035430000629,None,468.7984533999115,None,468.7984533999115,None,0.005399019923061132,0.5053990199230611,468.7984533999115,None,468.7984533999115,None,468.7984533999115,None,468.7984533999115,None,468.7984533999115,None,468.7984533999115,None,471.4300913999323,None,471.4300913999323,None,0.008019719971343875,0.5080197199713439,471.4300913999323,None,471.4300913999323,None,471.4300913999323,None,471.4300913999323,None,471.4300913999323,None,471.4300913999323,None,4.100000000000001,2.03,475.50342769990675,None,200,,,,,,,,,,,,,,,,,,,f,27,lilihong,2022_Jan_10_1824,emotion,2021.1.4,59.97091412254835,
394,partial,50,0.8,0,0.2,red,200,0.5,50,0.5,red,red,blue,red,blue,72,180,5,67,5,175,"[-9.3, -1.9]","[6, 0]","[-6.7, 1.9]","[10, 0]",0,50,50,200,0,31,31,88,,,,,,,,,,,,,,,,,0.007221319945529103,0.5072213199455291,476.5121073999908,None,476.5121073999908,None,right,2.1594533999450505,476.5121073999908,None,476.5121073999908,None,476.5121073999908,None,476.5121073999908,None,476.5121073999908,None,478.6985172999557,None,478.6985172999557,None,0.005676319822669029,0.505676319822669,478.6985172999557,None,478.6985172999557,None,478.6985172999557,None,478.6985172999557,None,478.6985172999557,None,478.6985172999557,None,481.3112000999972,None,481.3112000999972,None,0.008274219697341323,0.5082742196973413,481.3112000999972,None,481.3112000999972,None,481.3112000999972,None,481.3112000999972,None,481.3112000999972,None,481.3112000999972,None,6.700000000000003,2.801,486.15351459989324,None,250,,,,,,,,,,,,,,,,,,,f,27,lilihong,2022_Jan_10_1824,emotion,2021.1.4,59.97091412254835,
194,partial,0,0.2,-50,0.8,blue,0,0.8,-200,0.2,red,blue,red,red,blue,72,72,5,67,5,67,"[-6.7, 1.9]","[6.7, -1.9]","[-9.3, -1.9]","[9.3, 1.9]",0,-200,-50,0,0,32,32,36,,,,,,,,,,,,,,,,,0.011473839869722724,0.5114738398697227,487.17506309994496,None,487.17506309994496,None,left,9.192842899821699,487.17506309994496,None,487.17506309994496,None,487.17506309994496,None,487.17506309994496,None,487.17506309994496,None,496.39434690005146,None,496.39434690005146,None,0.005610019899904728,0.5056100198999047,496.39434690005146,None,496.39434690005146,None,496.39434690005146,None,496.39434690005146,None,496.39434690005146,None,496.39434690005146,None,499.2422573999502,None,499.2422573999502,None,0.007793419761583209,0.5077934197615832,499.2422573999502,None,499.2422573999502,None,499.2422573999502,None,499.2422573999502,None,499.2422573999502,None,499.2422573999502,None,10.899999999999999,2.166,503.4476040999871,None,250,,,,,,,,,,,,,,,,,,,f,27,lilihong,2022_Jan_10_1824,emotion,2021.1.4,59.97091412254835,
285,partial,50,0.2,0,0.8,red,200,0.8,50,0.2,blue,blue,red,red,blue,72,72,77,355,77,355,"[-6.7, 1.9]","[6.7, -1.9]","[-9.3, -1.9]","[9.3, 1.9]",0,200,50,50,0,33,33,91,,,,,,,,,,,,,,,,,0.013080359902232885,0.5130803599022329,504.4952597999945,None,504.4952597999945,None,right,2.0092241000384092,504.4952597999945,None,504.4952597999945,None,504.4952597999945,None,504.4952597999945,None,504.4952597999945,None,506.5434729999397,None,506.5434729999397,None,0.005918619921430945,0.505918619921431,506.5434729999397,None,506.5434729999397,None,506.5434729999397,None,506.5434729999397,None,506.5434729999397,None,506.5434729999397,None,509.27371619991027,None,509.27371619991027,None,0.007671519881114364,0.5076715198811144,509.27371619991027,None,509.27371619991027,None,509.27371619991027,None,509.27371619991027,None,509.27371619991027,None,509.27371619991027,None,20.299999999999997,3.769,515.080231500091,None,450,,,,,,,,,,,,,,,,,,,f,27,lilihong,2022_Jan_10_1824,emotion,2021.1.4,59.97091412254835,
172,partial,50,0.5,0,0.5,blue,200,0.5,50,0.5,red,red,blue,red,blue,180,180,185,355,5,175,"[-10, 0]","[6, 0]","[-6, 0]","[10, 0]",50,50,0,200,0,34,34,82,,,,,,,,,,,,,,,,,0.0102901600766927,0.5102901600766927,516.1237603998743,None,516.1237603998743,None,right,2.0522703998722136,516.1237603998743,None,516.1237603998743,None,516.1237603998743,None,516.1237603998743,None,516.1237603998743,None,518.2072145999409,None,518.2072145999409,None,0.005906619830057025,0.505906619830057,518.2072145999409,None,518.2072145999409,None,518.2072145999409,None,518.2072145999409,None,518.2072145999409,None,518.2072145999409,None,521.0214903999586,None,521.0214903999586,None,0.007988519733771682,0.5079885197337717,521.0214903999586,None,521.0214903999586,None,521.0214903999586,None,521.0214903999586,None,521.0214903999586,None,521.0214903999586,None,4.0,2.168,525.2283604999539,None,500,,,,,,,,,,,,,,,,,,,f,27,lilihong,2022_Jan_10_1824,emotion,2021.1.4,59.97091412254835,
292,partial,200,0.2,0,0.8,red,200,0.5,50,0.5,blue,blue,red,red,blue,72,180,77,355,185,355,"[-6.7, 1.9]","[6, 0]","[-9.3, -1.9]","[10, 0]",0,200,200,50,0,35,35,77,,,,,,,,,,,,,,,,,0.004355940036475658,0.5043559400364757,526.2609500999097,None,526.2609500999097,None,right,3.284464100142941,526.2609500999097,None,526.2609500999097,None,526.2609500999097,None,526.2609500999097,None,526.2609500999097,None,529.5708898999728,None,529.5708898999728,None,0.006716720061376691,0.5067167200613767,529.5708898999728,None,529.5708898999728,None,529.5708898999728,None,529.5708898999728,None,529.5708898999728,None,529.5708898999728,None,532.5500862998888,None,532.5500862998888,None,0.00822342000901699,0.508223420009017,532.5500862998888,None,532.5500862998888,None,532.5500862998888,None,532.5500862998888,None,532.5500862998888,None,532.5500862998888,None,39.099999999999994,2.152,536.7446707999334,None,700,,,,,,,,,,,,,,,,,,,f,27,lilihong,2022_Jan_10_1824,emotion,2021.1.4,59.97091412254835,
99,partial,0,0.8,-200,0.2,blue,-50,0.8,-200,0.2,blue,red,blue,red,blue,72,72,77,355,77,355,"[-9.3, -1.9]","[6.7, -1.9]","[-6.7, 1.9]","[9.3, 1.9]",0,-50,-200,-200,0,36,36,49,,,,,,,,,,,,,,,,,0.007614340167492628,0.5076143401674926,537.7831152998842,None,537.7831152998842,None,left,5.259076900081709,537.7831152998842,None,537.7831152998842,None,537.7831152998842,None,537.7831152998842,None,537.7831152998842,None,543.069904099917,None,543.069904099917,None,0.004807420074939728,0.5048074200749397,543.069904099917,None,543.069904099917,None,543.069904099917,None,543.069904099917,None,543.069904099917,None,543.069904099917,None,546.0159909999929,None,546.0159909999929,None,0.00772701995447278,0.5077270199544728,546.0159909999929,None,546.0159909999929,None,546.0159909999929,None,546.0159909999929,None,546.0159909999929,None,546.0159909999929,None,27.799999999999997,1.864,549.9084222998936,None,700,,,,,,,,,,,,,,,,,,,f,27,lilihong,2022_Jan_10_1824,emotion,2021.1.4,59.97091412254835,
308,partial,0,0.5,-200,0.5,red,-50,0.2,-200,0.8,blue,red,blue,blue,red,180,72,5,175,5,67,"[-10, 0]","[9.3, 1.9]","[-6, 0]","[6.7, -1.9]",-200,-50,0,-200,0,37,37,7,,,,,,,,,,,,,,,,,0.010407540248706937,0.5104075402487069,550.9489263999276,None,550.9489263999276,None,left,5.830182800069451,550.9489263999276,None,550.9489263999276,None,550.9489263999276,None,550.9489263999276,None,550.9489263999276,None,556.8151797999162,None,556.8151797999162,None,0.005794420139864087,0.5057944201398641,556.8151797999162,None,556.8151797999162,None,556.8151797999162,None,556.8151797999162,None,556.8151797999162,None,556.8151797999162,None,559.6796812000684,None,559.6796812000684,None,0.0077401199378073215,0.5077401199378073,559.6796812000684,None,559.6796812000684,None,559.6796812000684,None,559.6796812000684,None,559.6796812000684,None,559.6796812000684,None,19.400000000000006,2.623,564.3373284998816,None,500,,,,,,,,,,,,,,,,,,,f,27,lilihong,2022_Jan_10_1824,emotion,2021.1.4,59.97091412254835,
106,partial,0,0.8,-50,0.2,blue,-50,0.5,-200,0.5,blue,red,blue,red,blue,72,180,77,355,185,355,"[-9.3, -1.9]","[6, 0]","[-6.7, 1.9]","[10, 0]",0,-50,-50,-200,0,38,38,35,,,,,,,,,,,,,,,,,0.016372659942135215,0.5163726599421352,565.3786349000875,None,565.3786349000875,None,left,4.548058900050819,565.3786349000875,None,565.3786349000875,None,565.3786349000875,None,565.3786349000875,None,565.3786349000875,None,569.9637625999749,None,569.9637625999749,None,0.005772019969299436,0.5057720199692994,569.9637625999749,None,569.9637625999749,None,569.9637625999749,None,569.9637625999749,None,569.9637625999749,None,569.9637625999749,None,572.710924099898,None,572.710924099898,None,0.007421119837090373,0.5074211198370904,572.710924099898,None,572.710924099898,None,572.710924099898,None,572.710924099898,None,572.710924099898,None,572.710924099898,None,26.799999999999997,2.204,576.9523974000476,None,500,,,,,,,,,,,,,,,,,,,f,27,lilihong,2022_Jan_10_1824,emotion,2021.1.4,59.97091412254835,
279,partial,50,0.8,0,0.2,red,200,0.5,0,0.5,blue,red,blue,red,blue,72,180,5,67,185,355,"[-9.3, -1.9]","[6, 0]","[-6.7, 1.9]","[10, 0]",0,200,50,0,0,39,39,87,,,,,,,,,,,,,,,,,0.01578615978360176,0.5157861597836018,577.98645820003,None,577.98645820003,None,right,5.446851999964565,577.98645820003,None,577.98645820003,None,577.98645820003,None,577.98645820003,None,577.98645820003,None,583.4602204998955,None,583.4602204998955,None,0.005968519952148199,0.5059685199521482,583.4602204998955,None,583.4602204998955,None,583.4602204998955,None,583.4602204998955,None,583.4602204998955,None,583.4602204998955,None,585.97349080001,None,585.97349080001,None,0.008042020024731755,0.5080420200247318,585.97349080001,None,585.97349080001,None,585.97349080001,None,585.97349080001,None,585.97349080001,None,585.97349080001,None,27.200000000000003,2.2,590.2180045999121,None,700,,,,,,,,,,,,,,,,,,,f,27,lilihong,2022_Jan_10_1824,emotion,2021.1.4,59.97091412254835,
406,partial,0,0.5,-50,0.5,red,0,0.2,-200,0.8,red,red,blue,blue,red,180,72,5,175,77,355,"[-10, 0]","[9.3, 1.9]","[-6, 0]","[6.7, -1.9]",-50,-200,0,0,0,40,40,6,,,,,,,,,,,,,,,,,0.0030320400837808847,0.5030320400837809,591.2687387999613,None,591.2687387999613,None,left,3.6562720998190343,591.2687387999613,None,591.2687387999613,None,591.2687387999613,None,591.2687387999613,None,591.2687387999613,None,594.9585277999286,None,594.9585277999286,None,0.006231520092114806,0.5062315200921148,594.9585277999286,None,594.9585277999286,None,594.9585277999286,None,594.9585277999286,None,594.9585277999286,None,594.9585277999286,None,597.7722602998838,None,597.7722602998838,None,0.0078119197860360146,0.507811919786036,597.7722602998838,None,597.7722602998838,None,597.7722602998838,None,597.7722602998838,None,597.7722602998838,None,597.7722602998838,None,3.5,2.019,601.835073800059,None,650,,,,,,,,,,,,,,,,,,,f,27,lilihong,2022_Jan_10_1824,emotion,2021.1.4,59.97091412254835,
295,partial,200,0.8,0,0.2,red,200,0.5,50,0.5,blue,red,blue,red,blue,72,180,5,67,185,355,"[-9.3, -1.9]","[6, 0]","[-6.7, 1.9]","[10, 0]",0,200,200,50,0,41,41,89,,,,,,,,,,,,,,,,,0.004352040123194456,0.5043520401231945,602.8791054000612,None,602.8791054000612,None,left,6.643948999932036,602.8791054000612,None,602.8791054000612,None,602.8791054000612,None,602.8791054000612,None,602.8791054000612,None,609.5559769000392,None,609.5559769000392,None,0.005800019949674606,0.5058000199496746,609.5559769000392,None,609.5559769000392,None,609.5559769000392,None,609.5559769000392,None,609.5559769000392,None,609.5559769000392,None,612.3027212000452,None,612.3027212000452,None,0.007910919841378927,0.5079109198413789,612.3027212000452,None,612.3027212000452,None,612.3027212000452,None,612.3027212000452,None,612.3027212000452,None,612.3027212000452,None,-3.8999999999999986,2.919,617.2603398000356,None,650,,,,,,,,,,,,,,,,,,,f,27,lilihong,2022_Jan_10_1824,emotion,2021.1.4,59.97091412254835,
83,partial,0,0.5,-50,0.5,blue,0,0.8,-200,0.2,blue,red,blue,red,blue,180,72,185,355,77,355,"[-10, 0]","[6.7, -1.9]","[-6, 0]","[9.3, 1.9]",0,0,-50,-200,0,42,42,45,,,,,,,,,,,,,,,,,0.005451640114188194,0.5054516401141882,618.2950563998893,None,618.2950563998893,None,left,6.132545199943706,618.2950563998893,None,618.2950563998893,None,618.2950563998893,None,618.2950563998893,None,618.2950563998893,None,624.4702041998971,None,624.4702041998971,None,0.005768419709056616,0.5057684197090566,624.4702041998971,None,624.4702041998971,None,624.4702041998971,None,624.4702041998971,None,624.4702041998971,None,624.4702041998971,None,627.1497569999192,None,627.1497569999192,None,0.00806641997769475,0.5080664199776947,627.1497569999192,None,627.1497569999192,None,627.1497569999192,None,627.1497569999192,None,627.1497569999192,None,627.1497569999192,None,12.399999999999999,2.124,631.308069099905,None,650,,,,,,,,,,,,,,,,,,,f,27,lilihong,2022_Jan_10_1824,emotion,2021.1.4,59.97091412254835,
430,partial,0,0.8,-50,0.2,red,-50,0.5,-200,0.5,red,red,blue,red,blue,72,180,5,67,5,175,"[-9.3, -1.9]","[6, 0]","[-6.7, 1.9]","[10, 0]",-50,-200,0,-50,0,43,43,32,,,,,,,,,,,,,,,,,0.0050532398745417595,0.5050532398745418,632.3393745999783,None,632.3393745999783,None,left,3.6591364999767393,632.3393745999783,None,632.3393745999783,None,632.3393745999783,None,632.3393745999783,None,632.3393745999783,None,636.0343076998834,None,636.0343076998834,None,0.00561512028798461,0.5056151202879846,636.0343076998834,None,636.0343076998834,None,636.0343076998834,None,636.0343076998834,None,636.0343076998834,None,636.0343076998834,None,638.7310534999706,None,638.7310534999706,None,0.007714919978752732,0.5077149199787527,638.7310534999706,None,638.7310534999706,None,638.7310534999706,None,638.7310534999706,None,638.7310534999706,None,638.7310534999706,None,13.0,2.402,643.1717101000249,None,600,,,,,,,,,,,,,,,,,,,f,27,lilihong,2022_Jan_10_1824,emotion,2021.1.4,59.97091412254835,
422,partial,0,0.8,-200,0.2,red,-50,0.2,-200,0.8,red,red,blue,blue,red,72,72,5,67,77,355,"[-9.3, -1.9]","[9.3, 1.9]","[-6.7, 1.9]","[6.7, -1.9]",-200,-200,0,-50,0,44,44,16,,,,,,,,,,,,,,,,,0.016309959813952446,0.5163099598139524,644.2134686999489,None,644.2134686999489,None,left,3.0649869998451322,644.2134686999489,None,644.2134686999489,None,644.2134686999489,None,644.2134686999489,None,644.2134686999489,None,647.3151221999433,None,647.3151221999433,None,0.0051823200192302465,0.5051823200192302,647.3151221999433,None,647.3151221999433,None,647.3151221999433,None,647.3151221999433,None,647.3151221999433,None,647.3151221999433,None,650.0469764000736,None,650.0469764000736,None,0.007569619920104742,0.5075696199201047,650.0469764000736,None,650.0469764000736,None,650.0469764000736,None,650.0469764000736,None,650.0469764000736,None,650.0469764000736,None,-17.6,2.176,654.2699100999162,None,400,,,,,,,,,,,,,,,,,,,f,27,lilihong,2022_Jan_10_1824,emotion,2021.1.4,59.97091412254835,
389,partial,50,0.5,0,0.5,red,200,0.2,50,0.8,red,red,blue,blue,red,180,72,5,175,77,355,"[-10, 0]","[9.3, 1.9]","[-6, 0]","[6.7, -1.9]",0,50,50,200,0,45,45,64,,,,,,,,,,,,,,,,,0.007587840314954519,0.5075878403149545,655.2964351999108,None,655.2964351999108,None,right,3.3224946002010256,655.2964351999108,None,655.2964351999108,None,655.2964351999108,None,655.2964351999108,None,655.2964351999108,None,658.6456766000483,None,658.6456766000483,None,0.006078819744288921,0.5060788197442889,658.6456766000483,None,658.6456766000483,None,658.6456766000483,None,658.6456766000483,None,658.6456766000483,None,658.6456766000483,None,661.594561399892,None,661.594561399892,None,0.006937719881534576,0.5069377198815346,661.594561399892,None,661.594561399892,None,661.594561399892,None,661.594561399892,None,661.594561399892,None,661.594561399892,None,6.5,2.351,665.9841763998847,None,450,,,,,,,,,,,,,,,,,,,f,27,lilihong,2022_Jan_10_1824,emotion,2021.1.4,59.97091412254835,
276,partial,50,0.2,0,0.8,red,200,0.5,0,0.5,blue,blue,red,red,blue,72,180,77,355,185,355,"[-6.7, 1.9]","[6, 0]","[-9.3, -1.9]","[10, 0]",0,200,50,0,0,46,46,75,,,,,,,,,,,,,,,,,0.0011935196816921234,0.5011935196816921,666.9970014998689,None,666.9970014998689,None,right,2.6140746001619846,666.9970014998689,None,666.9970014998689,None,666.9970014998689,None,666.9970014998689,None,666.9970014998689,None,669.6425711999182,None,669.6425711999182,None,0.006682219915091991,0.506682219915092,669.6425711999182,None,669.6425711999182,None,669.6425711999182,None,669.6425711999182,None,669.6425711999182,None,669.6425711999182,None,672.4896217999049,None,672.4896217999049,None,0.008160920115187764,0.5081609201151878,672.4896217999049,None,672.4896217999049,None,672.4896217999049,None,672.4896217999049,None,672.4896217999049,None,672.4896217999049,None,6.399999999999999,2.049,676.582100099884,None,650,,,,,,,,,,,,,,,,,,,f,27,lilihong,2022_Jan_10_1824,emotion,2021.1.4,59.97091412254835,
301,partial,0,0.2,-50,0.8,red,0,0.2,-200,0.8,blue,blue,red,blue,red,72,72,77,355,5,67,"[-6.7, 1.9]","[9.3, 1.9]","[-9.3, -1.9]","[6.7, -1.9]",-50,0,0,-200,0,47,47,3,,,,,,,,,,,,,,,,,0.00588596030138433,0.5058859603013843,677.647840899881,None,677.647840899881,None,left,2.6775280002038926,677.647840899881,None,677.647840899881,None,677.647840899881,None,677.647840899881,None,677.647840899881,None,680.3574027998839,None,680.3574027998839,None,0.005860119825229049,0.505860119825229,680.3574027998839,None,680.3574027998839,None,680.3574027998839,None,680.3574027998839,None,680.3574027998839,None,680.3574027998839,None,683.05469359993,None,683.05469359993,None,0.007954220054671168,0.5079542200546712,683.05469359993,None,683.05469359993,None,683.05469359993,None,683.05469359993,None,683.05469359993,None,683.05469359993,None,5.200000000000003,1.835,686.9301265000831,None,600,,,,,,,,,,,,,,,,,,,f,27,lilihong,2022_Jan_10_1824,emotion,2021.1.4,59.97091412254835,
401,partial,200,0.2,0,0.8,red,200,0.2,50,0.8,red,blue,red,blue,red,72,72,77,355,77,355,"[-6.7, 1.9]","[9.3, 1.9]","[-9.3, -1.9]","[6.7, -1.9]",0,50,200,200,0,48,48,56,,,,,,,,,,,,,,,,,0.004048839909955859,0.5040488399099559,687.9623165999074,None,687.9623165999074,None,right,2.6633902001194656,687.9623165999074,None,687.9623165999074,None,687.9623165999074,None,687.9623165999074,None,687.9623165999074,None,690.6611677999608,None,690.6611677999608,None,0.005512219853699207,0.5055122198536992,690.6611677999608,None,690.6611677999608,None,690.6611677999608,None,690.6611677999608,None,690.6611677999608,None,690.6611677999608,None,693.1860712999478,None,693.1860712999478,None,0.008113019866868854,0.5081130198668689,693.1860712999478,None,693.1860712999478,None,693.1860712999478,None,693.1860712999478,None,693.1860712999478,None,693.1860712999478,None,14.400000000000006,2.568,697.7946065999568,None,650,,,,,,,,,,,,,,,,,,,f,27,lilihong,2022_Jan_10_1824,emotion,2021.1.4,59.97091412254835,
202,partial,0,0.2,-200,0.8,blue,-50,0.5,-200,0.5,red,blue,red,red,blue,72,180,5,67,5,175,"[-6.7, 1.9]","[6, 0]","[-9.3, -1.9]","[10, 0]",0,-200,-200,-50,0,49,49,22,,,,,,,,,,,,,,,,,0.004960740217939019,0.504960740217939,698.8254668998998,None,698.8254668998998,None,right,8.750849100062624,698.8254668998998,None,698.8254668998998,None,698.8254668998998,None,698.8254668998998,None,698.8254668998998,None,707.6019353000447,None,707.6019353000447,None,0.005807620007544756,0.5058076200075448,707.6019353000447,None,707.6019353000447,None,707.6019353000447,None,707.6019353000447,None,707.6019353000447,None,707.6019353000447,None,710.2993729000445,None,710.2993729000445,None,0.007878719829022884,0.5078787198290229,710.2993729000445,None,710.2993729000445,None,710.2993729000445,None,710.2993729000445,None,710.2993729000445,None,710.2993729000445,None,6.0,1.469,713.8079673000611,None,450,,,,,,,,,,,,,,,,,,,f,27,lilihong,2022_Jan_10_1824,emotion,2021.1.4,59.97091412254835,
310,partial,0,0.2,-200,0.8,red,-50,0.5,-200,0.5,blue,blue,red,red,blue,72,180,77,355,185,355,"[-6.7, 1.9]","[6, 0]","[-9.3, -1.9]","[10, 0]",-200,-50,0,-200,0,50,50,19,,,,,,,,,,,,,,,,,0.003193540032953024,0.503193540032953,714.84051800007,None,714.84051800007,None,right,5.836988100083545,714.84051800007,None,714.84051800007,None,714.84051800007,None,714.84051800007,None,714.84051800007,None,720.7188814999536,None,720.7188814999536,None,0.006323119625449181,0.5063231196254492,720.7188814999536,None,720.7188814999536,None,720.7188814999536,None,720.7188814999536,None,720.7188814999536,None,720.7188814999536,None,723.4981024998706,None,723.4981024998706,None,0.007588620064780116,0.5075886200647801,723.4981024998706,None,723.4981024998706,None,723.4981024998706,None,723.4981024998706,None,723.4981024998706,None,723.4981024998706,None,12.399999999999999,2.102,727.6388967998791,None,400,,,,,,,,,,,,,,,,,,,f,27,lilihong,2022_Jan_10_1824,emotion,2021.1.4,59.97091412254835,
288,partial,50,0.8,0,0.2,red,200,0.8,50,0.2,blue,red,blue,red,blue,72,72,5,67,77,355,"[-9.3, -1.9]","[6.7, -1.9]","[-6.7, 1.9]","[9.3, 1.9]",0,200,50,50,0,51,51,103,,,,,,,,,,,,,,,,,0.00608624005690217,0.5060862400569022,728.6750547999982,None,728.6750547999982,None,right,2.085493100108579,728.6750547999982,None,728.6750547999982,None,728.6750547999982,None,728.6750547999982,None,728.6750547999982,None,730.7972679999657,None,730.7972679999657,None,0.006574319675564766,0.5065743196755648,730.7972679999657,None,730.7972679999657,None,730.7972679999657,None,730.7972679999657,None,730.7972679999657,None,730.7972679999657,None,733.8121082999278,None,733.8121082999278,None,0.007821120088919997,0.50782112008892,733.8121082999278,None,733.8121082999278,None,733.8121082999278,None,733.8121082999278,None,733.8121082999278,None,733.8121082999278,None,16.0,2.211,738.0878158998676,None,600,,,,,,,,,,,,,,,,,,,f,27,lilihong,2022_Jan_10_1824,emotion,2021.1.4,59.97091412254835,
184,partial,200,0.2,0,0.8,blue,200,0.5,50,0.5,red,blue,red,red,blue,72,180,5,67,5,175,"[-6.7, 1.9]","[6, 0]","[-9.3, -1.9]","[10, 0]",200,50,0,200,0,52,52,74,,,,,,,,,,,,,,,,,0.006155519979074597,0.5061555199790746,739.0964734000154,None,739.0964734000154,None,right,3.8392616999335587,739.0964734000154,None,739.0964734000154,None,739.0964734000154,None,739.0964734000154,None,739.0964734000154,None,742.9623479000293,None,742.9623479000293,None,0.006098019890487194,0.5060980198904872,742.9623479000293,None,742.9623479000293,None,742.9623479000293,None,742.9623479000293,None,742.9623479000293,None,742.9623479000293,None,745.6087360999081,None,745.6087360999081,None,0.007659419905394316,0.5076594199053943,745.6087360999081,None,745.6087360999081,None,745.6087360999081,None,745.6087360999081,None,745.6087360999081,None,745.6087360999081,None,9.799999999999997,1.552,749.2009938999545,None,650,,,,,,,,,,,,,,,,,,,f,27,lilihong,2022_Jan_10_1824,emotion,2021.1.4,59.97091412254835,
87,partial,0,0.2,-50,0.8,blue,0,0.5,-200,0.5,blue,blue,red,red,blue,72,180,5,67,185,355,"[-6.7, 1.9]","[6, 0]","[-9.3, -1.9]","[10, 0]",0,0,-50,-200,0,53,53,21,,,,,,,,,,,,,,,,,0.015441460069268942,0.5154414600692689,750.2387741999701,None,750.2387741999701,None,left,2.5478323998395354,750.2387741999701,None,750.2387741999701,None,750.2387741999701,None,750.2387741999701,None,750.2387741999701,None,752.8286937999073,None,752.8286937999073,None,0.005152219906449318,0.5051522199064493,752.8286937999073,None,752.8286937999073,None,752.8286937999073,None,752.8286937999073,None,752.8286937999073,None,752.8286937999073,None,755.5405421999749,None,755.5405421999749,None,0.0076845199801027775,0.5076845199801028,755.5405421999749,None,755.5405421999749,None,755.5405421999749,None,755.5405421999749,None,755.5405421999749,None,755.5405421999749,None,15.200000000000003,1.668,759.2490463999566,None,650,,,,,,,,,,,,,,,,,,,f,27,lilihong,2022_Jan_10_1824,emotion,2021.1.4,59.97091412254835,
411,partial,0,0.2,-50,0.8,red,0,0.5,-200,0.5,red,blue,red,red,blue,72,180,77,355,5,175,"[-6.7, 1.9]","[6, 0]","[-9.3, -1.9]","[10, 0]",-50,-200,0,0,0,54,54,18,,,,,,,,,,,,,,,,,0.002426339779049158,0.5024263397790492,760.2860355000012,None,760.2860355000012,None,left,4.5476541998796165,760.2860355000012,None,760.2860355000012,None,760.2860355000012,None,760.2860355000012,None,760.2860355000012,None,764.8745961000677,None,764.8745961000677,None,0.006035419879481196,0.5060354198794812,764.8745961000677,None,764.8745961000677,None,764.8745961000677,None,764.8745961000677,None,764.8745961000677,None,764.8745961000677,None,767.7380619000178,None,767.7380619000178,None,0.00805772002786398,0.508057720027864,767.7380619000178,None,767.7380619000178,None,767.7380619000178,None,767.7380619000178,None,767.7380619000178,None,767.7380619000178,None,4.0,1.95,771.7301026999485,None,600,,,,,,,,,,,,,,,,,,,f,27,lilihong,2022_Jan_10_1824,emotion,2021.1.4,59.97091412254835,
272,partial,50,0.5,0,0.5,red,200,0.8,0,0.2,blue,red,blue,red,blue,180,72,5,175,77,355,"[-10, 0]","[6.7, -1.9]","[-6, 0]","[9.3, 1.9]",0,200,50,0,0,55,55,99,,,,,,,,,,,,,,,,,0.003823739942163229,0.5038237399421632,772.7633454999886,None,772.7633454999886,None,right,1.8195901999715716,772.7633454999886,None,772.7633454999886,None,772.7633454999886,None,772.7633454999886,None,772.7633454999886,None,774.6219490000512,None,774.6219490000512,None,0.006762620061635971,0.506762620061636,774.6219490000512,None,774.6219490000512,None,774.6219490000512,None,774.6219490000512,None,774.6219490000512,None,774.6219490000512,None,777.2545998999849,None,777.2545998999849,None,0.007691520033404231,0.5076915200334042,777.2545998999849,None,777.2545998999849,None,777.2545998999849,None,777.2545998999849,None,777.2545998999849,None,777.2545998999849,None,38.7,2.401,781.6947584999725,None,800,,,,,,,,,,,,,,,,,,,f,27,lilihong,2022_Jan_10_1824,emotion,2021.1.4,59.97091412254835,
304,partial,0,0.8,-50,0.2,red,0,0.2,-200,0.8,blue,red,blue,blue,red,72,72,5,67,5,67,"[-9.3, -1.9]","[9.3, 1.9]","[-6.7, 1.9]","[6.7, -1.9]",-50,0,0,-200,0,56,56,15,,,,,,,,,,,,,,,,,0.011949060019105673,0.5119490600191057,782.7333261999302,None,782.7333261999302,None,left,4.08686069981195,782.7333261999302,None,782.7333261999302,None,782.7333261999302,None,782.7333261999302,None,782.7333261999302,None,786.8533697999083,None,786.8533697999083,None,0.0064610198605805635,0.5064610198605806,786.8533697999083,None,786.8533697999083,None,786.8533697999083,None,786.8533697999083,None,786.8533697999083,None,786.8533697999083,None,789.7184011000209,None,789.7184011000209,None,0.007464420050382614,0.5074644200503826,789.7184011000209,None,789.7184011000209,None,789.7184011000209,None,789.7184011000209,None,789.7184011000209,None,789.7184011000209,None,5.100000000000001,2.418,794.1755792000331,None,750,,,,,,,,,,,,,,,,,,,f,27,lilihong,2022_Jan_10_1824,emotion,2021.1.4,59.97091412254835,
405,partial,200,0.8,0,0.2,red,200,0.8,50,0.2,red,red,blue,red,blue,72,72,5,67,5,67,"[-9.3, -1.9]","[6.7, -1.9]","[-6.7, 1.9]","[9.3, 1.9]",0,50,200,200,0,57,57,104,,,,,,,,,,,,,,,,,0.005975740263238549,0.5059757402632385,795.2074353999924,None,795.2074353999924,None,right,2.992927100043744,795.2074353999924,None,795.2074353999924,None,795.2074353999924,None,795.2074353999924,None,795.2074353999924,None,798.2354615000077,None,798.2354615000077,None,0.005575420102104545,0.5055754201021045,798.2354615000077,None,798.2354615000077,None,798.2354615000077,None,798.2354615000077,None,798.2354615000077,None,798.2354615000077,None,800.733149799984,None,800.733149799984,None,0.007639219984412193,0.5076392199844122,800.733149799984,None,800.733149799984,None,800.733149799984,None,800.733149799984,None,800.733149799984,None,800.733149799984,None,5.899999999999999,2.737,805.5068018999882,None,800,,,,,,,,,,,,,,,,,,,f,27,lilihong,2022_Jan_10_1824,emotion,2021.1.4,59.97091412254835,
321,partial,0,0.2,-50,0.8,red,-50,0.8,-200,0.2,blue,blue,red,red,blue,72,72,77,355,77,355,"[-6.7, 1.9]","[6.7, -1.9]","[-9.3, -1.9]","[9.3, 1.9]",-50,-50,0,-200,0,58,58,41,,,,,,,,,,,,,,,,,0.005347040016204119,0.5053470400162041,806.5421227999032,None,806.5421227999032,None,left,3.229861800093204,806.5421227999032,None,806.5421227999032,None,806.5421227999032,None,806.5421227999032,None,806.5421227999032,None,809.7988716999535,None,809.7988716999535,None,0.005902820033952594,0.5059028200339526,809.7988716999535,None,809.7988716999535,None,809.7988716999535,None,809.7988716999535,None,809.7988716999535,None,809.7988716999535,None,812.6797442000825,None,812.6797442000825,None,0.008053519763052464,0.5080535197630525,812.6797442000825,None,812.6797442000825,None,812.6797442000825,None,812.6797442000825,None,812.6797442000825,None,812.6797442000825,None,12.200000000000003,2.584,817.3044487999287,None,750,,,,,,,,,,,,,,,,,,,f,27,lilihong,2022_Jan_10_1824,emotion,2021.1.4,59.97091412254835,
77,partial,200,0.2,0,0.8,blue,200,0.2,50,0.8,blue,blue,red,blue,red,72,72,5,67,5,67,"[-6.7, 1.9]","[9.3, 1.9]","[-9.3, -1.9]","[6.7, -1.9]",200,200,0,50,0,59,59,59,,,,,,,,,,,,,,,,,0.008346740156412125,0.5083467401564121,818.333381399978,None,818.333381399978,None,right,2.272579900221899,818.333381399978,None,818.333381399978,None,818.333381399978,None,818.333381399978,None,818.333381399978,None,820.6467540999874,None,820.6467540999874,None,0.005497919861227274,0.5054979198612273,820.6467540999874,None,820.6467540999874,None,820.6467540999874,None,820.6467540999874,None,820.6467540999874,None,820.6467540999874,None,823.6443078999873,None,823.6443078999873,None,0.007835020078346133,0.5078350200783461,823.6443078999873,None,823.6443078999873,None,823.6443078999873,None,823.6443078999873,None,823.6443078999873,None,823.6443078999873,None,41.3,2.285,827.9690948000643,None,950,,,,,,,,,,,,,,,,,,,f,27,lilihong,2022_Jan_10_1824,emotion,2021.1.4,59.97091412254835,
57,partial,50,0.5,0,0.5,blue,200,0.5,0,0.5,blue,red,blue,red,blue,180,180,185,355,185,355,"[-10, 0]","[6, 0]","[-6, 0]","[10, 0]",50,200,0,0,0,60,60,81,,,,,,,,,,,,,,,,,0.014579940121620893,0.5145799401216209,828.9856803999282,None,828.9856803999282,None,right,2.1105839998926967,828.9856803999282,None,828.9856803999282,None,828.9856803999282,None,828.9856803999282,None,828.9856803999282,None,831.1292967998888,None,831.1292967998888,None,0.004989719949662685,0.5049897199496627,831.1292967998888,None,831.1292967998888,None,831.1292967998888,None,831.1292967998888,None,831.1292967998888,None,831.1292967998888,None,833.7585444999859,None,833.7585444999859,None,0.008357119979336858,0.5083571199793369,833.7585444999859,None,833.7585444999859,None,833.7585444999859,None,833.7585444999859,None,833.7585444999859,None,833.7585444999859,None,25.099999999999994,2.486,838.2795505998656,None,1150,,,,,,,,,,,,,,,,,,,f,27,lilihong,2022_Jan_10_1824,emotion,2021.1.4,59.97091412254835,
382,partial,50,0.2,0,0.8,red,200,0.2,0,0.8,red,blue,red,blue,red,72,72,77,355,77,355,"[-6.7, 1.9]","[9.3, 1.9]","[-9.3, -1.9]","[6.7, -1.9]",0,0,50,200,0,61,61,54,,,,,,,,,,,,,,,,,0.005270140245556831,0.5052701402455568,839.3143011999782,None,839.3143011999782,None,right,3.598170599900186,839.3143011999782,None,839.3143011999782,None,839.3143011999782,None,839.3143011999782,None,839.3143011999782,None,842.9418075999711,None,842.9418075999711,None,0.0056916200555861,0.5056916200555861,842.9418075999711,None,842.9418075999711,None,842.9418075999711,None,842.9418075999711,None,842.9418075999711,None,842.9418075999711,None,845.6892842000816,None,845.6892842000816,None,0.007764719892293215,0.5077647198922932,845.6892842000816,None,845.6892842000816,None,845.6892842000816,None,845.6892842000816,None,845.6892842000816,None,845.6892842000816,None,12.700000000000003,2.823,850.5478159000631,None,1150,,,,,,,,,,,,,,,,,,,f,27,lilihong,2022_Jan_10_1824,emotion,2021.1.4,59.97091412254835,
182,partial,200,0.5,0,0.5,blue,200,0.2,50,0.8,red,red,blue,blue,red,180,72,185,355,77,355,"[-10, 0]","[9.3, 1.9]","[-6, 0]","[6.7, -1.9]",200,50,0,200,0,62,62,62,,,,,,,,,,,,,,,,,0.0029261400923132896,0.5029261400923133,851.5808389999438,None,851.5808389999438,None,right,15.635147700086236,851.5808389999438,None,851.5808389999438,None,851.5808389999438,None,851.5808389999438,None,851.5808389999438,None,867.252445399994,None,867.252445399994,None,0.006907019764184952,0.506907019764185,867.252445399994,None,867.252445399994,None,867.252445399994,None,867.252445399994,None,867.252445399994,None,867.252445399994,None,870.2027318000328,None,870.2027318000328,None,0.008277819957584143,0.5082778199575841,870.2027318000328,None,870.2027318000328,None,870.2027318000328,None,870.2027318000328,None,870.2027318000328,None,870.2027318000328,None,6.5,2.352,874.5932857000735,None,1200,,,,,,,,,,,,,,,,,,,f,27,lilihong,2022_Jan_10_1824,emotion,2021.1.4,59.97091412254835,
95,partial,0,0.2,-200,0.8,blue,-50,0.2,-200,0.8,blue,blue,red,blue,red,72,72,5,67,5,67,"[-6.7, 1.9]","[9.3, 1.9]","[-9.3, -1.9]","[6.7, -1.9]",0,-50,-200,-200,0,63,63,1,,,,,,,,,,,,,,,,,0.007729639997705817,0.5077296399977058,875.6192522998899,None,875.6192522998899,None,left,3.50267509999685,875.6192522998899,None,875.6192522998899,None,875.6192522998899,None,875.6192522998899,None,875.6192522998899,None,879.1533303998876,None,879.1533303998876,None,0.005385019816458225,0.5053850198164582,879.1533303998876,None,879.1533303998876,None,879.1533303998876,None,879.1533303998876,None,879.1533303998876,None,879.1533303998876,None,882.1007173999678,None,882.1007173999678,None,0.007764719892293215,0.5077647198922932,882.1007173999678,None,882.1007173999678,None,882.1007173999678,None,882.1007173999678,None,882.1007173999678,None,882.1007173999678,None,8.200000000000003,2.201,886.340958399931,None,1200,,,,,,,,,,,,,,,,,,,f,27,lilihong,2022_Jan_10_1824,emotion,2021.1.4,59.97091412254835,
402,partial,200,0.2,0,0.8,red,200,0.8,50,0.2,red,blue,red,red,blue,72,72,77,355,5,67,"[-6.7, 1.9]","[6.7, -1.9]","[-9.3, -1.9]","[9.3, 1.9]",0,50,200,200,0,64,64,92,,,,,,,,,,,,,,,,,0.016271959990262985,0.516271959990263,887.3748284000903,None,887.3748284000903,None,right,2.068066000007093,887.3748284000903,None,887.3748284000903,None,887.3748284000903,None,887.3748284000903,None,887.3748284000903,None,889.4659192999825,None,889.4659192999825,None,0.0067795198410749435,0.5067795198410749,889.4659192999825,None,889.4659192999825,None,889.4659192999825,None,889.4659192999825,None,889.4659192999825,None,889.4659192999825,None,892.0317875000183,None,892.0317875000183,None,0.007829219801351428,0.5078292198013514,892.0317875000183,None,892.0317875000183,None,892.0317875000183,None,892.0317875000183,None,892.0317875000183,None,892.0317875000183,None,11.399999999999999,2.401,896.4721760000102,None,1250,,,,,,,,,,,,,,,,,,,f,27,lilihong,2022_Jan_10_1824,emotion,2021.1.4,59.97091412254835,
420,partial,0,0.2,-200,0.8,red,-50,0.8,-200,0.2,red,blue,red,red,blue,72,72,77,355,5,67,"[-6.7, 1.9]","[6.7, -1.9]","[-9.3, -1.9]","[9.3, 1.9]",-200,-200,0,-50,0,65,65,40,,,,,,,,,,,,,,,,,0.0038062401581555605,0.5038062401581556,897.5078008999117,None,897.5078008999117,None,right,9.553932199953124,897.5078008999117,None,897.5078008999117,None,897.5078008999117,None,897.5078008999117,None,897.5078008999117,None,907.0969843000639,None,907.0969843000639,None,0.005498119862750173,0.5054981198627502,907.0969843000639,None,907.0969843000639,None,907.0969843000639,None,907.0969843000639,None,907.0969843000639,None,907.0969843000639,None,909.812534699915,None,909.812534699915,None,0.007669619983062148,0.5076696199830621,909.812534699915,None,909.812534699915,None,909.812534699915,None,909.812534699915,None,909.812534699915,None,909.812534699915,None,-10.0,3.817,915.6684745999519,None,1050,,,,,,,,,,,,,,,,,,,f,27,lilihong,2022_Jan_10_1824,emotion,2021.1.4,59.97091412254835,
96,partial,0,0.2,-200,0.8,blue,-50,0.8,-200,0.2,blue,blue,red,red,blue,72,72,5,67,77,355,"[-6.7, 1.9]","[6.7, -1.9]","[-9.3, -1.9]","[9.3, 1.9]",0,-50,-200,-200,0,66,66,37,,,,,,,,,,,,,,,,,0.006348840426653624,0.5063488404266536,916.7007345000748,None,916.7007345000748,None,right,6.7866734999697655,916.7007345000748,None,916.7007345000748,None,916.7007345000748,None,916.7007345000748,None,916.7007345000748,None,923.5284490000922,None,923.5284490000922,None,0.00582362012937665,0.5058236201293766,923.5284490000922,None,923.5284490000922,None,923.5284490000922,None,923.5284490000922,None,923.5284490000922,None,923.5284490000922,None,926.3075429000892,None,926.3075429000892,None,0.00793151999823749,0.5079315199982375,926.3075429000892,None,926.3075429000892,None,926.3075429000892,None,926.3075429000892,None,926.3075429000892,None,926.3075429000892,None,4.200000000000003,1.682,930.030816799961,None,1000,,,,,,,,,,,,,,,,,,,f,27,lilihong,2022_Jan_10_1824,emotion,2021.1.4,59.97091412254835,
65,partial,50,0.5,0,0.5,blue,200,0.2,50,0.8,blue,red,blue,blue,red,180,72,185,355,5,67,"[-10, 0]","[9.3, 1.9]","[-6, 0]","[6.7, -1.9]",50,200,0,50,0,67,67,61,,,,,,,,,,,,,,,,,0.0043882199097424746,0.5043882199097425,931.0431981000584,None,931.0431981000584,None,right,1.855591000057757,931.0431981000584,None,931.0431981000584,None,931.0431981000584,None,931.0431981000584,None,931.0431981000584,None,932.9243228998967,None,932.9243228998967,None,0.0065568198915570974,0.5065568198915571,932.9243228998967,None,932.9243228998967,None,932.9243228998967,None,932.9243228998967,None,932.9243228998967,None,932.9243228998967,None,935.8554036999121,None,935.8554036999121,None,0.007847719825804234,0.5078477198258042,935.8554036999121,None,935.8554036999121,None,935.8554036999121,None,935.8554036999121,None,935.8554036999121,None,935.8554036999121,None,11.100000000000001,2.368,940.263422299875,None,1200,,,,,,,,,,,,,,,,,,,f,27,lilihong,2022_Jan_10_1824,emotion,2021.1.4,59.97091412254835,
59,partial,50,0.2,0,0.8,blue,200,0.8,0,0.2,blue,blue,red,red,blue,72,72,5,67,77,355,"[-6.7, 1.9]","[6.7, -1.9]","[-9.3, -1.9]","[9.3, 1.9]",50,200,0,0,0,68,68,93,,,,,,,,,,,,,,,,,0.005305619910359383,0.5053056199103594,941.273591300007,None,941.273591300007,None,right,4.183789300033823,941.273591300007,None,941.273591300007,None,941.273591300007,None,941.273591300007,None,941.273591300007,None,945.4891343000345,None,945.4891343000345,None,0.00609462009742856,0.5060946200974286,945.4891343000345,None,945.4891343000345,None,945.4891343000345,None,945.4891343000345,None,945.4891343000345,None,945.4891343000345,None,948.2362714000046,None,948.2362714000046,None,0.00802852027118206,0.5080285202711821,948.2362714000046,None,948.2362714000046,None,948.2362714000046,None,948.2362714000046,None,948.2362714000046,None,948.2362714000046,None,24.700000000000003,2.551,952.8278542999178,None,1400,,,,,,,,,,,,,,,,,,,f,27,lilihong,2022_Jan_10_1824,emotion,2021.1.4,59.97091412254835,
216,partial,0,0.8,-50,0.2,blue,-50,0.8,-200,0.2,red,red,blue,red,blue,72,72,77,355,5,67,"[-9.3, -1.9]","[6.7, -1.9]","[-6.7, 1.9]","[9.3, 1.9]",0,-200,-50,-50,0,69,69,50,,,,,,,,,,,,,,,,,0.005507119931280613,0.5055071199312806,953.8372996000107,None,953.8372996000107,None,left,5.27685819985345,953.8372996000107,None,953.8372996000107,None,953.8372996000107,None,953.8372996000107,None,953.8372996000107,None,959.1543250998948,None,959.1543250998948,None,0.005726119736209512,0.5057261197362095,959.1543250998948,None,959.1543250998948,None,959.1543250998948,None,959.1543250998948,None,959.1543250998948,None,959.1543250998948,None,962.1021970999427,None,962.1021970999427,None,0.007730119861662388,0.5077301198616624,962.1021970999427,None,962.1021970999427,None,962.1021970999427,None,962.1021970999427,None,962.1021970999427,None,962.1021970999427,None,12.899999999999999,2.935,967.0749582999852,None,1400,,,,,,,,,,,,,,,,,,,f,27,lilihong,2022_Jan_10_1824,emotion,2021.1.4,59.97091412254835,
180,partial,50,0.8,0,0.2,blue,200,0.8,50,0.2,red,red,blue,red,blue,72,72,77,355,5,67,"[-9.3, -1.9]","[6.7, -1.9]","[-6.7, 1.9]","[9.3, 1.9]",50,50,0,200,0,70,70,106,,,,,,,,,,,,,,,,,0.00873564020730555,0.5087356402073056,968.100631600013,None,968.100631600013,None,right,2.84738489985466,968.100631600013,None,968.100631600013,None,968.100631600013,None,968.100631600013,None,968.100631600013,None,970.9848362000193,None,970.9848362000193,None,0.005376319866627455,0.5053763198666275,970.9848362000193,None,970.9848362000193,None,970.9848362000193,None,970.9848362000193,None,970.9848362000193,None,970.9848362000193,None,973.5945232999511,None,973.5945232999511,None,0.016554939793422818,0.5165549397934228,973.5945232999511,None,973.5945232999511,None,973.5945232999511,None,973.5945232999511,None,973.5945232999511,None,973.5945232999511,None,13.700000000000003,2.017,977.6563341999426,None,1450,,,,,,,,,,,,,,,,,,,f,27,lilihong,2022_Jan_10_1824,emotion,2021.1.4,59.97091412254835,
309,partial,0,0.5,-200,0.5,red,-50,0.8,-200,0.2,blue,red,blue,red,blue,180,72,5,175,77,355,"[-10, 0]","[6.7, -1.9]","[-6, 0]","[9.3, 1.9]",-200,-50,0,-200,0,71,71,43,,,,,,,,,,,,,,,,,0.008768640225753188,0.5087686402257532,978.6857080999762,None,978.6857080999762,None,right,5.576194100081921,978.6857080999762,None,978.6857080999762,None,978.6857080999762,None,978.6857080999762,None,978.6857080999762,None,984.2994669000618,None,984.2994669000618,None,0.006466819904744625,0.5064668199047446,984.2994669000618,None,984.2994669000618,None,984.2994669000618,None,984.2994669000618,None,984.2994669000618,None,984.2994669000618,None,986.9794479999691,None,986.9794479999691,None,0.007058819988742471,0.5070588199887425,986.9794479999691,None,986.9794479999691,None,986.9794479999691,None,986.9794479999691,None,986.9794479999691,None,986.9794479999691,None,5.0,1.486,990.503560999874,None,1400,,,,,,,,,,,,,,,,,,,f,27,lilihong,2022_Jan_10_1824,emotion,2021.1.4,59.97091412254835,
82,partial,0,0.5,-50,0.5,blue,0,0.2,-200,0.8,blue,red,blue,blue,red,180,72,185,355,5,67,"[-10, 0]","[9.3, 1.9]","[-6, 0]","[6.7, -1.9]",0,0,-50,-200,0,72,72,9,,,,,,,,,,,,,,,,,0.008006940130144358,0.5080069401301444,991.530950400047,None,991.530950400047,None,left,2.392539400141686,991.530950400047,None,991.530950400047,None,991.530950400047,None,991.530950400047,None,991.530950400047,None,993.9629919999279,None,993.9629919999279,None,0.006135319825261831,0.5061353198252618,993.9629919999279,None,993.9629919999279,None,993.9629919999279,None,993.9629919999279,None,993.9629919999279,None,993.9629919999279,None,996.5286608999595,None,996.5286608999595,None,0.007307319901883602,0.5073073199018836,996.5286608999595,None,996.5286608999595,None,996.5286608999595,None,996.5286608999595,None,996.5286608999595,None,996.5286608999595,None,30.299999999999997,1.367,999.9353020000271,None,1400,,,,,,,,,,,,,,,,,,,f,27,lilihong,2022_Jan_10_1824,emotion,2021.1.4,59.97091412254835,
58,partial,50,0.2,0,0.8,blue,200,0.2,0,0.8,blue,blue,red,blue,red,72,72,5,67,5,67,"[-6.7, 1.9]","[9.3, 1.9]","[-9.3, -1.9]","[6.7, -1.9]",50,200,0,0,0,73,73,57,,,,,,,,,,,,,,,,,0.005525919841602445,0.5055259198416024,1000.945379700046,None,1000.945379700046,None,right,2.5147059999872,1000.945379700046,None,1000.945379700046,None,1000.945379700046,None,1000.945379700046,None,1000.945379700046,None,1003.4946256999392,None,1003.4946256999392,None,0.006656520068645477,0.5066565200686455,1003.4946256999392,None,1003.4946256999392,None,1003.4946256999392,None,1003.4946256999392,None,1003.4946256999392,None,1003.4946256999392,None,1006.4591457000934,None,1006.4591457000934,None,0.007730519864708185,0.5077305198647082,1006.4591457000934,None,1006.4591457000934,None,1006.4591457000934,None,1006.4591457000934,None,1006.4591457000934,None,1006.4591457000934,None,26.5,2.084,1010.5831675999798,None,1600,,,,,,,,,,,,,,,,,,,f,27,lilihong,2022_Jan_10_1824,emotion,2021.1.4,59.97091412254835,
62,partial,50,0.8,0,0.2,blue,200,0.8,0,0.2,blue,red,blue,red,blue,72,72,77,355,77,355,"[-9.3, -1.9]","[6.7, -1.9]","[-6.7, 1.9]","[9.3, 1.9]",50,200,0,0,0,74,74,105,,,,,,,,,,,,,,,,,0.007813939824700356,0.5078139398247004,1011.6087164999917,None,1011.6087164999917,None,right,2.0416071000508964,1011.6087164999917,None,1011.6087164999917,None,1011.6087164999917,None,1011.6087164999917,None,1011.6087164999917,None,1013.6757622000296,None,1013.6757622000296,None,0.005632620071992278,0.5056326200719923,1013.6757622000296,None,1013.6757622000296,None,1013.6757622000296,None,1013.6757622000296,None,1013.6757622000296,None,1013.6757622000296,None,1016.6222254000604,None,1016.6222254000604,None,0.008201219839975238,0.5082012198399752,1016.6222254000604,None,1016.6222254000604,None,1016.6222254000604,None,1016.6222254000604,None,1016.6222254000604,None,1016.6222254000604,None,19.400000000000006,3.167,1021.8330808999017,None,1800,,,,,,,,,,,,,,,,,,,f,27,lilihong,2022_Jan_10_1824,emotion,2021.1.4,59.97091412254835,
183,partial,200,0.5,0,0.5,blue,200,0.8,50,0.2,red,red,blue,red,blue,180,72,185,355,5,67,"[-10, 0]","[6.7, -1.9]","[-6, 0]","[9.3, 1.9]",200,50,0,200,0,75,75,98,,,,,,,,,,,,,,,,,0.016308160033077,0.516308160033077,1022.8744745000731,None,1022.8744745000731,None,right,2.6653499000240117,1022.8744745000731,None,1022.8744745000731,None,1022.8744745000731,None,1022.8744745000731,None,1022.8744745000731,None,1025.5730874000583,None,1025.5730874000583,None,0.005790719762444496,0.5057907197624445,1025.5730874000583,None,1025.5730874000583,None,1025.5730874000583,None,1025.5730874000583,None,1025.5730874000583,None,1025.5730874000583,None,1028.220632799901,None,1028.220632799901,None,0.007943119620904326,0.5079431196209043,1028.220632799901,None,1028.220632799901,None,1028.220632799901,None,1028.220632799901,None,1028.220632799901,None,1028.220632799901,None,15.799999999999997,2.318,1032.5785435999278,None,1850,,,,,,,,,,,,,,,,,,,f,27,lilihong,2022_Jan_10_1824,emotion,2021.1.4,59.97091412254835,
80,partial,200,0.8,0,0.2,blue,200,0.2,50,0.8,blue,red,blue,blue,red,72,72,77,355,5,67,"[-9.3, -1.9]","[9.3, 1.9]","[-6.7, 1.9]","[6.7, -1.9]",200,200,0,50,0,76,76,71,,,,,,,,,,,,,,,,,0.015766359865665436,0.5157663598656654,1033.6199884000234,None,1033.6199884000234,None,right,8.557830000063404,1033.6199884000234,None,1033.6199884000234,None,1033.6199884000234,None,1033.6199884000234,None,1033.6199884000234,None,1042.204555500066,None,1042.204555500066,None,0.006380619714036584,0.5063806197140366,1042.204555500066,None,1042.204555500066,None,1042.204555500066,None,1042.204555500066,None,1042.204555500066,None,1042.204555500066,None,1044.8174526998773,None,1044.8174526998773,None,0.008459819946438074,0.5084598199464381,1044.8174526998773,None,1044.8174526998773,None,1044.8174526998773,None,1044.8174526998773,None,1044.8174526998773,None,1044.8174526998773,None,29.700000000000003,1.705,1048.559148899978,None,2050,,,,,,,,,,,,,,,,,,,f,27,lilihong,2022_Jan_10_1824,emotion,2021.1.4,59.97091412254835,
101,partial,0,0.5,-50,0.5,blue,-50,0.2,-200,0.8,blue,red,blue,blue,red,180,72,185,355,5,67,"[-10, 0]","[9.3, 1.9]","[-6, 0]","[6.7, -1.9]",0,-50,-50,-200,0,77,77,11,,,,,,,,,,,,,,,,,0.010907439980655909,0.5109074399806559,1049.5822513999883,None,1049.5822513999883,None,left,3.1616605001036078,1049.5822513999883,None,1049.5822513999883,None,1049.5822513999883,None,1049.5822513999883,None,1049.5822513999883,None,1052.7690568000544,None,1052.7690568000544,None,0.005370419938117266,0.5053704199381173,1052.7690568000544,None,1052.7690568000544,None,1052.7690568000544,None,1052.7690568000544,None,1052.7690568000544,None,1052.7690568000544,None,1055.7313194000162,None,1055.7313194000162,None,0.008497919887304306,0.5084979198873043,1055.7313194000162,None,1055.7313194000162,None,1055.7313194000162,None,1055.7313194000162,None,1055.7313194000162,None,1055.7313194000162,None,27.200000000000003,1.65,1059.4231916000135,None,2050,,,,,,,,,,,,,,,,,,,f,27,lilihong,2022_Jan_10_1824,emotion,2021.1.4,59.97091412254835,
324,partial,0,0.8,-50,0.2,red,-50,0.8,-200,0.2,blue,red,blue,red,blue,72,72,5,67,77,355,"[-9.3, -1.9]","[6.7, -1.9]","[-6.7, 1.9]","[9.3, 1.9]",-50,-50,0,-200,0,78,78,53,,,,,,,,,,,,,,,,,0.002107440261170268,0.5021074402611703,1060.4654393999372,None,1060.4654393999372,None,left,3.201870100107044,1060.4654393999372,None,1060.4654393999372,None,1060.4654393999372,None,1060.4654393999372,None,1060.4654393999372,None,1063.6984156998806,None,1063.6984156998806,None,0.0059453200083225965,0.5059453200083226,1063.6984156998806,None,1063.6984156998806,None,1063.6984156998806,None,1063.6984156998806,None,1063.6984156998806,None,1063.6984156998806,None,1066.531232399866,None,1066.531232399866,None,0.00773662026040256,0.5077366202604026,1066.531232399866,None,1066.531232399866,None,1066.531232399866,None,1066.531232399866,None,1066.531232399866,None,1066.531232399866,None,20.099999999999994,2.15,1070.721382000018,None,2000,,,,,,,,,,,,,,,,,,,f,27,lilihong,2022_Jan_10_1824,emotion,2021.1.4,59.97091412254835,
215,partial,0,0.8,-50,0.2,blue,-50,0.2,-200,0.8,red,red,blue,blue,red,72,72,77,355,77,355,"[-9.3, -1.9]","[9.3, 1.9]","[-6.7, 1.9]","[6.7, -1.9]",0,-200,-50,-50,0,79,79,14,,,,,,,,,,,,,,,,,0.007237140089273453,0.5072371400892735,1071.750122899888,None,1071.750122899888,None,left,2.656446599867195,1071.750122899888,None,1071.750122899888,None,1071.750122899888,None,1071.750122899888,None,1071.750122899888,None,1074.4485992998816,None,1074.4485992998816,None,0.005752719938755035,0.505752719938755,1074.4485992998816,None,1074.4485992998816,None,1074.4485992998816,None,1074.4485992998816,None,1074.4485992998816,None,1074.4485992998816,None,1077.262031899998,None,1077.262031899998,None,0.007257819874212146,0.5072578198742121,1077.262031899998,None,1077.262031899998,None,1077.262031899998,None,1077.262031899998,None,1077.262031899998,None,1077.262031899998,None,22.799999999999997,1.484,1080.7860115000512,None,2000,,,,,,,,,,,,,,,,,,,f,27,lilihong,2022_Jan_10_1824,emotion,2021.1.4,59.97091412254835,
66,partial,50,0.5,0,0.5,blue,200,0.8,50,0.2,blue,red,blue,red,blue,180,72,185,355,77,355,"[-10, 0]","[6.7, -1.9]","[-6, 0]","[9.3, 1.9]",50,200,0,50,0,80,80,97,,,,,,,,,,,,,,,,,0.007853739894926548,0.5078537398949265,1081.811222899938,None,1081.811222899938,None,right,2.137416400015354,1081.811222899938,None,1081.811222899938,None,1081.811222899938,None,1081.811222899938,None,1081.811222899938,None,1083.9790004000533,None,1083.9790004000533,None,0.006213420070707798,0.5062134200707078,1083.9790004000533,None,1083.9790004000533,None,1083.9790004000533,None,1083.9790004000533,None,1083.9790004000533,None,1083.9790004000533,None,1086.5607111998834,None,1086.5607111998834,None,0.007793219992890954,0.507793219992891,1086.5607111998834,None,1086.5607111998834,None,1086.5607111998834,None,1086.5607111998834,None,1086.5607111998834,None,1086.5607111998834,None,32.900000000000006,3.919,1092.5171509999782,None,2200,,,,,,,,,,,,,,,,,,,f,27,lilihong,2022_Jan_10_1824,emotion,2021.1.4,59.97091412254835,
407,partial,0,0.5,-50,0.5,red,0,0.8,-200,0.2,red,red,blue,red,blue,180,72,5,175,5,67,"[-10, 0]","[6.7, -1.9]","[-6, 0]","[9.3, 1.9]",-50,-200,0,0,0,81,81,42,,,,,,,,,,,,,,,,,0.0032798401080071926,0.5032798401080072,1093.554382900009,None,1093.554382900009,None,left,4.1972909001633525,1093.554382900009,None,1093.554382900009,None,1093.554382900009,None,1093.554382900009,None,1093.554382900009,None,1097.791253699921,None,1097.791253699921,None,0.006793019827455282,0.5067930198274553,1097.791253699921,None,1097.791253699921,None,1097.791253699921,None,1097.791253699921,None,1097.791253699921,None,1097.791253699921,None,1100.6069435998797,None,1100.6069435998797,None,0.007782719796523452,0.5077827197965235,1100.6069435998797,None,1100.6069435998797,None,1100.6069435998797,None,1100.6069435998797,None,1100.6069435998797,None,1100.6069435998797,None,20.099999999999994,1.851,1104.498237800086,None,2150,,,,,,,,,,,,,,,,,,,f,27,lilihong,2022_Jan_10_1824,emotion,2021.1.4,59.97091412254835,
179,partial,50,0.8,0,0.2,blue,200,0.2,50,0.8,red,red,blue,blue,red,72,72,77,355,77,355,"[-9.3, -1.9]","[9.3, 1.9]","[-6.7, 1.9]","[6.7, -1.9]",50,50,0,200,0,82,82,70,,,,,,,,,,,,,,,,,0.014942540088668466,0.5149425400886685,1105.515747099882,None,1105.515747099882,None,right,2.592693499987945,1105.515747099882,None,1105.515747099882,None,1105.515747099882,None,1105.515747099882,None,1105.515747099882,None,1108.1420165998861,None,1108.1420165998861,None,0.005664520198479295,0.5056645201984793,1108.1420165998861,None,1108.1420165998861,None,1108.1420165998861,None,1108.1420165998861,None,1108.1420165998861,None,1108.1420165998861,None,1110.9955857000314,None,1110.9955857000314,None,0.002701119752600789,0.5027011197526008,1110.9955857000314,None,1110.9955857000314,None,1110.9955857000314,None,1110.9955857000314,None,1110.9955857000314,None,1110.9955857000314,None,21.200000000000003,1.8,1114.8462837999687,None,2200,,,,,,,,,,,,,,,,,,,f,27,lilihong,2022_Jan_10_1824,emotion,2021.1.4,59.97091412254835,
91,partial,0,0.5,-200,0.5,blue,-50,0.5,-200,0.5,blue,red,blue,red,blue,180,180,185,355,185,355,"[-10, 0]","[6, 0]","[-6, 0]","[10, 0]",0,-50,-200,-200,0,83,83,25,,,,,,,,,,,,,,,,,0.016411159886047244,0.5164111598860472,1115.8810163000599,None,1115.8810163000599,None,left,5.124046999961138,1115.8810163000599,None,1115.8810163000599,None,1115.8810163000599,None,1115.8810163000599,None,1115.8810163000599,None,1121.038883900037,None,1121.038883900037,None,0.006518619833514094,0.5065186198335141,1121.038883900037,None,1121.038883900037,None,1121.038883900037,None,1121.038883900037,None,1121.038883900037,None,1121.038883900037,None,1123.6850453000516,None,1123.6850453000516,None,0.007433619815856218,0.5074336198158562,1123.6850453000516,None,1123.6850453000516,None,1123.6850453000516,None,1123.6850453000516,None,1123.6850453000516,None,1123.6850453000516,None,31.200000000000003,2.067,1127.7934943998698,None,2200,,,,,,,,,,,,,,,,,,,f,27,lilihong,2022_Jan_10_1824,emotion,2021.1.4,59.97091412254835,
201,partial,0,0.5,-200,0.5,blue,-50,0.8,-200,0.2,red,red,blue,red,blue,180,72,185,355,5,67,"[-10, 0]","[6.7, -1.9]","[-6, 0]","[9.3, 1.9]",0,-200,-200,-50,0,84,84,46,,,,,,,,,,,,,,,,,0.002724059857428074,0.5027240598574281,1128.8428450999781,None,1128.8428450999781,None,right,8.564356500050053,1128.8428450999781,None,1128.8428450999781,None,1128.8428450999781,None,1128.8428450999781,None,1128.8428450999781,None,1137.434847400058,None,1137.434847400058,None,0.005495319841429591,0.5054953198414296,1137.434847400058,None,1137.434847400058,None,1137.434847400058,None,1137.434847400058,None,1137.434847400058,None,1137.434847400058,None,1140.0489332000725,None,1140.0489332000725,None,0.007723519811406732,0.5077235198114067,1140.0489332000725,None,1140.0489332000725,None,1140.0489332000725,None,1140.0489332000725,None,1140.0489332000725,None,1140.0489332000725,None,11.5,1.808,1143.97372670006,None,2000,,,,,,,,,,,,,,,,,,,f,27,lilihong,2022_Jan_10_1824,emotion,2021.1.4,59.97091412254835,
213,partial,0,0.2,-50,0.8,blue,-50,0.8,-200,0.2,red,blue,red,red,blue,72,72,5,67,5,67,"[-6.7, 1.9]","[6.7, -1.9]","[-9.3, -1.9]","[9.3, 1.9]",0,-200,-50,-50,0,85,85,38,,,,,,,,,,,,,,,,,0.007736440049484372,0.5077364400494844,1145.0085879000835,None,1145.0085879000835,None,left,2.540799600072205,1145.0085879000835,None,1145.0085879000835,None,1145.0085879000835,None,1145.0085879000835,None,1145.0085879000835,None,1147.58325279993,None,1147.58325279993,None,0.0057997198309749365,0.5057997198309749,1147.58325279993,None,1147.58325279993,None,1147.58325279993,None,1147.58325279993,None,1147.58325279993,None,1147.58325279993,None,1150.1481166998856,None,1150.1481166998856,None,0.007889519911259413,0.5078895199112594,1150.1481166998856,None,1150.1481166998856,None,1150.1481166998856,None,1150.1481166998856,None,1150.1481166998856,None,1150.1481166998856,None,35.5,1.474,1153.6563289000187,None,2000,,,,,,,,,,,,,,,,,,,f,27,lilihong,2022_Jan_10_1824,emotion,2021.1.4,59.97091412254835,
187,partial,200,0.8,0,0.2,blue,200,0.5,50,0.5,red,red,blue,red,blue,72,180,77,355,5,175,"[-9.3, -1.9]","[6, 0]","[-6.7, 1.9]","[10, 0]",200,50,0,200,0,86,86,86,,,,,,,,,,,,,,,,,0.012528959894552827,0.5125289598945528,1154.698404100025,None,1154.698404100025,None,right,1.768186500063166,1154.698404100025,None,1154.698404100025,None,1154.698404100025,None,1154.698404100025,None,1154.698404100025,None,1156.50460450002,None,1156.50460450002,None,0.015818440122529864,0.5158184401225299,1156.50460450002,None,1156.50460450002,None,1156.50460450002,None,1156.50460450002,None,1156.50460450002,None,1156.50460450002,None,1159.5613325999584,None,1159.5613325999584,None,0.008005419978871942,0.5080054199788719,1159.5613325999584,None,1159.5613325999584,None,1159.5613325999584,None,1159.5613325999584,None,1159.5613325999584,None,1159.5613325999584,None,22.599999999999994,2.135,1163.7349107000045,None,2050,,,,,,,,,,,,,,,,,,,f,27,lilihong,2022_Jan_10_1824,emotion,2021.1.4,59.97091412254835,
386,partial,50,0.8,0,0.2,red,200,0.8,0,0.2,red,red,blue,red,blue,72,72,5,67,5,67,"[-9.3, -1.9]","[6.7, -1.9]","[-6.7, 1.9]","[9.3, 1.9]",0,0,50,200,0,87,87,102,,,,,,,,,,,,,,,,,0.006722120102494955,0.506722120102495,1164.751820599893,None,1164.751820599893,None,right,2.286553299985826,1164.751820599893,None,1164.751820599893,None,1164.751820599893,None,1164.751820599893,None,1164.751820599893,None,1167.0792551999912,None,1167.0792551999912,None,0.005709120072424412,0.5057091200724244,1167.0792551999912,None,1167.0792551999912,None,1167.0792551999912,None,1167.0792551999912,None,1167.0792551999912,None,1167.0792551999912,None,1169.6093166999053,None,1169.6093166999053,None,0.008154419949278235,0.5081544199492782,1169.6093166999053,None,1169.6093166999053,None,1169.6093166999053,None,1169.6093166999053,None,1169.6093166999053,None,1169.6093166999053,None,11.299999999999997,2.368,1174.017570399912,None,2050,,,,,,,,,,,,,,,,,,,f,27,lilihong,2022_Jan_10_1824,emotion,2021.1.4,59.97091412254835,
313,partial,0,0.8,-200,0.2,red,-50,0.5,-200,0.5,blue,red,blue,red,blue,72,180,5,67,185,355,"[-9.3, -1.9]","[6, 0]","[-6.7, 1.9]","[10, 0]",-200,-50,0,-200,0,88,88,31,,,,,,,,,,,,,,,,,0.007383940042927861,0.5073839400429279,1175.04440480005,None,1175.04440480005,None,left,5.129061499843374,1175.04440480005,None,1175.04440480005,None,1175.04440480005,None,1175.04440480005,None,1175.04440480005,None,1180.2108807000332,None,1180.2108807000332,None,0.006309919990599155,0.5063099199905992,1180.2108807000332,None,1180.2108807000332,None,1180.2108807000332,None,1180.2108807000332,None,1180.2108807000332,None,1180.2108807000332,None,1182.8562866998836,None,1182.8562866998836,None,0.007979220012202859,0.5079792200122029,1182.8562866998836,None,1182.8562866998836,None,1182.8562866998836,None,1182.8562866998836,None,1182.8562866998836,None,1182.8562866998836,None,14.5,2.657,1187.548422700027,None,1850,,,,,,,,,,,,,,,,,,,f,27,lilihong,2022_Jan_10_1824,emotion,2021.1.4,59.97091412254835,
70,partial,50,0.8,0,0.2,blue,200,0.5,50,0.5,blue,red,blue,red,blue,72,180,77,355,185,355,"[-9.3, -1.9]","[6, 0]","[-6.7, 1.9]","[10, 0]",50,200,0,50,0,89,89,85,,,,,,,,,,,,,,,,,0.007586440071463585,0.5075864400714636,1188.5747954999097,None,1188.5747954999097,None,right,1.5399543999228626,1188.5747954999097,None,1188.5747954999097,None,1188.5747954999097,None,1188.5747954999097,None,1188.5747954999097,None,1190.141357799992,None,1190.141357799992,None,0.005819019861519337,0.5058190198615193,1190.141357799992,None,1190.141357799992,None,1190.141357799992,None,1190.141357799992,None,1190.141357799992,None,1190.141357799992,None,1193.1216450000647,None,1193.1216450000647,None,0.00784831983037293,0.5078483198303729,1193.1216450000647,None,1193.1216450000647,None,1193.1216450000647,None,1193.1216450000647,None,1193.1216450000647,None,1193.1216450000647,None,39.3,2.852,1198.0132776000537,None,2050,,,,,,,,,,,,,,,,,,,f,27,lilihong,2022_Jan_10_1824,emotion,2021.1.4,59.97091412254835,
287,partial,50,0.8,0,0.2,red,200,0.2,50,0.8,blue,red,blue,blue,red,72,72,5,67,5,67,"[-9.3, -1.9]","[9.3, 1.9]","[-6.7, 1.9]","[6.7, -1.9]",0,200,50,50,0,90,90,67,,,,,,,,,,,,,,,,,0.0018542399629950523,0.501854239962995,1199.0460000000894,None,1199.0460000000894,None,right,2.60593429999426,1199.0460000000894,None,1199.0460000000894,None,1199.0460000000894,None,1199.0460000000894,None,1199.0460000000894,None,1201.6870265000034,None,1201.6870265000034,None,0.006627619965001941,0.5066276199650019,1201.6870265000034,None,1201.6870265000034,None,1201.6870265000034,None,1201.6870265000034,None,1201.6870265000034,None,1201.6870265000034,None,1204.6351335998625,None,1204.6351335998625,None,0.008059619925916195,0.5080596199259162,1204.6351335998625,None,1204.6351335998625,None,1204.6351335998625,None,1204.6351335998625,None,1204.6351335998625,None,1204.6351335998625,None,45.099999999999994,4.335,1211.0128925000317,None,2250,,,,,,,,,,,,,,,,,,,f,27,lilihong,2022_Jan_10_1824,emotion,2021.1.4,59.97091412254835,
383,partial,50,0.2,0,0.8,red,200,0.8,0,0.2,red,blue,red,red,blue,72,72,77,355,5,67,"[-6.7, 1.9]","[6.7, -1.9]","[-9.3, -1.9]","[9.3, 1.9]",0,0,50,200,0,91,91,90,,,,,,,,,,,,,,,,,0.0046544200740754604,0.5046544200740755,1212.0369802000932,None,1212.0369802000932,None,right,2.9698052001185715,1212.0369802000932,None,1212.0369802000932,None,1212.0369802000932,None,1212.0369802000932,None,1212.0369802000932,None,1215.0358211998828,None,1215.0358211998828,None,0.005953819956630468,0.5059538199566305,1215.0358211998828,None,1215.0358211998828,None,1215.0358211998828,None,1215.0358211998828,None,1215.0358211998828,None,1215.0358211998828,None,1217.5993518999312,None,1217.5993518999312,None,0.007884019985795021,0.507884019985795,1217.5993518999312,None,1217.5993518999312,None,1217.5993518999312,None,1217.5993518999312,None,1217.5993518999312,None,1217.5993518999312,None,24.799999999999997,2.885,1222.5255112999585,None,2250,,,,,,,,,,,,,,,,,,,f,27,lilihong,2022_Jan_10_1824,emotion,2021.1.4,59.97091412254835,
102,partial,0,0.5,-50,0.5,blue,-50,0.8,-200,0.2,blue,red,blue,red,blue,180,72,185,355,77,355,"[-10, 0]","[6.7, -1.9]","[-6, 0]","[9.3, 1.9]",0,-50,-50,-200,0,92,92,47,,,,,,,,,,,,,,,,,0.008435240015387535,0.5084352400153875,1223.551143199904,None,1223.551143199904,None,left,3.5110907999332994,1223.551143199904,None,1223.551143199904,None,1223.551143199904,None,1223.551143199904,None,1223.551143199904,None,1227.1024418000598,None,1227.1024418000598,None,0.005564820021390915,0.5055648200213909,1227.1024418000598,None,1227.1024418000598,None,1227.1024418000598,None,1227.1024418000598,None,1227.1024418000598,None,1227.1024418000598,None,1229.947673900053,None,1229.947673900053,None,0.008082020096480846,0.5080820200964808,1229.947673900053,None,1229.947673900053,None,1229.947673900053,None,1229.947673900053,None,1229.947673900053,None,1229.947673900053,None,24.299999999999997,2.051,1234.0390767999925,None,2250,,,,,,,,,,,,,,,,,,,f,27,lilihong,2022_Jan_10_1824,emotion,2021.1.4,59.97091412254835,
390,partial,50,0.5,0,0.5,red,200,0.8,50,0.2,red,red,blue,red,blue,180,72,5,175,5,67,"[-10, 0]","[6.7, -1.9]","[-6, 0]","[9.3, 1.9]",0,50,50,200,0,93,93,100,,,,,,,,,,,,,,,,,0.003096840111538768,0.5030968401115388,1235.072179300012,None,1235.072179300012,None,right,1.6599652001168579,1235.072179300012,None,1235.072179300012,None,1235.072179300012,None,1235.072179300012,None,1235.072179300012,None,1236.7658557000104,None,1236.7658557000104,None,0.005713919643312693,0.5057139196433127,1236.7658557000104,None,1236.7658557000104,None,1236.7658557000104,None,1236.7658557000104,None,1236.7658557000104,None,1236.7658557000104,None,1239.7792128999718,None,1239.7792128999718,None,0.008162220241501927,0.5081622202415019,1239.7792128999718,None,1239.7792128999718,None,1239.7792128999718,None,1239.7792128999718,None,1239.7792128999718,None,1239.7792128999718,None,25.799999999999997,2.384,1244.2040969000664,None,2300,,,,,,,,,,,,,,,,,,,f,27,lilihong,2022_Jan_10_1824,emotion,2021.1.4,59.97091412254835,
212,partial,0,0.2,-50,0.8,blue,-50,0.2,-200,0.8,red,blue,red,blue,red,72,72,5,67,77,355,"[-6.7, 1.9]","[9.3, 1.9]","[-9.3, -1.9]","[6.7, -1.9]",0,-200,-50,-50,0,94,94,2,,,,,,,,,,,,,,,,,0.0039347398560494184,0.5039347398560494,1245.2389305999968,None,1245.2389305999968,None,left,10.506017500068992,1245.2389305999968,None,1245.2389305999968,None,1245.2389305999968,None,1245.2389305999968,None,1245.2389305999968,None,1255.7787951999344,None,1255.7787951999344,None,0.00600191974081099,0.506001919740811,1255.7787951999344,None,1255.7787951999344,None,1255.7787951999344,None,1255.7787951999344,None,1255.7787951999344,None,1255.7787951999344,None,1258.77476499998,None,1258.77476499998,None,0.00791982002556324,0.5079198200255632,1258.77476499998,None,1258.77476499998,None,1258.77476499998,None,1258.77476499998,None,1258.77476499998,None,1258.77476499998,None,25.599999999999994,6.933,1267.7504423998762,None,2300,,,,,,,,,,,,,,,,,,,f,27,lilihong,2022_Jan_10_1824,emotion,2021.1.4,59.97091412254835,
284,partial,50,0.2,0,0.8,red,200,0.2,50,0.8,blue,blue,red,blue,red,72,72,77,355,5,67,"[-6.7, 1.9]","[9.3, 1.9]","[-9.3, -1.9]","[6.7, -1.9]",0,200,50,50,0,95,95,55,,,,,,,,,,,,,,,,,0.004482740070670843,0.5044827400706708,1268.7854041000828,None,1268.7854041000828,None,right,3.846402899827808,1268.7854041000828,None,1268.7854041000828,None,1268.7854041000828,None,1268.7854041000828,None,1268.7854041000828,None,1272.657258399995,None,1272.657258399995,None,0.005962420022115111,0.5059624200221151,1272.657258399995,None,1272.657258399995,None,1272.657258399995,None,1272.657258399995,None,1272.657258399995,None,1272.657258399995,None,1275.2569653000683,None,1275.2569653000683,None,0.007795420009642839,0.5077954200096428,1275.2569653000683,None,1275.2569653000683,None,1275.2569653000683,None,1275.2569653000683,None,1275.2569653000683,None,1275.2569653000683,None,33.900000000000006,3.451,1280.7468540999107,None,2500,,,,,,,,,,,,,,,,,,,f,27,lilihong,2022_Jan_10_1824,emotion,2021.1.4,59.97091412254835,
177,partial,50,0.2,0,0.8,blue,200,0.8,50,0.2,red,blue,red,red,blue,72,72,5,67,5,67,"[-6.7, 1.9]","[6.7, -1.9]","[-9.3, -1.9]","[9.3, 1.9]",50,50,0,200,0,96,96,94,,,,,,,,,,,,,,,,,0.016136860009282827,0.5161368600092828,1281.7831546999514,None,1281.7831546999514,None,right,1.5997859998606145,1281.7831546999514,None,1281.7831546999514,None,1281.7831546999514,None,1281.7831546999514,None,1281.7831546999514,None,1283.4218929000199,None,1283.4218929000199,None,0.0065523197408765554,0.5065523197408766,1283.4218929000199,None,1283.4218929000199,None,1283.4218929000199,None,1283.4218929000199,None,1283.4218929000199,None,1283.4218929000199,None,1286.1530869000126,None,1286.1530869000126,None,0.007814219919964671,0.5078142199199647,1286.1530869000126,None,1286.1530869000126,None,1286.1530869000126,None,1286.1530869000126,None,1286.1530869000126,None,1286.1530869000126,None,29.599999999999994,1.751,1289.945095699979,None,2550,,,,,,,,,,,,,,,,,,,f,27,lilihong,2022_Jan_10_1824,emotion,2021.1.4,59.97091412254835,
176,partial,50,0.2,0,0.8,blue,200,0.2,50,0.8,red,blue,red,blue,red,72,72,5,67,77,355,"[-6.7, 1.9]","[9.3, 1.9]","[-9.3, -1.9]","[6.7, -1.9]",50,50,0,200,0,97,97,58,,,,,,,,,,,,,,,,,0.0036562399473041296,0.5036562399473041,1290.98329870007,None,1290.98329870007,None,right,1.9110163999721408,1290.98329870007,None,1290.98329870007,None,1290.98329870007,None,1290.98329870007,None,1290.98329870007,None,1292.9216098999605,None,1292.9216098999605,None,0.006555620115250349,0.5065556201152503,1292.9216098999605,None,1292.9216098999605,None,1292.9216098999605,None,1292.9216098999605,None,1292.9216098999605,None,1292.9216098999605,None,1295.7011218999978,None,1295.7011218999978,None,0.007737020030617714,0.5077370200306177,1295.7011218999978,None,1295.7011218999978,None,1295.7011218999978,None,1295.7011218999978,None,1295.7011218999978,None,1295.7011218999978,None,12.899999999999999,1.367,1299.1100592000876,None,2600,,,,,,,,,,,,,,,,,,,f,27,lilihong,2022_Jan_10_1824,emotion,2021.1.4,59.97091412254835,
