trialNumber,trialType,x1,p,y1,p2,outcome1,x2,q,y2,q2,outcome2,LWedgeCol,LCircleCol,RWedgeCol,RCircleCol,Lslice,Rslice,L1,L2,R1,R2,x1Pos,x2Pos,y1Pos,y2Pos,leftPoints,rightPoints,LeftYourUn,RightYouUn,trials.thisRepN,trials.thisTrialN,trials.thisN,trials.thisIndex,trials_2.thisRepN,trials_2.thisTrialN,trials_2.thisN,trials_2.thisIndex,image.started,image.stopped,key_resp_5.keys,key_resp_5.rt,key_resp_5.started,key_resp_5.stopped,image_2.started,image_2.stopped,key_resp_2.keys,key_resp_2.rt,key_resp_2.started,key_resp_2.stopped,ISI_2.started,ISI_2.stopped,arrowL_2.started,arrowL_2.stopped,arrowR_2.started,arrowR_2.stopped,key_resp_4.keys,key_resp_4.rt,key_resp_4.started,key_resp_4.stopped,blueLVal_2.started,blueLVal_2.stopped,blueRVal_2.started,blueRVal_2.stopped,redLVal_2.started,redLVal_2.stopped,redRVal_2.started,redRVal_2.stopped,right.started,right.stopped,left.started,left.stopped,ISI.started,ISI.stopped,arrowL.started,arrowL.stopped,arrowR.started,arrowR.stopped,blueLVal.started,blueLVal.stopped,blueRVal.started,blueRVal.stopped,redLVal.started,redLVal.stopped,redRVal.started,redRVal.stopped,right_2.started,right_2.stopped,left_2.started,left_2.stopped,ISI_4.started,ISI_4.stopped,arrowL_3.started,arrowL_3.stopped,arrowR_3.started,arrowR_3.stopped,blueLVal_3.started,blueLVal_3.stopped,blueRVal_3.started,blueRVal_3.stopped,redLVal_3.started,redLVal_3.stopped,redRVal_3.started,redRVal_3.stopped,rating,ratingrt,text_5.started,text_5.stopped,totalScore,image_4.started,image_4.stopped,key_resp_3.keys,key_resp_3.rt,key_resp_3.started,key_resp_3.stopped,image_5.started,image_5.stopped,key_resp.keys,key_resp.rt,key_resp.started,key_resp.stopped,image_3.started,image_3.stopped,key_resp_9.keys,key_resp_9.rt,key_resp_9.started,key_resp_9.stopped,gender,age,participant,date,expName,psychopyVersion,frameRate,
,,,,,,,,,,,,,,,,,,,,,,,,,,,,,,,,,,,,,,42.26366379999672,None,space,6.792648000002373,42.26366379999672,None,,,,,,,,,,,,,,,,,,,,,,,,,,,,,,,,,,,,,,,,,,,,,,,,,,,,,,,,,,,,,,,,,,,,,,,,,,,,,,,,,,,,f,23,xuyue,2022_Jan_09_0923,emotion,2021.2.3,60.323490756848344,
,,,,,,,,,,,,,,,,,,,,,,,,,,,,,,,,,,,,,,,,,,,,49.09085850001429,None,space,1.7146737999864854,49.09085850001429,None,,,,,,,,,,,,,,,,,,,,,,,,,,,,,,,,,,,,,,,,,,,,,,,,,,,,,,,,,,,,,,,,,,,,,,,,,,,,,,f,23,xuyue,2022_Jan_09_0923,emotion,2021.2.3,60.323490756848344,
97,partial,0,0.8,-200,0.2,blue,-50,0.5,-200,0.5,blue,red,blue,red,blue,72,180,77,355,185,355,"[-9.3, -1.9]","[6, 0]","[-6.7, 1.9]","[10, 0]",0,-50,-200,-200,0,0,0,34,,,,,,,,,,,,,,,,,0.0008108500915113837,0.5008108500915114,52.607843100005994,None,52.607843100005994,None,left,4.278075800015358,52.607843100005994,None,52.607843100005994,None,52.607843100005994,None,52.607843100005994,None,52.607843100005994,None,56.998534000013024,None,56.998534000013024,None,0.014492469985270873,0.5144924699852709,56.998534000013024,None,56.998534000013024,None,56.998534000013024,None,56.998534000013024,None,56.998534000013024,None,56.998534000013024,None,62.46808439999586,None,62.46808439999586,None,0.0015014800010249019,0.5015014800010249,62.46808439999586,None,62.46808439999586,None,62.46808439999586,None,62.46808439999586,None,62.46808439999586,None,62.46808439999586,None,0.29999999999999716,4.462,69.15766440000152,None,0,,,,,,,,,,,,,,,,,,,f,23,xuyue,2022_Jan_09_0923,emotion,2021.2.3,60.323490756848344,
396,partial,50,0.8,0,0.2,red,200,0.8,50,0.2,red,red,blue,red,blue,72,72,5,67,5,67,"[-9.3, -1.9]","[6.7, -1.9]","[-6.7, 1.9]","[9.3, 1.9]",0,50,50,200,0,1,1,103,,,,,,,,,,,,,,,,,0.005948170000920072,0.5059481700009201,70.21676310000475,None,70.21676310000475,None,right,5.184217400004854,70.21676310000475,None,70.21676310000475,None,70.21676310000475,None,70.21676310000475,None,70.21676310000475,None,75.48943399998825,None,75.48943399998825,None,0.0038543800183106214,0.5038543800183106,75.48943399998825,None,75.48943399998825,None,75.48943399998825,None,75.48943399998825,None,75.48943399998825,None,75.48943399998825,None,81.79669779998949,None,81.79669779998949,None,0.005393080005887896,0.5053930800058879,81.79669779998949,None,81.79669779998949,None,81.79669779998949,None,81.79669779998949,None,81.79669779998949,None,81.79669779998949,None,7.399999999999999,3.623,87.59334749999107,None,50,,,,,,,,,,,,,,,,,,,f,23,xuyue,2022_Jan_09_0923,emotion,2021.2.3,60.323490756848344,
206,partial,0,0.8,-200,0.2,blue,-50,0.2,-200,0.8,red,red,blue,blue,red,72,72,77,355,77,355,"[-9.3, -1.9]","[9.3, 1.9]","[-6.7, 1.9]","[6.7, -1.9]",0,-200,-200,-50,0,2,2,13,,,,,,,,,,,,,,,,,0.004820270027266815,0.5048202700272668,88.65170720001333,None,88.65170720001333,None,left,6.474140199978137,88.65170720001333,None,88.65170720001333,None,88.65170720001333,None,88.65170720001333,None,88.65170720001333,None,95.23225030000322,None,95.23225030000322,None,0.0033233800204470754,0.5033233800204471,95.23225030000322,None,95.23225030000322,None,95.23225030000322,None,95.23225030000322,None,95.23225030000322,None,95.23225030000322,None,101.59256520000054,None,101.59256520000054,None,0.005246280023129657,0.5052462800231297,101.59256520000054,None,101.59256520000054,None,101.59256520000054,None,101.59256520000054,None,101.59256520000054,None,101.59256520000054,None,0.10000000000000142,3.488,107.25557149999077,None,50,,,,,,,,,,,,,,,,,,,f,23,xuyue,2022_Jan_09_0923,emotion,2021.2.3,60.323490756848344,
408,partial,0,0.5,-50,0.5,red,0,0.5,-200,0.5,red,red,blue,red,blue,180,180,5,175,5,175,"[-10, 0]","[6, 0]","[-6, 0]","[10, 0]",-50,-200,0,0,0,3,3,27,,,,,,,,,,,,,,,,,0.013962669996544719,0.5139626699965447,108.3172784000053,None,108.3172784000053,None,left,1.7286688000021968,108.3172784000053,None,108.3172784000053,None,108.3172784000053,None,108.3172784000053,None,108.3172784000053,None,110.12524880000274,None,110.12524880000274,None,0.006136980024166405,0.5061369800241664,110.12524880000274,None,110.12524880000274,None,110.12524880000274,None,110.12524880000274,None,110.12524880000274,None,110.12524880000274,None,115.88359509999282,None,115.88359509999282,None,0.005746380047639832,0.5057463800476398,115.88359509999282,None,115.88359509999282,None,115.88359509999282,None,115.88359509999282,None,115.88359509999282,None,115.88359509999282,None,-8.700000000000003,2.898,120.89733159999014,None,0,,,,,,,,,,,,,,,,,,,f,23,xuyue,2022_Jan_09_0923,emotion,2021.2.3,60.323490756848344,
100,partial,0,0.5,-50,0.5,blue,-50,0.5,-200,0.5,blue,red,blue,red,blue,180,180,185,355,185,355,"[-10, 0]","[6, 0]","[-6, 0]","[10, 0]",0,-50,-50,-200,0,4,4,26,,,,,,,,,,,,,,,,,0.006625669979257509,0.5066256699792575,121.95634090001113,None,121.95634090001113,None,left,1.6542047000257298,121.95634090001113,None,121.95634090001113,None,121.95634090001113,None,121.95634090001113,None,121.95634090001113,None,123.71593360000406,None,123.71593360000406,None,0.004389279987663031,0.504389279987663,123.71593360000406,None,123.71593360000406,None,123.71593360000406,None,123.71593360000406,None,123.71593360000406,None,123.71593360000406,None,129.23335990001215,None,129.23335990001215,None,0.005823079991387203,0.5058230799913872,129.23335990001215,None,129.23335990001215,None,129.23335990001215,None,129.23335990001215,None,129.23335990001215,None,129.23335990001215,None,1.7000000000000028,5.629,137.01263020001352,None,0,,,,,,,,,,,,,,,,,,,f,23,xuyue,2022_Jan_09_0923,emotion,2021.2.3,60.323490756848344,
393,partial,50,0.2,0,0.8,red,200,0.8,50,0.2,red,blue,red,red,blue,72,72,77,355,5,67,"[-6.7, 1.9]","[6.7, -1.9]","[-9.3, -1.9]","[9.3, 1.9]",0,50,50,200,0,5,5,91,,,,,,,,,,,,,,,,,0.013798669999232516,0.5137986699992325,138.08545350001077,None,138.08545350001077,None,right,2.0268865000107326,138.08545350001077,None,138.08545350001077,None,138.08545350001077,None,138.08545350001077,None,138.08545350001077,None,140.20491430000402,None,140.20491430000402,None,0.004003980022389442,0.5040039800223894,140.20491430000402,None,140.20491430000402,None,140.20491430000402,None,140.20491430000402,None,140.20491430000402,None,140.20491430000402,None,146.38071130000753,None,146.38071130000753,None,0.006006280018482357,0.5060062800184824,146.38071130000753,None,146.38071130000753,None,146.38071130000753,None,146.38071130000753,None,146.38071130000753,None,146.38071130000753,None,8.600000000000001,2.283,150.80564279999817,None,50,,,,,,,,,,,,,,,,,,,f,23,xuyue,2022_Jan_09_0923,emotion,2021.2.3,60.323490756848344,
203,partial,0,0.2,-200,0.8,blue,-50,0.2,-200,0.8,red,blue,red,blue,red,72,72,5,67,77,355,"[-6.7, 1.9]","[9.3, 1.9]","[-9.3, -1.9]","[6.7, -1.9]",0,-200,-200,-50,0,6,6,1,,,,,,,,,,,,,,,,,0.004849669989198446,0.5048496699891984,151.85027709999122,None,151.85027709999122,None,left,2.4371633999980986,151.85027709999122,None,151.85027709999122,None,151.85027709999122,None,151.85027709999122,None,151.85027709999122,None,154.3831094999914,None,154.3831094999914,None,0.0052309799939394,0.5052309799939394,154.3831094999914,None,154.3831094999914,None,154.3831094999914,None,154.3831094999914,None,154.3831094999914,None,154.3831094999914,None,160.7617089000123,None,160.7617089000123,None,0.006769180006813258,0.5067691800068133,160.7617089000123,None,160.7617089000123,None,160.7617089000123,None,160.7617089000123,None,160.7617089000123,None,160.7617089000123,None,0.0,3.734,166.67459260000032,None,50,,,,,,,,,,,,,,,,,,,f,23,xuyue,2022_Jan_09_0923,emotion,2021.2.3,60.323490756848344,
322,partial,0,0.8,-50,0.2,red,-50,0.5,-200,0.5,blue,red,blue,red,blue,72,180,5,67,185,355,"[-9.3, -1.9]","[6, 0]","[-6.7, 1.9]","[10, 0]",-50,-50,0,-200,0,7,7,32,,,,,,,,,,,,,,,,,0.014999770006397739,0.5149997700063977,167.7365861000144,None,167.7365861000144,None,left,1.6718908000038937,167.7365861000144,None,167.7365861000144,None,167.7365861000144,None,167.7365861000144,None,167.7365861000144,None,169.53182299999753,None,169.53182299999753,None,0.003158680017804727,0.5031586800178047,169.53182299999753,None,169.53182299999753,None,169.53182299999753,None,169.53182299999753,None,169.53182299999753,None,169.53182299999753,None,175.46683499999926,None,175.46683499999926,None,0.006258279987378046,0.506258279987378,175.46683499999926,None,175.46683499999926,None,175.46683499999926,None,175.46683499999926,None,175.46683499999926,None,175.46683499999926,None,-5.799999999999997,1.577,179.17031630000565,None,0,,,,,,,,,,,,,,,,,,,f,23,xuyue,2022_Jan_09_0923,emotion,2021.2.3,60.323490756848344,
174,partial,50,0.5,0,0.5,blue,200,0.8,50,0.2,red,red,blue,red,blue,180,72,185,355,5,67,"[-10, 0]","[6.7, -1.9]","[-6, 0]","[9.3, 1.9]",50,50,0,200,0,8,8,97,,,,,,,,,,,,,,,,,0.006192469969391823,0.5061924699693918,180.22121940000216,None,180.22121940000216,None,right,1.760119599988684,180.22121940000216,None,180.22121940000216,None,180.22121940000216,None,180.22121940000216,None,180.22121940000216,None,182.09071210000548,None,182.09071210000548,None,0.0038922800158616155,0.5038922800158616,182.09071210000548,None,182.09071210000548,None,182.09071210000548,None,182.09071210000548,None,182.09071210000548,None,182.09071210000548,None,187.87800960001186,None,187.87800960001186,None,0.005351380037609488,0.5053513800376095,187.87800960001186,None,187.87800960001186,None,187.87800960001186,None,187.87800960001186,None,187.87800960001186,None,187.87800960001186,None,2.299999999999997,2.377,192.4201241999981,None,50,,,,,,,,,,,,,,,,,,,f,23,xuyue,2022_Jan_09_0923,emotion,2021.2.3,60.323490756848344,
84,partial,0,0.5,-50,0.5,blue,0,0.5,-200,0.5,blue,red,blue,red,blue,180,180,185,355,185,355,"[-10, 0]","[6, 0]","[-6, 0]","[10, 0]",0,0,-50,-200,0,9,9,24,,,,,,,,,,,,,,,,,0.0074977700132876635,0.5074977700132877,193.47981709998567,None,193.47981709998567,None,left,2.077049299987266,193.47981709998567,None,193.47981709998567,None,193.47981709998567,None,193.47981709998567,None,193.47981709998567,None,195.6626103000017,None,195.6626103000017,None,0.004872780031291768,0.5048727800312918,195.6626103000017,None,195.6626103000017,None,195.6626103000017,None,195.6626103000017,None,195.6626103000017,None,195.6626103000017,None,201.40190810000058,None,201.40190810000058,None,0.0063011799938976765,0.5063011799938977,201.40190810000058,None,201.40190810000058,None,201.40190810000058,None,201.40190810000058,None,201.40190810000058,None,201.40190810000058,None,0.3999999999999986,4.328,207.91131230001338,None,50,,,,,,,,,,,,,,,,,,,f,23,xuyue,2022_Jan_09_0923,emotion,2021.2.3,60.323490756848344,
181,partial,200,0.5,0,0.5,blue,200,0.5,50,0.5,red,red,blue,red,blue,180,180,185,355,5,175,"[-10, 0]","[6, 0]","[-6, 0]","[10, 0]",200,50,0,200,0,10,10,83,,,,,,,,,,,,,,,,,0.01520257000811398,0.515202570008114,208.98243500001263,None,208.98243500001263,None,right,1.4649229000206105,208.98243500001263,None,208.98243500001263,None,208.98243500001263,None,208.98243500001263,None,208.98243500001263,None,210.51744009999675,None,210.51744009999675,None,0.004335180041380227,0.5043351800413802,210.51744009999675,None,210.51744009999675,None,210.51744009999675,None,210.51744009999675,None,210.51744009999675,None,210.51744009999675,None,216.18651739999768,None,216.18651739999768,None,0.006054280005628243,0.5060542800056282,216.18651739999768,None,216.18651739999768,None,216.18651739999768,None,216.18651739999768,None,216.18651739999768,None,216.18651739999768,None,3.5,1.95,220.2827690000122,None,100,,,,,,,,,,,,,,,,,,,f,23,xuyue,2022_Jan_09_0923,emotion,2021.2.3,60.323490756848344,
428,partial,0,0.2,-50,0.8,red,-50,0.2,-200,0.8,red,blue,red,blue,red,72,72,77,355,77,355,"[-6.7, 1.9]","[9.3, 1.9]","[-9.3, -1.9]","[6.7, -1.9]",-50,-200,0,-50,0,11,11,5,,,,,,,,,,,,,,,,,0.0068382699973881245,0.5068382699973881,221.33866949999356,None,221.33866949999356,None,left,1.913628400012385,221.33866949999356,None,221.33866949999356,None,221.33866949999356,None,221.33866949999356,None,221.33866949999356,None,223.33634519999032,None,223.33634519999032,None,0.0033776800555642694,0.5033776800555643,223.33634519999032,None,223.33634519999032,None,223.33634519999032,None,223.33634519999032,None,223.33634519999032,None,223.33634519999032,None,228.8643863000034,None,228.8643863000034,None,0.0056270800123456866,0.5056270800123457,228.8643863000034,None,228.8643863000034,None,228.8643863000034,None,228.8643863000034,None,228.8643863000034,None,228.8643863000034,None,-5.299999999999997,3.067,234.1206852000032,None,50,,,,,,,,,,,,,,,,,,,f,23,xuyue,2022_Jan_09_0923,emotion,2021.2.3,60.323490756848344,
303,partial,0,0.2,-50,0.8,red,0,0.5,-200,0.5,blue,blue,red,red,blue,72,180,77,355,185,355,"[-6.7, 1.9]","[6, 0]","[-9.3, -1.9]","[10, 0]",-50,0,0,-200,0,12,12,18,,,,,,,,,,,,,,,,,0.005237570003373548,0.5052375700033735,235.18479599998682,None,235.18479599998682,None,left,3.492861599981552,235.18479599998682,None,235.18479599998682,None,235.18479599998682,None,235.18479599998682,None,235.18479599998682,None,238.74966380000114,None,238.74966380000114,None,0.0038641800347249955,0.503864180034725,238.74966380000114,None,238.74966380000114,None,238.74966380000114,None,238.74966380000114,None,238.74966380000114,None,238.74966380000114,None,244.79060259999824,None,244.79060259999824,None,0.006769080006051809,0.5067690800060518,244.79060259999824,None,244.79060259999824,None,244.79060259999824,None,244.79060259999824,None,244.79060259999824,None,244.79060259999824,None,-4.700000000000003,2.472,249.45624080000562,None,0,,,,,,,,,,,,,,,,,,,f,23,xuyue,2022_Jan_09_0923,emotion,2021.2.3,60.323490756848344,
398,partial,200,0.5,0,0.5,red,200,0.2,50,0.8,red,red,blue,blue,red,180,72,5,175,77,355,"[-10, 0]","[9.3, 1.9]","[-6, 0]","[6.7, -1.9]",0,50,200,200,0,13,13,65,,,,,,,,,,,,,,,,,0.006151970010250807,0.5061519700102508,250.5213922999974,None,250.5213922999974,None,right,3.559544100018684,250.5213922999974,None,250.5213922999974,None,250.5213922999974,None,250.5213922999974,None,250.5213922999974,None,254.1532423000026,None,254.1532423000026,None,0.0044115800119470805,0.5044115800119471,254.1532423000026,None,254.1532423000026,None,254.1532423000026,None,254.1532423000026,None,254.1532423000026,None,254.1532423000026,None,259.69405079999706,None,259.69405079999706,None,0.005746280017774552,0.5057462800177746,259.69405079999706,None,259.69405079999706,None,259.69405079999706,None,259.69405079999706,None,259.69405079999706,None,259.69405079999706,None,0.0,2.679,264.5428258999891,None,50,,,,,,,,,,,,,,,,,,,f,23,xuyue,2022_Jan_09_0923,emotion,2021.2.3,60.323490756848344,
318,partial,0,0.5,-50,0.5,red,-50,0.8,-200,0.2,blue,red,blue,red,blue,180,72,5,175,77,355,"[-10, 0]","[6.7, -1.9]","[-6, 0]","[9.3, 1.9]",-50,-50,0,-200,0,14,14,44,,,,,,,,,,,,,,,,,0.005383570009144023,0.505383570009144,265.60869669998647,None,265.60869669998647,None,left,2.046785100013949,265.60869669998647,None,265.60869669998647,None,265.60869669998647,None,265.60869669998647,None,265.60869669998647,None,267.76884110001265,None,267.76884110001265,None,0.004023279994726181,0.5040232799947262,267.76884110001265,None,267.76884110001265,None,267.76884110001265,None,267.76884110001265,None,267.76884110001265,None,267.76884110001265,None,274.3048184000072,None,274.3048184000072,None,0.005765480047557503,0.5057654800475575,274.3048184000072,None,274.3048184000072,None,274.3048184000072,None,274.3048184000072,None,274.3048184000072,None,274.3048184000072,None,-7.399999999999999,2.366,278.85940069999197,None,0,,,,,,,,,,,,,,,,,,,f,23,xuyue,2022_Jan_09_0923,emotion,2021.2.3,60.323490756848344,
94,partial,0,0.2,-200,0.8,blue,-50,0.5,-200,0.5,blue,blue,red,red,blue,72,180,5,67,185,355,"[-6.7, 1.9]","[6, 0]","[-9.3, -1.9]","[10, 0]",0,-50,-200,-200,0,15,15,22,,,,,,,,,,,,,,,,,0.006377569981850684,0.5063775699818507,279.91700849999324,None,279.91700849999324,None,left,4.164681700000074,279.91700849999324,None,279.91700849999324,None,279.91700849999324,None,279.91700849999324,None,279.91700849999324,None,284.15158760000486,None,284.15158760000486,None,0.005596079980023205,0.5055960799800232,284.15158760000486,None,284.15158760000486,None,284.15158760000486,None,284.15158760000486,None,284.15158760000486,None,284.15158760000486,None,290.4714614000113,None,290.4714614000113,None,0.004325869987951592,0.5043258699879516,290.4714614000113,None,290.4714614000113,None,290.4714614000113,None,290.4714614000113,None,290.4714614000113,None,290.4714614000113,None,0.29999999999999716,3.117,295.7400966999994,None,0,,,,,,,,,,,,,,,,,,,f,23,xuyue,2022_Jan_09_0923,emotion,2021.2.3,60.323490756848344,
312,partial,0,0.2,-200,0.8,red,-50,0.8,-200,0.2,blue,blue,red,red,blue,72,72,77,355,77,355,"[-6.7, 1.9]","[6.7, -1.9]","[-9.3, -1.9]","[9.3, 1.9]",-200,-50,0,-200,0,16,16,40,,,,,,,,,,,,,,,,,0.01199197000823915,0.5119919700082392,296.80561879999004,None,296.80561879999004,None,left,4.660145500005456,296.80561879999004,None,296.80561879999004,None,296.80561879999004,None,296.80561879999004,None,296.80561879999004,None,301.5557407999877,None,301.5557407999877,None,0.004241880029439926,0.5042418800294399,301.5557407999877,None,301.5557407999877,None,301.5557407999877,None,301.5557407999877,None,301.5557407999877,None,301.5557407999877,None,307.6507435000094,None,307.6507435000094,None,0.006341380008962005,0.506341380008962,307.6507435000094,None,307.6507435000094,None,307.6507435000094,None,307.6507435000094,None,307.6507435000094,None,307.6507435000094,None,-48.4,2.868,312.63387680001324,None,-200,,,,,,,,,,,,,,,,,,,f,23,xuyue,2022_Jan_09_0923,emotion,2021.2.3,60.323490756848344,
379,partial,50,0.5,0,0.5,red,200,0.2,0,0.8,red,red,blue,blue,red,180,72,5,175,77,355,"[-10, 0]","[9.3, 1.9]","[-6, 0]","[6.7, -1.9]",0,0,50,200,0,17,17,63,,,,,,,,,,,,,,,,,0.009610669978428632,0.5096106699784286,313.682504700002,None,313.682504700002,None,right,3.2605083999806084,313.682504700002,None,313.682504700002,None,313.682504700002,None,313.682504700002,None,313.682504700002,None,317.0409870999865,None,317.0409870999865,None,0.005204879998927936,0.5052048799989279,317.0409870999865,None,317.0409870999865,None,317.0409870999865,None,317.0409870999865,None,317.0409870999865,None,317.0409870999865,None,323.05812269999296,None,323.05812269999296,None,0.005800179991638288,0.5058001799916383,323.05812269999296,None,323.05812269999296,None,323.05812269999296,None,323.05812269999296,None,323.05812269999296,None,323.05812269999296,None,0.7000000000000028,3.275,328.4905202999944,None,-200,,,,,,,,,,,,,,,,,,,f,23,xuyue,2022_Jan_09_0923,emotion,2021.2.3,60.323490756848344,
424,partial,0,0.5,-50,0.5,red,-50,0.5,-200,0.5,red,red,blue,red,blue,180,180,5,175,5,175,"[-10, 0]","[6, 0]","[-6, 0]","[10, 0]",-50,-200,0,-50,0,18,18,29,,,,,,,,,,,,,,,,,0.01082147000124678,0.5108214700012468,329.55504440001096,None,329.55504440001096,None,left,6.617177000007359,329.55504440001096,None,329.55504440001096,None,329.55504440001096,None,329.55504440001096,None,329.55504440001096,None,336.27272609999636,None,336.27272609999636,None,0.0033004799915943295,0.5033004799915943,336.27272609999636,None,336.27272609999636,None,336.27272609999636,None,336.27272609999636,None,336.27272609999636,None,336.27272609999636,None,342.2607626999961,None,342.2607626999961,None,0.005883480014745146,0.5058834800147451,342.2607626999961,None,342.2607626999961,None,342.2607626999961,None,342.2607626999961,None,342.2607626999961,None,342.2607626999961,None,-9.0,1.646,346.0168405000004,None,-250,,,,,,,,,,,,,,,,,,,f,23,xuyue,2022_Jan_09_0923,emotion,2021.2.3,60.323490756848344,
169,partial,50,0.8,0,0.2,blue,200,0.2,0,0.8,red,red,blue,blue,red,72,72,77,355,77,355,"[-9.3, -1.9]","[9.3, 1.9]","[-6.7, 1.9]","[6.7, -1.9]",50,0,0,200,0,19,19,69,,,,,,,,,,,,,,,,,0.00710707000689581,0.5071070700068958,347.0639465000131,None,347.0639465000131,None,right,4.937929499981692,347.0639465000131,None,347.0639465000131,None,347.0639465000131,None,347.0639465000131,None,347.0639465000131,None,352.0797249999887,None,352.0797249999887,None,0.004887980030616745,0.5048879800306167,352.0797249999887,None,352.0797249999887,None,352.0797249999887,None,352.0797249999887,None,352.0797249999887,None,352.0797249999887,None,357.82416379998904,None,357.82416379998904,None,0.00653038002201356,0.5065303800220136,357.82416379998904,None,357.82416379998904,None,357.82416379998904,None,357.82416379998904,None,357.82416379998904,None,357.82416379998904,None,0.29999999999999716,1.966,361.9365456000087,None,-250,,,,,,,,,,,,,,,,,,,f,23,xuyue,2022_Jan_09_0923,emotion,2021.2.3,60.323490756848344,
388,partial,50,0.5,0,0.5,red,200,0.5,50,0.5,red,red,blue,red,blue,180,180,5,175,5,175,"[-10, 0]","[6, 0]","[-6, 0]","[10, 0]",0,50,50,200,0,20,20,79,,,,,,,,,,,,,,,,,0.012418369995430112,0.5124183699954301,363.0091425999999,None,363.0091425999999,None,right,4.044776299997466,363.0091425999999,None,363.0091425999999,None,363.0091425999999,None,363.0091425999999,None,363.0091425999999,None,367.16313870000886,None,367.16313870000886,None,0.002608280017739162,0.5026082800177392,367.16313870000886,None,367.16313870000886,None,367.16313870000886,None,367.16313870000886,None,367.16313870000886,None,367.16313870000886,None,373.15056700000423,None,373.15056700000423,None,0.006077280006138608,0.5060772800061386,373.15056700000423,None,373.15056700000423,None,373.15056700000423,None,373.15056700000423,None,373.15056700000423,None,373.15056700000423,None,2.5,1.918,377.1906913999992,None,-200,,,,,,,,,,,,,,,,,,,f,23,xuyue,2022_Jan_09_0923,emotion,2021.2.3,60.323490756848344,
204,partial,0,0.2,-200,0.8,blue,-50,0.8,-200,0.2,red,blue,red,red,blue,72,72,5,67,5,67,"[-6.7, 1.9]","[6.7, -1.9]","[-9.3, -1.9]","[9.3, 1.9]",0,-200,-200,-50,0,21,21,37,,,,,,,,,,,,,,,,,0.007704870018642396,0.5077048700186424,378.23756469998625,None,378.23756469998625,None,right,5.911958300013794,378.23756469998625,None,378.23756469998625,None,378.23756469998625,None,378.23756469998625,None,378.23756469998625,None,384.2500619000057,None,384.2500619000057,None,0.005567580024944618,0.5055675800249446,384.2500619000057,None,384.2500619000057,None,384.2500619000057,None,384.2500619000057,None,384.2500619000057,None,384.2500619000057,None,390.14703839999856,None,390.14703839999856,None,0.0052931800018996,0.5052931800018996,390.14703839999856,None,390.14703839999856,None,390.14703839999856,None,390.14703839999856,None,390.14703839999856,None,390.14703839999856,None,-49.8,2.525,394.8662263999868,None,-400,,,,,,,,,,,,,,,,,,,f,23,xuyue,2022_Jan_09_0923,emotion,2021.2.3,60.323490756848344,
392,partial,50,0.2,0,0.8,red,200,0.2,50,0.8,red,blue,red,blue,red,72,72,77,355,77,355,"[-6.7, 1.9]","[9.3, 1.9]","[-9.3, -1.9]","[6.7, -1.9]",0,50,50,200,0,22,22,55,,,,,,,,,,,,,,,,,0.0062349700019694865,0.5062349700019695,395.91314049999346,None,395.91314049999346,None,right,4.897141099994769,395.91314049999346,None,395.91314049999346,None,395.91314049999346,None,395.91314049999346,None,395.91314049999346,None,400.8849656000093,None,400.8849656000093,None,0.006628380011534318,0.5066283800115343,400.8849656000093,None,400.8849656000093,None,400.8849656000093,None,400.8849656000093,None,400.8849656000093,None,400.8849656000093,None,406.510282800009,None,406.510282800009,None,0.00687408001977019,0.5068740800197702,406.510282800009,None,406.510282800009,None,406.510282800009,None,406.510282800009,None,406.510282800009,None,406.510282800009,None,-0.10000000000000142,2.613,411.3000269999902,None,-350,,,,,,,,,,,,,,,,,,,f,23,xuyue,2022_Jan_09_0923,emotion,2021.2.3,60.323490756848344,
209,partial,0,0.5,-50,0.5,blue,-50,0.2,-200,0.8,red,red,blue,blue,red,180,72,185,355,77,355,"[-10, 0]","[9.3, 1.9]","[-6, 0]","[6.7, -1.9]",0,-200,-50,-50,0,23,23,11,,,,,,,,,,,,,,,,,0.005709069984732196,0.5057090699847322,412.3555788999947,None,412.3555788999947,None,left,1.6452147999953013,412.3555788999947,None,412.3555788999947,None,412.3555788999947,None,412.3555788999947,None,412.3555788999947,None,414.0791223999986,None,414.0791223999986,None,0.0035807800304610282,0.503580780030461,414.0791223999986,None,414.0791223999986,None,414.0791223999986,None,414.0791223999986,None,414.0791223999986,None,414.0791223999986,None,419.99868859999697,None,419.99868859999697,None,0.0068954800080973655,0.5068954800080974,419.99868859999697,None,419.99868859999697,None,419.99868859999697,None,419.99868859999697,None,419.99868859999697,None,419.99868859999697,None,0.20000000000000284,2.143,424.30526379999355,None,-350,,,,,,,,,,,,,,,,,,,f,23,xuyue,2022_Jan_09_0923,emotion,2021.2.3,60.323490756848344,
68,partial,50,0.2,0,0.8,blue,200,0.2,50,0.8,blue,blue,red,blue,red,72,72,5,67,5,67,"[-6.7, 1.9]","[9.3, 1.9]","[-9.3, -1.9]","[6.7, -1.9]",50,200,0,50,0,24,24,58,,,,,,,,,,,,,,,,,0.014499369979603216,0.5144993699796032,425.3651370999869,None,425.3651370999869,None,right,1.3927325000113342,425.3651370999869,None,425.3651370999869,None,425.3651370999869,None,425.3651370999869,None,425.3651370999869,None,426.8605872000044,None,426.8605872000044,None,0.006051980017218739,0.5060519800172187,426.8605872000044,None,426.8605872000044,None,426.8605872000044,None,426.8605872000044,None,426.8605872000044,None,426.8605872000044,None,432.2005949000013,None,432.2005949000013,None,0.007560980011476204,0.5075609800114762,432.2005949000013,None,432.2005949000013,None,432.2005949000013,None,432.2005949000013,None,432.2005949000013,None,432.2005949000013,None,49.2,3.072,437.4191431000072,None,-150,,,,,,,,,,,,,,,,,,,f,23,xuyue,2022_Jan_09_0923,emotion,2021.2.3,60.323490756848344,
306,partial,0,0.8,-50,0.2,red,0,0.5,-200,0.5,blue,red,blue,red,blue,72,180,5,67,185,355,"[-9.3, -1.9]","[6, 0]","[-6.7, 1.9]","[10, 0]",-50,0,0,-200,0,25,25,30,,,,,,,,,,,,,,,,,0.0071709699695929885,0.507170969969593,438.47481600000174,None,438.47481600000174,None,left,2.0136009999841917,438.47481600000174,None,438.47481600000174,None,438.47481600000174,None,438.47481600000174,None,438.47481600000174,None,440.5898293000064,None,440.5898293000064,None,0.004501579969655722,0.5045015799696557,440.5898293000064,None,440.5898293000064,None,440.5898293000064,None,440.5898293000064,None,440.5898293000064,None,440.5898293000064,None,446.0399873999995,None,446.0399873999995,None,0.006238980015041307,0.5062389800150413,446.0399873999995,None,446.0399873999995,None,446.0399873999995,None,446.0399873999995,None,446.0399873999995,None,446.0399873999995,None,-1.0,4.637,452.8534634000098,None,-200,,,,,,,,,,,,,,,,,,,f,23,xuyue,2022_Jan_09_0923,emotion,2021.2.3,60.323490756848344,
314,partial,0,0.8,-200,0.2,red,-50,0.2,-200,0.8,blue,red,blue,blue,red,72,72,5,67,5,67,"[-9.3, -1.9]","[9.3, 1.9]","[-6.7, 1.9]","[6.7, -1.9]",-200,-50,0,-200,0,26,26,16,,,,,,,,,,,,,,,,,0.007057269976940006,0.50705726997694,453.91239620000124,None,453.91239620000124,None,left,1.904889400000684,453.91239620000124,None,453.91239620000124,None,453.91239620000124,None,453.91239620000124,None,453.91239620000124,None,455.92622739999206,None,455.92622739999206,None,0.003666080010589212,0.5036660800105892,455.92622739999206,None,455.92622739999206,None,455.92622739999206,None,455.92622739999206,None,455.92622739999206,None,455.92622739999206,None,461.48129399999743,None,461.48129399999743,None,0.0054568800260312855,0.5054568800260313,461.48129399999743,None,461.48129399999743,None,461.48129399999743,None,461.48129399999743,None,461.48129399999743,None,461.48129399999743,None,-23.9,2.886,466.5664209999959,None,-400,,,,,,,,,,,,,,,,,,,f,23,xuyue,2022_Jan_09_0923,emotion,2021.2.3,60.323490756848344,
384,partial,50,0.2,0,0.8,red,200,0.5,0,0.5,red,blue,red,red,blue,72,180,77,355,5,175,"[-6.7, 1.9]","[6, 0]","[-9.3, -1.9]","[10, 0]",0,0,50,200,0,27,27,75,,,,,,,,,,,,,,,,,0.009816669975407422,0.5098166699754074,467.6189970000123,None,467.6189970000123,None,right,1.330942500004312,467.6189970000123,None,467.6189970000123,None,467.6189970000123,None,467.6189970000123,None,467.6189970000123,None,469.0225058000069,None,469.0225058000069,None,0.004684579995227978,0.504684579995228,469.0225058000069,None,469.0225058000069,None,469.0225058000069,None,469.0225058000069,None,469.0225058000069,None,469.0225058000069,None,474.8627075999975,None,474.8627075999975,None,0.007389780017547309,0.5073897800175473,474.8627075999975,None,474.8627075999975,None,474.8627075999975,None,474.8627075999975,None,474.8627075999975,None,474.8627075999975,None,-0.10000000000000142,5.876,482.9106824999908,None,-400,,,,,,,,,,,,,,,,,,,f,23,xuyue,2022_Jan_09_0923,emotion,2021.2.3,60.323490756848344,
64,partial,50,0.5,0,0.5,blue,200,0.5,50,0.5,blue,red,blue,red,blue,180,180,185,355,185,355,"[-10, 0]","[6, 0]","[-6, 0]","[10, 0]",50,200,0,50,0,28,28,82,,,,,,,,,,,,,,,,,0.01511227001901716,0.5151122700190172,483.9703826000041,None,483.9703826000041,None,right,1.2545148999779485,483.9703826000041,None,483.9703826000041,None,483.9703826000041,None,483.9703826000041,None,483.9703826000041,None,485.3052553999878,None,485.3052553999878,None,0.0049607800028752536,0.5049607800028753,485.3052553999878,None,485.3052553999878,None,485.3052553999878,None,485.3052553999878,None,485.3052553999878,None,485.3052553999878,None,491.21886679998715,None,491.21886679998715,None,0.005434980004793033,0.505434980004793,491.21886679998715,None,491.21886679998715,None,491.21886679998715,None,491.21886679998715,None,491.21886679998715,None,491.21886679998715,None,12.700000000000003,4.715,498.0583481999929,None,-200,,,,,,,,,,,,,,,,,,,f,23,xuyue,2022_Jan_09_0923,emotion,2021.2.3,60.323490756848344,
395,partial,50,0.8,0,0.2,red,200,0.2,50,0.8,red,red,blue,blue,red,72,72,5,67,77,355,"[-9.3, -1.9]","[9.3, 1.9]","[-6.7, 1.9]","[6.7, -1.9]",0,50,50,200,0,29,29,67,,,,,,,,,,,,,,,,,0.00924346997635439,0.5092434699763544,499.10840699999244,None,499.10840699999244,None,right,1.2569490000023507,499.10840699999244,None,499.10840699999244,None,499.10840699999244,None,499.10840699999244,None,499.10840699999244,None,500.4435637000133,None,500.4435637000133,None,0.0037744800210930407,0.503774480021093,500.4435637000133,None,500.4435637000133,None,500.4435637000133,None,500.4435637000133,None,500.4435637000133,None,500.4435637000133,None,506.90170919999946,None,506.90170919999946,None,0.0051112799847032875,0.5051112799847033,506.90170919999946,None,506.90170919999946,None,506.90170919999946,None,506.90170919999946,None,506.90170919999946,None,506.90170919999946,None,2.0,2.84,512.0300625000091,None,-150,,,,,,,,,,,,,,,,,,,f,23,xuyue,2022_Jan_09_0923,emotion,2021.2.3,60.323490756848344,
89,partial,0,0.8,-50,0.2,blue,0,0.8,-200,0.2,blue,red,blue,red,blue,72,72,77,355,77,355,"[-9.3, -1.9]","[6.7, -1.9]","[-6.7, 1.9]","[9.3, 1.9]",0,0,-50,-200,0,30,30,48,,,,,,,,,,,,,,,,,0.005402469978434965,0.505402469978435,513.0837864000059,None,513.0837864000059,None,left,1.3494376000016928,513.0837864000059,None,513.0837864000059,None,513.0837864000059,None,513.0837864000059,None,513.0837864000059,None,514.5102411000116,None,514.5102411000116,None,0.002932580013293773,0.5029325800132938,514.5102411000116,None,514.5102411000116,None,514.5102411000116,None,514.5102411000116,None,514.5102411000116,None,514.5102411000116,None,520.7424086999963,None,520.7424086999963,None,0.0066016800119541585,0.5066016800119542,520.7424086999963,None,520.7424086999963,None,520.7424086999963,None,520.7424086999963,None,520.7424086999963,None,520.7424086999963,None,0.20000000000000284,2.042,524.9434284000017,None,-150,,,,,,,,,,,,,,,,,,,f,23,xuyue,2022_Jan_09_0923,emotion,2021.2.3,60.323490756848344,
186,partial,200,0.2,0,0.8,blue,200,0.8,50,0.2,red,blue,red,red,blue,72,72,5,67,5,67,"[-6.7, 1.9]","[6.7, -1.9]","[-9.3, -1.9]","[9.3, 1.9]",200,50,0,200,0,31,31,95,,,,,,,,,,,,,,,,,0.010145670006750152,0.5101456700067502,526.0080947999959,None,526.0080947999959,None,right,3.069015400018543,526.0080947999959,None,526.0080947999959,None,526.0080947999959,None,526.0080947999959,None,526.0080947999959,None,529.182522499992,None,529.182522499992,None,0.004754980007419363,0.5047549800074194,529.182522499992,None,529.182522499992,None,529.182522499992,None,529.182522499992,None,529.182522499992,None,529.182522499992,None,534.7538461000076,None,534.7538461000076,None,0.005058679991634563,0.5050586799916346,534.7538461000076,None,534.7538461000076,None,534.7538461000076,None,534.7538461000076,None,534.7538461000076,None,534.7538461000076,None,2.200000000000003,2.663,539.5664723000082,None,-100,,,,,,,,,,,,,,,,,,,f,23,xuyue,2022_Jan_09_0923,emotion,2021.2.3,60.323490756848344,
409,partial,0,0.2,-50,0.8,red,0,0.2,-200,0.8,red,blue,red,blue,red,72,72,77,355,77,355,"[-6.7, 1.9]","[9.3, 1.9]","[-9.3, -1.9]","[6.7, -1.9]",-50,-200,0,0,0,32,32,3,,,,,,,,,,,,,,,,,0.006360669998684898,0.5063606699986849,540.6034656999982,None,540.6034656999982,None,left,1.696400300017558,540.6034656999982,None,540.6034656999982,None,540.6034656999982,None,540.6034656999982,None,540.6034656999982,None,542.3770595999958,None,542.3770595999958,None,0.0028674800123553723,0.5028674800123554,542.3770595999958,None,542.3770595999958,None,542.3770595999958,None,542.3770595999958,None,542.3770595999958,None,542.3770595999958,None,548.8539847999928,None,548.8539847999928,None,0.00709027997800149,0.5070902799780015,548.8539847999928,None,548.8539847999928,None,548.8539847999928,None,548.8539847999928,None,548.8539847999928,None,548.8539847999928,None,-1.2000000000000028,5.335,556.3821523000079,None,-150,,,,,,,,,,,,,,,,,,,f,23,xuyue,2022_Jan_09_0923,emotion,2021.2.3,60.323490756848344,
399,partial,200,0.5,0,0.5,red,200,0.8,50,0.2,red,red,blue,red,blue,180,72,5,175,5,67,"[-10, 0]","[6.7, -1.9]","[-6, 0]","[9.3, 1.9]",0,50,200,200,0,33,33,101,,,,,,,,,,,,,,,,,0.008411870017880574,0.5084118700178806,557.4361620999989,None,557.4361620999989,None,right,2.2087207000004128,557.4361620999989,None,557.4361620999989,None,557.4361620999989,None,557.4361620999989,None,557.4361620999989,None,559.720373899996,None,559.720373899996,None,0.0024914800305850804,0.5024914800305851,559.720373899996,None,559.720373899996,None,559.720373899996,None,559.720373899996,None,559.720373899996,None,559.720373899996,None,565.8127845000126,None,565.8127845000126,None,0.004722680023405701,0.5047226800234057,565.8127845000126,None,565.8127845000126,None,565.8127845000126,None,565.8127845000126,None,565.8127845000126,None,565.8127845000126,None,1.7999999999999972,3.7,571.6837443000113,None,-100,,,,,,,,,,,,,,,,,,,f,23,xuyue,2022_Jan_09_0923,emotion,2021.2.3,60.323490756848344,
56,partial,50,0.5,0,0.5,blue,200,0.8,0,0.2,blue,red,blue,red,blue,180,72,185,355,77,355,"[-10, 0]","[6.7, -1.9]","[-6, 0]","[9.3, 1.9]",50,200,0,0,0,34,34,96,,,,,,,,,,,,,,,,,0.009090169973205775,0.5090901699732058,572.7419881999958,None,572.7419881999958,None,right,1.540715499984799,572.7419881999958,None,572.7419881999958,None,572.7419881999958,None,572.7419881999958,None,572.7419881999958,None,574.3576119999925,None,574.3576119999925,None,0.00481758001842536,0.5048175800184254,574.3576119999925,None,574.3576119999925,None,574.3576119999925,None,574.3576119999925,None,574.3576119999925,None,574.3576119999925,None,580.7474328000098,None,580.7474328000098,None,0.006672079965937883,0.5066720799659379,580.7474328000098,None,580.7474328000098,None,580.7474328000098,None,580.7474328000098,None,580.7474328000098,None,580.7474328000098,None,50.0,2.727,585.6704931000131,None,100,,,,,,,,,,,,,,,,,,,f,23,xuyue,2022_Jan_09_0923,emotion,2021.2.3,60.323490756848344,
173,partial,50,0.5,0,0.5,blue,200,0.2,50,0.8,red,red,blue,blue,red,180,72,185,355,77,355,"[-10, 0]","[9.3, 1.9]","[-6, 0]","[6.7, -1.9]",50,50,0,200,0,35,35,61,,,,,,,,,,,,,,,,,0.007891869987361133,0.5078918699873611,586.7229863000102,None,586.7229863000102,None,right,3.368981999985408,586.7229863000102,None,586.7229863000102,None,586.7229863000102,None,586.7229863000102,None,586.7229863000102,None,590.1749726000126,None,590.1749726000126,None,0.004544480005279183,0.5045444800052792,590.1749726000126,None,590.1749726000126,None,590.1749726000126,None,590.1749726000126,None,590.1749726000126,None,590.1749726000126,None,596.0224859000009,None,596.0224859000009,None,0.0059254800144117326,0.5059254800144117,596.0224859000009,None,596.0224859000009,None,596.0224859000009,None,596.0224859000009,None,596.0224859000009,None,596.0224859000009,None,7.899999999999999,1.379,599.5966884999943,None,150,,,,,,,,,,,,,,,,,,,f,23,xuyue,2022_Jan_09_0923,emotion,2021.2.3,60.323490756848344,
416,partial,0,0.5,-200,0.5,red,-50,0.2,-200,0.8,red,red,blue,blue,red,180,72,5,175,77,355,"[-10, 0]","[9.3, 1.9]","[-6, 0]","[6.7, -1.9]",-200,-200,0,-50,0,36,36,7,,,,,,,,,,,,,,,,,0.005682269955286756,0.5056822699552868,600.6468909000105,None,600.6468909000105,None,left,7.485898299986729,600.6468909000105,None,600.6468909000105,None,600.6468909000105,None,600.6468909000105,None,600.6468909000105,None,608.2032619999954,None,608.2032619999954,None,0.003704480011947453,0.5037044800119475,608.2032619999954,None,608.2032619999954,None,608.2032619999954,None,608.2032619999954,None,608.2032619999954,None,608.2032619999954,None,614.663029599993,None,614.663029599993,None,0.0056125800183508545,0.5056125800183509,614.663029599993,None,614.663029599993,None,614.663029599993,None,614.663029599993,None,614.663029599993,None,614.663029599993,None,-49.5,3.488,620.3241722999956,None,-50,,,,,,,,,,,,,,,,,,,f,23,xuyue,2022_Jan_09_0923,emotion,2021.2.3,60.323490756848344,
277,partial,50,0.8,0,0.2,red,200,0.2,0,0.8,blue,red,blue,blue,red,72,72,5,67,5,67,"[-9.3, -1.9]","[9.3, 1.9]","[-6.7, 1.9]","[6.7, -1.9]",0,200,50,0,0,37,37,66,,,,,,,,,,,,,,,,,0.002183069969760254,0.5021830699697603,621.3873179999937,None,621.3873179999937,None,right,2.7999206999957096,621.3873179999937,None,621.3873179999937,None,621.3873179999937,None,621.3873179999937,None,621.3873179999937,None,624.2630497000064,None,624.2630497000064,None,0.004228679987136275,0.5042286799871363,624.2630497000064,None,624.2630497000064,None,624.2630497000064,None,624.2630497000064,None,624.2630497000064,None,624.2630497000064,None,629.7555736000068,None,629.7555736000068,None,0.0071556800394319,0.5071556800394319,629.7555736000068,None,629.7555736000068,None,629.7555736000068,None,629.7555736000068,None,629.7555736000068,None,629.7555736000068,None,50.0,2.914,634.8456455999985,None,150,,,,,,,,,,,,,,,,,,,f,23,xuyue,2022_Jan_09_0923,emotion,2021.2.3,60.323490756848344,
170,partial,50,0.8,0,0.2,blue,200,0.8,0,0.2,red,red,blue,red,blue,72,72,77,355,5,67,"[-9.3, -1.9]","[6.7, -1.9]","[-6.7, 1.9]","[9.3, 1.9]",50,0,0,200,0,38,38,105,,,,,,,,,,,,,,,,,0.008189670013962314,0.5081896700139623,635.8899684000062,None,635.8899684000062,None,right,1.5342709999822546,635.8899684000062,None,635.8899684000062,None,635.8899684000062,None,635.8899684000062,None,635.8899684000062,None,637.5412888000137,None,637.5412888000137,None,0.0016865800134837627,0.5016865800134838,637.5412888000137,None,637.5412888000137,None,637.5412888000137,None,637.5412888000137,None,637.5412888000137,None,637.5412888000137,None,643.3282979000069,None,643.3282979000069,None,0.006986080028582364,0.5069860800285824,643.3282979000069,None,643.3282979000069,None,643.3282979000069,None,643.3282979000069,None,643.3282979000069,None,643.3282979000069,None,13.700000000000003,2.741,648.2173623999988,None,150,,,,,,,,,,,,,,,,,,,f,23,xuyue,2022_Jan_09_0923,emotion,2021.2.3,60.323490756848344,
412,partial,0,0.8,-50,0.2,red,0,0.2,-200,0.8,red,red,blue,blue,red,72,72,5,67,77,355,"[-9.3, -1.9]","[9.3, 1.9]","[-6.7, 1.9]","[6.7, -1.9]",-50,-200,0,0,0,39,39,15,,,,,,,,,,,,,,,,,0.013681569951586425,0.5136815699515864,649.2765927999862,None,649.2765927999862,None,right,7.041165600006934,649.2765927999862,None,649.2765927999862,None,649.2765927999862,None,649.2765927999862,None,649.2765927999862,None,656.4072082999919,None,656.4072082999919,None,0.0044689800415653735,0.5044689800415654,656.4072082999919,None,656.4072082999919,None,656.4072082999919,None,656.4072082999919,None,656.4072082999919,None,656.4072082999919,None,662.843904999987,None,662.843904999987,None,0.00641768000787124,0.5064176800078712,662.843904999987,None,662.843904999987,None,662.843904999987,None,662.843904999987,None,662.843904999987,None,662.843904999987,None,-50.0,3.058,668.0373268999974,None,-50,,,,,,,,,,,,,,,,,,,f,23,xuyue,2022_Jan_09_0923,emotion,2021.2.3,60.323490756848344,
178,partial,50,0.8,0,0.2,blue,200,0.5,50,0.5,red,red,blue,red,blue,72,180,77,355,5,175,"[-9.3, -1.9]","[6, 0]","[-6.7, 1.9]","[10, 0]",50,50,0,200,0,40,40,85,,,,,,,,,,,,,,,,,0.006082169973524287,0.5060821699735243,669.0773560999951,None,669.0773560999951,None,right,2.5216535000072327,669.0773560999951,None,669.0773560999951,None,669.0773560999951,None,669.0773560999951,None,669.0773560999951,None,671.6767552999954,None,671.6767552999954,None,0.004884580033831298,0.5048845800338313,671.6767552999954,None,671.6767552999954,None,671.6767552999954,None,671.6767552999954,None,671.6767552999954,None,671.6767552999954,None,677.7556945999968,None,677.7556945999968,None,0.006804180011386052,0.506804180011386,677.7556945999968,None,677.7556945999968,None,677.7556945999968,None,677.7556945999968,None,677.7556945999968,None,677.7556945999968,None,5.200000000000003,2.677,682.6069558000017,None,0,,,,,,,,,,,,,,,,,,,f,23,xuyue,2022_Jan_09_0923,emotion,2021.2.3,60.323490756848344,
421,partial,0,0.8,-200,0.2,red,-50,0.5,-200,0.5,red,red,blue,red,blue,72,180,5,67,5,175,"[-9.3, -1.9]","[6, 0]","[-6.7, 1.9]","[10, 0]",-200,-200,0,-50,0,41,41,31,,,,,,,,,,,,,,,,,0.006125569983851165,0.5061255699838512,683.6555561000132,None,683.6555561000132,None,left,2.3641168999893125,683.6555561000132,None,683.6555561000132,None,683.6555561000132,None,683.6555561000132,None,683.6555561000132,None,686.1061589999881,None,686.1061589999881,None,0.004156480019446462,0.5041564800194465,686.1061589999881,None,686.1061589999881,None,686.1061589999881,None,686.1061589999881,None,686.1061589999881,None,686.1061589999881,None,691.4114486000035,None,691.4114486000035,None,0.004631980002159253,0.5046319800021593,691.4114486000035,None,691.4114486000035,None,691.4114486000035,None,691.4114486000035,None,691.4114486000035,None,691.4114486000035,None,-49.3,2.719,696.3227520000073,None,-200,,,,,,,,,,,,,,,,,,,f,23,xuyue,2022_Jan_09_0923,emotion,2021.2.3,60.323490756848344,
387,partial,50,0.8,0,0.2,red,200,0.5,0,0.5,red,red,blue,red,blue,72,180,5,67,5,175,"[-9.3, -1.9]","[6, 0]","[-6.7, 1.9]","[10, 0]",0,0,50,200,0,42,42,87,,,,,,,,,,,,,,,,,0.009143269999185577,0.5091432699991856,697.3794362999906,None,697.3794362999906,None,right,1.4664622000127565,697.3794362999906,None,697.3794362999906,None,697.3794362999906,None,697.3794362999906,None,697.3794362999906,None,698.9195176000067,None,698.9195176000067,None,0.0038655800162814558,0.5038655800162815,698.9195176000067,None,698.9195176000067,None,698.9195176000067,None,698.9195176000067,None,698.9195176000067,None,698.9195176000067,None,705.0033434999932,None,705.0033434999932,None,0.006262580020120367,0.5062625800201204,705.0033434999932,None,705.0033434999932,None,705.0033434999932,None,705.0033434999932,None,705.0033434999932,None,705.0033434999932,None,0.5,1.813,708.9726125999878,None,-200,,,,,,,,,,,,,,,,,,,f,23,xuyue,2022_Jan_09_0923,emotion,2021.2.3,60.323490756848344,
199,partial,0,0.5,-200,0.5,blue,-50,0.5,-200,0.5,red,red,blue,red,blue,180,180,185,355,5,175,"[-10, 0]","[6, 0]","[-6, 0]","[10, 0]",0,-200,-200,-50,0,43,43,25,,,,,,,,,,,,,,,,,0.002686569991055876,0.5026865699910559,710.0413969999936,None,710.0413969999936,None,left,2.167024800000945,710.0413969999936,None,710.0413969999936,None,710.0413969999936,None,710.0413969999936,None,710.0413969999936,None,712.2985780999879,None,712.2985780999879,None,0.0024318800133187324,0.5024318800133187,712.2985780999879,None,712.2985780999879,None,712.2985780999879,None,712.2985780999879,None,712.2985780999879,None,712.2985780999879,None,718.7164890000131,None,718.7164890000131,None,0.004999680008040741,0.5049996800080407,718.7164890000131,None,718.7164890000131,None,718.7164890000131,None,718.7164890000131,None,718.7164890000131,None,718.7164890000131,None,-0.5,2.95,723.7671403000131,None,-200,,,,,,,,,,,,,,,,,,,f,23,xuyue,2022_Jan_09_0923,emotion,2021.2.3,60.323490756848344,
299,partial,0,0.5,-50,0.5,red,0,0.8,-200,0.2,blue,red,blue,red,blue,180,72,5,175,77,355,"[-10, 0]","[6.7, -1.9]","[-6, 0]","[9.3, 1.9]",-50,0,0,-200,0,44,44,42,,,,,,,,,,,,,,,,,0.016143070010002702,0.5161430700100027,724.8306550999987,None,724.8306550999987,None,left,2.378456400008872,724.8306550999987,None,724.8306550999987,None,724.8306550999987,None,724.8306550999987,None,724.8306550999987,None,727.2974731999857,None,727.2974731999857,None,0.0044109800073783845,0.5044109800073784,727.2974731999857,None,727.2974731999857,None,727.2974731999857,None,727.2974731999857,None,727.2974731999857,None,727.2974731999857,None,733.1905331999878,None,733.1905331999878,None,0.005205280031077564,0.5052052800310776,733.1905331999878,None,733.1905331999878,None,733.1905331999878,None,733.1905331999878,None,733.1905331999878,None,733.1905331999878,None,-23.1,1.796,737.0999486999935,None,-250,,,,,,,,,,,,,,,,,,,f,23,xuyue,2022_Jan_09_0923,emotion,2021.2.3,60.323490756848344,
274,partial,50,0.2,0,0.8,red,200,0.2,0,0.8,blue,blue,red,blue,red,72,72,77,355,5,67,"[-6.7, 1.9]","[9.3, 1.9]","[-9.3, -1.9]","[6.7, -1.9]",0,200,50,0,0,45,45,54,,,,,,,,,,,,,,,,,0.009838769998168573,0.5098387699981686,738.1479877000093,None,738.1479877000093,None,right,1.7834851999941748,738.1479877000093,None,738.1479877000093,None,738.1479877000093,None,738.1479877000093,None,738.1479877000093,None,740.0195519000117,None,740.0195519000117,None,0.0033569800143595785,0.5033569800143596,740.0195519000117,None,740.0195519000117,None,740.0195519000117,None,740.0195519000117,None,740.0195519000117,None,740.0195519000117,None,745.4413086000131,None,745.4413086000131,None,0.007599279982969165,0.5075992799829692,745.4413086000131,None,745.4413086000131,None,745.4413086000131,None,745.4413086000131,None,745.4413086000131,None,745.4413086000131,None,50.0,1.867,749.4877467000042,None,-50,,,,,,,,,,,,,,,,,,,f,23,xuyue,2022_Jan_09_0923,emotion,2021.2.3,60.323490756848344,
74,partial,200,0.5,0,0.5,blue,200,0.2,50,0.8,blue,red,blue,blue,red,180,72,185,355,5,67,"[-10, 0]","[9.3, 1.9]","[-6, 0]","[6.7, -1.9]",200,200,0,50,0,46,46,62,,,,,,,,,,,,,,,,,0.007386469951597974,0.507386469951598,750.5420890999958,None,750.5420890999958,None,right,1.959317300003022,750.5420890999958,None,750.5420890999958,None,750.5420890999958,None,750.5420890999958,None,750.5420890999958,None,752.6031702999899,None,752.6031702999899,None,0.004707280022557825,0.5047072800225578,752.6031702999899,None,752.6031702999899,None,752.6031702999899,None,752.6031702999899,None,752.6031702999899,None,752.6031702999899,None,758.4996869000024,None,758.4996869000024,None,0.006495980022009462,0.5064959800220095,758.4996869000024,None,758.4996869000024,None,758.4996869000024,None,758.4996869000024,None,758.4996869000024,None,758.4996869000024,None,50.0,2.463,763.1749383000133,None,150,,,,,,,,,,,,,,,,,,,f,23,xuyue,2022_Jan_09_0923,emotion,2021.2.3,60.323490756848344,
93,partial,0,0.5,-200,0.5,blue,-50,0.8,-200,0.2,blue,red,blue,red,blue,180,72,185,355,77,355,"[-10, 0]","[6.7, -1.9]","[-6, 0]","[9.3, 1.9]",0,-50,-200,-200,0,47,47,46,,,,,,,,,,,,,,,,,0.005304369959048927,0.5053043699590489,764.2277881999908,None,764.2277881999908,None,left,3.675700699997833,764.2277881999908,None,764.2277881999908,None,764.2277881999908,None,764.2277881999908,None,764.2277881999908,None,767.9804978999891,None,767.9804978999891,None,0.0038820800255052745,0.5038820800255053,767.9804978999891,None,767.9804978999891,None,767.9804978999891,None,767.9804978999891,None,767.9804978999891,None,767.9804978999891,None,774.0166449999961,None,774.0166449999961,None,0.004379680030979216,0.5043796800309792,774.0166449999961,None,774.0166449999961,None,774.0166449999961,None,774.0166449999961,None,774.0166449999961,None,774.0166449999961,None,49.5,2.371,778.5563244000077,None,150,,,,,,,,,,,,,,,,,,,f,23,xuyue,2022_Jan_09_0923,emotion,2021.2.3,60.323490756848344,
76,partial,200,0.2,0,0.8,blue,200,0.5,50,0.5,blue,blue,red,red,blue,72,180,5,67,185,355,"[-6.7, 1.9]","[6, 0]","[-9.3, -1.9]","[10, 0]",200,200,0,50,0,48,48,74,,,,,,,,,,,,,,,,,0.012543570017442107,0.5125435700174421,779.6237568999932,None,779.6237568999932,None,right,2.7195527000003494,779.6237568999932,None,779.6237568999932,None,779.6237568999932,None,779.6237568999932,None,779.6237568999932,None,782.4149616000068,None,782.4149616000068,None,0.004681780032115057,0.5046817800321151,782.4149616000068,None,782.4149616000068,None,782.4149616000068,None,782.4149616000068,None,782.4149616000068,None,782.4149616000068,None,788.0488727999909,None,788.0488727999909,None,0.003858080046484247,0.5038580800464842,788.0488727999909,None,788.0488727999909,None,788.0488727999909,None,788.0488727999909,None,788.0488727999909,None,788.0488727999909,None,50.0,2.57,792.7411898999999,None,350,,,,,,,,,,,,,,,,,,,f,23,xuyue,2022_Jan_09_0923,emotion,2021.2.3,60.323490756848344,
418,partial,0,0.2,-200,0.8,red,-50,0.5,-200,0.5,red,blue,red,red,blue,72,180,77,355,5,175,"[-6.7, 1.9]","[6, 0]","[-9.3, -1.9]","[10, 0]",-200,-200,0,-50,0,49,49,19,,,,,,,,,,,,,,,,,0.006112069997470826,0.5061120699974708,793.7849692000018,None,793.7849692000018,None,left,3.472020299988799,793.7849692000018,None,793.7849692000018,None,793.7849692000018,None,793.7849692000018,None,793.7849692000018,None,797.366064700007,None,797.366064700007,None,0.003503280022414401,0.5035032800224144,797.366064700007,None,797.366064700007,None,797.366064700007,None,797.366064700007,None,797.366064700007,None,797.366064700007,None,803.1305450999935,None,803.1305450999935,None,0.00535838000359945,0.5053583800035994,803.1305450999935,None,803.1305450999935,None,803.1305450999935,None,803.1305450999935,None,803.1305450999935,None,803.1305450999935,None,-50.0,2.703,808.0298993999895,None,150,,,,,,,,,,,,,,,,,,,f,23,xuyue,2022_Jan_09_0923,emotion,2021.2.3,60.323490756848344,
107,partial,0,0.8,-50,0.2,blue,-50,0.2,-200,0.8,blue,red,blue,blue,red,72,72,77,355,5,67,"[-9.3, -1.9]","[9.3, 1.9]","[-6.7, 1.9]","[6.7, -1.9]",0,-50,-50,-200,0,50,50,14,,,,,,,,,,,,,,,,,0.004783969954587519,0.5047839699545875,809.086641700007,None,809.086641700007,None,left,2.4941953999805264,809.086641700007,None,809.086641700007,None,809.086641700007,None,809.086641700007,None,809.086641700007,None,811.6545335999981,None,811.6545335999981,None,0.0041749800147954375,0.5041749800147954,811.6545335999981,None,811.6545335999981,None,811.6545335999981,None,811.6545335999981,None,811.6545335999981,None,811.6545335999981,None,817.5762901999988,None,817.5762901999988,None,0.005177880026167259,0.5051778800261673,817.5762901999988,None,817.5762901999988,None,817.5762901999988,None,817.5762901999988,None,817.5762901999988,None,817.5762901999988,None,50.0,1.725,821.4933610000007,None,150,,,,,,,,,,,,,,,,,,,f,23,xuyue,2022_Jan_09_0923,emotion,2021.2.3,60.323490756848344,
105,partial,0,0.2,-50,0.8,blue,-50,0.8,-200,0.2,blue,blue,red,red,blue,72,72,5,67,77,355,"[-6.7, 1.9]","[6.7, -1.9]","[-9.3, -1.9]","[9.3, 1.9]",0,-50,-50,-200,0,51,51,38,,,,,,,,,,,,,,,,,0.00659436997375451,0.5065943699737545,822.5585005999892,None,822.5585005999892,None,left,3.853527800005395,822.5585005999892,None,822.5585005999892,None,822.5585005999892,None,822.5585005999892,None,822.5585005999892,None,826.4815458999947,None,826.4815458999947,None,0.0030244799854699522,0.50302447998547,826.4815458999947,None,826.4815458999947,None,826.4815458999947,None,826.4815458999947,None,826.4815458999947,None,826.4815458999947,None,831.8556366999983,None,831.8556366999983,None,0.005691379978088662,0.5056913799780887,831.8556366999983,None,831.8556366999983,None,831.8556366999983,None,831.8556366999983,None,831.8556366999983,None,831.8556366999983,None,50.0,1.944,835.9074611999968,None,150,,,,,,,,,,,,,,,,,,,f,23,xuyue,2022_Jan_09_0923,emotion,2021.2.3,60.323490756848344,
311,partial,0,0.2,-200,0.8,red,-50,0.2,-200,0.8,blue,blue,red,blue,red,72,72,77,355,5,67,"[-6.7, 1.9]","[9.3, 1.9]","[-9.3, -1.9]","[6.7, -1.9]",-200,-50,0,-200,0,52,52,4,,,,,,,,,,,,,,,,,0.01096656997106038,0.5109665699710604,836.9773161000048,None,836.9773161000048,None,left,2.5922532999829855,836.9773161000048,None,836.9773161000048,None,836.9773161000048,None,836.9773161000048,None,836.9773161000048,None,839.6672889000038,None,839.6672889000038,None,0.004122680024011061,0.5041226800240111,839.6672889000038,None,839.6672889000038,None,839.6672889000038,None,839.6672889000038,None,839.6672889000038,None,839.6672889000038,None,845.5078474000038,None,845.5078474000038,None,0.0064330800087191164,0.5064330800087191,845.5078474000038,None,845.5078474000038,None,845.5078474000038,None,845.5078474000038,None,845.5078474000038,None,845.5078474000038,None,-7.200000000000003,3.273,850.9116617999971,None,-50,,,,,,,,,,,,,,,,,,,f,23,xuyue,2022_Jan_09_0923,emotion,2021.2.3,60.323490756848344,
108,partial,0,0.8,-50,0.2,blue,-50,0.8,-200,0.2,blue,red,blue,red,blue,72,72,77,355,77,355,"[-9.3, -1.9]","[6.7, -1.9]","[-6.7, 1.9]","[9.3, 1.9]",0,-50,-50,-200,0,53,53,50,,,,,,,,,,,,,,,,,0.0055068699875846505,0.5055068699875847,851.9705432000046,None,851.9705432000046,None,left,2.428041800012579,851.9705432000046,None,851.9705432000046,None,851.9705432000046,None,851.9705432000046,None,851.9705432000046,None,854.4700085000077,None,854.4700085000077,None,0.002839380002114922,0.5028393800021149,854.4700085000077,None,854.4700085000077,None,854.4700085000077,None,854.4700085000077,None,854.4700085000077,None,854.4700085000077,None,859.739983300009,None,859.739983300009,None,0.0070270800206344575,0.5070270800206345,859.739983300009,None,859.739983300009,None,859.739983300009,None,859.739983300009,None,859.739983300009,None,859.739983300009,None,1.3999999999999986,1.89,863.7939428999962,None,-50,,,,,,,,,,,,,,,,,,,f,23,xuyue,2022_Jan_09_0923,emotion,2021.2.3,60.323490756848344,
88,partial,0,0.8,-50,0.2,blue,0,0.2,-200,0.8,blue,red,blue,blue,red,72,72,77,355,5,67,"[-9.3, -1.9]","[9.3, 1.9]","[-6.7, 1.9]","[6.7, -1.9]",0,0,-50,-200,0,54,54,12,,,,,,,,,,,,,,,,,0.01168236997909844,0.5116823699790984,864.8554409999924,None,864.8554409999924,None,left,1.539924200013047,864.8554409999924,None,864.8554409999924,None,864.8554409999924,None,864.8554409999924,None,864.8554409999924,None,866.5049969000102,None,866.5049969000102,None,0.004231780010741204,0.5042317800107412,866.5049969000102,None,866.5049969000102,None,866.5049969000102,None,866.5049969000102,None,866.5049969000102,None,866.5049969000102,None,872.3235041000007,None,872.3235041000007,None,0.007292880007298663,0.5072928800072987,872.3235041000007,None,872.3235041000007,None,872.3235041000007,None,872.3235041000007,None,872.3235041000007,None,872.3235041000007,None,2.3999999999999986,2.864,877.2909641999868,None,-50,,,,,,,,,,,,,,,,,,,f,23,xuyue,2022_Jan_09_0923,emotion,2021.2.3,60.323490756848344,
55,partial,50,0.5,0,0.5,blue,200,0.2,0,0.8,blue,red,blue,blue,red,180,72,185,355,5,67,"[-10, 0]","[9.3, 1.9]","[-6, 0]","[6.7, -1.9]",50,200,0,0,0,55,55,60,,,,,,,,,,,,,,,,,0.014994869998190552,0.5149948699981906,878.3565143999876,None,878.3565143999876,None,right,1.4208155000233091,878.3565143999876,None,878.3565143999876,None,878.3565143999876,None,878.3565143999876,None,878.3565143999876,None,879.8678076000069,None,879.8678076000069,None,0.0036908799957018346,0.5036908799957018,879.8678076000069,None,879.8678076000069,None,879.8678076000069,None,879.8678076000069,None,879.8678076000069,None,879.8678076000069,None,885.4480605999997,None,885.4480605999997,None,0.007266280037583783,0.5072662800375838,885.4480605999997,None,885.4480605999997,None,885.4480605999997,None,885.4480605999997,None,885.4480605999997,None,885.4480605999997,None,50.0,1.71,889.2952222999884,None,150,,,,,,,,,,,,,,,,,,,f,23,xuyue,2022_Jan_09_0923,emotion,2021.2.3,60.323490756848344,
283,partial,50,0.2,0,0.8,red,200,0.5,50,0.5,blue,blue,red,red,blue,72,180,77,355,185,355,"[-6.7, 1.9]","[6, 0]","[-9.3, -1.9]","[10, 0]",0,200,50,50,0,56,56,76,,,,,,,,,,,,,,,,,0.008569069992518052,0.508569069992518,890.3405346999934,None,890.3405346999934,None,right,1.6051387000188697,890.3405346999934,None,890.3405346999934,None,890.3405346999934,None,890.3405346999934,None,890.3405346999934,None,892.0295434999862,None,892.0295434999862,None,0.0035211800422985107,0.5035211800422985,892.0295434999862,None,892.0295434999862,None,892.0295434999862,None,892.0295434999862,None,892.0295434999862,None,892.0295434999862,None,898.1762687999872,None,898.1762687999872,None,0.004687979992013425,0.5046879799920134,898.1762687999872,None,898.1762687999872,None,898.1762687999872,None,898.1762687999872,None,898.1762687999872,None,898.1762687999872,None,50.0,1.528,901.8883843999938,None,350,,,,,,,,,,,,,,,,,,,f,23,xuyue,2022_Jan_09_0923,emotion,2021.2.3,60.323490756848344,
86,partial,0,0.2,-50,0.8,blue,0,0.8,-200,0.2,blue,blue,red,red,blue,72,72,5,67,77,355,"[-6.7, 1.9]","[6.7, -1.9]","[-9.3, -1.9]","[9.3, 1.9]",0,0,-50,-200,0,57,57,36,,,,,,,,,,,,,,,,,0.003931670013116673,0.5039316700131167,902.9364559999958,None,902.9364559999958,None,right,5.4197895000106655,902.9364559999958,None,902.9364559999958,None,902.9364559999958,None,902.9364559999958,None,902.9364559999958,None,908.4360672000039,None,908.4360672000039,None,0.003410680015804246,0.5034106800158042,908.4360672000039,None,908.4360672000039,None,908.4360672000039,None,908.4360672000039,None,908.4360672000039,None,908.4360672000039,None,914.4397989000136,None,914.4397989000136,None,0.0075654800166375935,0.5075654800166376,914.4397989000136,None,914.4397989000136,None,914.4397989000136,None,914.4397989000136,None,914.4397989000136,None,914.4397989000136,None,48.5,1.252,917.8673113000114,None,350,,,,,,,,,,,,,,,,,,,f,23,xuyue,2022_Jan_09_0923,emotion,2021.2.3,60.323490756848344,
71,partial,50,0.8,0,0.2,blue,200,0.2,50,0.8,blue,red,blue,blue,red,72,72,77,355,5,67,"[-9.3, -1.9]","[9.3, 1.9]","[-6.7, 1.9]","[6.7, -1.9]",50,200,0,50,0,58,58,70,,,,,,,,,,,,,,,,,0.013499669992597774,0.5134996699925978,918.9322289999982,None,918.9322289999982,None,right,1.307324699999299,918.9322289999982,None,918.9322289999982,None,918.9322289999982,None,918.9322289999982,None,918.9322289999982,None,920.3487923000066,None,920.3487923000066,None,0.00457307999022305,0.504573079990223,920.3487923000066,None,920.3487923000066,None,920.3487923000066,None,920.3487923000066,None,920.3487923000066,None,920.3487923000066,None,926.432871099998,None,926.432871099998,None,0.0065170800080522895,0.5065170800080523,926.432871099998,None,926.432871099998,None,926.432871099998,None,926.432871099998,None,926.432871099998,None,926.432871099998,None,50.0,1.497,930.0698970000085,None,550,,,,,,,,,,,,,,,,,,,f,23,xuyue,2022_Jan_09_0923,emotion,2021.2.3,60.323490756848344,
275,partial,50,0.2,0,0.8,red,200,0.8,0,0.2,blue,blue,red,red,blue,72,72,77,355,77,355,"[-6.7, 1.9]","[6.7, -1.9]","[-9.3, -1.9]","[9.3, 1.9]",0,200,50,0,0,59,59,90,,,,,,,,,,,,,,,,,0.00756197000737302,0.507561970007373,931.1160228000081,None,931.1160228000081,None,right,1.366727099986747,931.1160228000081,None,931.1160228000081,None,931.1160228000081,None,931.1160228000081,None,931.1160228000081,None,932.5606148999941,None,932.5606148999941,None,0.005207479960517958,0.505207479960518,932.5606148999941,None,932.5606148999941,None,932.5606148999941,None,932.5606148999941,None,932.5606148999941,None,932.5606148999941,None,938.1372799999954,None,938.1372799999954,None,0.006700480007566512,0.5067004800075665,938.1372799999954,None,938.1372799999954,None,938.1372799999954,None,938.1372799999954,None,938.1372799999954,None,938.1372799999954,None,50.0,1.783,942.1173162999912,None,750,,,,,,,,,,,,,,,,,,,f,23,xuyue,2022_Jan_09_0923,emotion,2021.2.3,60.323490756848344,
185,partial,200,0.2,0,0.8,blue,200,0.2,50,0.8,red,blue,red,blue,red,72,72,5,67,77,355,"[-6.7, 1.9]","[9.3, 1.9]","[-9.3, -1.9]","[6.7, -1.9]",200,50,0,200,0,60,60,59,,,,,,,,,,,,,,,,,0.0059337700076866895,0.5059337700076867,943.1674361999903,None,943.1674361999903,None,right,1.5311749000102282,943.1674361999903,None,943.1674361999903,None,943.1674361999903,None,943.1674361999903,None,943.1674361999903,None,944.7731462999946,None,944.7731462999946,None,0.003607880003983155,0.5036078800039832,944.7731462999946,None,944.7731462999946,None,944.7731462999946,None,944.7731462999946,None,944.7731462999946,None,944.7731462999946,None,950.9771758000134,None,950.9771758000134,None,0.00689478000276722,0.5068947800027672,950.9771758000134,None,950.9771758000134,None,950.9771758000134,None,950.9771758000134,None,950.9771758000134,None,950.9771758000134,None,12.700000000000003,2.241,955.401328900014,None,800,,,,,,,,,,,,,,,,,,,f,23,xuyue,2022_Jan_09_0923,emotion,2021.2.3,60.323490756848344,
296,partial,200,0.8,0,0.2,red,200,0.2,50,0.8,blue,red,blue,blue,red,72,72,5,67,5,67,"[-9.3, -1.9]","[9.3, 1.9]","[-6.7, 1.9]","[6.7, -1.9]",0,200,200,50,0,61,61,68,,,,,,,,,,,,,,,,,0.008273570012534037,0.508273570012534,956.4528987999947,None,956.4528987999947,None,left,2.575562499987427,956.4528987999947,None,956.4528987999947,None,956.4528987999947,None,956.4528987999947,None,956.4528987999947,None,959.1134414999979,None,959.1134414999979,None,0.005345779994968325,0.5053457799949683,959.1134414999979,None,959.1134414999979,None,959.1134414999979,None,959.1134414999979,None,959.1134414999979,None,959.1134414999979,None,965.1377990999899,None,965.1377990999899,None,0.006389080022927374,0.5063890800229274,965.1377990999899,None,965.1377990999899,None,965.1377990999899,None,965.1377990999899,None,965.1377990999899,None,965.1377990999899,None,-5.100000000000001,3.622,970.9295416999958,None,800,,,,,,,,,,,,,,,,,,,f,23,xuyue,2022_Jan_09_0923,emotion,2021.2.3,60.323490756848344,
207,partial,0,0.8,-200,0.2,blue,-50,0.8,-200,0.2,red,red,blue,red,blue,72,72,77,355,5,67,"[-9.3, -1.9]","[6.7, -1.9]","[-6.7, 1.9]","[9.3, 1.9]",0,-200,-200,-50,0,62,62,49,,,,,,,,,,,,,,,,,0.004031470016343519,0.5040314700163435,972.0000214999891,None,972.0000214999891,None,left,2.1615650999883655,972.0000214999891,None,972.0000214999891,None,972.0000214999891,None,972.0000214999891,None,972.0000214999891,None,974.2589304999856,None,974.2589304999856,None,0.005274880008073524,0.5052748800080735,974.2589304999856,None,974.2589304999856,None,974.2589304999856,None,974.2589304999856,None,974.2589304999856,None,974.2589304999856,None,980.3408189000038,None,980.3408189000038,None,0.005944780015852302,0.5059447800158523,980.3408189000038,None,980.3408189000038,None,980.3408189000038,None,980.3408189000038,None,980.3408189000038,None,980.3408189000038,None,0.10000000000000142,3.473,985.9130084000062,None,800,,,,,,,,,,,,,,,,,,,f,23,xuyue,2022_Jan_09_0923,emotion,2021.2.3,60.323490756848344,
211,partial,0,0.2,-50,0.8,blue,-50,0.5,-200,0.5,red,blue,red,red,blue,72,180,5,67,5,175,"[-6.7, 1.9]","[6, 0]","[-9.3, -1.9]","[10, 0]",0,-200,-50,-50,0,63,63,23,,,,,,,,,,,,,,,,,0.015544969995971769,0.5155449699959718,986.9870789000124,None,986.9870789000124,None,left,3.179882800002815,986.9870789000124,None,986.9870789000124,None,986.9870789000124,None,986.9870789000124,None,986.9870789000124,None,990.2437145999866,None,990.2437145999866,None,0.0052217800403013825,0.5052217800403014,990.2437145999866,None,990.2437145999866,None,990.2437145999866,None,990.2437145999866,None,990.2437145999866,None,990.2437145999866,None,995.9351186999993,None,995.9351186999993,None,0.003039980016183108,0.5030399800161831,995.9351186999993,None,995.9351186999993,None,995.9351186999993,None,995.9351186999993,None,995.9351186999993,None,995.9351186999993,None,1.5,7.316,1005.3591436000133,None,800,,,,,,,,,,,,,,,,,,,f,23,xuyue,2022_Jan_09_0923,emotion,2021.2.3,60.323490756848344,
189,partial,200,0.8,0,0.2,blue,200,0.8,50,0.2,red,red,blue,red,blue,72,72,77,355,5,67,"[-9.3, -1.9]","[6.7, -1.9]","[-6.7, 1.9]","[9.3, 1.9]",200,50,0,200,0,64,64,107,,,,,,,,,,,,,,,,,0.013351069967029616,0.5133510699670296,1006.4302448999952,None,1006.4302448999952,None,right,2.445466100005433,1006.4302448999952,None,1006.4302448999952,None,1006.4302448999952,None,1006.4302448999952,None,1006.4302448999952,None,1008.9700387000048,None,1008.9700387000048,None,0.003999080014182255,0.5039990800141823,1008.9700387000048,None,1008.9700387000048,None,1008.9700387000048,None,1008.9700387000048,None,1008.9700387000048,None,1008.9700387000048,None,1014.2637342000089,None,1014.2637342000089,None,0.006258479988900945,0.506258479988901,1014.2637342000089,None,1014.2637342000089,None,1014.2637342000089,None,1014.2637342000089,None,1014.2637342000089,None,1014.2637342000089,None,1.0,1.928,1018.300700199994,None,850,,,,,,,,,,,,,,,,,,,f,23,xuyue,2022_Jan_09_0923,emotion,2021.2.3,60.323490756848344,
410,partial,0,0.2,-50,0.8,red,0,0.8,-200,0.2,red,blue,red,red,blue,72,72,77,355,5,67,"[-6.7, 1.9]","[6.7, -1.9]","[-9.3, -1.9]","[9.3, 1.9]",-50,-200,0,0,0,65,65,39,,,,,,,,,,,,,,,,,0.005879669974092394,0.5058796699740924,1019.3518420000037,None,1019.3518420000037,None,right,4.582244199991692,1019.3518420000037,None,1019.3518420000037,None,1019.3518420000037,None,1019.3518420000037,None,1019.3518420000037,None,1024.0227055999858,None,1024.0227055999858,None,0.004541180009255186,0.5045411800092552,1024.0227055999858,None,1024.0227055999858,None,1024.0227055999858,None,1024.0227055999858,None,1024.0227055999858,None,1024.0227055999858,None,1030.4405099000141,None,1030.4405099000141,None,0.00570368001353927,0.5057036800135393,1030.4405099000141,None,1030.4405099000141,None,1030.4405099000141,None,1030.4405099000141,None,1030.4405099000141,None,1030.4405099000141,None,-10.100000000000001,4.31,1036.9234376999957,None,650,,,,,,,,,,,,,,,,,,,f,23,xuyue,2022_Jan_09_0923,emotion,2021.2.3,60.323490756848344,
210,partial,0,0.5,-50,0.5,blue,-50,0.8,-200,0.2,red,red,blue,red,blue,180,72,185,355,5,67,"[-10, 0]","[6.7, -1.9]","[-6, 0]","[9.3, 1.9]",0,-200,-50,-50,0,66,66,47,,,,,,,,,,,,,,,,,0.005967269971733913,0.5059672699717339,1037.9679356999986,None,1037.9679356999986,None,left,1.5752535999927204,1037.9679356999986,None,1037.9679356999986,None,1037.9679356999986,None,1037.9679356999986,None,1037.9679356999986,None,1039.6338812999893,None,1039.6338812999893,None,0.003899480012478307,0.5038994800124783,1039.6338812999893,None,1039.6338812999893,None,1039.6338812999893,None,1039.6338812999893,None,1039.6338812999893,None,1039.6338812999893,None,1045.0820666000072,None,1045.0820666000072,None,0.005502380023244768,0.5055023800232448,1045.0820666000072,None,1045.0820666000072,None,1045.0820666000072,None,1045.0820666000072,None,1045.0820666000072,None,1045.0820666000072,None,0.3999999999999986,2.512,1049.7656371000048,None,650,,,,,,,,,,,,,,,,,,,f,23,xuyue,2022_Jan_09_0923,emotion,2021.2.3,60.323490756848344,
167,partial,50,0.2,0,0.8,blue,200,0.8,0,0.2,red,blue,red,red,blue,72,72,5,67,5,67,"[-6.7, 1.9]","[6.7, -1.9]","[-9.3, -1.9]","[9.3, 1.9]",50,0,0,200,0,67,67,93,,,,,,,,,,,,,,,,,0.014274370012572035,0.514274370012572,1050.8236302000005,None,1050.8236302000005,None,right,1.2312688000092749,1050.8236302000005,None,1050.8236302000005,None,1050.8236302000005,None,1050.8236302000005,None,1050.8236302000005,None,1052.1635057000094,None,1052.1635057000094,None,0.0044760800374206156,0.5044760800374206,1052.1635057000094,None,1052.1635057000094,None,1052.1635057000094,None,1052.1635057000094,None,1052.1635057000094,None,1052.1635057000094,None,1058.5103765999957,None,1058.5103765999957,None,0.007423280010698363,0.5074232800106984,1058.5103765999957,None,1058.5103765999957,None,1058.5103765999957,None,1058.5103765999957,None,1058.5103765999957,None,1058.5103765999957,None,-1.5,2.123,1062.754612299992,None,650,,,,,,,,,,,,,,,,,,,f,23,xuyue,2022_Jan_09_0923,emotion,2021.2.3,60.323490756848344,
195,partial,0,0.2,-50,0.8,blue,0,0.5,-200,0.5,red,blue,red,red,blue,72,180,5,67,5,175,"[-6.7, 1.9]","[6, 0]","[-9.3, -1.9]","[10, 0]",0,-200,-50,0,0,68,68,21,,,,,,,,,,,,,,,,,0.01308696999331005,0.51308696999331,1063.8334181999962,None,1063.8334181999962,None,left,3.511678299983032,1063.8334181999962,None,1063.8334181999962,None,1063.8334181999962,None,1063.8334181999962,None,1063.8334181999962,None,1067.4182901000022,None,1067.4182901000022,None,0.004691580019425601,0.5046915800194256,1067.4182901000022,None,1067.4182901000022,None,1067.4182901000022,None,1067.4182901000022,None,1067.4182901000022,None,1067.4182901000022,None,1073.2642921000079,None,1073.2642921000079,None,0.00618658002349548,0.5061865800234955,1073.2642921000079,None,1073.2642921000079,None,1073.2642921000079,None,1073.2642921000079,None,1073.2642921000079,None,1073.2642921000079,None,6.100000000000001,1.42,1076.7836918999965,None,650,,,,,,,,,,,,,,,,,,,f,23,xuyue,2022_Jan_09_0923,emotion,2021.2.3,60.323490756848344,
69,partial,50,0.2,0,0.8,blue,200,0.8,50,0.2,blue,blue,red,red,blue,72,72,5,67,77,355,"[-6.7, 1.9]","[6.7, -1.9]","[-9.3, -1.9]","[9.3, 1.9]",50,200,0,50,0,69,69,94,,,,,,,,,,,,,,,,,0.013166669989004731,0.5131666699890047,1077.857204,None,1077.857204,None,right,1.12477629998466,1077.857204,None,1077.857204,None,1077.857204,None,1077.857204,None,1077.857204,None,1079.0626839000033,None,1079.0626839000033,None,0.003764780005440116,0.5037647800054401,1079.0626839000033,None,1079.0626839000033,None,1079.0626839000033,None,1079.0626839000033,None,1079.0626839000033,None,1079.0626839000033,None,1084.8491989999893,None,1084.8491989999893,None,0.00562208000337705,0.505622080003377,1084.8491989999893,None,1084.8491989999893,None,1084.8491989999893,None,1084.8491989999893,None,1084.8491989999893,None,1084.8491989999893,None,48.7,2.527,1089.515288900002,None,850,,,,,,,,,,,,,,,,,,,f,23,xuyue,2022_Jan_09_0923,emotion,2021.2.3,60.323490756848344,
380,partial,50,0.5,0,0.5,red,200,0.8,0,0.2,red,red,blue,red,blue,180,72,5,175,5,67,"[-10, 0]","[6.7, -1.9]","[-6, 0]","[9.3, 1.9]",0,0,50,200,0,70,70,99,,,,,,,,,,,,,,,,,0.00924796995241195,0.509247969952412,1090.5710853000055,None,1090.5710853000055,None,right,1.0797166999836918,1090.5710853000055,None,1090.5710853000055,None,1090.5710853000055,None,1090.5710853000055,None,1090.5710853000055,None,1091.7584892000013,None,1091.7584892000013,None,0.006036279984982684,0.5060362799849827,1091.7584892000013,None,1091.7584892000013,None,1091.7584892000013,None,1091.7584892000013,None,1091.7584892000013,None,1091.7584892000013,None,1098.1742677000002,None,1098.1742677000002,None,0.00686367999878712,0.5068636799987871,1098.1742677000002,None,1098.1742677000002,None,1098.1742677000002,None,1098.1742677000002,None,1098.1742677000002,None,1098.1742677000002,None,-37.7,2.85,1103.1935145999887,None,850,,,,,,,,,,,,,,,,,,,f,23,xuyue,2022_Jan_09_0923,emotion,2021.2.3,60.323490756848344,
75,partial,200,0.5,0,0.5,blue,200,0.8,50,0.2,blue,red,blue,red,blue,180,72,185,355,77,355,"[-10, 0]","[6.7, -1.9]","[-6, 0]","[9.3, 1.9]",200,200,0,50,0,71,71,98,,,,,,,,,,,,,,,,,0.01455667000846006,0.5145566700084601,1104.2530855000077,None,1104.2530855000077,None,right,1.3059066999994684,1104.2530855000077,None,1104.2530855000077,None,1104.2530855000077,None,1104.2530855000077,None,1104.2530855000077,None,1105.633609100012,None,1105.633609100012,None,0.0031833800312597305,0.5031833800312597,1105.633609100012,None,1105.633609100012,None,1105.633609100012,None,1105.633609100012,None,1105.633609100012,None,1105.633609100012,None,1111.4131441999925,None,1111.4131441999925,None,0.006228979997104034,0.506228979997104,1111.4131441999925,None,1111.4131441999925,None,1111.4131441999925,None,1111.4131441999925,None,1111.4131441999925,None,1111.4131441999925,None,47.0,3.224,1116.7580526999955,None,1050,,,,,,,,,,,,,,,,,,,f,23,xuyue,2022_Jan_09_0923,emotion,2021.2.3,60.323490756848344,
282,partial,50,0.5,0,0.5,red,200,0.8,50,0.2,blue,red,blue,red,blue,180,72,5,175,77,355,"[-10, 0]","[6.7, -1.9]","[-6, 0]","[9.3, 1.9]",0,200,50,50,0,72,72,100,,,,,,,,,,,,,,,,,0.009161269961623475,0.5091612699616235,1117.8149717999913,None,1117.8149717999913,None,right,1.1803672999958508,1117.8149717999913,None,1117.8149717999913,None,1117.8149717999913,None,1117.8149717999913,None,1117.8149717999913,None,1119.0805175999994,None,1119.0805175999994,None,0.004314680030802265,0.5043146800308023,1119.0805175999994,None,1119.0805175999994,None,1119.0805175999994,None,1119.0805175999994,None,1119.0805175999994,None,1119.0805175999994,None,1125.2131716999866,None,1125.2131716999866,None,0.00622668003779836,0.5062266800377984,1125.2131716999866,None,1125.2131716999866,None,1125.2131716999866,None,1125.2131716999866,None,1125.2131716999866,None,1125.2131716999866,None,49.3,4.59,1131.9955834000139,None,1250,,,,,,,,,,,,,,,,,,,f,23,xuyue,2022_Jan_09_0923,emotion,2021.2.3,60.323490756848344,
214,partial,0,0.8,-50,0.2,blue,-50,0.5,-200,0.5,red,red,blue,red,blue,72,180,77,355,5,175,"[-9.3, -1.9]","[6, 0]","[-6.7, 1.9]","[10, 0]",0,-200,-50,-50,0,73,73,35,,,,,,,,,,,,,,,,,0.00554847001330927,0.5055484700133093,1133.0453785000136,None,1133.0453785000136,None,left,1.3572785999858752,1133.0453785000136,None,1133.0453785000136,None,1133.0453785000136,None,1133.0453785000136,None,1133.0453785000136,None,1134.4878894999856,None,1134.4878894999856,None,0.0045243799686431885,0.5045243799686432,1134.4878894999856,None,1134.4878894999856,None,1134.4878894999856,None,1134.4878894999856,None,1134.4878894999856,None,1134.4878894999856,None,1140.028898199991,None,1140.028898199991,None,0.007420879992423579,0.5074208799924236,1140.028898199991,None,1140.028898199991,None,1140.028898199991,None,1140.028898199991,None,1140.028898199991,None,1140.028898199991,None,-3.1000000000000014,3.18,1145.3745256999973,None,1250,,,,,,,,,,,,,,,,,,,f,23,xuyue,2022_Jan_09_0923,emotion,2021.2.3,60.323490756848344,
293,partial,200,0.2,0,0.8,red,200,0.2,50,0.8,blue,blue,red,blue,red,72,72,77,355,5,67,"[-6.7, 1.9]","[9.3, 1.9]","[-9.3, -1.9]","[6.7, -1.9]",0,200,200,50,0,74,74,56,,,,,,,,,,,,,,,,,0.013352969952393323,0.5133529699523933,1146.4433836000098,None,1146.4433836000098,None,right,1.6611153999983799,1146.4433836000098,None,1146.4433836000098,None,1146.4433836000098,None,1146.4433836000098,None,1146.4433836000098,None,1148.1991914999962,None,1148.1991914999962,None,0.003337380039738491,0.5033373800397385,1148.1991914999962,None,1148.1991914999962,None,1148.1991914999962,None,1148.1991914999962,None,1148.1991914999962,None,1148.1991914999962,None,1153.5977531000099,None,1153.5977531000099,None,0.006434680020902306,0.5064346800209023,1153.5977531000099,None,1153.5977531000099,None,1153.5977531000099,None,1153.5977531000099,None,1153.5977531000099,None,1153.5977531000099,None,-1.2999999999999972,4.324,1160.029656300001,None,1450,,,,,,,,,,,,,,,,,,,f,23,xuyue,2022_Jan_09_0923,emotion,2021.2.3,60.323490756848344,
417,partial,0,0.5,-200,0.5,red,-50,0.8,-200,0.2,red,red,blue,red,blue,180,72,5,175,5,67,"[-10, 0]","[6.7, -1.9]","[-6, 0]","[9.3, 1.9]",-200,-200,0,-50,0,75,75,43,,,,,,,,,,,,,,,,,0.004540169989923015,0.504540169989923,1161.0742846000066,None,1161.0742846000066,None,left,6.035707700008061,1161.0742846000066,None,1161.0742846000066,None,1161.0742846000066,None,1161.0742846000066,None,1161.0742846000066,None,1167.213080299989,None,1167.213080299989,None,0.0031292800267692655,0.5031292800267693,1167.213080299989,None,1167.213080299989,None,1167.213080299989,None,1167.213080299989,None,1167.213080299989,None,1167.213080299989,None,1172.669012600003,None,1172.669012600003,None,0.005915180023293942,0.5059151800232939,1172.669012600003,None,1172.669012600003,None,1172.669012600003,None,1172.669012600003,None,1172.669012600003,None,1172.669012600003,None,-12.0,7.124,1181.9937385999947,None,1250,,,,,,,,,,,,,,,,,,,f,23,xuyue,2022_Jan_09_0923,emotion,2021.2.3,60.323490756848344,
431,partial,0,0.8,-50,0.2,red,-50,0.2,-200,0.8,red,red,blue,blue,red,72,72,5,67,77,355,"[-9.3, -1.9]","[9.3, 1.9]","[-6.7, 1.9]","[6.7, -1.9]",-50,-200,0,-50,0,76,76,17,,,,,,,,,,,,,,,,,0.007115769985830411,0.5071157699858304,1183.0493749000016,None,1183.0493749000016,None,left,1.5322498999885283,1183.0493749000016,None,1183.0493749000016,None,1183.0493749000016,None,1183.0493749000016,None,1183.0493749000016,None,1184.6923319000052,None,1184.6923319000052,None,0.0031482800259254873,0.5031482800259255,1184.6923319000052,None,1184.6923319000052,None,1184.6923319000052,None,1184.6923319000052,None,1184.6923319000052,None,1184.6923319000052,None,1189.9773027999909,None,1189.9773027999909,None,0.006506079982500523,0.5065060799825005,1189.9773027999909,None,1189.9773027999909,None,1189.9773027999909,None,1189.9773027999909,None,1189.9773027999909,None,1189.9773027999909,None,-1.7999999999999972,3.484,1195.6415195000009,None,1200,,,,,,,,,,,,,,,,,,,f,23,xuyue,2022_Jan_09_0923,emotion,2021.2.3,60.323490756848344,
286,partial,50,0.8,0,0.2,red,200,0.5,50,0.5,blue,red,blue,red,blue,72,180,5,67,185,355,"[-9.3, -1.9]","[6, 0]","[-6.7, 1.9]","[10, 0]",0,200,50,50,0,77,77,88,,,,,,,,,,,,,,,,,0.006334670004434884,0.5063346700044349,1196.7012822999968,None,1196.7012822999968,None,right,1.3020323000091594,1196.7012822999968,None,1196.7012822999968,None,1196.7012822999968,None,1196.7012822999968,None,1196.7012822999968,None,1198.0732084999909,None,1198.0732084999909,None,0.004141379991779104,0.5041413799917791,1198.0732084999909,None,1198.0732084999909,None,1198.0732084999909,None,1198.0732084999909,None,1198.0732084999909,None,1198.0732084999909,None,1203.5626270000066,None,1203.5626270000066,None,0.007523780019255355,0.5075237800192554,1203.5626270000066,None,1203.5626270000066,None,1203.5626270000066,None,1203.5626270000066,None,1203.5626270000066,None,1203.5626270000066,None,50.0,2.052,1207.8010062999965,None,1400,,,,,,,,,,,,,,,,,,,f,23,xuyue,2022_Jan_09_0923,emotion,2021.2.3,60.323490756848344,
297,partial,200,0.8,0,0.2,red,200,0.8,50,0.2,blue,red,blue,red,blue,72,72,5,67,77,355,"[-9.3, -1.9]","[6.7, -1.9]","[-6.7, 1.9]","[9.3, 1.9]",0,200,200,50,0,78,78,104,,,,,,,,,,,,,,,,,0.004247069970006123,0.5042470699700061,1208.856929200003,None,1208.856929200003,None,right,1.8863623999932315,1208.856929200003,None,1208.856929200003,None,1208.856929200003,None,1208.856929200003,None,1208.856929200003,None,1210.8164125999901,None,1210.8164125999901,None,0.003687579999677837,0.5036875799996778,1210.8164125999901,None,1210.8164125999901,None,1210.8164125999901,None,1210.8164125999901,None,1210.8164125999901,None,1210.8164125999901,None,1217.0112611000077,None,1217.0112611000077,None,0.005208379996474832,0.5052083799964748,1217.0112611000077,None,1217.0112611000077,None,1217.0112611000077,None,1217.0112611000077,None,1217.0112611000077,None,1217.0112611000077,None,50.0,2.341,1221.5447692000016,None,1600,,,,,,,,,,,,,,,,,,,f,23,xuyue,2022_Jan_09_0923,emotion,2021.2.3,60.323490756848344,
294,partial,200,0.2,0,0.8,red,200,0.8,50,0.2,blue,blue,red,red,blue,72,72,77,355,77,355,"[-6.7, 1.9]","[6.7, -1.9]","[-9.3, -1.9]","[9.3, 1.9]",0,200,200,50,0,79,79,92,,,,,,,,,,,,,,,,,0.005732269986765459,0.5057322699867655,1222.605145700014,None,1222.605145700014,None,right,1.4016394000209402,1222.605145700014,None,1222.605145700014,None,1222.605145700014,None,1222.605145700014,None,1222.605145700014,None,1224.1026718000066,None,1224.1026718000066,None,0.003935879998607561,0.5039358799986076,1224.1026718000066,None,1224.1026718000066,None,1224.1026718000066,None,1224.1026718000066,None,1224.1026718000066,None,1224.1026718000066,None,1229.6043073000037,None,1229.6043073000037,None,0.00803268002346158,0.5080326800234616,1229.6043073000037,None,1229.6043073000037,None,1229.6043073000037,None,1229.6043073000037,None,1229.6043073000037,None,1229.6043073000037,None,48.900000000000006,2.675,1234.45034760001,None,1800,,,,,,,,,,,,,,,,,,,f,23,xuyue,2022_Jan_09_0923,emotion,2021.2.3,60.323490756848344,
166,partial,50,0.2,0,0.8,blue,200,0.2,0,0.8,red,blue,red,blue,red,72,72,5,67,77,355,"[-6.7, 1.9]","[9.3, 1.9]","[-9.3, -1.9]","[6.7, -1.9]",50,0,0,200,0,80,80,57,,,,,,,,,,,,,,,,,0.007627769984537736,0.5076277699845377,1235.4939958000032,None,1235.4939958000032,None,right,1.2487226000230294,1235.4939958000032,None,1235.4939958000032,None,1235.4939958000032,None,1235.4939958000032,None,1235.4939958000032,None,1236.8377029999974,None,1236.8377029999974,None,0.0033916800166480243,0.503391680016648,1236.8377029999974,None,1236.8377029999974,None,1236.8377029999974,None,1236.8377029999974,None,1236.8377029999974,None,1236.8377029999974,None,1242.974821699987,None,1242.974821699987,None,0.006455680006183684,0.5064556800061837,1242.974821699987,None,1242.974821699987,None,1242.974821699987,None,1242.974821699987,None,1242.974821699987,None,1242.974821699987,None,2.5,1.325,1246.4526665000012,None,1800,,,,,,,,,,,,,,,,,,,f,23,xuyue,2022_Jan_09_0923,emotion,2021.2.3,60.323490756848344,
191,partial,0,0.5,-50,0.5,blue,0,0.8,-200,0.2,red,red,blue,red,blue,180,72,185,355,5,67,"[-10, 0]","[6.7, -1.9]","[-6, 0]","[9.3, 1.9]",0,-200,-50,0,0,81,81,45,,,,,,,,,,,,,,,,,0.006211669999174774,0.5062116699991748,1247.5198328999977,None,1247.5198328999977,None,left,4.169972600007895,1247.5198328999977,None,1247.5198328999977,None,1247.5198328999977,None,1247.5198328999977,None,1247.5198328999977,None,1251.7678768000042,None,1251.7678768000042,None,0.0045922799909021705,0.5045922799909022,1251.7678768000042,None,1251.7678768000042,None,1251.7678768000042,None,1251.7678768000042,None,1251.7678768000042,None,1251.7678768000042,None,1258.0485808000085,None,1258.0485808000085,None,0.006236180022824556,0.5062361800228246,1258.0485808000085,None,1258.0485808000085,None,1258.0485808000085,None,1258.0485808000085,None,1258.0485808000085,None,1258.0485808000085,None,50.0,1.93,1262.079159899993,None,1800,,,,,,,,,,,,,,,,,,,f,23,xuyue,2022_Jan_09_0923,emotion,2021.2.3,60.323490756848344,
175,partial,50,0.2,0,0.8,blue,200,0.5,50,0.5,red,blue,red,red,blue,72,180,5,67,5,175,"[-6.7, 1.9]","[6, 0]","[-9.3, -1.9]","[10, 0]",50,50,0,200,0,82,82,73,,,,,,,,,,,,,,,,,0.01509726999211125,0.5150972699921113,1263.1444562000106,None,1263.1444562000106,None,right,1.523618399980478,1263.1444562000106,None,1263.1444562000106,None,1263.1444562000106,None,1263.1444562000106,None,1263.1444562000106,None,1264.7517210000078,None,1264.7517210000078,None,0.005437480023829266,0.5054374800238293,1264.7517210000078,None,1264.7517210000078,None,1264.7517210000078,None,1264.7517210000078,None,1264.7517210000078,None,1264.7517210000078,None,1270.5649574999989,None,1270.5649574999989,None,0.006339579995255917,0.5063395799952559,1270.5649574999989,None,1270.5649574999989,None,1270.5649574999989,None,1270.5649574999989,None,1270.5649574999989,None,1270.5649574999989,None,19.599999999999994,1.603,1274.3100354000053,None,1850,,,,,,,,,,,,,,,,,,,f,23,xuyue,2022_Jan_09_0923,emotion,2021.2.3,60.323490756848344,
190,partial,0,0.5,-50,0.5,blue,0,0.2,-200,0.8,red,red,blue,blue,red,180,72,185,355,77,355,"[-10, 0]","[9.3, 1.9]","[-6, 0]","[6.7, -1.9]",0,-200,-50,0,0,83,83,9,,,,,,,,,,,,,,,,,0.004032169992569834,0.5040321699925698,1275.3627396000084,None,1275.3627396000084,None,left,2.7900296000007074,1275.3627396000084,None,1275.3627396000084,None,1275.3627396000084,None,1275.3627396000084,None,1275.3627396000084,None,1278.2225320000143,None,1278.2225320000143,None,0.006186180020449683,0.5061861800204497,1278.2225320000143,None,1278.2225320000143,None,1278.2225320000143,None,1278.2225320000143,None,1278.2225320000143,None,1278.2225320000143,None,1284.316410200001,None,1284.316410200001,None,0.0066773800062946975,0.5066773800062947,1284.316410200001,None,1284.316410200001,None,1284.316410200001,None,1284.316410200001,None,1284.316410200001,None,1284.316410200001,None,50.0,2.017,1288.5207504999998,None,1850,,,,,,,,,,,,,,,,,,,f,23,xuyue,2022_Jan_09_0923,emotion,2021.2.3,60.323490756848344,
60,partial,50,0.2,0,0.8,blue,200,0.5,0,0.5,blue,blue,red,red,blue,72,180,5,67,185,355,"[-6.7, 1.9]","[6, 0]","[-9.3, -1.9]","[10, 0]",50,200,0,0,0,84,84,72,,,,,,,,,,,,,,,,,0.010657169972546399,0.5106571699725464,1289.5967609999934,None,1289.5967609999934,None,right,1.0344101999944542,1289.5967609999934,None,1289.5967609999934,None,1289.5967609999934,None,1289.5967609999934,None,1289.5967609999934,None,1290.7030394999892,None,1290.7030394999892,None,0.004311080032493919,0.5043110800324939,1290.7030394999892,None,1290.7030394999892,None,1290.7030394999892,None,1290.7030394999892,None,1290.7030394999892,None,1290.7030394999892,None,1296.4543832000054,None,1296.4543832000054,None,0.006886380026116967,0.506886380026117,1296.4543832000054,None,1296.4543832000054,None,1296.4543832000054,None,1296.4543832000054,None,1296.4543832000054,None,1296.4543832000054,None,49.8,1.93,1300.5104583000066,None,2050,,,,,,,,,,,,,,,,,,,f,23,xuyue,2022_Jan_09_0923,emotion,2021.2.3,60.323490756848344,
198,partial,0,0.8,-50,0.2,blue,0,0.5,-200,0.5,red,red,blue,red,blue,72,180,77,355,5,175,"[-9.3, -1.9]","[6, 0]","[-6.7, 1.9]","[10, 0]",0,-200,-50,0,0,85,85,33,,,,,,,,,,,,,,,,,0.005586669984040782,0.5055866699840408,1301.5533593999862,None,1301.5533593999862,None,left,1.2842829000146594,1301.5533593999862,None,1301.5533593999862,None,1301.5533593999862,None,1301.5533593999862,None,1301.5533593999862,None,1302.9103825000057,None,1302.9103825000057,None,0.0034666800347622484,0.5034666800347622,1302.9103825000057,None,1302.9103825000057,None,1302.9103825000057,None,1302.9103825000057,None,1302.9103825000057,None,1302.9103825000057,None,1308.4154772000038,None,1308.4154772000038,None,0.005690980033250526,0.5056909800332505,1308.4154772000038,None,1308.4154772000038,None,1308.4154772000038,None,1308.4154772000038,None,1308.4154772000038,None,1308.4154772000038,None,50.0,1.266,1311.8264372000122,None,2050,,,,,,,,,,,,,,,,,,,f,23,xuyue,2022_Jan_09_0923,emotion,2021.2.3,60.323490756848344,
289,partial,200,0.5,0,0.5,red,200,0.5,50,0.5,blue,red,blue,red,blue,180,180,5,175,185,355,"[-10, 0]","[6, 0]","[-6, 0]","[10, 0]",0,200,200,50,0,86,86,80,,,,,,,,,,,,,,,,,0.014082969981245697,0.5140829699812457,1312.8915650999988,None,1312.8915650999988,None,right,1.4744949000014458,1312.8915650999988,None,1312.8915650999988,None,1312.8915650999988,None,1312.8915650999988,None,1312.8915650999988,None,1314.4427098000015,None,1314.4427098000015,None,0.004972580005414784,0.5049725800054148,1314.4427098000015,None,1314.4427098000015,None,1314.4427098000015,None,1314.4427098000015,None,1314.4427098000015,None,1314.4427098000015,None,1320.606636899989,None,1320.606636899989,None,0.0055508799850940704,0.5055508799850941,1320.606636899989,None,1320.606636899989,None,1320.606636899989,None,1320.606636899989,None,1320.606636899989,None,1320.606636899989,None,50.0,1.269,1323.997381299996,None,2250,,,,,,,,,,,,,,,,,,,f,23,xuyue,2022_Jan_09_0923,emotion,2021.2.3,60.323490756848344,
315,partial,0,0.8,-200,0.2,red,-50,0.8,-200,0.2,blue,red,blue,red,blue,72,72,5,67,77,355,"[-9.3, -1.9]","[6.7, -1.9]","[-6.7, 1.9]","[9.3, 1.9]",-200,-50,0,-200,0,87,87,52,,,,,,,,,,,,,,,,,0.008664469991344959,0.508664469991345,1325.058462999994,None,1325.058462999994,None,left,1.3066964999889024,1325.058462999994,None,1325.058462999994,None,1325.058462999994,None,1325.058462999994,None,1325.058462999994,None,1326.4739419000107,None,1326.4739419000107,None,0.0045671800035052,0.5045671800035052,1326.4739419000107,None,1326.4739419000107,None,1326.4739419000107,None,1326.4739419000107,None,1326.4739419000107,None,1326.4739419000107,None,1331.807726900006,None,1331.807726900006,None,0.004972680006176233,0.5049726800061762,1331.807726900006,None,1331.807726900006,None,1331.807726900006,None,1331.807726900006,None,1331.807726900006,None,1331.807726900006,None,-50.0,2.362,1336.3353216999967,None,2050,,,,,,,,,,,,,,,,,,,f,23,xuyue,2022_Jan_09_0923,emotion,2021.2.3,60.323490756848344,
281,partial,50,0.5,0,0.5,red,200,0.2,50,0.8,blue,red,blue,blue,red,180,72,5,175,5,67,"[-10, 0]","[9.3, 1.9]","[-6, 0]","[6.7, -1.9]",0,200,50,50,0,88,88,64,,,,,,,,,,,,,,,,,0.009393870015628636,0.5093938700156286,1337.3864957999904,None,1337.3864957999904,None,right,2.2497586000245064,1337.3864957999904,None,1337.3864957999904,None,1337.3864957999904,None,1337.3864957999904,None,1337.3864957999904,None,1339.7290568999888,None,1339.7290568999888,None,0.004319480009144172,0.5043194800091442,1339.7290568999888,None,1339.7290568999888,None,1339.7290568999888,None,1339.7290568999888,None,1339.7290568999888,None,1339.7290568999888,None,1345.3527246000012,None,1345.3527246000012,None,0.00707268001860939,0.5070726800186094,1345.3527246000012,None,1345.3527246000012,None,1345.3527246000012,None,1345.3527246000012,None,1345.3527246000012,None,1345.3527246000012,None,50.0,1.759,1349.290050200012,None,2250,,,,,,,,,,,,,,,,,,,f,23,xuyue,2022_Jan_09_0923,emotion,2021.2.3,60.323490756848344,
432,partial,0,0.8,-50,0.2,red,-50,0.8,-200,0.2,red,red,blue,red,blue,72,72,5,67,5,67,"[-9.3, -1.9]","[6.7, -1.9]","[-6.7, 1.9]","[9.3, 1.9]",-50,-200,0,-50,0,89,89,53,,,,,,,,,,,,,,,,,0.004161969991400838,0.5041619699914008,1350.3474205000093,None,1350.3474205000093,None,left,1.2930397000163794,1350.3474205000093,None,1350.3474205000093,None,1350.3474205000093,None,1350.3474205000093,None,1350.3474205000093,None,1351.711583700002,None,1351.711583700002,None,0.003228180023143068,0.5032281800231431,1351.711583700002,None,1351.711583700002,None,1351.711583700002,None,1351.711583700002,None,1351.711583700002,None,1351.711583700002,None,1358.2534763999865,None,1358.2534763999865,None,0.006142580037703738,0.5061425800377037,1358.2534763999865,None,1358.2534763999865,None,1358.2534763999865,None,1358.2534763999865,None,1358.2534763999865,None,1358.2534763999865,None,-6.299999999999997,3.823,1364.2526430000144,None,2200,,,,,,,,,,,,,,,,,,,f,23,xuyue,2022_Jan_09_0923,emotion,2021.2.3,60.323490756848344,
317,partial,0,0.5,-50,0.5,red,-50,0.2,-200,0.8,blue,red,blue,blue,red,180,72,5,175,5,67,"[-10, 0]","[9.3, 1.9]","[-6, 0]","[6.7, -1.9]",-50,-50,0,-200,0,90,90,8,,,,,,,,,,,,,,,,,0.0068283700093161315,0.5068283700093161,1365.2993060000008,None,1365.2993060000008,None,left,1.3060452000063378,1365.2993060000008,None,1365.2993060000008,None,1365.2993060000008,None,1365.2993060000008,None,1365.2993060000008,None,1366.6874173000106,None,1366.6874173000106,None,0.0034789799829013646,0.5034789799829014,1366.6874173000106,None,1366.6874173000106,None,1366.6874173000106,None,1366.6874173000106,None,1366.6874173000106,None,1366.6874173000106,None,1372.1098698000133,None,1372.1098698000133,None,0.006845080031780526,0.5068450800317805,1372.1098698000133,None,1372.1098698000133,None,1372.1098698000133,None,1372.1098698000133,None,1372.1098698000133,None,1372.1098698000133,None,-0.7999999999999972,1.29,1375.6137537999894,None,2150,,,,,,,,,,,,,,,,,,,f,23,xuyue,2022_Jan_09_0923,emotion,2021.2.3,60.323490756848344,
165,partial,50,0.5,0,0.5,blue,200,0.5,0,0.5,red,red,blue,red,blue,180,180,185,355,5,175,"[-10, 0]","[6, 0]","[-6, 0]","[10, 0]",50,0,0,200,0,91,91,81,,,,,,,,,,,,,,,,,0.00907026999630034,0.5090702699963003,1376.6695142000099,None,1376.6695142000099,None,right,1.0606620000035036,1376.6695142000099,None,1376.6695142000099,None,1376.6695142000099,None,1376.6695142000099,None,1376.6695142000099,None,1377.8158948000055,None,1377.8158948000055,None,0.0043599799973890185,0.504359979997389,1377.8158948000055,None,1377.8158948000055,None,1377.8158948000055,None,1377.8158948000055,None,1377.8158948000055,None,1377.8158948000055,None,1383.8607772999967,None,1383.8607772999967,None,0.006671680021099746,0.5066716800210997,1383.8607772999967,None,1383.8607772999967,None,1383.8607772999967,None,1383.8607772999967,None,1383.8607772999967,None,1383.8607772999967,None,-2.200000000000003,1.143,1387.171296799992,None,2150,,,,,,,,,,,,,,,,,,,f,23,xuyue,2022_Jan_09_0923,emotion,2021.2.3,60.323490756848344,
307,partial,0,0.5,-200,0.5,red,-50,0.5,-200,0.5,blue,red,blue,red,blue,180,180,5,175,185,355,"[-10, 0]","[6, 0]","[-6, 0]","[10, 0]",-200,-50,0,-200,0,92,92,28,,,,,,,,,,,,,,,,,0.01319646998308599,0.513196469983086,1388.2371441000141,None,1388.2371441000141,None,left,1.1644478999951389,1388.2371441000141,None,1388.2371441000141,None,1388.2371441000141,None,1388.2371441000141,None,1388.2371441000141,None,1389.4979313999938,None,1389.4979313999938,None,0.003197180019924417,0.5031971800199244,1389.4979313999938,None,1389.4979313999938,None,1389.4979313999938,None,1389.4979313999938,None,1389.4979313999938,None,1389.4979313999938,None,1395.2886690000014,None,1395.2886690000014,None,0.006269680015975609,0.5062696800159756,1395.2886690000014,None,1395.2886690000014,None,1395.2886690000014,None,1395.2886690000014,None,1395.2886690000014,None,1395.2886690000014,None,-49.9,2.724,1400.159844000009,None,1950,,,,,,,,,,,,,,,,,,,f,23,xuyue,2022_Jan_09_0923,emotion,2021.2.3,60.323490756848344,
72,partial,50,0.8,0,0.2,blue,200,0.8,50,0.2,blue,red,blue,red,blue,72,72,77,355,77,355,"[-9.3, -1.9]","[6.7, -1.9]","[-6.7, 1.9]","[9.3, 1.9]",50,200,0,50,0,93,93,106,,,,,,,,,,,,,,,,,0.007614269998157397,0.5076142699981574,1401.1994814999925,None,1401.1994814999925,None,right,1.1297883999941405,1401.1994814999925,None,1401.1994814999925,None,1401.1994814999925,None,1401.1994814999925,None,1401.1994814999925,None,1402.3992218000058,None,1402.3992218000058,None,0.005959480011370033,0.50595948001137,1402.3992218000058,None,1402.3992218000058,None,1402.3992218000058,None,1402.3992218000058,None,1402.3992218000058,None,1402.3992218000058,None,1407.7927778000012,None,1407.7927778000012,None,0.006655180040979758,0.5066551800409798,1407.7927778000012,None,1407.7927778000012,None,1407.7927778000012,None,1407.7927778000012,None,1407.7927778000012,None,1407.7927778000012,None,49.599999999999994,1.951,1411.9390170999977,None,2150,,,,,,,,,,,,,,,,,,,f,23,xuyue,2022_Jan_09_0923,emotion,2021.2.3,60.323490756848344,
319,partial,0,0.2,-50,0.8,red,-50,0.5,-200,0.5,blue,blue,red,red,blue,72,180,77,355,185,355,"[-6.7, 1.9]","[6, 0]","[-9.3, -1.9]","[10, 0]",-50,-50,0,-200,0,94,94,20,,,,,,,,,,,,,,,,,0.0056378699955530465,0.505637869995553,1412.9850781999994,None,1412.9850781999994,None,left,1.4934351000119932,1412.9850781999994,None,1412.9850781999994,None,1412.9850781999994,None,1412.9850781999994,None,1412.9850781999994,None,1414.5545309000008,None,1414.5545309000008,None,0.005146380019141361,0.5051463800191414,1414.5545309000008,None,1414.5545309000008,None,1414.5545309000008,None,1414.5545309000008,None,1414.5545309000008,None,1414.5545309000008,None,1419.7662939000002,None,1419.7662939000002,None,0.005967480014078319,0.5059674800140783,1419.7662939000002,None,1419.7662939000002,None,1419.7662939000002,None,1419.7662939000002,None,1419.7662939000002,None,1419.7662939000002,None,-4.100000000000001,4.441,1426.4122119999956,None,2100,,,,,,,,,,,,,,,,,,,f,23,xuyue,2022_Jan_09_0923,emotion,2021.2.3,60.323490756848344,
429,partial,0,0.2,-50,0.8,red,-50,0.8,-200,0.2,red,blue,red,red,blue,72,72,77,355,5,67,"[-6.7, 1.9]","[6.7, -1.9]","[-9.3, -1.9]","[9.3, 1.9]",-50,-200,0,-50,0,95,95,41,,,,,,,,,,,,,,,,,0.007360070012509823,0.5073600700125098,1427.4667896000028,None,1427.4667896000028,None,left,1.2324393999879248,1427.4667896000028,None,1427.4667896000028,None,1427.4667896000028,None,1427.4667896000028,None,1427.4667896000028,None,1428.7906524999999,None,1428.7906524999999,None,0.003569380030967295,0.5035693800309673,1428.7906524999999,None,1428.7906524999999,None,1428.7906524999999,None,1428.7906524999999,None,1428.7906524999999,None,1428.7906524999999,None,1434.0881783000077,None,1434.0881783000077,None,0.0059718800184782594,0.5059718800184783,1434.0881783000077,None,1434.0881783000077,None,1434.0881783000077,None,1434.0881783000077,None,1434.0881783000077,None,1434.0881783000077,None,-5.100000000000001,2.202,1438.4718736000068,None,2050,,,,,,,,,,,,,,,,,,,f,23,xuyue,2022_Jan_09_0923,emotion,2021.2.3,60.323490756848344,
273,partial,50,0.5,0,0.5,red,200,0.5,0,0.5,blue,red,blue,red,blue,180,180,5,175,185,355,"[-10, 0]","[6, 0]","[-6, 0]","[10, 0]",0,200,50,0,0,96,96,78,,,,,,,,,,,,,,,,,0.009219569968990982,0.509219569968991,1439.5285159999912,None,1439.5285159999912,None,right,1.0092624000099022,1439.5285159999912,None,1439.5285159999912,None,1439.5285159999912,None,1439.5285159999912,None,1439.5285159999912,None,1440.6301218000008,None,1440.6301218000008,None,0.0048532800283282995,0.5048532800283283,1440.6301218000008,None,1440.6301218000008,None,1440.6301218000008,None,1440.6301218000008,None,1440.6301218000008,None,1440.6301218000008,None,1446.3852658999967,None,1446.3852658999967,None,0.005554780043894425,0.5055547800438944,1446.3852658999967,None,1446.3852658999967,None,1446.3852658999967,None,1446.3852658999967,None,1446.3852658999967,None,1446.3852658999967,None,5.200000000000003,9.693,1458.258447100001,None,2250,,,,,,,,,,,,,,,,,,,f,23,xuyue,2022_Jan_09_0923,emotion,2021.2.3,60.323490756848344,
63,partial,50,0.8,0,0.2,blue,200,0.5,0,0.5,blue,red,blue,red,blue,72,180,77,355,185,355,"[-9.3, -1.9]","[6, 0]","[-6.7, 1.9]","[10, 0]",50,200,0,0,0,97,97,84,,,,,,,,,,,,,,,,,0.008242169948061928,0.5082421699480619,1459.3011275999888,None,1459.3011275999888,None,right,1.326487799989991,1459.3011275999888,None,1459.3011275999888,None,1459.3011275999888,None,1459.3011275999888,None,1459.3011275999888,None,1460.7026704000018,None,1460.7026704000018,None,0.0045659800234716386,0.5045659800234716,1460.7026704000018,None,1460.7026704000018,None,1460.7026704000018,None,1460.7026704000018,None,1460.7026704000018,None,1460.7026704000018,None,1466.6215439999942,None,1466.6215439999942,None,0.006904879992362112,0.5069048799923621,1466.6215439999942,None,1466.6215439999942,None,1466.6215439999942,None,1466.6215439999942,None,1466.6215439999942,None,1466.6215439999942,None,50.0,1.533,1470.3308999,None,2450,,,,,,,,,,,,,,,,,,,f,23,xuyue,2022_Jan_09_0923,emotion,2021.2.3,60.323490756848344,
