trialNumber,trialType,x1,p,y1,p2,outcome1,x2,q,y2,q2,outcome2,LWedgeCol,LCircleCol,RWedgeCol,RCircleCol,Lslice,Rslice,L1,L2,R1,R2,x1Pos,x2Pos,y1Pos,y2Pos,leftPoints,rightPoints,LeftYourUn,RightYouUn,trials.thisRepN,trials.thisTrialN,trials.thisN,trials.thisIndex,trials_2.thisRepN,trials_2.thisTrialN,trials_2.thisN,trials_2.thisIndex,image.started,image.stopped,key_resp_5.keys,key_resp_5.rt,key_resp_5.started,key_resp_5.stopped,image_2.started,image_2.stopped,key_resp_2.keys,key_resp_2.rt,key_resp_2.started,key_resp_2.stopped,ISI_2.started,ISI_2.stopped,arrowL_2.started,arrowL_2.stopped,arrowR_2.started,arrowR_2.stopped,key_resp_4.keys,key_resp_4.rt,key_resp_4.started,key_resp_4.stopped,blueLVal_2.started,blueLVal_2.stopped,blueRVal_2.started,blueRVal_2.stopped,redLVal_2.started,redLVal_2.stopped,redRVal_2.started,redRVal_2.stopped,right.started,right.stopped,left.started,left.stopped,ISI.started,ISI.stopped,arrowL.started,arrowL.stopped,arrowR.started,arrowR.stopped,blueLVal.started,blueLVal.stopped,blueRVal.started,blueRVal.stopped,redLVal.started,redLVal.stopped,redRVal.started,redRVal.stopped,right_2.started,right_2.stopped,left_2.started,left_2.stopped,ISI_4.started,ISI_4.stopped,arrowL_3.started,arrowL_3.stopped,arrowR_3.started,arrowR_3.stopped,blueLVal_3.started,blueLVal_3.stopped,blueRVal_3.started,blueRVal_3.stopped,redLVal_3.started,redLVal_3.stopped,redRVal_3.started,redRVal_3.stopped,rating,ratingrt,text_5.started,text_5.stopped,totalScore,image_4.started,image_4.stopped,key_resp_3.keys,key_resp_3.rt,key_resp_3.started,key_resp_3.stopped,image_5.started,image_5.stopped,key_resp.keys,key_resp.rt,key_resp.started,key_resp.stopped,gender,age,participant,date,expName,psychopyVersion,frameRate,
,,,,,,,,,,,,,,,,,,,,,,,,,,,,,,,,,,,,,,31.87611250000191,None,space,4.798797199997352,31.87611250000191,None,,,,,,,,,,,,,,,,,,,,,,,,,,,,,,,,,,,,,,,,,,,,,,,,,,,,,,,,,,,,,,,,,,,,,,,,,,,,,,f,24,zou jiali,2022_Jan_08_1704,emotion,2021.2.3,58.29166936011094,
,,,,,,,,,,,,,,,,,,,,,,,,,,,,,,,,,,,,,,,,,,,,36.70784239999193,None,space,8.03665570000885,36.70784239999193,None,,,,,,,,,,,,,,,,,,,,,,,,,,,,,,,,,,,,,,,,,,,,,,,,,,,,,,,,,,,,,,,,,,,,,,,,f,24,zou jiali,2022_Jan_08_1704,emotion,2021.2.3,58.29166936011094,
410,partial,0,0.2,-50,0.8,red,0,0.8,-200,0.2,red,blue,red,red,blue,72,72,77,355,5,67,"[-6.7, 1.9]","[6.7, -1.9]","[-9.3, -1.9]","[9.3, 1.9]",-50,-200,0,0,0,0,0,39,,,,,,,,,,,,,,,,,0.013356000010389835,0.5133560000103898,45.20224600000074,None,45.20224600000074,None,right,19.29692680000153,45.20224600000074,None,45.20224600000074,None,45.20224600000074,None,45.20224600000074,None,45.20224600000074,None,64.55985350000265,None,64.55985350000265,None,0.00014290001126937568,0.5001429000112694,64.55985350000265,None,64.55985350000265,None,64.55985350000265,None,64.55985350000265,None,64.55985350000265,None,64.55985350000265,None,68.62371240000357,None,68.62371240000357,None,0.00269880001724232,0.5026988000172423,68.62371240000357,None,68.62371240000357,None,68.62371240000357,None,68.62371240000357,None,68.62371240000357,None,68.62371240000357,None,-43.2,5.356,76.10101850000501,None,-200,,,,,,,,,,,,,f,24,zou jiali,2022_Jan_08_1704,emotion,2021.2.3,58.29166936011094,
429,partial,0,0.2,-50,0.8,red,-50,0.8,-200,0.2,red,blue,red,red,blue,72,72,77,355,5,67,"[-6.7, 1.9]","[6.7, -1.9]","[-9.3, -1.9]","[9.3, 1.9]",-50,-200,0,-50,0,1,1,41,,,,,,,,,,,,,,,,,0.012767599982907996,0.512767599982908,77.11822999999276,None,77.11822999999276,None,left,4.187270000009448,77.11822999999276,None,77.11822999999276,None,77.11822999999276,None,77.11822999999276,None,77.11822999999276,None,81.36665989999892,None,81.36665989999892,None,0.01649020001059398,0.516490200010594,81.36665989999892,None,81.36665989999892,None,81.36665989999892,None,81.36665989999892,None,81.36665989999892,None,81.36665989999892,None,85.68019850000564,None,85.68019850000564,None,0.003540099991369061,0.5035400999913691,85.68019850000564,None,85.68019850000564,None,85.68019850000564,None,85.68019850000564,None,85.68019850000564,None,85.68019850000564,None,-0.29999999999999716,4.296,92.07361740000488,None,-250,,,,,,,,,,,,,f,24,zou jiali,2022_Jan_08_1704,emotion,2021.2.3,58.29166936011094,
417,partial,0,0.5,-200,0.5,red,-50,0.8,-200,0.2,red,red,blue,red,blue,180,72,5,175,5,67,"[-10, 0]","[6.7, -1.9]","[-6, 0]","[9.3, 1.9]",-200,-200,0,-50,0,2,2,43,,,,,,,,,,,,,,,,,0.014182399987475947,0.514182399987476,93.11217769999348,None,93.11217769999348,None,left,11.341229500001646,93.11217769999348,None,93.11217769999348,None,93.11217769999348,None,93.11217769999348,None,93.11217769999348,None,104.51733339999919,None,104.51733339999919,None,0.0013198000087868422,0.5013198000087868,104.51733339999919,None,104.51733339999919,None,104.51733339999919,None,104.51733339999919,None,104.51733339999919,None,104.51733339999919,None,108.43202649999876,None,108.43202649999876,None,0.003670199992484413,0.5036701999924844,108.43202649999876,None,108.43202649999876,None,108.43202649999876,None,108.43202649999876,None,108.43202649999876,None,108.43202649999876,None,-27.0,3.554,114.07419280000613,None,-450,,,,,,,,,,,,,f,24,zou jiali,2022_Jan_08_1704,emotion,2021.2.3,58.29166936011094,
84,partial,0,0.5,-50,0.5,blue,0,0.5,-200,0.5,blue,red,blue,red,blue,180,180,185,355,185,355,"[-10, 0]","[6, 0]","[-6, 0]","[10, 0]",0,0,-50,-200,0,3,3,24,,,,,,,,,,,,,,,,,0.013593999989097938,0.5135939999890979,115.10740979999537,None,115.10740979999537,None,left,3.8311124999891035,115.10740979999537,None,115.10740979999537,None,115.10740979999537,None,115.10740979999537,None,115.10740979999537,None,118.97847780000302,None,118.97847780000302,None,0.002132900001015514,0.5021329000010155,118.97847780000302,None,118.97847780000302,None,118.97847780000302,None,118.97847780000302,None,118.97847780000302,None,118.97847780000302,None,123.17085779999616,None,123.17085779999616,None,0.005016200011596084,0.5050162000115961,123.17085779999616,None,123.17085779999616,None,123.17085779999616,None,123.17085779999616,None,123.17085779999616,None,123.17085779999616,None,0.20000000000000284,2.75,128.02519179999945,None,-450,,,,,,,,,,,,,f,24,zou jiali,2022_Jan_08_1704,emotion,2021.2.3,58.29166936011094,
303,partial,0,0.2,-50,0.8,red,0,0.5,-200,0.5,blue,blue,red,red,blue,72,180,77,355,185,355,"[-6.7, 1.9]","[6, 0]","[-9.3, -1.9]","[10, 0]",-50,0,0,-200,0,4,4,18,,,,,,,,,,,,,,,,,0.0009949000086635351,0.5009949000086635,129.0597213000001,None,129.0597213000001,None,left,2.9110387999971863,129.0597213000001,None,129.0597213000001,None,129.0597213000001,None,129.0597213000001,None,129.0597213000001,None,132.01692530000582,None,132.01692530000582,None,0.001498500001616776,0.5014985000016168,132.01692530000582,None,132.01692530000582,None,132.01692530000582,None,132.01692530000582,None,132.01692530000582,None,132.01692530000582,None,135.77136850000534,None,135.77136850000534,None,0.004739399999380112,0.5047393999993801,135.77136850000534,None,135.77136850000534,None,135.77136850000534,None,135.77136850000534,None,135.77136850000534,None,135.77136850000534,None,-5.799999999999997,3.572,141.4211537999945,None,-500,,,,,,,,,,,,,f,24,zou jiali,2022_Jan_08_1704,emotion,2021.2.3,58.29166936011094,
203,partial,0,0.2,-200,0.8,blue,-50,0.2,-200,0.8,red,blue,red,blue,red,72,72,5,67,77,355,"[-6.7, 1.9]","[9.3, 1.9]","[-9.3, -1.9]","[6.7, -1.9]",0,-200,-200,-50,0,5,5,1,,,,,,,,,,,,,,,,,0.013798699990729801,0.5137986999907298,142.44828399999824,None,142.44828399999824,None,left,6.364280099995085,142.44828399999824,None,142.44828399999824,None,142.44828399999824,None,142.44828399999824,None,142.44828399999824,None,148.85958140000002,None,148.85958140000002,None,0.003371100014192052,0.503371100014192,148.85958140000002,None,148.85958140000002,None,148.85958140000002,None,148.85958140000002,None,148.85958140000002,None,148.85958140000002,None,152.55701590000535,None,152.55701590000535,None,0.003191499985405244,0.5031914999854052,152.55701590000535,None,152.55701590000535,None,152.55701590000535,None,152.55701590000535,None,152.55701590000535,None,152.55701590000535,None,-0.20000000000000284,13.249,167.88867139999638,None,-500,,,,,,,,,,,,,f,24,zou jiali,2022_Jan_08_1704,emotion,2021.2.3,58.29166936011094,
275,partial,50,0.2,0,0.8,red,200,0.8,0,0.2,blue,blue,red,red,blue,72,72,77,355,77,355,"[-6.7, 1.9]","[6.7, -1.9]","[-9.3, -1.9]","[9.3, 1.9]",0,200,50,0,0,6,6,90,,,,,,,,,,,,,,,,,0.001997200000914745,0.5019972000009147,168.93197540000256,None,168.93197540000256,None,right,4.185045999998692,168.93197540000256,None,168.93197540000256,None,168.93197540000256,None,168.93197540000256,None,168.93197540000256,None,173.1813725999964,None,173.1813725999964,None,0.0014854000182822347,0.5014854000182822,173.1813725999964,None,173.1813725999964,None,173.1813725999964,None,173.1813725999964,None,173.1813725999964,None,173.1813725999964,None,176.747371999998,None,176.747371999998,None,0.004233300016494468,0.5042333000164945,176.747371999998,None,176.747371999998,None,176.747371999998,None,176.747371999998,None,176.747371999998,None,176.747371999998,None,17.900000000000006,6.996,185.81706159999885,None,-300,,,,,,,,,,,,,f,24,zou jiali,2022_Jan_08_1704,emotion,2021.2.3,58.29166936011094,
170,partial,50,0.8,0,0.2,blue,200,0.8,0,0.2,red,red,blue,red,blue,72,72,77,355,5,67,"[-9.3, -1.9]","[6.7, -1.9]","[-6.7, 1.9]","[9.3, 1.9]",50,0,0,200,0,7,7,105,,,,,,,,,,,,,,,,,0.014400900006876327,0.5144009000068763,186.83957050000026,None,186.83957050000026,None,right,1.9208762000052957,186.83957050000026,None,186.83957050000026,None,186.83957050000026,None,186.83957050000026,None,186.83957050000026,None,188.82652339999913,None,188.82652339999913,None,0.0013722000003326684,0.5013722000003327,188.82652339999913,None,188.82652339999913,None,188.82652339999913,None,188.82652339999913,None,188.82652339999913,None,188.82652339999913,None,192.59460660000332,None,192.59460660000332,None,0.003623000011430122,0.5036230000114301,192.59460660000332,None,192.59460660000332,None,192.59460660000332,None,192.59460660000332,None,192.59460660000332,None,192.59460660000332,None,0.20000000000000284,4.124,198.79101620000438,None,-300,,,,,,,,,,,,,f,24,zou jiali,2022_Jan_08_1704,emotion,2021.2.3,58.29166936011094,
88,partial,0,0.8,-50,0.2,blue,0,0.2,-200,0.8,blue,red,blue,blue,red,72,72,77,355,5,67,"[-9.3, -1.9]","[9.3, 1.9]","[-6.7, 1.9]","[6.7, -1.9]",0,0,-50,-200,0,8,8,12,,,,,,,,,,,,,,,,,0.015892499999608845,0.5158924999996088,199.83834719999868,None,199.83834719999868,None,left,13.200715800005128,199.83834719999868,None,199.83834719999868,None,199.83834719999868,None,199.83834719999868,None,199.83834719999868,None,213.07869409999694,None,213.07869409999694,None,0.00325949999387376,0.5032594999938738,213.07869409999694,None,213.07869409999694,None,213.07869409999694,None,213.07869409999694,None,213.07869409999694,None,213.07869409999694,None,217.23163369999384,None,217.23163369999384,None,0.00348620000295341,0.5034862000029534,217.23163369999384,None,217.23163369999384,None,217.23163369999384,None,217.23163369999384,None,217.23163369999384,None,217.23163369999384,None,-0.20000000000000284,1.806,221.09458069999528,None,-300,,,,,,,,,,,,,f,24,zou jiali,2022_Jan_08_1704,emotion,2021.2.3,58.29166936011094,
107,partial,0,0.8,-50,0.2,blue,-50,0.2,-200,0.8,blue,red,blue,blue,red,72,72,77,355,5,67,"[-9.3, -1.9]","[9.3, 1.9]","[-6.7, 1.9]","[6.7, -1.9]",0,-50,-50,-200,0,9,9,14,,,,,,,,,,,,,,,,,0.0009767000010469928,0.500976700001047,222.13261780000175,None,222.13261780000175,None,left,4.650082100008149,222.13261780000175,None,222.13261780000175,None,222.13261780000175,None,222.13261780000175,None,222.13261780000175,None,226.84036269999342,None,226.84036269999342,None,0.0013371999957598746,0.5013371999957599,226.84036269999342,None,226.84036269999342,None,226.84036269999342,None,226.84036269999342,None,226.84036269999342,None,226.84036269999342,None,230.94003019999946,None,230.94003019999946,None,0.0033482000144431368,0.5033482000144431,230.94003019999946,None,230.94003019999946,None,230.94003019999946,None,230.94003019999946,None,230.94003019999946,None,230.94003019999946,None,0.20000000000000284,7.098,240.09950460000255,None,-300,,,,,,,,,,,,,f,24,zou jiali,2022_Jan_08_1704,emotion,2021.2.3,58.29166936011094,
431,partial,0,0.8,-50,0.2,red,-50,0.2,-200,0.8,red,red,blue,blue,red,72,72,5,67,77,355,"[-9.3, -1.9]","[9.3, 1.9]","[-6.7, 1.9]","[6.7, -1.9]",-50,-200,0,-50,0,10,10,17,,,,,,,,,,,,,,,,,0.001051500003086403,0.5010515000030864,241.1306104999967,None,241.1306104999967,None,left,3.1467420999979367,241.1306104999967,None,241.1306104999967,None,241.1306104999967,None,241.1306104999967,None,241.1306104999967,None,244.3344039999938,None,244.3344039999938,None,0.003239900019252673,0.5032399000192527,244.3344039999938,None,244.3344039999938,None,244.3344039999938,None,244.3344039999938,None,244.3344039999938,None,244.3344039999938,None,248.158425600006,None,248.158425600006,None,0.0038696999981766567,0.5038696999981767,248.158425600006,None,248.158425600006,None,248.158425600006,None,248.158425600006,None,248.158425600006,None,248.158425600006,None,-5.299999999999997,7.939,258.1722462000034,None,-350,,,,,,,,,,,,,f,24,zou jiali,2022_Jan_08_1704,emotion,2021.2.3,58.29166936011094,
283,partial,50,0.2,0,0.8,red,200,0.5,50,0.5,blue,blue,red,red,blue,72,180,77,355,185,355,"[-6.7, 1.9]","[6, 0]","[-9.3, -1.9]","[10, 0]",0,200,50,50,0,11,11,76,,,,,,,,,,,,,,,,,0.014560099996742792,0.5145600999967428,259.2026184999995,None,259.2026184999995,None,right,3.4302362999878824,259.2026184999995,None,259.2026184999995,None,259.2026184999995,None,259.2026184999995,None,259.2026184999995,None,262.694147000002,None,262.694147000002,None,0.0008480999968014657,0.5008480999968015,262.694147000002,None,262.694147000002,None,262.694147000002,None,262.694147000002,None,262.694147000002,None,262.694147000002,None,266.60252729999775,None,266.60252729999775,None,0.0029904999973950908,0.5029904999973951,266.60252729999775,None,266.60252729999775,None,266.60252729999775,None,266.60252729999775,None,266.60252729999775,None,266.60252729999775,None,24.799999999999997,7.264,275.96477959999174,None,-150,,,,,,,,,,,,,f,24,zou jiali,2022_Jan_08_1704,emotion,2021.2.3,58.29166936011094,
86,partial,0,0.2,-50,0.8,blue,0,0.8,-200,0.2,blue,blue,red,red,blue,72,72,5,67,77,355,"[-6.7, 1.9]","[6.7, -1.9]","[-9.3, -1.9]","[9.3, 1.9]",0,0,-50,-200,0,12,12,36,,,,,,,,,,,,,,,,,0.0055976999865379184,0.5055976999865379,277.0098552999989,None,277.0098552999989,None,left,7.781472699993174,277.0098552999989,None,277.0098552999989,None,277.0098552999989,None,277.0098552999989,None,277.0098552999989,None,284.8392688000022,None,284.8392688000022,None,0.001816000003600493,0.5018160000036005,284.8392688000022,None,284.8392688000022,None,284.8392688000022,None,284.8392688000022,None,284.8392688000022,None,284.8392688000022,None,288.4183301000012,None,288.4183301000012,None,0.003971800004364923,0.5039718000043649,288.4183301000012,None,288.4183301000012,None,288.4183301000012,None,288.4183301000012,None,288.4183301000012,None,288.4183301000012,None,20.099999999999994,3.9,294.40671830000065,None,-150,,,,,,,,,,,,,f,24,zou jiali,2022_Jan_08_1704,emotion,2021.2.3,58.29166936011094,
190,partial,0,0.5,-50,0.5,blue,0,0.2,-200,0.8,red,red,blue,blue,red,180,72,185,355,77,355,"[-10, 0]","[9.3, 1.9]","[-6, 0]","[6.7, -1.9]",0,-200,-50,0,0,13,13,9,,,,,,,,,,,,,,,,,0.0019571000011637807,0.5019571000011638,295.43766860000324,None,295.43766860000324,None,left,2.5972435000003316,295.43766860000324,None,295.43766860000324,None,295.43766860000324,None,295.43766860000324,None,295.43766860000324,None,298.0792381999927,None,298.0792381999927,None,0.0036994000111008063,0.5036994000111008,298.0792381999927,None,298.0792381999927,None,298.0792381999927,None,298.0792381999927,None,298.0792381999927,None,298.0792381999927,None,301.9416543999978,None,301.9416543999978,None,0.004907399998046458,0.5049073999980465,301.9416543999978,None,301.9416543999978,None,301.9416543999978,None,301.9416543999978,None,301.9416543999978,None,301.9416543999978,None,-0.7000000000000028,6.813,310.80631050000375,None,-150,,,,,,,,,,,,,f,24,zou jiali,2022_Jan_08_1704,emotion,2021.2.3,58.29166936011094,
306,partial,0,0.8,-50,0.2,red,0,0.5,-200,0.5,blue,red,blue,red,blue,72,180,5,67,185,355,"[-9.3, -1.9]","[6, 0]","[-6.7, 1.9]","[10, 0]",-50,0,0,-200,0,14,14,30,,,,,,,,,,,,,,,,,0.0020128000032855198,0.5020128000032855,311.84507860000303,None,311.84507860000303,None,left,2.8251479000027757,311.84507860000303,None,311.84507860000303,None,311.84507860000303,None,311.84507860000303,None,311.84507860000303,None,314.730498799996,None,314.730498799996,None,0.0029005999967921525,0.5029005999967922,314.730498799996,None,314.730498799996,None,314.730498799996,None,314.730498799996,None,314.730498799996,None,314.730498799996,None,318.5621322999941,None,318.5621322999941,None,0.003504300009808503,0.5035043000098085,318.5621322999941,None,318.5621322999941,None,318.5621322999941,None,318.5621322999941,None,318.5621322999941,None,318.5621322999941,None,0.20000000000000284,10.349,330.9838113000005,None,-200,,,,,,,,,,,,,f,24,zou jiali,2022_Jan_08_1704,emotion,2021.2.3,58.29166936011094,
384,partial,50,0.2,0,0.8,red,200,0.5,0,0.5,red,blue,red,red,blue,72,180,77,355,5,175,"[-6.7, 1.9]","[6, 0]","[-9.3, -1.9]","[10, 0]",0,0,50,200,0,15,15,75,,,,,,,,,,,,,,,,,0.014448299989453517,0.5144482999894535,332.0059601999965,None,332.0059601999965,None,right,3.0893235000112327,332.0059601999965,None,332.0059601999965,None,332.0059601999965,None,332.0059601999965,None,332.0059601999965,None,335.1529886999924,None,335.1529886999924,None,0.0016572000022279099,0.5016572000022279,335.1529886999924,None,335.1529886999924,None,335.1529886999924,None,335.1529886999924,None,335.1529886999924,None,335.1529886999924,None,339.2172792999918,None,339.2172792999918,None,0.004778499991516583,0.5047784999915166,339.2172792999918,None,339.2172792999918,None,339.2172792999918,None,339.2172792999918,None,339.2172792999918,None,339.2172792999918,None,-20.2,6.993,348.294833699998,None,-200,,,,,,,,,,,,,f,24,zou jiali,2022_Jan_08_1704,emotion,2021.2.3,58.29166936011094,
319,partial,0,0.2,-50,0.8,red,-50,0.5,-200,0.5,blue,blue,red,red,blue,72,180,77,355,185,355,"[-6.7, 1.9]","[6, 0]","[-9.3, -1.9]","[10, 0]",-50,-50,0,-200,0,16,16,20,,,,,,,,,,,,,,,,,0.003500600010738708,0.5035006000107387,349.348891799993,None,349.348891799993,None,left,6.5409368999971775,349.348891799993,None,349.348891799993,None,349.348891799993,None,349.348891799993,None,349.348891799993,None,355.9545746999938,None,355.9545746999938,None,0.003456200021901168,0.5034562000219012,355.9545746999938,None,355.9545746999938,None,355.9545746999938,None,355.9545746999938,None,355.9545746999938,None,355.9545746999938,None,360.05828199999814,None,360.05828199999814,None,0.0030213999998522922,0.5030213999998523,360.05828199999814,None,360.05828199999814,None,360.05828199999814,None,360.05828199999814,None,360.05828199999814,None,360.05828199999814,None,-8.899999999999999,4.264,366.384962199998,None,-250,,,,,,,,,,,,,f,24,zou jiali,2022_Jan_08_1704,emotion,2021.2.3,58.29166936011094,
165,partial,50,0.5,0,0.5,blue,200,0.5,0,0.5,red,red,blue,red,blue,180,180,185,355,5,175,"[-10, 0]","[6, 0]","[-6, 0]","[10, 0]",50,0,0,200,0,17,17,81,,,,,,,,,,,,,,,,,0.015030699985800311,0.5150306999858003,367.40800039999885,None,367.40800039999885,None,right,2.1097314999933587,367.40800039999885,None,367.40800039999885,None,367.40800039999885,None,367.40800039999885,None,367.40800039999885,None,369.5632789999945,None,369.5632789999945,None,0.0016300999996019527,0.501630099999602,369.5632789999945,None,369.5632789999945,None,369.5632789999945,None,369.5632789999945,None,369.5632789999945,None,369.5632789999945,None,373.4590040000039,None,373.4590040000039,None,0.003727699993760325,0.5037276999937603,373.4590040000039,None,373.4590040000039,None,373.4590040000039,None,373.4590040000039,None,373.4590040000039,None,373.4590040000039,None,-15.600000000000001,3.179,378.73139359999914,None,-250,,,,,,,,,,,,,f,24,zou jiali,2022_Jan_08_1704,emotion,2021.2.3,58.29166936011094,
175,partial,50,0.2,0,0.8,blue,200,0.5,50,0.5,red,blue,red,red,blue,72,180,5,67,5,175,"[-6.7, 1.9]","[6, 0]","[-9.3, -1.9]","[10, 0]",50,50,0,200,0,18,18,73,,,,,,,,,,,,,,,,,0.0011824999965028837,0.5011824999965029,379.7584153999924,None,379.7584153999924,None,right,1.4014930999983335,379.7584153999924,None,379.7584153999924,None,379.7584153999924,None,379.7584153999924,None,379.7584153999924,None,381.22455840000475,None,381.22455840000475,None,0.0017453000182285905,0.5017453000182286,381.22455840000475,None,381.22455840000475,None,381.22455840000475,None,381.22455840000475,None,381.22455840000475,None,381.22455840000475,None,385.5384955000045,None,385.5384955000045,None,0.004876200022408739,0.5048762000224087,385.5384955000045,None,385.5384955000045,None,385.5384955000045,None,385.5384955000045,None,385.5384955000045,None,385.5384955000045,None,-16.9,2.299,389.90404449999915,None,-200,,,,,,,,,,,,,f,24,zou jiali,2022_Jan_08_1704,emotion,2021.2.3,58.29166936011094,
85,partial,0,0.2,-50,0.8,blue,0,0.2,-200,0.8,blue,blue,red,blue,red,72,72,5,67,5,67,"[-6.7, 1.9]","[9.3, 1.9]","[-9.3, -1.9]","[6.7, -1.9]",0,0,-50,-200,0,19,19,0,,,,,,,,,,,,,,,,,0.0025304000009782612,0.5025304000009783,390.95317870000144,None,390.95317870000144,None,left,1.461983399989549,390.95317870000144,None,390.95317870000144,None,390.95317870000144,None,390.95317870000144,None,390.95317870000144,None,392.47495839999465,None,392.47495839999465,None,0.001420399989001453,0.5014203999890015,392.47495839999465,None,392.47495839999465,None,392.47495839999465,None,392.47495839999465,None,392.47495839999465,None,392.47495839999465,None,396.1278741999995,None,396.1278741999995,None,0.0041967000142904,0.5041967000142904,396.1278741999995,None,396.1278741999995,None,396.1278741999995,None,396.1278741999995,None,396.1278741999995,None,396.1278741999995,None,-2.700000000000003,10.01,408.21823470000527,None,-200,,,,,,,,,,,,,f,24,zou jiali,2022_Jan_08_1704,emotion,2021.2.3,58.29166936011094,
274,partial,50,0.2,0,0.8,red,200,0.2,0,0.8,blue,blue,red,blue,red,72,72,77,355,5,67,"[-6.7, 1.9]","[9.3, 1.9]","[-9.3, -1.9]","[6.7, -1.9]",0,200,50,0,0,20,20,54,,,,,,,,,,,,,,,,,0.00492629999644123,0.5049262999964412,409.26636829999916,None,409.26636829999916,None,right,1.7817797000025166,409.26636829999916,None,409.26636829999916,None,409.26636829999916,None,409.26636829999916,None,409.26636829999916,None,411.09843949999777,None,411.09843949999777,None,0.004039799998281524,0.5040397999982815,411.09843949999777,None,411.09843949999777,None,411.09843949999777,None,411.09843949999777,None,411.09843949999777,None,411.09843949999777,None,414.792137299999,None,414.792137299999,None,0.0049780000117607415,0.5049780000117607,414.792137299999,None,414.792137299999,None,414.792137299999,None,414.792137299999,None,414.792137299999,None,414.792137299999,None,5.0,3.14,419.9921716999961,None,0,,,,,,,,,,,,,f,24,zou jiali,2022_Jan_08_1704,emotion,2021.2.3,58.29166936011094,
396,partial,50,0.8,0,0.2,red,200,0.8,50,0.2,red,red,blue,red,blue,72,72,5,67,5,67,"[-9.3, -1.9]","[6.7, -1.9]","[-6.7, 1.9]","[9.3, 1.9]",0,50,50,200,0,21,21,103,,,,,,,,,,,,,,,,,0.014689699994050898,0.5146896999940509,421.0209745000029,None,421.0209745000029,None,right,2.564092000000528,421.0209745000029,None,421.0209745000029,None,421.0209745000029,None,421.0209745000029,None,421.0209745000029,None,423.63058670000464,None,423.63058670000464,None,0.0013213000202085823,0.5013213000202086,423.63058670000464,None,423.63058670000464,None,423.63058670000464,None,423.63058670000464,None,423.63058670000464,None,423.63058670000464,None,427.76822769999853,None,427.76822769999853,None,0.004985800012946129,0.5049858000129461,427.76822769999853,None,427.76822769999853,None,427.76822769999853,None,427.76822769999853,None,427.76822769999853,None,427.76822769999853,None,5.100000000000001,6.021,435.89239209999505,None,50,,,,,,,,,,,,,f,24,zou jiali,2022_Jan_08_1704,emotion,2021.2.3,58.29166936011094,
69,partial,50,0.2,0,0.8,blue,200,0.8,50,0.2,blue,blue,red,red,blue,72,72,5,67,77,355,"[-6.7, 1.9]","[6.7, -1.9]","[-9.3, -1.9]","[9.3, 1.9]",50,200,0,50,0,22,22,94,,,,,,,,,,,,,,,,,0.01508349999494385,0.5150834999949438,436.92256190000626,None,436.92256190000626,None,right,1.2185023999918485,436.92256190000626,None,436.92256190000626,None,436.92256190000626,None,436.92256190000626,None,436.92256190000626,None,438.20669330000237,None,438.20669330000237,None,0.0024951999948825687,0.5024951999948826,438.20669330000237,None,438.20669330000237,None,438.20669330000237,None,438.20669330000237,None,438.20669330000237,None,438.20669330000237,None,442.43923950000317,None,442.43923950000317,None,0.0035528999869711697,0.5035528999869712,442.43923950000317,None,442.43923950000317,None,442.43923950000317,None,442.43923950000317,None,442.43923950000317,None,442.43923950000317,None,20.0,4.709,449.23201389999304,None,250,,,,,,,,,,,,,f,24,zou jiali,2022_Jan_08_1704,emotion,2021.2.3,58.29166936011094,
94,partial,0,0.2,-200,0.8,blue,-50,0.5,-200,0.5,blue,blue,red,red,blue,72,180,5,67,185,355,"[-6.7, 1.9]","[6, 0]","[-9.3, -1.9]","[10, 0]",0,-50,-200,-200,0,23,23,22,,,,,,,,,,,,,,,,,0.012802500001271255,0.5128025000012713,450.2624259000004,None,450.2624259000004,None,left,8.095852300000843,450.2624259000004,None,450.2624259000004,None,450.2624259000004,None,450.2624259000004,None,450.2624259000004,None,458.40659030000097,None,458.40659030000097,None,0.0017559000116307288,0.5017559000116307,458.40659030000097,None,458.40659030000097,None,458.40659030000097,None,458.40659030000097,None,458.40659030000097,None,458.40659030000097,None,462.41155190000427,None,462.41155190000427,None,0.004183399985777214,0.5041833999857772,462.41155190000427,None,462.41155190000427,None,462.41155190000427,None,462.41155190000427,None,462.41155190000427,None,462.41155190000427,None,24.299999999999997,4.895,469.39124670000456,None,250,,,,,,,,,,,,,f,24,zou jiali,2022_Jan_08_1704,emotion,2021.2.3,58.29166936011094,
169,partial,50,0.8,0,0.2,blue,200,0.2,0,0.8,red,red,blue,blue,red,72,72,77,355,77,355,"[-9.3, -1.9]","[9.3, 1.9]","[-6.7, 1.9]","[6.7, -1.9]",50,0,0,200,0,24,24,69,,,,,,,,,,,,,,,,,0.001974600018002093,0.5019746000180021,470.42903850000584,None,470.42903850000584,None,right,12.519854600002873,470.42903850000584,None,470.42903850000584,None,470.42903850000584,None,470.42903850000584,None,470.42903850000584,None,483.01623900000413,None,483.01623900000413,None,0.0028286000015214086,0.5028286000015214,483.01623900000413,None,483.01623900000413,None,483.01623900000413,None,483.01623900000413,None,483.01623900000413,None,483.01623900000413,None,487.1600873999996,None,487.1600873999996,None,0.0036893999931635335,0.5036893999931635,487.1600873999996,None,487.1600873999996,None,487.1600873999996,None,487.1600873999996,None,487.1600873999996,None,487.1600873999996,None,-13.200000000000003,2.306,491.5188826999947,None,250,,,,,,,,,,,,,f,24,zou jiali,2022_Jan_08_1704,emotion,2021.2.3,58.29166936011094,
413,partial,0,0.8,-50,0.2,red,0,0.8,-200,0.2,red,red,blue,red,blue,72,72,5,67,5,67,"[-9.3, -1.9]","[6.7, -1.9]","[-6.7, 1.9]","[9.3, 1.9]",-50,-200,0,0,0,25,25,51,,,,,,,,,,,,,,,,,0.0014802000223426148,0.5014802000223426,492.5487996000011,None,492.5487996000011,None,left,1.711005799996201,492.5487996000011,None,492.5487996000011,None,492.5487996000011,None,492.5487996000011,None,492.5487996000011,None,494.3050157999969,None,494.3050157999969,None,0.003080000009504147,0.5030800000095041,494.3050157999969,None,494.3050157999969,None,494.3050157999969,None,494.3050157999969,None,494.3050157999969,None,494.3050157999969,None,498.26060860000143,None,498.26060860000143,None,0.005170999997062609,0.5051709999970626,498.26060860000143,None,498.26060860000143,None,498.26060860000143,None,498.26060860000143,None,498.26060860000143,None,498.26060860000143,None,-0.5,2.481,502.8191708999948,None,200,,,,,,,,,,,,,f,24,zou jiali,2022_Jan_08_1704,emotion,2021.2.3,58.29166936011094,
214,partial,0,0.8,-50,0.2,blue,-50,0.5,-200,0.5,red,red,blue,red,blue,72,180,77,355,5,175,"[-9.3, -1.9]","[6, 0]","[-6.7, 1.9]","[10, 0]",0,-200,-50,-50,0,26,26,35,,,,,,,,,,,,,,,,,0.013908799985074438,0.5139087999850744,503.8402266000048,None,503.8402266000048,None,left,4.677154899996822,503.8402266000048,None,503.8402266000048,None,503.8402266000048,None,503.8402266000048,None,503.8402266000048,None,508.5666471000004,None,508.5666471000004,None,0.0038192999927559868,0.503819299992756,508.5666471000004,None,508.5666471000004,None,508.5666471000004,None,508.5666471000004,None,508.5666471000004,None,508.5666471000004,None,512.5109650999948,None,512.5109650999948,None,0.0036823000118602067,0.5036823000118602,512.5109650999948,None,512.5109650999948,None,512.5109650999948,None,512.5109650999948,None,512.5109650999948,None,512.5109650999948,None,1.1000000000000014,3.235,517.8323686999938,None,200,,,,,,,,,,,,,f,24,zou jiali,2022_Jan_08_1704,emotion,2021.2.3,58.29166936011094,
278,partial,50,0.8,0,0.2,red,200,0.8,0,0.2,blue,red,blue,red,blue,72,72,5,67,77,355,"[-9.3, -1.9]","[6.7, -1.9]","[-6.7, 1.9]","[9.3, 1.9]",0,200,50,0,0,27,27,102,,,,,,,,,,,,,,,,,0.0004163999983575195,0.5004163999983575,518.8706246999936,None,518.8706246999936,None,right,2.075046800004202,518.8706246999936,None,518.8706246999936,None,518.8706246999936,None,518.8706246999936,None,518.8706246999936,None,520.9876705000061,None,520.9876705000061,None,0.004144599995925091,0.5041445999959251,520.9876705000061,None,520.9876705000061,None,520.9876705000061,None,520.9876705000061,None,520.9876705000061,None,520.9876705000061,None,524.6715205999935,None,524.6715205999935,None,0.0043234000040683895,0.5043234000040684,524.6715205999935,None,524.6715205999935,None,524.6715205999935,None,524.6715205999935,None,524.6715205999935,None,524.6715205999935,None,10.299999999999997,1.973,528.7255749000033,None,400,,,,,,,,,,,,,f,24,zou jiali,2022_Jan_08_1704,emotion,2021.2.3,58.29166936011094,
104,partial,0,0.2,-50,0.8,blue,-50,0.2,-200,0.8,blue,blue,red,blue,red,72,72,5,67,5,67,"[-6.7, 1.9]","[9.3, 1.9]","[-9.3, -1.9]","[6.7, -1.9]",0,-50,-50,-200,0,28,28,2,,,,,,,,,,,,,,,,,0.013755000007222407,0.5137550000072224,529.7483864999958,None,529.7483864999958,None,left,3.049166700002388,529.7483864999958,None,529.7483864999958,None,529.7483864999958,None,529.7483864999958,None,529.7483864999958,None,532.8431468000053,None,532.8431468000053,None,0.0030725000106031075,0.5030725000106031,532.8431468000053,None,532.8431468000053,None,532.8431468000053,None,532.8431468000053,None,532.8431468000053,None,532.8431468000053,None,537.1311982000043,None,537.1311982000043,None,0.0033873000065796077,0.5033873000065796,537.1311982000043,None,537.1311982000043,None,537.1311982000043,None,537.1311982000043,None,537.1311982000043,None,537.1311982000043,None,10.0,4.087,543.3079063000041,None,400,,,,,,,,,,,,,f,24,zou jiali,2022_Jan_08_1704,emotion,2021.2.3,58.29166936011094,
178,partial,50,0.8,0,0.2,blue,200,0.5,50,0.5,red,red,blue,red,blue,72,180,77,355,5,175,"[-9.3, -1.9]","[6, 0]","[-6.7, 1.9]","[10, 0]",50,50,0,200,0,29,29,85,,,,,,,,,,,,,,,,,0.008762599987676367,0.5087625999876764,544.3534733999986,None,544.3534733999986,None,right,2.0301938000047812,544.3534733999986,None,544.3534733999986,None,544.3534733999986,None,544.3534733999986,None,544.3534733999986,None,546.4404601999995,None,546.4404601999995,None,0.001429900003131479,0.5014299000031315,546.4404601999995,None,546.4404601999995,None,546.4404601999995,None,546.4404601999995,None,546.4404601999995,None,546.4404601999995,None,550.3663818999921,None,550.3663818999921,None,0.0035586000158218667,0.5035586000158219,550.3663818999921,None,550.3663818999921,None,550.3663818999921,None,550.3663818999921,None,550.3663818999921,None,550.3663818999921,None,-2.3999999999999986,7.009,559.4369627999986,None,450,,,,,,,,,,,,,f,24,zou jiali,2022_Jan_08_1704,emotion,2021.2.3,58.29166936011094,
60,partial,50,0.2,0,0.8,blue,200,0.5,0,0.5,blue,blue,red,red,blue,72,180,5,67,185,355,"[-6.7, 1.9]","[6, 0]","[-9.3, -1.9]","[10, 0]",50,200,0,0,0,30,30,72,,,,,,,,,,,,,,,,,0.015132600005017594,0.5151326000050176,560.4756704000029,None,560.4756704000029,None,right,1.8857375999941723,560.4756704000029,None,560.4756704000029,None,560.4756704000029,None,560.4756704000029,None,560.4756704000029,None,562.4234385000018,None,562.4234385000018,None,0.0014362000074470416,0.501436200007447,562.4234385000018,None,562.4234385000018,None,562.4234385000018,None,562.4234385000018,None,562.4234385000018,None,562.4234385000018,None,566.500271900004,None,566.500271900004,None,0.0028060000186087564,0.5028060000186088,566.500271900004,None,566.500271900004,None,566.500271900004,None,566.500271900004,None,566.500271900004,None,566.500271900004,None,19.099999999999994,2.65,571.2339461999945,None,650,,,,,,,,,,,,,f,24,zou jiali,2022_Jan_08_1704,emotion,2021.2.3,58.29166936011094,
211,partial,0,0.2,-50,0.8,blue,-50,0.5,-200,0.5,red,blue,red,red,blue,72,180,5,67,5,175,"[-6.7, 1.9]","[6, 0]","[-9.3, -1.9]","[10, 0]",0,-200,-50,-50,0,31,31,23,,,,,,,,,,,,,,,,,0.013323399994987994,0.513323399994988,572.268319499999,None,572.268319499999,None,left,8.628408000004129,572.268319499999,None,572.268319499999,None,572.268319499999,None,572.268319499999,None,572.268319499999,None,580.9535986999981,None,580.9535986999981,None,0.0013115000183461234,0.5013115000183461,580.9535986999981,None,580.9535986999981,None,580.9535986999981,None,580.9535986999981,None,580.9535986999981,None,580.9535986999981,None,584.6553691000008,None,584.6553691000008,None,0.003563400008715689,0.5035634000087157,584.6553691000008,None,584.6553691000008,None,584.6553691000008,None,584.6553691000008,None,584.6553691000008,None,584.6553691000008,None,3.5,1.754,588.5043470999954,None,650,,,,,,,,,,,,,f,24,zou jiali,2022_Jan_08_1704,emotion,2021.2.3,58.29166936011094,
297,partial,200,0.8,0,0.2,red,200,0.8,50,0.2,blue,red,blue,red,blue,72,72,5,67,77,355,"[-9.3, -1.9]","[6.7, -1.9]","[-6.7, 1.9]","[9.3, 1.9]",0,200,200,50,0,32,32,104,,,,,,,,,,,,,,,,,0.00032310000096913427,0.5003231000009691,589.5274376000016,None,589.5274376000016,None,right,3.3733100999961607,589.5274376000016,None,589.5274376000016,None,589.5274376000016,None,589.5274376000016,None,589.5274376000016,None,592.9470979000034,None,592.9470979000034,None,0.003756500009330921,0.5037565000093309,592.9470979000034,None,592.9470979000034,None,592.9470979000034,None,592.9470979000034,None,592.9470979000034,None,592.9470979000034,None,596.9666432999948,None,596.9666432999948,None,0.0032470000005559996,0.503247000000556,596.9666432999948,None,596.9666432999948,None,596.9666432999948,None,596.9666432999948,None,596.9666432999948,None,596.9666432999948,None,17.599999999999994,3.239,602.2727657999931,None,850,,,,,,,,,,,,,f,24,zou jiali,2022_Jan_08_1704,emotion,2021.2.3,58.29166936011094,
185,partial,200,0.2,0,0.8,blue,200,0.2,50,0.8,red,blue,red,blue,red,72,72,5,67,77,355,"[-6.7, 1.9]","[9.3, 1.9]","[-9.3, -1.9]","[6.7, -1.9]",200,50,0,200,0,33,33,59,,,,,,,,,,,,,,,,,0.015141399984713644,0.5151413999847136,603.2885964000016,None,603.2885964000016,None,right,1.5549122999946121,603.2885964000016,None,603.2885964000016,None,603.2885964000016,None,603.2885964000016,None,603.2885964000016,None,604.8928607999987,None,604.8928607999987,None,0.001379100009216927,0.5013791000092169,604.8928607999987,None,604.8928607999987,None,604.8928607999987,None,604.8928607999987,None,604.8928607999987,None,604.8928607999987,None,608.6468425000057,None,608.6468425000057,None,0.004853300008107908,0.5048533000081079,608.6468425000057,None,608.6468425000057,None,608.6468425000057,None,608.6468425000057,None,608.6468425000057,None,608.6468425000057,None,0.8999999999999986,2.673,613.4115420000016,None,900,,,,,,,,,,,,,f,24,zou jiali,2022_Jan_08_1704,emotion,2021.2.3,58.29166936011094,
398,partial,200,0.5,0,0.5,red,200,0.2,50,0.8,red,red,blue,blue,red,180,72,5,175,77,355,"[-10, 0]","[9.3, 1.9]","[-6, 0]","[6.7, -1.9]",0,50,200,200,0,34,34,65,,,,,,,,,,,,,,,,,0.005013599977246486,0.5050135999772465,614.4465577999945,None,614.4465577999945,None,left,5.6787876000016695,614.4465577999945,None,614.4465577999945,None,614.4465577999945,None,614.4465577999945,None,614.4465577999945,None,620.1947283000045,None,620.1947283000045,None,0.0006236000044737011,0.5006236000044737,620.1947283000045,None,620.1947283000045,None,620.1947283000045,None,620.1947283000045,None,620.1947283000045,None,620.1947283000045,None,623.7484683999937,None,623.7484683999937,None,0.004666500011808239,0.5046665000118082,623.7484683999937,None,623.7484683999937,None,623.7484683999937,None,623.7484683999937,None,623.7484683999937,None,623.7484683999937,None,-9.399999999999999,1.484,627.3091273000027,None,900,,,,,,,,,,,,,f,24,zou jiali,2022_Jan_08_1704,emotion,2021.2.3,58.29166936011094,
395,partial,50,0.8,0,0.2,red,200,0.2,50,0.8,red,red,blue,blue,red,72,72,5,67,77,355,"[-9.3, -1.9]","[9.3, 1.9]","[-6.7, 1.9]","[6.7, -1.9]",0,50,50,200,0,35,35,67,,,,,,,,,,,,,,,,,0.0004675000091083348,0.5004675000091083,628.3458696000016,None,628.3458696000016,None,right,2.780027800006792,628.3458696000016,None,628.3458696000016,None,628.3458696000016,None,628.3458696000016,None,628.3458696000016,None,631.1633147999964,None,631.1633147999964,None,0.0023262000177055597,0.5023262000177056,631.1633147999964,None,631.1633147999964,None,631.1633147999964,None,631.1633147999964,None,631.1633147999964,None,631.1633147999964,None,635.2119047000015,None,635.2119047000015,None,0.0034909999958472326,0.5034909999958472,635.2119047000015,None,635.2119047000015,None,635.2119047000015,None,635.2119047000015,None,635.2119047000015,None,635.2119047000015,None,0.29999999999999716,2.307,639.5748039000027,None,950,,,,,,,,,,,,,f,24,zou jiali,2022_Jan_08_1704,emotion,2021.2.3,58.29166936011094,
409,partial,0,0.2,-50,0.8,red,0,0.2,-200,0.8,red,blue,red,blue,red,72,72,77,355,77,355,"[-6.7, 1.9]","[9.3, 1.9]","[-9.3, -1.9]","[6.7, -1.9]",-50,-200,0,0,0,36,36,3,,,,,,,,,,,,,,,,,0.013988999984576367,0.5139889999845764,640.5993713999924,None,640.5993713999924,None,left,1.684142999991309,640.5993713999924,None,640.5993713999924,None,640.5993713999924,None,640.5993713999924,None,640.5993713999924,None,642.3317855999921,None,642.3317855999921,None,0.0036643999919760972,0.5036643999919761,642.3317855999921,None,642.3317855999921,None,642.3317855999921,None,642.3317855999921,None,642.3317855999921,None,642.3317855999921,None,646.4089714000002,None,646.4089714000002,None,0.0039843999984441325,0.5039843999984441,646.4089714000002,None,646.4089714000002,None,646.4089714000002,None,646.4089714000002,None,646.4089714000002,None,646.4089714000002,None,-5.399999999999999,7.141,655.6366987999936,None,900,,,,,,,,,,,,,f,24,zou jiali,2022_Jan_08_1704,emotion,2021.2.3,58.29166936011094,
421,partial,0,0.8,-200,0.2,red,-50,0.5,-200,0.5,red,red,blue,red,blue,72,180,5,67,5,175,"[-9.3, -1.9]","[6, 0]","[-6.7, 1.9]","[10, 0]",-200,-200,0,-50,0,37,37,31,,,,,,,,,,,,,,,,,0.007208299997728318,0.5072082999977283,656.6855921999959,None,656.6855921999959,None,left,7.0843919000035385,656.6855921999959,None,656.6855921999959,None,656.6855921999959,None,656.6855921999959,None,656.6855921999959,None,663.8218886999966,None,663.8218886999966,None,0.0007456999883288518,0.5007456999883289,663.8218886999966,None,663.8218886999966,None,663.8218886999966,None,663.8218886999966,None,663.8218886999966,None,663.8218886999966,None,667.7561338999949,None,667.7561338999949,None,0.0038366000080714002,0.5038366000080714,667.7561338999949,None,667.7561338999949,None,667.7561338999949,None,667.7561338999949,None,667.7561338999949,None,667.7561338999949,None,-17.6,8.542,678.400498499992,None,700,,,,,,,,,,,,,f,24,zou jiali,2022_Jan_08_1704,emotion,2021.2.3,58.29166936011094,
97,partial,0,0.8,-200,0.2,blue,-50,0.5,-200,0.5,blue,red,blue,red,blue,72,180,77,355,185,355,"[-9.3, -1.9]","[6, 0]","[-6.7, 1.9]","[10, 0]",0,-50,-200,-200,0,38,38,34,,,,,,,,,,,,,,,,,0.00428109998756554,0.5042810999875655,679.441525400005,None,679.441525400005,None,left,4.747733099997276,679.441525400005,None,679.441525400005,None,679.441525400005,None,679.441525400005,None,679.441525400005,None,684.2543818999984,None,684.2543818999984,None,0.0012136000004829839,0.501213600000483,684.2543818999984,None,684.2543818999984,None,684.2543818999984,None,684.2543818999984,None,684.2543818999984,None,684.2543818999984,None,687.7764422000037,None,687.7764422000037,None,0.0033119000145234168,0.5033119000145234,687.7764422000037,None,687.7764422000037,None,687.7764422000037,None,687.7764422000037,None,687.7764422000037,None,687.7764422000037,None,-0.10000000000000142,1.387,691.2578104999993,None,700,,,,,,,,,,,,,f,24,zou jiali,2022_Jan_08_1704,emotion,2021.2.3,58.29166936011094,
399,partial,200,0.5,0,0.5,red,200,0.8,50,0.2,red,red,blue,red,blue,180,72,5,175,5,67,"[-10, 0]","[6.7, -1.9]","[-6, 0]","[9.3, 1.9]",0,50,200,200,0,39,39,101,,,,,,,,,,,,,,,,,0.01668079999217298,0.516680799992173,692.2971579000005,None,692.2971579000005,None,right,2.45635000000766,692.2971579000005,None,692.2971579000005,None,692.2971579000005,None,692.2971579000005,None,692.2971579000005,None,694.8066156999994,None,694.8066156999994,None,0.012300499991397373,0.5123004999913974,694.8066156999994,None,694.8066156999994,None,694.8066156999994,None,694.8066156999994,None,694.8066156999994,None,694.8066156999994,None,698.5247422999964,None,698.5247422999964,None,0.004890500000328757,0.5048905000003288,698.5247422999964,None,698.5247422999964,None,698.5247422999964,None,698.5247422999964,None,698.5247422999964,None,698.5247422999964,None,2.6000000000000014,4.139,704.7218597000028,None,750,,,,,,,,,,,,,f,24,zou jiali,2022_Jan_08_1704,emotion,2021.2.3,58.29166936011094,
92,partial,0,0.5,-200,0.5,blue,-50,0.2,-200,0.8,blue,red,blue,blue,red,180,72,185,355,5,67,"[-10, 0]","[9.3, 1.9]","[-6, 0]","[6.7, -1.9]",0,-50,-200,-200,0,40,40,10,,,,,,,,,,,,,,,,,0.012972299999091774,0.5129722999990918,705.752049200004,None,705.752049200004,None,left,6.763636300005601,705.752049200004,None,705.752049200004,None,705.752049200004,None,705.752049200004,None,705.752049200004,None,712.575915399997,None,712.575915399997,None,0.0010580999951343983,0.5010580999951344,712.575915399997,None,712.575915399997,None,712.575915399997,None,712.575915399997,None,712.575915399997,None,712.575915399997,None,716.0740412000014,None,716.0740412000014,None,0.003716899998835288,0.5037168999988353,716.0740412000014,None,716.0740412000014,None,716.0740412000014,None,716.0740412000014,None,716.0740412000014,None,716.0740412000014,None,4.600000000000001,6.55,724.7171938999963,None,750,,,,,,,,,,,,,f,24,zou jiali,2022_Jan_08_1704,emotion,2021.2.3,58.29166936011094,
277,partial,50,0.8,0,0.2,red,200,0.2,0,0.8,blue,red,blue,blue,red,72,72,5,67,5,67,"[-9.3, -1.9]","[9.3, 1.9]","[-6.7, 1.9]","[6.7, -1.9]",0,200,50,0,0,41,41,66,,,,,,,,,,,,,,,,,0.00992910000786651,0.5099291000078665,725.7544895000028,None,725.7544895000028,None,left,5.104013000003761,725.7544895000028,None,725.7544895000028,None,725.7544895000028,None,725.7544895000028,None,725.7544895000028,None,730.9021268999932,None,730.9021268999932,None,0.0028869999950984493,0.5028869999950984,730.9021268999932,None,730.9021268999932,None,730.9021268999932,None,730.9021268999932,None,730.9021268999932,None,730.9021268999932,None,734.8428431999928,None,734.8428431999928,None,0.005538100012927316,0.5055381000129273,734.8428431999928,None,734.8428431999928,None,734.8428431999928,None,734.8428431999928,None,734.8428431999928,None,734.8428431999928,None,-9.200000000000003,5.29,742.1911548000062,None,750,,,,,,,,,,,,,f,24,zou jiali,2022_Jan_08_1704,emotion,2021.2.3,58.29166936011094,
89,partial,0,0.8,-50,0.2,blue,0,0.8,-200,0.2,blue,red,blue,red,blue,72,72,77,355,77,355,"[-9.3, -1.9]","[6.7, -1.9]","[-6.7, 1.9]","[9.3, 1.9]",0,0,-50,-200,0,42,42,48,,,,,,,,,,,,,,,,,0.0018496999982744455,0.5018496999982744,743.2298699999956,None,743.2298699999956,None,left,1.4471487999981036,743.2298699999956,None,743.2298699999956,None,743.2298699999956,None,743.2298699999956,None,743.2298699999956,None,744.7386502000008,None,744.7386502000008,None,0.0015287000132957473,0.5015287000132957,744.7386502000008,None,744.7386502000008,None,744.7386502000008,None,744.7386502000008,None,744.7386502000008,None,744.7386502000008,None,748.9419678999984,None,748.9419678999984,None,0.004853800011915155,0.5048538000119152,748.9419678999984,None,748.9419678999984,None,748.9419678999984,None,748.9419678999984,None,748.9419678999984,None,748.9419678999984,None,5.100000000000001,6.285,757.2747111999925,None,750,,,,,,,,,,,,,f,24,zou jiali,2022_Jan_08_1704,emotion,2021.2.3,58.29166936011094,
64,partial,50,0.5,0,0.5,blue,200,0.5,50,0.5,blue,red,blue,red,blue,180,180,185,355,185,355,"[-10, 0]","[6, 0]","[-6, 0]","[10, 0]",50,200,0,50,0,43,43,82,,,,,,,,,,,,,,,,,0.014736999990418553,0.5147369999904186,758.3324889999931,None,758.3324889999931,None,right,1.5608792999992147,758.3324889999931,None,758.3324889999931,None,758.3324889999931,None,758.3324889999931,None,758.3324889999931,None,759.9465387999953,None,759.9465387999953,None,0.0027236000023549423,0.5027236000023549,759.9465387999953,None,759.9465387999953,None,759.9465387999953,None,759.9465387999953,None,759.9465387999953,None,759.9465387999953,None,763.7985767999926,None,763.7985767999926,None,0.0037016999995103106,0.5037016999995103,763.7985767999926,None,763.7985767999926,None,763.7985767999926,None,763.7985767999926,None,763.7985767999926,None,763.7985767999926,None,15.0,6.724,772.5835693999979,None,950,,,,,,,,,,,,,f,24,zou jiali,2022_Jan_08_1704,emotion,2021.2.3,58.29166936011094,
311,partial,0,0.2,-200,0.8,red,-50,0.2,-200,0.8,blue,blue,red,blue,red,72,72,77,355,5,67,"[-6.7, 1.9]","[9.3, 1.9]","[-9.3, -1.9]","[6.7, -1.9]",-200,-50,0,-200,0,44,44,4,,,,,,,,,,,,,,,,,0.013152299987268634,0.5131522999872686,773.6165481000062,None,773.6165481000062,None,left,3.073364900003071,773.6165481000062,None,773.6165481000062,None,773.6165481000062,None,773.6165481000062,None,773.6165481000062,None,776.7472880999994,None,776.7472880999994,None,0.0036093000089749694,0.503609300008975,776.7472880999994,None,776.7472880999994,None,776.7472880999994,None,776.7472880999994,None,776.7472880999994,None,776.7472880999994,None,780.3773362999927,None,780.3773362999927,None,0.0049906999920494854,0.5049906999920495,780.3773362999927,None,780.3773362999927,None,780.3773362999927,None,780.3773362999927,None,780.3773362999927,None,780.3773362999927,None,-18.4,2.256,784.7226297000016,None,750,,,,,,,,,,,,,f,24,zou jiali,2022_Jan_08_1704,emotion,2021.2.3,58.29166936011094,
55,partial,50,0.5,0,0.5,blue,200,0.2,0,0.8,blue,red,blue,blue,red,180,72,185,355,5,67,"[-10, 0]","[9.3, 1.9]","[-6, 0]","[6.7, -1.9]",50,200,0,0,0,45,45,60,,,,,,,,,,,,,,,,,0.013999199989484623,0.5139991999894846,785.7425323000061,None,785.7425323000061,None,right,2.517729600003804,785.7425323000061,None,785.7425323000061,None,785.7425323000061,None,785.7425323000061,None,785.7425323000061,None,788.3208255999925,None,788.3208255999925,None,0.004416800016770139,0.5044168000167701,788.3208255999925,None,788.3208255999925,None,788.3208255999925,None,788.3208255999925,None,788.3208255999925,None,788.3208255999925,None,792.0558749000047,None,792.0558749000047,None,0.003341900010127574,0.5033419000101276,792.0558749000047,None,792.0558749000047,None,792.0558749000047,None,792.0558749000047,None,792.0558749000047,None,792.0558749000047,None,21.700000000000003,2.172,796.3274454000057,None,950,,,,,,,,,,,,,f,24,zou jiali,2022_Jan_08_1704,emotion,2021.2.3,58.29166936011094,
432,partial,0,0.8,-50,0.2,red,-50,0.8,-200,0.2,red,red,blue,red,blue,72,72,5,67,5,67,"[-9.3, -1.9]","[6.7, -1.9]","[-6.7, 1.9]","[9.3, 1.9]",-50,-200,0,-50,0,46,46,53,,,,,,,,,,,,,,,,,0.013570299997809343,0.5135702999978093,797.343268800003,None,797.343268800003,None,left,3.2325523999897996,797.343268800003,None,797.343268800003,None,797.343268800003,None,797.343268800003,None,797.343268800003,None,800.6169714999996,None,800.6169714999996,None,0.0013518000050680712,0.5013518000050681,800.6169714999996,None,800.6169714999996,None,800.6169714999996,None,800.6169714999996,None,800.6169714999996,None,800.6169714999996,None,804.702544300002,None,804.702544300002,None,0.005275300005450845,0.5052753000054508,804.702544300002,None,804.702544300002,None,804.702544300002,None,804.702544300002,None,804.702544300002,None,804.702544300002,None,-0.7000000000000028,3.779,810.5870656000043,None,900,,,,,,,,,,,,,f,24,zou jiali,2022_Jan_08_1704,emotion,2021.2.3,58.29166936011094,
191,partial,0,0.5,-50,0.5,blue,0,0.8,-200,0.2,red,red,blue,red,blue,180,72,185,355,5,67,"[-10, 0]","[6.7, -1.9]","[-6, 0]","[9.3, 1.9]",0,-200,-50,0,0,47,47,45,,,,,,,,,,,,,,,,,0.014148999995086342,0.5141489999950863,811.6255376000045,None,811.6255376000045,None,left,2.811969799993676,811.6255376000045,None,811.6255376000045,None,811.6255376000045,None,811.6255376000045,None,811.6255376000045,None,814.4851842000062,None,814.4851842000062,None,0.0015991000109352171,0.5015991000109352,814.4851842000062,None,814.4851842000062,None,814.4851842000062,None,814.4851842000062,None,814.4851842000062,None,814.4851842000062,None,818.1707979999919,None,818.1707979999919,None,0.004938100013532676,0.5049381000135327,818.1707979999919,None,818.1707979999919,None,818.1707979999919,None,818.1707979999919,None,818.1707979999919,None,818.1707979999919,None,7.100000000000001,1.897,822.1454516999947,None,900,,,,,,,,,,,,,f,24,zou jiali,2022_Jan_08_1704,emotion,2021.2.3,58.29166936011094,
74,partial,200,0.5,0,0.5,blue,200,0.2,50,0.8,blue,red,blue,blue,red,180,72,185,355,5,67,"[-10, 0]","[9.3, 1.9]","[-6, 0]","[6.7, -1.9]",200,200,0,50,0,48,48,62,,,,,,,,,,,,,,,,,0.00047139999514911324,0.5004713999951491,823.176586799993,None,823.176586799993,None,right,3.443309100010083,823.176586799993,None,823.176586799993,None,823.176586799993,None,823.176586799993,None,823.176586799993,None,826.6753492999997,None,826.6753492999997,None,0.0011968999897362664,0.5011968999897363,826.6753492999997,None,826.6753492999997,None,826.6753492999997,None,826.6753492999997,None,826.6753492999997,None,826.6753492999997,None,830.6083726999932,None,830.6083726999932,None,0.00495299999602139,0.5049529999960214,830.6083726999932,None,830.6083726999932,None,830.6083726999932,None,830.6083726999932,None,830.6083726999932,None,830.6083726999932,None,19.900000000000006,3.454,836.1361232000054,None,1100,,,,,,,,,,,,,f,24,zou jiali,2022_Jan_08_1704,emotion,2021.2.3,58.29166936011094,
286,partial,50,0.8,0,0.2,red,200,0.5,50,0.5,blue,red,blue,red,blue,72,180,5,67,185,355,"[-9.3, -1.9]","[6, 0]","[-6.7, 1.9]","[10, 0]",0,200,50,50,0,49,49,88,,,,,,,,,,,,,,,,,0.0027000999834854156,0.5027000999834854,837.183289499997,None,837.183289499997,None,right,3.512880700000096,837.183289499997,None,837.183289499997,None,837.183289499997,None,837.183289499997,None,837.183289499997,None,840.7522114000021,None,840.7522114000021,None,0.004087200009962544,0.5040872000099625,840.7522114000021,None,840.7522114000021,None,840.7522114000021,None,840.7522114000021,None,840.7522114000021,None,840.7522114000021,None,845.0291265999986,None,845.0291265999986,None,0.0034268000163137913,0.5034268000163138,845.0291265999986,None,845.0291265999986,None,845.0291265999986,None,845.0291265999986,None,845.0291265999986,None,845.0291265999986,None,14.900000000000006,4.37,851.5058726999996,None,1300,,,,,,,,,,,,,f,24,zou jiali,2022_Jan_08_1704,emotion,2021.2.3,58.29166936011094,
167,partial,50,0.2,0,0.8,blue,200,0.8,0,0.2,red,blue,red,red,blue,72,72,5,67,5,67,"[-6.7, 1.9]","[6.7, -1.9]","[-9.3, -1.9]","[9.3, 1.9]",50,0,0,200,0,50,50,93,,,,,,,,,,,,,,,,,0.014059200009796768,0.5140592000097968,852.5394392000017,None,852.5394392000017,None,right,2.9060807999921963,852.5394392000017,None,852.5394392000017,None,852.5394392000017,None,852.5394392000017,None,852.5394392000017,None,855.5111581999954,None,855.5111581999954,None,0.0014579999988200143,0.50145799999882,855.5111581999954,None,855.5111581999954,None,855.5111581999954,None,855.5111581999954,None,855.5111581999954,None,855.5111581999954,None,859.3731473999942,None,859.3731473999942,None,0.003607600010582246,0.5036076000105822,859.3731473999942,None,859.3731473999942,None,859.3731473999942,None,859.3731473999942,None,859.3731473999942,None,859.3731473999942,None,-6.299999999999997,1.797,863.2641641999944,None,1300,,,,,,,,,,,,,f,24,zou jiali,2022_Jan_08_1704,emotion,2021.2.3,58.29166936011094,
296,partial,200,0.8,0,0.2,red,200,0.2,50,0.8,blue,red,blue,blue,red,72,72,5,67,5,67,"[-9.3, -1.9]","[9.3, 1.9]","[-6.7, 1.9]","[6.7, -1.9]",0,200,200,50,0,51,51,68,,,,,,,,,,,,,,,,,0.011999099995591678,0.5119990999955917,864.3114481999946,None,864.3114481999946,None,left,2.1018880999909015,864.3114481999946,None,864.3114481999946,None,864.3114481999946,None,864.3114481999946,None,864.3114481999946,None,866.4614290000027,None,866.4614290000027,None,0.0021868000185349956,0.502186800018535,866.4614290000027,None,866.4614290000027,None,866.4614290000027,None,866.4614290000027,None,866.4614290000027,None,866.4614290000027,None,870.1527317,None,870.1527317,None,0.005255800002487376,0.5052558000024874,870.1527317,None,870.1527317,None,870.1527317,None,870.1527317,None,870.1527317,None,870.1527317,None,-13.0,1.614,873.8223937000002,None,1300,,,,,,,,,,,,,f,24,zou jiali,2022_Jan_08_1704,emotion,2021.2.3,58.29166936011094,
322,partial,0,0.8,-50,0.2,red,-50,0.5,-200,0.5,blue,red,blue,red,blue,72,180,5,67,185,355,"[-9.3, -1.9]","[6, 0]","[-6.7, 1.9]","[10, 0]",-50,-50,0,-200,0,52,52,32,,,,,,,,,,,,,,,,,0.003012199988006614,0.5030121999880066,874.8742146000004,None,874.8742146000004,None,left,2.191008599998895,874.8742146000004,None,874.8742146000004,None,874.8742146000004,None,874.8742146000004,None,874.8742146000004,None,877.1130497999984,None,877.1130497999984,None,0.016735700017306954,0.516735700017307,877.1130497999984,None,877.1130497999984,None,877.1130497999984,None,877.1130497999984,None,877.1130497999984,None,877.1130497999984,None,880.6345050999953,None,880.6345050999953,None,0.0027015999949071556,0.5027015999949072,880.6345050999953,None,880.6345050999953,None,880.6345050999953,None,880.6345050999953,None,880.6345050999953,None,880.6345050999953,None,-9.399999999999999,4.741,887.4288182000018,None,1250,,,,,,,,,,,,,f,24,zou jiali,2022_Jan_08_1704,emotion,2021.2.3,58.29166936011094,
56,partial,50,0.5,0,0.5,blue,200,0.8,0,0.2,blue,red,blue,red,blue,180,72,185,355,77,355,"[-10, 0]","[6.7, -1.9]","[-6, 0]","[9.3, 1.9]",50,200,0,0,0,53,53,96,,,,,,,,,,,,,,,,,0.014942399997380562,0.5149423999973806,888.4505195999955,None,888.4505195999955,None,right,2.336853999993764,888.4505195999955,None,888.4505195999955,None,888.4505195999955,None,888.4505195999955,None,888.4505195999955,None,890.8399148000026,None,890.8399148000026,None,0.0016105000104289502,0.501610500010429,890.8399148000026,None,890.8399148000026,None,890.8399148000026,None,890.8399148000026,None,890.8399148000026,None,890.8399148000026,None,894.4281291999941,None,894.4281291999941,None,0.005031699998653494,0.5050316999986535,894.4281291999941,None,894.4281291999941,None,894.4281291999941,None,894.4281291999941,None,894.4281291999941,None,894.4281291999941,None,9.799999999999997,3.264,899.7804487999965,None,1450,,,,,,,,,,,,,f,24,zou jiali,2022_Jan_08_1704,emotion,2021.2.3,58.29166936011094,
424,partial,0,0.5,-50,0.5,red,-50,0.5,-200,0.5,red,red,blue,red,blue,180,180,5,175,5,175,"[-10, 0]","[6, 0]","[-6, 0]","[10, 0]",-50,-200,0,-50,0,54,54,29,,,,,,,,,,,,,,,,,0.012947800001711585,0.5129478000017116,900.8211758999969,None,900.8211758999969,None,left,1.7682656000106363,900.8211758999969,None,900.8211758999969,None,900.8211758999969,None,900.8211758999969,None,900.8211758999969,None,902.6416732999933,None,902.6416732999933,None,0.003225000007660128,0.5032250000076601,902.6416732999933,None,902.6416732999933,None,902.6416732999933,None,902.6416732999933,None,902.6416732999933,None,902.6416732999933,None,906.5557565000054,None,906.5557565000054,None,0.0036154000117676333,0.5036154000117676,906.5557565000054,None,906.5557565000054,None,906.5557565000054,None,906.5557565000054,None,906.5557565000054,None,906.5557565000054,None,-8.200000000000003,1.735,910.3918640000047,None,1400,,,,,,,,,,,,,f,24,zou jiali,2022_Jan_08_1704,emotion,2021.2.3,58.29166936011094,
189,partial,200,0.8,0,0.2,blue,200,0.8,50,0.2,red,red,blue,red,blue,72,72,77,355,5,67,"[-9.3, -1.9]","[6.7, -1.9]","[-6.7, 1.9]","[9.3, 1.9]",200,50,0,200,0,55,55,107,,,,,,,,,,,,,,,,,0.008922299995901994,0.508922299995902,911.4433942000032,None,911.4433942000032,None,right,2.260369699986768,911.4433942000032,None,911.4433942000032,None,911.4433942000032,None,911.4433942000032,None,911.4433942000032,None,913.7609604000027,None,913.7609604000027,None,0.003258200013078749,0.5032582000130787,913.7609604000027,None,913.7609604000027,None,913.7609604000027,None,913.7609604000027,None,913.7609604000027,None,913.7609604000027,None,917.8206127000012,None,917.8206127000012,None,0.0042261000198777765,0.5042261000198778,917.8206127000012,None,917.8206127000012,None,917.8206127000012,None,917.8206127000012,None,917.8206127000012,None,917.8206127000012,None,4.600000000000001,4.557,924.468366999994,None,1450,,,,,,,,,,,,,f,24,zou jiali,2022_Jan_08_1704,emotion,2021.2.3,58.29166936011094,
68,partial,50,0.2,0,0.8,blue,200,0.2,50,0.8,blue,blue,red,blue,red,72,72,5,67,5,67,"[-6.7, 1.9]","[9.3, 1.9]","[-9.3, -1.9]","[6.7, -1.9]",50,200,0,50,0,56,56,58,,,,,,,,,,,,,,,,,0.0021380999824032187,0.5021380999824032,925.5063391000003,None,925.5063391000003,None,right,1.3330602000060026,925.5063391000003,None,925.5063391000003,None,925.5063391000003,None,925.5063391000003,None,925.5063391000003,None,926.8918264999957,None,926.8918264999957,None,0.001113999998779036,0.501113999998779,926.8918264999957,None,926.8918264999957,None,926.8918264999957,None,926.8918264999957,None,926.8918264999957,None,926.8918264999957,None,930.7681606999977,None,930.7681606999977,None,0.0034675000060815364,0.5034675000060815,930.7681606999977,None,930.7681606999977,None,930.7681606999977,None,930.7681606999977,None,930.7681606999977,None,930.7681606999977,None,21.900000000000006,2.179,935.0476403999928,None,1650,,,,,,,,,,,,,f,24,zou jiali,2022_Jan_08_1704,emotion,2021.2.3,58.29166936011094,
293,partial,200,0.2,0,0.8,red,200,0.2,50,0.8,blue,blue,red,blue,red,72,72,77,355,5,67,"[-6.7, 1.9]","[9.3, 1.9]","[-9.3, -1.9]","[6.7, -1.9]",0,200,200,50,0,57,57,56,,,,,,,,,,,,,,,,,0.014874400003463961,0.514874400003464,936.0690177999932,None,936.0690177999932,None,right,1.5525726000050781,936.0690177999932,None,936.0690177999932,None,936.0690177999932,None,936.0690177999932,None,936.0690177999932,None,937.6809630999924,None,937.6809630999924,None,0.0018901000003097579,0.5018901000003098,937.6809630999924,None,937.6809630999924,None,937.6809630999924,None,937.6809630999924,None,937.6809630999924,None,937.6809630999924,None,941.7138865000015,None,941.7138865000015,None,0.005104300013044849,0.5051043000130448,941.7138865000015,None,941.7138865000015,None,941.7138865000015,None,941.7138865000015,None,941.7138865000015,None,941.7138865000015,None,24.0,3.995,947.8153908999957,None,1850,,,,,,,,,,,,,f,24,zou jiali,2022_Jan_08_1704,emotion,2021.2.3,58.29166936011094,
186,partial,200,0.2,0,0.8,blue,200,0.8,50,0.2,red,blue,red,red,blue,72,72,5,67,5,67,"[-6.7, 1.9]","[6.7, -1.9]","[-9.3, -1.9]","[9.3, 1.9]",200,50,0,200,0,58,58,95,,,,,,,,,,,,,,,,,0.014754300005733967,0.514754300005734,948.8414069999999,None,948.8414069999999,None,right,3.1733482999989064,948.8414069999999,None,948.8414069999999,None,948.8414069999999,None,948.8414069999999,None,948.8414069999999,None,952.0643572999979,None,952.0643572999979,None,0.0015019999991636723,0.5015019999991637,952.0643572999979,None,952.0643572999979,None,952.0643572999979,None,952.0643572999979,None,952.0643572999979,None,952.0643572999979,None,955.9578704000014,None,955.9578704000014,None,0.0034106000093743205,0.5034106000093743,955.9578704000014,None,955.9578704000014,None,955.9578704000014,None,955.9578704000014,None,955.9578704000014,None,955.9578704000014,None,3.8999999999999986,2.918,960.9825022000005,None,1900,,,,,,,,,,,,,f,24,zou jiali,2022_Jan_08_1704,emotion,2021.2.3,58.29166936011094,
416,partial,0,0.5,-200,0.5,red,-50,0.2,-200,0.8,red,red,blue,blue,red,180,72,5,175,77,355,"[-10, 0]","[9.3, 1.9]","[-6, 0]","[6.7, -1.9]",-200,-200,0,-50,0,59,59,7,,,,,,,,,,,,,,,,,0.01374629998463206,0.5137462999846321,962.0097258000023,None,962.0097258000023,None,left,2.2339388000109466,962.0097258000023,None,962.0097258000023,None,962.0097258000023,None,962.0097258000023,None,962.0097258000023,None,964.2862610000011,None,964.2862610000011,None,0.0014792999863857403,0.5014792999863857,964.2862610000011,None,964.2862610000011,None,964.2862610000011,None,964.2862610000011,None,964.2862610000011,None,964.2862610000011,None,968.4124759999977,None,968.4124759999977,None,0.002650900016305968,0.502650900016306,968.4124759999977,None,968.4124759999977,None,968.4124759999977,None,968.4124759999977,None,968.4124759999977,None,968.4124759999977,None,-18.9,1.774,972.2809445000021,None,1700,,,,,,,,,,,,,f,24,zou jiali,2022_Jan_08_1704,emotion,2021.2.3,58.29166936011094,
181,partial,200,0.5,0,0.5,blue,200,0.5,50,0.5,red,red,blue,red,blue,180,180,185,355,5,175,"[-10, 0]","[6, 0]","[-6, 0]","[10, 0]",200,50,0,200,0,60,60,83,,,,,,,,,,,,,,,,,0.014049599980353378,0.5140495999803534,973.299025100001,None,973.299025100001,None,right,2.052468099995167,973.299025100001,None,973.299025100001,None,973.299025100001,None,973.299025100001,None,973.299025100001,None,975.4050438999984,None,975.4050438999984,None,0.003105900002992712,0.5031059000029927,975.4050438999984,None,975.4050438999984,None,975.4050438999984,None,975.4050438999984,None,975.4050438999984,None,975.4050438999984,None,979.3331535000034,None,979.3331535000034,None,0.0034025999921141192,0.5034025999921141,979.3331535000034,None,979.3331535000034,None,979.3331535000034,None,979.3331535000034,None,979.3331535000034,None,979.3331535000034,None,2.700000000000003,5.229,986.6587383000006,None,1750,,,,,,,,,,,,,f,24,zou jiali,2022_Jan_08_1704,emotion,2021.2.3,58.29166936011094,
105,partial,0,0.2,-50,0.8,blue,-50,0.8,-200,0.2,blue,blue,red,red,blue,72,72,5,67,77,355,"[-6.7, 1.9]","[6.7, -1.9]","[-9.3, -1.9]","[9.3, 1.9]",0,-50,-50,-200,0,61,61,38,,,,,,,,,,,,,,,,,0.013875499993446283,0.5138754999934463,987.6869101000048,None,987.6869101000048,None,left,4.798779399992782,987.6869101000048,None,987.6869101000048,None,987.6869101000048,None,987.6869101000048,None,987.6869101000048,None,992.5277165000007,None,992.5277165000007,None,0.0010283000156050548,0.501028300015605,992.5277165000007,None,992.5277165000007,None,992.5277165000007,None,992.5277165000007,None,992.5277165000007,None,992.5277165000007,None,996.1415038999985,None,996.1415038999985,None,0.0043640000076266006,0.5043640000076266,996.1415038999985,None,996.1415038999985,None,996.1415038999985,None,996.1415038999985,None,996.1415038999985,None,996.1415038999985,None,12.200000000000003,3.28,1001.5085032999923,None,1750,,,,,,,,,,,,,f,24,zou jiali,2022_Jan_08_1704,emotion,2021.2.3,58.29166936011094,
76,partial,200,0.2,0,0.8,blue,200,0.5,50,0.5,blue,blue,red,red,blue,72,180,5,67,185,355,"[-6.7, 1.9]","[6, 0]","[-9.3, -1.9]","[10, 0]",200,200,0,50,0,62,62,74,,,,,,,,,,,,,,,,,0.0017443000106140971,0.5017443000106141,1002.5361945000041,None,1002.5361945000041,None,right,2.3455701999919256,1002.5361945000041,None,1002.5361945000041,None,1002.5361945000041,None,1002.5361945000041,None,1002.5361945000041,None,1004.9248196999979,None,1004.9248196999979,None,0.0014887000143062323,0.5014887000143062,1004.9248196999979,None,1004.9248196999979,None,1004.9248196999979,None,1004.9248196999979,None,1004.9248196999979,None,1004.9248196999979,None,1008.748771300001,None,1008.748771300001,None,0.005130200006533414,0.5051302000065334,1008.748771300001,None,1008.748771300001,None,1008.748771300001,None,1008.748771300001,None,1008.748771300001,None,1008.748771300001,None,18.299999999999997,5.447,1016.2808169000054,None,1950,,,,,,,,,,,,,f,24,zou jiali,2022_Jan_08_1704,emotion,2021.2.3,58.29166936011094,
195,partial,0,0.2,-50,0.8,blue,0,0.5,-200,0.5,red,blue,red,red,blue,72,180,5,67,5,175,"[-6.7, 1.9]","[6, 0]","[-9.3, -1.9]","[10, 0]",0,-200,-50,0,0,63,63,21,,,,,,,,,,,,,,,,,0.013479800007189624,0.5134798000071896,1017.3058442000038,None,1017.3058442000038,None,left,4.578057299993816,1017.3058442000038,None,1017.3058442000038,None,1017.3058442000038,None,1017.3058442000038,None,1017.3058442000038,None,1021.9517739000003,None,1021.9517739000003,None,0.005026199985877611,0.5050261999858776,1021.9517739000003,None,1021.9517739000003,None,1021.9517739000003,None,1021.9517739000003,None,1021.9517739000003,None,1021.9517739000003,None,1026.178179399998,None,1026.178179399998,None,0.004040200015879236,0.5040402000158792,1026.178179399998,None,1026.178179399998,None,1026.178179399998,None,1026.178179399998,None,1026.178179399998,None,1026.178179399998,None,9.5,2.645,1030.899392899999,None,1950,,,,,,,,,,,,,f,24,zou jiali,2022_Jan_08_1704,emotion,2021.2.3,58.29166936011094,
408,partial,0,0.5,-50,0.5,red,0,0.5,-200,0.5,red,red,blue,red,blue,180,180,5,175,5,175,"[-10, 0]","[6, 0]","[-6, 0]","[10, 0]",-50,-200,0,0,0,64,64,27,,,,,,,,,,,,,,,,,0.0003794000222114846,0.5003794000222115,1031.9250870999967,None,1031.9250870999967,None,left,1.113315100010368,1031.9250870999967,None,1031.9250870999967,None,1031.9250870999967,None,1031.9250870999967,None,1031.9250870999967,None,1033.1032134999987,None,1033.1032134999987,None,0.0014878999936627224,0.5014878999936627,1033.1032134999987,None,1033.1032134999987,None,1033.1032134999987,None,1033.1032134999987,None,1033.1032134999987,None,1033.1032134999987,None,1037.3701906999922,None,1037.3701906999922,None,0.004843599992454983,0.504843599992455,1037.3701906999922,None,1037.3701906999922,None,1037.3701906999922,None,1037.3701906999922,None,1037.3701906999922,None,1037.3701906999922,None,-8.899999999999999,10.232,1049.6621286000009,None,1900,,,,,,,,,,,,,f,24,zou jiali,2022_Jan_08_1704,emotion,2021.2.3,58.29166936011094,
72,partial,50,0.8,0,0.2,blue,200,0.8,50,0.2,blue,red,blue,red,blue,72,72,77,355,77,355,"[-9.3, -1.9]","[6.7, -1.9]","[-6.7, 1.9]","[9.3, 1.9]",50,200,0,50,0,65,65,106,,,,,,,,,,,,,,,,,0.014636199979577214,0.5146361999795772,1050.6907592999924,None,1050.6907592999924,None,right,1.6513171999977203,1050.6907592999924,None,1050.6907592999924,None,1050.6907592999924,None,1050.6907592999924,None,1050.6907592999924,None,1052.4048834999994,None,1052.4048834999994,None,0.0010378999868407845,0.5010378999868408,1052.4048834999994,None,1052.4048834999994,None,1052.4048834999994,None,1052.4048834999994,None,1052.4048834999994,None,1052.4048834999994,None,1056.4482415999955,None,1056.4482415999955,None,0.003438800005824305,0.5034388000058243,1056.4482415999955,None,1056.4482415999955,None,1056.4482415999955,None,1056.4482415999955,None,1056.4482415999955,None,1056.4482415999955,None,19.599999999999994,2.53,1061.0830358999956,None,2100,,,,,,,,,,,,,f,24,zou jiali,2022_Jan_08_1704,emotion,2021.2.3,58.29166936011094,
199,partial,0,0.5,-200,0.5,blue,-50,0.5,-200,0.5,red,red,blue,red,blue,180,180,185,355,5,175,"[-10, 0]","[6, 0]","[-6, 0]","[10, 0]",0,-200,-200,-50,0,66,66,25,,,,,,,,,,,,,,,,,0.014063900001929142,0.5140639000019291,1062.1072658000048,None,1062.1072658000048,None,left,2.0355486999906134,1062.1072658000048,None,1062.1072658000048,None,1062.1072658000048,None,1062.1072658000048,None,1062.1072658000048,None,1064.1933214000019,None,1064.1933214000019,None,0.0031164999963948503,0.5031164999963949,1064.1933214000019,None,1064.1933214000019,None,1064.1933214000019,None,1064.1933214000019,None,1064.1933214000019,None,1064.1933214000019,None,1068.030505799994,None,1068.030505799994,None,0.003247400003601797,0.5032474000036018,1068.030505799994,None,1068.030505799994,None,1068.030505799994,None,1068.030505799994,None,1068.030505799994,None,1068.030505799994,None,13.5,1.508,1071.634859800004,None,2100,,,,,,,,,,,,,f,24,zou jiali,2022_Jan_08_1704,emotion,2021.2.3,58.29166936011094,
173,partial,50,0.5,0,0.5,blue,200,0.2,50,0.8,red,red,blue,blue,red,180,72,185,355,77,355,"[-10, 0]","[9.3, 1.9]","[-6, 0]","[6.7, -1.9]",50,50,0,200,0,67,67,61,,,,,,,,,,,,,,,,,0.013579199992818758,0.5135791999928188,1072.683145499992,None,1072.683145499992,None,right,3.4700339999981225,1072.683145499992,None,1072.683145499992,None,1072.683145499992,None,1072.683145499992,None,1072.683145499992,None,1076.2119861999963,None,1076.2119861999963,None,0.004005200011306442,0.5040052000113064,1076.2119861999963,None,1076.2119861999963,None,1076.2119861999963,None,1076.2119861999963,None,1076.2119861999963,None,1076.2119861999963,None,1080.0241893999919,None,1080.0241893999919,None,0.004537699991487898,0.5045376999914879,1080.0241893999919,None,1080.0241893999919,None,1080.0241893999919,None,1080.0241893999919,None,1080.0241893999919,None,1080.0241893999919,None,3.8999999999999986,3.291,1085.3757392999978,None,2150,,,,,,,,,,,,,f,24,zou jiali,2022_Jan_08_1704,emotion,2021.2.3,58.29166936011094,
100,partial,0,0.5,-50,0.5,blue,-50,0.5,-200,0.5,blue,red,blue,red,blue,180,180,185,355,185,355,"[-10, 0]","[6, 0]","[-6, 0]","[10, 0]",0,-50,-50,-200,0,68,68,26,,,,,,,,,,,,,,,,,0.013711599982343614,0.5137115999823436,1086.4063913999998,None,1086.4063913999998,None,left,1.51729940000223,1086.4063913999998,None,1086.4063913999998,None,1086.4063913999998,None,1086.4063913999998,None,1086.4063913999998,None,1087.9844384000025,None,1087.9844384000025,None,0.0035802000056719407,0.5035802000056719,1087.9844384000025,None,1087.9844384000025,None,1087.9844384000025,None,1087.9844384000025,None,1087.9844384000025,None,1087.9844384000025,None,1091.715204299995,None,1091.715204299995,None,0.0049146999954245985,0.5049146999954246,1091.715204299995,None,1091.715204299995,None,1091.715204299995,None,1091.715204299995,None,1091.715204299995,None,1091.715204299995,None,11.100000000000001,3.05,1096.8613225000008,None,2150,,,,,,,,,,,,,f,24,zou jiali,2022_Jan_08_1704,emotion,2021.2.3,58.29166936011094,
273,partial,50,0.5,0,0.5,red,200,0.5,0,0.5,blue,red,blue,red,blue,180,180,5,175,185,355,"[-10, 0]","[6, 0]","[-6, 0]","[10, 0]",0,200,50,0,0,69,69,78,,,,,,,,,,,,,,,,,0.0001404000213369727,0.500140400021337,1097.8906766,None,1097.8906766,None,right,1.2625582000036957,1097.8906766,None,1097.8906766,None,1097.8906766,None,1097.8906766,None,1097.8906766,None,1099.2002500999952,None,1099.2002500999952,None,0.0015145000215852633,0.5015145000215853,1099.2002500999952,None,1099.2002500999952,None,1099.2002500999952,None,1099.2002500999952,None,1099.2002500999952,None,1099.2002500999952,None,1103.4775145000021,None,1103.4775145000021,None,0.0031829000072320923,0.5031829000072321,1103.4775145000021,None,1103.4775145000021,None,1103.4775145000021,None,1103.4775145000021,None,1103.4775145000021,None,1103.4775145000021,None,16.900000000000006,2.694,1108.2381813999964,None,2350,,,,,,,,,,,,,f,24,zou jiali,2022_Jan_08_1704,emotion,2021.2.3,58.29166936011094,
393,partial,50,0.2,0,0.8,red,200,0.8,50,0.2,red,blue,red,red,blue,72,72,77,355,5,67,"[-6.7, 1.9]","[6.7, -1.9]","[-9.3, -1.9]","[9.3, 1.9]",0,50,50,200,0,70,70,91,,,,,,,,,,,,,,,,,0.01498189999256283,0.5149818999925628,1109.266027199992,None,1109.266027199992,None,right,1.3178732999949716,1109.266027199992,None,1109.266027199992,None,1109.266027199992,None,1109.266027199992,None,1109.266027199992,None,1110.6279514000053,None,1110.6279514000053,None,0.0033488000044599175,0.5033488000044599,1110.6279514000053,None,1110.6279514000053,None,1110.6279514000053,None,1110.6279514000053,None,1110.6279514000053,None,1110.6279514000053,None,1114.6167922000022,None,1114.6167922000022,None,0.0037077999877510592,0.5037077999877511,1114.6167922000022,None,1114.6167922000022,None,1114.6167922000022,None,1114.6167922000022,None,1114.6167922000022,None,1114.6167922000022,None,6.100000000000001,4.311,1121.0168900999997,None,2400,,,,,,,,,,,,,f,24,zou jiali,2022_Jan_08_1704,emotion,2021.2.3,58.29166936011094,
79,partial,200,0.8,0,0.2,blue,200,0.5,50,0.5,blue,red,blue,red,blue,72,180,77,355,185,355,"[-9.3, -1.9]","[6, 0]","[-6.7, 1.9]","[10, 0]",200,200,0,50,0,71,71,86,,,,,,,,,,,,,,,,,0.015061099984450266,0.5150610999844503,1122.0353250000044,None,1122.0353250000044,None,left,1.7899432999984128,1122.0353250000044,None,1122.0353250000044,None,1122.0353250000044,None,1122.0353250000044,None,1122.0353250000044,None,1123.8792423999985,None,1123.8792423999985,None,0.0011208000069018453,0.5011208000069018,1123.8792423999985,None,1123.8792423999985,None,1123.8792423999985,None,1123.8792423999985,None,1123.8792423999985,None,1123.8792423999985,None,1127.8506934000034,None,1127.8506934000034,None,0.003547000014805235,0.5035470000148052,1127.8506934000034,None,1127.8506934000034,None,1127.8506934000034,None,1127.8506934000034,None,1127.8506934000034,None,1127.8506934000034,None,25.400000000000006,6.572,1136.5220988999936,None,2600,,,,,,,,,,,,,f,24,zou jiali,2022_Jan_08_1704,emotion,2021.2.3,58.29166936011094,
206,partial,0,0.8,-200,0.2,blue,-50,0.2,-200,0.8,red,red,blue,blue,red,72,72,77,355,77,355,"[-9.3, -1.9]","[9.3, 1.9]","[-6.7, 1.9]","[6.7, -1.9]",0,-200,-200,-50,0,72,72,13,,,,,,,,,,,,,,,,,0.0012247999984538183,0.5012247999984538,1137.5568620999984,None,1137.5568620999984,None,left,3.1544247999991057,1137.5568620999984,None,1137.5568620999984,None,1137.5568620999984,None,1137.5568620999984,None,1137.5568620999984,None,1140.7744857999933,None,1140.7744857999933,None,0.0014978999824961647,0.5014978999824962,1140.7744857999933,None,1140.7744857999933,None,1140.7744857999933,None,1140.7744857999933,None,1140.7744857999933,None,1140.7744857999933,None,1144.4383704999927,None,1144.4383704999927,None,0.003385899995919317,0.5033858999959193,1144.4383704999927,None,1144.4383704999927,None,1144.4383704999927,None,1144.4383704999927,None,1144.4383704999927,None,1144.4383704999927,None,6.100000000000001,1.827,1148.367296299999,None,2600,,,,,,,,,,,,,f,24,zou jiali,2022_Jan_08_1704,emotion,2021.2.3,58.29166936011094,
299,partial,0,0.5,-50,0.5,red,0,0.8,-200,0.2,blue,red,blue,red,blue,180,72,5,175,77,355,"[-10, 0]","[6.7, -1.9]","[-6, 0]","[9.3, 1.9]",-50,0,0,-200,0,73,73,42,,,,,,,,,,,,,,,,,0.007061600001179613,0.5070616000011796,1149.4665716000018,None,1149.4665716000018,None,left,4.824794700005441,1149.4665716000018,None,1149.4665716000018,None,1149.4665716000018,None,1149.4665716000018,None,1149.4665716000018,None,1154.3331796999992,None,1154.3331796999992,None,0.002167200014810078,0.5021672000148101,1154.3331796999992,None,1154.3331796999992,None,1154.3331796999992,None,1154.3331796999992,None,1154.3331796999992,None,1154.3331796999992,None,1158.3294303000002,None,1158.3294303000002,None,0.0029915000195614994,0.5029915000195615,1158.3294303000002,None,1158.3294303000002,None,1158.3294303000002,None,1158.3294303000002,None,1158.3294303000002,None,1158.3294303000002,None,-4.899999999999999,3.179,1163.5825058000046,None,2550,,,,,,,,,,,,,f,24,zou jiali,2022_Jan_08_1704,emotion,2021.2.3,58.29166936011094,
198,partial,0,0.8,-50,0.2,blue,0,0.5,-200,0.5,red,red,blue,red,blue,72,180,77,355,5,175,"[-9.3, -1.9]","[6, 0]","[-6.7, 1.9]","[10, 0]",0,-200,-50,0,0,74,74,33,,,,,,,,,,,,,,,,,0.002969599998323247,0.5029695999983232,1164.619276700003,None,1164.619276700003,None,left,1.7093544999952428,1164.619276700003,None,1164.619276700003,None,1164.619276700003,None,1164.619276700003,None,1164.619276700003,None,1166.378488500006,None,1166.378488500006,None,0.003052300016861409,0.5030523000168614,1166.378488500006,None,1166.378488500006,None,1166.378488500006,None,1166.378488500006,None,1166.378488500006,None,1166.378488500006,None,1170.4896358999977,None,1170.4896358999977,None,0.004724599988549016,0.504724599988549,1170.4896358999977,None,1170.4896358999977,None,1170.4896358999977,None,1170.4896358999977,None,1170.4896358999977,None,1170.4896358999977,None,7.5,5.441,1178.0203697999968,None,2550,,,,,,,,,,,,,f,24,zou jiali,2022_Jan_08_1704,emotion,2021.2.3,58.29166936011094,
403,partial,200,0.8,0,0.2,red,200,0.5,50,0.5,red,red,blue,red,blue,72,180,5,67,5,175,"[-9.3, -1.9]","[6, 0]","[-6.7, 1.9]","[10, 0]",0,50,200,200,0,75,75,89,,,,,,,,,,,,,,,,,0.015715300003648736,0.5157153000036487,1179.0661971999943,None,1179.0661971999943,None,left,4.301216499996372,1179.0661971999943,None,1179.0661971999943,None,1179.0661971999943,None,1179.0661971999943,None,1179.0661971999943,None,1183.4185689000005,None,1183.4185689000005,None,0.0018471000075805932,0.5018471000075806,1183.4185689000005,None,1183.4185689000005,None,1183.4185689000005,None,1183.4185689000005,None,1183.4185689000005,None,1183.4185689000005,None,1187.636162900002,None,1187.636162900002,None,0.005090300022857264,0.5050903000228573,1187.636162900002,None,1187.636162900002,None,1187.636162900002,None,1187.636162900002,None,1187.636162900002,None,1187.636162900002,None,-10.600000000000001,2.507,1192.2082059999957,None,2550,,,,,,,,,,,,,f,24,zou jiali,2022_Jan_08_1704,emotion,2021.2.3,58.29166936011094,
63,partial,50,0.8,0,0.2,blue,200,0.5,0,0.5,blue,red,blue,red,blue,72,180,77,355,185,355,"[-9.3, -1.9]","[6, 0]","[-6.7, 1.9]","[10, 0]",50,200,0,0,0,76,76,84,,,,,,,,,,,,,,,,,0.001165200024843216,0.5011652000248432,1193.2440193999937,None,1193.2440193999937,None,right,2.1350045000144746,1193.2440193999937,None,1193.2440193999937,None,1193.2440193999937,None,1193.2440193999937,None,1193.2440193999937,None,1195.4381609999982,None,1195.4381609999982,None,0.0014992999931564555,0.5014992999931565,1195.4381609999982,None,1195.4381609999982,None,1195.4381609999982,None,1195.4381609999982,None,1195.4381609999982,None,1195.4381609999982,None,1199.2112311999954,None,1199.2112311999954,None,0.005713200007448904,0.5057132000074489,1199.2112311999954,None,1199.2112311999954,None,1199.2112311999954,None,1199.2112311999954,None,1199.2112311999954,None,1199.2112311999954,None,16.200000000000003,1.599,1202.9019444000005,None,2750,,,,,,,,,,,,,f,24,zou jiali,2022_Jan_08_1704,emotion,2021.2.3,58.29166936011094,
387,partial,50,0.8,0,0.2,red,200,0.5,0,0.5,red,red,blue,red,blue,72,180,5,67,5,175,"[-9.3, -1.9]","[6, 0]","[-6.7, 1.9]","[10, 0]",0,0,50,200,0,77,77,87,,,,,,,,,,,,,,,,,0.01328119999379851,0.5132811999937985,1203.9198923999938,None,1203.9198923999938,None,right,2.0554803000122774,1203.9198923999938,None,1203.9198923999938,None,1203.9198923999938,None,1203.9198923999938,None,1203.9198923999938,None,1206.0280893000017,None,1206.0280893000017,None,0.0015562000044155866,0.5015562000044156,1206.0280893000017,None,1206.0280893000017,None,1206.0280893000017,None,1206.0280893000017,None,1206.0280893000017,None,1206.0280893000017,None,1210.3602667999949,None,1210.3602667999949,None,0.003485499997623265,0.5034854999976233,1210.3602667999949,None,1210.3602667999949,None,1210.3602667999949,None,1210.3602667999949,None,1210.3602667999949,None,1210.3602667999949,None,-3.5,3.273,1215.7345520999952,None,2750,,,,,,,,,,,,,f,24,zou jiali,2022_Jan_08_1704,emotion,2021.2.3,58.29166936011094,
412,partial,0,0.8,-50,0.2,red,0,0.2,-200,0.8,red,red,blue,blue,red,72,72,5,67,77,355,"[-9.3, -1.9]","[9.3, 1.9]","[-6.7, 1.9]","[6.7, -1.9]",-50,-200,0,0,0,78,78,15,,,,,,,,,,,,,,,,,0.014584000004106201,0.5145840000041062,1216.7750755000015,None,1216.7750755000015,None,left,1.9977198999986285,1216.7750755000015,None,1216.7750755000015,None,1216.7750755000015,None,1216.7750755000015,None,1216.7750755000015,None,1218.8190757999982,None,1218.8190757999982,None,0.00011629999789875001,0.5001162999978988,1218.8190757999982,None,1218.8190757999982,None,1218.8190757999982,None,1218.8190757999982,None,1218.8190757999982,None,1218.8190757999982,None,1223.1581208999996,None,1223.1581208999996,None,0.003276000003097579,0.5032760000030976,1223.1581208999996,None,1223.1581208999996,None,1223.1581208999996,None,1223.1581208999996,None,1223.1581208999996,None,1223.1581208999996,None,-6.600000000000001,2.487,1227.7082537999959,None,2700,,,,,,,,,,,,,f,24,zou jiali,2022_Jan_08_1704,emotion,2021.2.3,58.29166936011094,
108,partial,0,0.8,-50,0.2,blue,-50,0.8,-200,0.2,blue,red,blue,red,blue,72,72,77,355,77,355,"[-9.3, -1.9]","[6.7, -1.9]","[-6.7, 1.9]","[9.3, 1.9]",0,-50,-50,-200,0,79,79,50,,,,,,,,,,,,,,,,,0.013384799982304685,0.5133847999823047,1228.7300545000035,None,1228.7300545000035,None,left,3.5350284000014653,1228.7300545000035,None,1228.7300545000035,None,1228.7300545000035,None,1228.7300545000035,None,1228.7300545000035,None,1232.313000299997,None,1232.313000299997,None,0.0005095999949844554,0.5005095999949845,1232.313000299997,None,1232.313000299997,None,1232.313000299997,None,1232.313000299997,None,1232.313000299997,None,1232.313000299997,None,1236.3133088000031,None,1236.3133088000031,None,0.002495200023986399,0.5024952000239864,1236.3133088000031,None,1236.3133088000031,None,1236.3133088000031,None,1236.3133088000031,None,1236.3133088000031,None,1236.3133088000031,None,-0.7999999999999972,10.885,1249.2788073999982,None,2700,,,,,,,,,,,,,f,24,zou jiali,2022_Jan_08_1704,emotion,2021.2.3,58.29166936011094,
75,partial,200,0.5,0,0.5,blue,200,0.8,50,0.2,blue,red,blue,red,blue,180,72,185,355,77,355,"[-10, 0]","[6.7, -1.9]","[-6, 0]","[9.3, 1.9]",200,200,0,50,0,80,80,98,,,,,,,,,,,,,,,,,0.016691399985575117,0.5166913999855751,1250.3201654000004,None,1250.3201654000004,None,right,2.1531503000005614,1250.3201654000004,None,1250.3201654000004,None,1250.3201654000004,None,1250.3201654000004,None,1250.3201654000004,None,1252.5229984000034,None,1252.5229984000034,None,0.003613199995015748,0.5036131999950157,1252.5229984000034,None,1252.5229984000034,None,1252.5229984000034,None,1252.5229984000034,None,1252.5229984000034,None,1252.5229984000034,None,1256.6306012999994,None,1256.6306012999994,None,0.004200599985779263,0.5042005999857793,1256.6306012999994,None,1256.6306012999994,None,1256.6306012999994,None,1256.6306012999994,None,1256.6306012999994,None,1256.6306012999994,None,5.299999999999997,3.173,1261.878495099998,None,2900,,,,,,,,,,,,,f,24,zou jiali,2022_Jan_08_1704,emotion,2021.2.3,58.29166936011094,
317,partial,0,0.5,-50,0.5,red,-50,0.2,-200,0.8,blue,red,blue,blue,red,180,72,5,175,5,67,"[-10, 0]","[9.3, 1.9]","[-6, 0]","[6.7, -1.9]",-50,-50,0,-200,0,81,81,8,,,,,,,,,,,,,,,,,0.013541400010581128,0.5135414000105811,1262.9100182999973,None,1262.9100182999973,None,left,6.319540399999823,1262.9100182999973,None,1262.9100182999973,None,1262.9100182999973,None,1262.9100182999973,None,1262.9100182999973,None,1269.2777017000044,None,1269.2777017000044,None,0.000667800020892173,0.5006678000208922,1269.2777017000044,None,1269.2777017000044,None,1269.2777017000044,None,1269.2777017000044,None,1269.2777017000044,None,1269.2777017000044,None,1272.9144847999996,None,1272.9144847999996,None,0.003596800015657209,0.5035968000156572,1272.9144847999996,None,1272.9144847999996,None,1272.9144847999996,None,1272.9144847999996,None,1272.9144847999996,None,1272.9144847999996,None,-3.799999999999997,2.748,1277.7490030000044,None,2850,,,,,,,,,,,,,f,24,zou jiali,2022_Jan_08_1704,emotion,2021.2.3,58.29166936011094,
418,partial,0,0.2,-200,0.8,red,-50,0.5,-200,0.5,red,blue,red,red,blue,72,180,77,355,5,175,"[-6.7, 1.9]","[6, 0]","[-9.3, -1.9]","[10, 0]",-200,-200,0,-50,0,82,82,19,,,,,,,,,,,,,,,,,0.013083799989544787,0.5130837999895448,1278.7767593000026,None,1278.7767593000026,None,right,27.25696020000032,1278.7767593000026,None,1278.7767593000026,None,1278.7767593000026,None,1278.7767593000026,None,1278.7767593000026,None,1306.0956101000047,None,1306.0956101000047,None,0.0011679000162985176,0.5011679000162985,1306.0956101000047,None,1306.0956101000047,None,1306.0956101000047,None,1306.0956101000047,None,1306.0956101000047,None,1306.0956101000047,None,1309.9439394999936,None,1309.9439394999936,None,0.004447099985554814,0.5044470999855548,1309.9439394999936,None,1309.9439394999936,None,1309.9439394999936,None,1309.9439394999936,None,1309.9439394999936,None,1309.9439394999936,None,-25.9,3.457,1315.497901900002,None,2650,,,,,,,,,,,,,f,24,zou jiali,2022_Jan_08_1704,emotion,2021.2.3,58.29166936011094,
307,partial,0,0.5,-200,0.5,red,-50,0.5,-200,0.5,blue,red,blue,red,blue,180,180,5,175,185,355,"[-10, 0]","[6, 0]","[-6, 0]","[10, 0]",-200,-50,0,-200,0,83,83,28,,,,,,,,,,,,,,,,,0.013515399987227283,0.5135153999872273,1316.5382750999997,None,1316.5382750999997,None,left,2.1637741000013193,1316.5382750999997,None,1316.5382750999997,None,1316.5382750999997,None,1316.5382750999997,None,1316.5382750999997,None,1318.7614064999943,None,1318.7614064999943,None,0.0013947000115877017,0.5013947000115877,1318.7614064999943,None,1318.7614064999943,None,1318.7614064999943,None,1318.7614064999943,None,1318.7614064999943,None,1318.7614064999943,None,1322.4086334000021,None,1322.4086334000021,None,0.0034401000157231465,0.5034401000157231,1322.4086334000021,None,1322.4086334000021,None,1322.4086334000021,None,1322.4086334000021,None,1322.4086334000021,None,1322.4086334000021,None,-21.7,3.175,1327.6921011999948,None,2450,,,,,,,,,,,,,f,24,zou jiali,2022_Jan_08_1704,emotion,2021.2.3,58.29166936011094,
282,partial,50,0.5,0,0.5,red,200,0.8,50,0.2,blue,red,blue,red,blue,180,72,5,175,77,355,"[-10, 0]","[6.7, -1.9]","[-6, 0]","[9.3, 1.9]",0,200,50,50,0,84,84,100,,,,,,,,,,,,,,,,,0.014950500000850298,0.5149505000008503,1328.7086636000022,None,1328.7086636000022,None,right,1.5434886000002734,1328.7086636000022,None,1328.7086636000022,None,1328.7086636000022,None,1328.7086636000022,None,1328.7086636000022,None,1330.2909943999985,None,1330.2909943999985,None,0.003549400018528104,0.5035494000185281,1330.2909943999985,None,1330.2909943999985,None,1330.2909943999985,None,1330.2909943999985,None,1330.2909943999985,None,1330.2909943999985,None,1334.2863081999967,None,1334.2863081999967,None,0.004850399986025877,0.5048503999860259,1334.2863081999967,None,1334.2863081999967,None,1334.2863081999967,None,1334.2863081999967,None,1334.2863081999967,None,1334.2863081999967,None,7.100000000000001,2.324,1338.6996886999987,None,2650,,,,,,,,,,,,,f,24,zou jiali,2022_Jan_08_1704,emotion,2021.2.3,58.29166936011094,
388,partial,50,0.5,0,0.5,red,200,0.5,50,0.5,red,red,blue,red,blue,180,180,5,175,5,175,"[-10, 0]","[6, 0]","[-6, 0]","[10, 0]",0,50,50,200,0,85,85,79,,,,,,,,,,,,,,,,,0.006638299993937835,0.5066382999939378,1339.7377095999982,None,1339.7377095999982,None,right,1.4523620999971172,1339.7377095999982,None,1339.7377095999982,None,1339.7377095999982,None,1339.7377095999982,None,1339.7377095999982,None,1341.240225200003,None,1341.240225200003,None,0.0015896999975666404,0.5015896999975666,1341.240225200003,None,1341.240225200003,None,1341.240225200003,None,1341.240225200003,None,1341.240225200003,None,1341.240225200003,None,1345.591211299994,None,1345.591211299994,None,0.004854900005739182,0.5048549000057392,1345.591211299994,None,1345.591211299994,None,1345.591211299994,None,1345.591211299994,None,1345.591211299994,None,1345.591211299994,None,7.5,6.722,1354.4087302999978,None,2700,,,,,,,,,,,,,f,24,zou jiali,2022_Jan_08_1704,emotion,2021.2.3,58.29166936011094,
174,partial,50,0.5,0,0.5,blue,200,0.8,50,0.2,red,red,blue,red,blue,180,72,185,355,5,67,"[-10, 0]","[6.7, -1.9]","[-6, 0]","[9.3, 1.9]",50,50,0,200,0,86,86,97,,,,,,,,,,,,,,,,,0.003234899995732121,0.5032348999957321,1355.4547617999924,None,1355.4547617999924,None,right,2.0672082999954,1355.4547617999924,None,1355.4547617999924,None,1355.4547617999924,None,1355.4547617999924,None,1355.4547617999924,None,1357.5630516999954,None,1357.5630516999954,None,0.00203200000396464,0.5020320000039646,1357.5630516999954,None,1357.5630516999954,None,1357.5630516999954,None,1357.5630516999954,None,1357.5630516999954,None,1357.5630516999954,None,1361.2455666000023,None,1361.2455666000023,None,0.004401300015160814,0.5044013000151608,1361.2455666000023,None,1361.2455666000023,None,1361.2455666000023,None,1361.2455666000023,None,1361.2455666000023,None,1361.2455666000023,None,5.200000000000003,4.944,1368.284814700004,None,2750,,,,,,,,,,,,,f,24,zou jiali,2022_Jan_08_1704,emotion,2021.2.3,58.29166936011094,
188,partial,200,0.8,0,0.2,blue,200,0.2,50,0.8,red,red,blue,blue,red,72,72,77,355,77,355,"[-9.3, -1.9]","[9.3, 1.9]","[-6.7, 1.9]","[6.7, -1.9]",200,50,0,200,0,87,87,71,,,,,,,,,,,,,,,,,0.001156499987700954,0.501156499987701,1369.3194836000039,None,1369.3194836000039,None,left,12.236484100008965,1369.3194836000039,None,1369.3194836000039,None,1369.3194836000039,None,1369.3194836000039,None,1369.3194836000039,None,1381.6194649999961,None,1381.6194649999961,None,0.001166899994132109,0.5011668999941321,1381.6194649999961,None,1381.6194649999961,None,1381.6194649999961,None,1381.6194649999961,None,1381.6194649999961,None,1381.6194649999961,None,1385.7279704999964,None,1385.7279704999964,None,0.003308000013930723,0.5033080000139307,1385.7279704999964,None,1385.7279704999964,None,1385.7279704999964,None,1385.7279704999964,None,1385.7279704999964,None,1385.7279704999964,None,26.0,6.754,1394.5793990999955,None,2950,,,,,,,,,,,,,f,24,zou jiali,2022_Jan_08_1704,emotion,2021.2.3,58.29166936011094,
93,partial,0,0.5,-200,0.5,blue,-50,0.8,-200,0.2,blue,red,blue,red,blue,180,72,185,355,77,355,"[-10, 0]","[6.7, -1.9]","[-6, 0]","[9.3, 1.9]",0,-50,-200,-200,0,88,88,46,,,,,,,,,,,,,,,,,0.013588200003141537,0.5135882000031415,1395.6127252000006,None,1395.6127252000006,None,right,2.5274334999994608,1395.6127252000006,None,1395.6127252000006,None,1395.6127252000006,None,1395.6127252000006,None,1395.6127252000006,None,1398.1951189999963,None,1398.1951189999963,None,0.001643700001295656,0.5016437000012957,1398.1951189999963,None,1398.1951189999963,None,1398.1951189999963,None,1398.1951189999963,None,1398.1951189999963,None,1398.1951189999963,None,1402.4041822,None,1402.4041822,None,0.004598200001055375,0.5045982000010554,1402.4041822,None,1402.4041822,None,1402.4041822,None,1402.4041822,None,1402.4041822,None,1402.4041822,None,-1.1000000000000014,3.16,1407.6721792000026,None,2900,,,,,,,,,,,,,f,24,zou jiali,2022_Jan_08_1704,emotion,2021.2.3,58.29166936011094,
209,partial,0,0.5,-50,0.5,blue,-50,0.2,-200,0.8,red,red,blue,blue,red,180,72,185,355,77,355,"[-10, 0]","[9.3, 1.9]","[-6, 0]","[6.7, -1.9]",0,-200,-50,-50,0,89,89,11,,,,,,,,,,,,,,,,,0.013633400012622587,0.5136334000126226,1408.6965615999943,None,1408.6965615999943,None,left,3.7382010000001173,1408.6965615999943,None,1408.6965615999943,None,1408.6965615999943,None,1408.6965615999943,None,1408.6965615999943,None,1412.5015901000006,None,1412.5015901000006,None,0.0010924999951384962,0.5010924999951385,1412.5015901000006,None,1412.5015901000006,None,1412.5015901000006,None,1412.5015901000006,None,1412.5015901000006,None,1412.5015901000006,None,1416.1009414,None,1416.1009414,None,0.008886299998266622,0.5088862999982666,1416.1009414,None,1416.1009414,None,1416.1009414,None,1416.1009414,None,1416.1009414,None,1416.1009414,None,2.3999999999999986,2.817,1421.0099002999923,None,2900,,,,,,,,,,,,,f,24,zou jiali,2022_Jan_08_1704,emotion,2021.2.3,58.29166936011094,
314,partial,0,0.8,-200,0.2,red,-50,0.2,-200,0.8,blue,red,blue,blue,red,72,72,5,67,5,67,"[-9.3, -1.9]","[9.3, 1.9]","[-6.7, 1.9]","[6.7, -1.9]",-200,-50,0,-200,0,90,90,16,,,,,,,,,,,,,,,,,0.004935699995257892,0.5049356999952579,1422.0623198999965,None,1422.0623198999965,None,left,2.6216235000028973,1422.0623198999965,None,1422.0623198999965,None,1422.0623198999965,None,1422.0623198999965,None,1422.0623198999965,None,1424.748118100004,None,1424.748118100004,None,0.003739300023880787,0.5037393000238808,1424.748118100004,None,1424.748118100004,None,1424.748118100004,None,1424.748118100004,None,1424.748118100004,None,1424.748118100004,None,1428.6018396,None,1428.6018396,None,0.0027188000094611198,0.5027188000094611,1428.6018396,None,1428.6018396,None,1428.6018396,None,1428.6018396,None,1428.6018396,None,1428.6018396,None,-2.700000000000003,2.4,1433.0672253999946,None,2700,,,,,,,,,,,,,f,24,zou jiali,2022_Jan_08_1704,emotion,2021.2.3,58.29166936011094,
428,partial,0,0.2,-50,0.8,red,-50,0.2,-200,0.8,red,blue,red,blue,red,72,72,77,355,77,355,"[-6.7, 1.9]","[9.3, 1.9]","[-9.3, -1.9]","[6.7, -1.9]",-50,-200,0,-50,0,91,91,5,,,,,,,,,,,,,,,,,0.01367519999621436,0.5136751999962144,1434.087634399999,None,1434.087634399999,None,left,6.575528400004259,1434.087634399999,None,1434.087634399999,None,1434.087634399999,None,1434.087634399999,None,1434.087634399999,None,1440.7076772,None,1440.7076772,None,0.0013670000043930486,0.501367000004393,1440.7076772,None,1440.7076772,None,1440.7076772,None,1440.7076772,None,1440.7076772,None,1440.7076772,None,1444.4958647000021,None,1444.4958647000021,None,0.004632700001820922,0.5046327000018209,1444.4958647000021,None,1444.4958647000021,None,1444.4958647000021,None,1444.4958647000021,None,1444.4958647000021,None,1444.4958647000021,None,-2.3999999999999986,2.099,1448.6834313,None,2650,,,,,,,,,,,,,f,24,zou jiali,2022_Jan_08_1704,emotion,2021.2.3,58.29166936011094,
71,partial,50,0.8,0,0.2,blue,200,0.2,50,0.8,blue,red,blue,blue,red,72,72,77,355,5,67,"[-9.3, -1.9]","[9.3, 1.9]","[-6.7, 1.9]","[6.7, -1.9]",50,200,0,50,0,92,92,70,,,,,,,,,,,,,,,,,0.014904099982231855,0.5149040999822319,1449.7193063000013,None,1449.7193063000013,None,right,1.3835228999960236,1449.7193063000013,None,1449.7193063000013,None,1449.7193063000013,None,1449.7193063000013,None,1449.7193063000013,None,1451.1603797999996,None,1451.1603797999996,None,0.0017881000094348565,0.5017881000094349,1451.1603797999996,None,1451.1603797999996,None,1451.1603797999996,None,1451.1603797999996,None,1451.1603797999996,None,1451.1603797999996,None,1455.2151497000013,None,1455.2151497000013,None,0.004561000008834526,0.5045610000088345,1455.2151497000013,None,1455.2151497000013,None,1455.2151497000013,None,1455.2151497000013,None,1455.2151497000013,None,1455.2151497000013,None,5.200000000000003,2.567,1459.8702211000054,None,2850,,,,,,,,,,,,,f,24,zou jiali,2022_Jan_08_1704,emotion,2021.2.3,58.29166936011094,
207,partial,0,0.8,-200,0.2,blue,-50,0.8,-200,0.2,red,red,blue,red,blue,72,72,77,355,5,67,"[-9.3, -1.9]","[6.7, -1.9]","[-6.7, 1.9]","[9.3, 1.9]",0,-200,-200,-50,0,93,93,49,,,,,,,,,,,,,,,,,0.013939200012828223,0.5139392000128282,1460.8930790000013,None,1460.8930790000013,None,left,3.0546475000010105,1460.8930790000013,None,1460.8930790000013,None,1460.8930790000013,None,1460.8930790000013,None,1460.8930790000013,None,1463.9907026,None,1463.9907026,None,0.0035336999862920493,0.503533699986292,1463.9907026,None,1463.9907026,None,1463.9907026,None,1463.9907026,None,1463.9907026,None,1463.9907026,None,1467.9042531000014,None,1467.9042531000014,None,0.005507699999725446,0.5055076999997254,1467.9042531000014,None,1467.9042531000014,None,1467.9042531000014,None,1467.9042531000014,None,1467.9042531000014,None,1467.9042531000014,None,8.899999999999999,5.661,1475.6484270999936,None,2850,,,,,,,,,,,,,f,24,zou jiali,2022_Jan_08_1704,emotion,2021.2.3,58.29166936011094,
380,partial,50,0.5,0,0.5,red,200,0.8,0,0.2,red,red,blue,red,blue,180,72,5,175,5,67,"[-10, 0]","[6.7, -1.9]","[-6, 0]","[9.3, 1.9]",0,0,50,200,0,94,94,99,,,,,,,,,,,,,,,,,9.57999873207882e-05,0.5000957999873208,1476.6780778999964,None,1476.6780778999964,None,right,1.8248752000072272,1476.6780778999964,None,1476.6780778999964,None,1476.6780778999964,None,1476.6780778999964,None,1476.6780778999964,None,1478.5595496000024,None,1478.5595496000024,None,0.014765300002181903,0.5147653000021819,1478.5595496000024,None,1478.5595496000024,None,1478.5595496000024,None,1478.5595496000024,None,1478.5595496000024,None,1478.5595496000024,None,1482.4803889000032,None,1482.4803889000032,None,0.0034336000098846853,0.5034336000098847,1482.4803889000032,None,1482.4803889000032,None,1482.4803889000032,None,1482.4803889000032,None,1482.4803889000032,None,1482.4803889000032,None,-8.5,4.414,1488.9588746999943,None,2850,,,,,,,,,,,,,f,24,zou jiali,2022_Jan_08_1704,emotion,2021.2.3,58.29166936011094,
166,partial,50,0.2,0,0.8,blue,200,0.2,0,0.8,red,blue,red,blue,red,72,72,5,67,77,355,"[-6.7, 1.9]","[9.3, 1.9]","[-9.3, -1.9]","[6.7, -1.9]",50,0,0,200,0,95,95,57,,,,,,,,,,,,,,,,,0.0021808999881614,0.5021808999881614,1489.9968081999978,None,1489.9968081999978,None,right,1.4370686000038404,1489.9968081999978,None,1489.9968081999978,None,1489.9968081999978,None,1489.9968081999978,None,1489.9968081999978,None,1491.496939699995,None,1491.496939699995,None,0.003709100012201816,0.5037091000122018,1491.496939699995,None,1491.496939699995,None,1491.496939699995,None,1491.496939699995,None,1491.496939699995,None,1491.496939699995,None,1495.5334361999994,None,1495.5334361999994,None,0.0036321000079624355,0.5036321000079624,1495.5334361999994,None,1495.5334361999994,None,1495.5334361999994,None,1495.5334361999994,None,1495.5334361999994,None,1495.5334361999994,None,-8.5,2.313,1499.8917505999998,None,2850,,,,,,,,,,,,,f,24,zou jiali,2022_Jan_08_1704,emotion,2021.2.3,58.29166936011094,
315,partial,0,0.8,-200,0.2,red,-50,0.8,-200,0.2,blue,red,blue,red,blue,72,72,5,67,77,355,"[-9.3, -1.9]","[6.7, -1.9]","[-6.7, 1.9]","[9.3, 1.9]",-200,-50,0,-200,0,96,96,52,,,,,,,,,,,,,,,,,0.006158099989988841,0.5061580999899888,1500.9413394000003,None,1500.9413394000003,None,left,1.8676282000087667,1500.9413394000003,None,1500.9413394000003,None,1500.9413394000003,None,1500.9413394000003,None,1500.9413394000003,None,1502.8569852999935,None,1502.8569852999935,None,0.0030906000174582005,0.5030906000174582,1502.8569852999935,None,1502.8569852999935,None,1502.8569852999935,None,1502.8569852999935,None,1502.8569852999935,None,1502.8569852999935,None,1506.8653554000048,None,1506.8653554000048,None,0.004473299995879643,0.5044732999958796,1506.8653554000048,None,1506.8653554000048,None,1506.8653554000048,None,1506.8653554000048,None,1506.8653554000048,None,1506.8653554000048,None,-14.100000000000001,3.735,1512.665995400006,None,2650,,,,,,,,,,,,,f,24,zou jiali,2022_Jan_08_1704,emotion,2021.2.3,58.29166936011094,
289,partial,200,0.5,0,0.5,red,200,0.5,50,0.5,blue,red,blue,red,blue,180,180,5,175,185,355,"[-10, 0]","[6, 0]","[-6, 0]","[10, 0]",0,200,200,50,0,97,97,80,,,,,,,,,,,,,,,,,0.008123299994622357,0.5081232999946224,1513.6969064000004,None,1513.6969064000004,None,right,1.6994123000040418,1513.6969064000004,None,1513.6969064000004,None,1513.6969064000004,None,1513.6969064000004,None,1513.6969064000004,None,1515.4416255999968,None,1515.4416255999968,None,0.0038100000092526898,0.5038100000092527,1515.4416255999968,None,1515.4416255999968,None,1515.4416255999968,None,1515.4416255999968,None,1515.4416255999968,None,1515.4416255999968,None,1519.1922803000052,None,1519.1922803000052,None,0.003596299997298047,0.503596299997298,1519.1922803000052,None,1519.1922803000052,None,1519.1922803000052,None,1519.1922803000052,None,1519.1922803000052,None,1519.1922803000052,None,10.600000000000001,4.727,1526.0073981000023,None,2850,,,,,,,,,,,,,f,24,zou jiali,2022_Jan_08_1704,emotion,2021.2.3,58.29166936011094,
